"trial_type","trial_index","time_elapsed","internal_node_id","subject_id","task","startTime","totalTime","labels","view_history","rt","event","trial","time","trialtype","success","stimulus","key_press","ltround","name","fileID","outcome","lottotype","lottoswpt","lottocurrpshare","point_total","round","faceID","face"
"pavlovia","0","2","0.0-0.0","631381096e95278a3f97fed4","bdp_rwlrn","Wed Mar 15 2023 13:29:14 GMT-0500 (Central Daylight Time)","676432","Trustworthy,Untrustworthy","","","","","","","","","","","","","","","","","","","",""
"instructions","1","16452","0.0-1.0","631381096e95278a3f97fed4","bdp_rwlrn","Wed Mar 15 2023 13:29:14 GMT-0500 (Central Daylight Time)","676432","Trustworthy,Untrustworthy","[{""page_index"":0,""viewing_time"":16449}]","16450","","","","","","","","","","","","","","","","","",""
"","","","","631381096e95278a3f97fed4","bdp_rwlrn","Wed Mar 15 2023 13:29:14 GMT-0500 (Central Daylight Time)","676432","Trustworthy,Untrustworthy","","","fullscreenenter","2","22088","fullscreenenter","","","","","","","","","","","","","",""
"fullscreen","2","23087","0.0-2.0","631381096e95278a3f97fed4","bdp_rwlrn","Wed Mar 15 2023 13:29:14 GMT-0500 (Central Daylight Time)","676432","Trustworthy,Untrustworthy","","","","","","","true","","","","","","","","","","","","",""
"instructions","3","250439","0.0-4.0","631381096e95278a3f97fed4","bdp_rwlrn","Wed Mar 15 2023 13:29:14 GMT-0500 (Central Daylight Time)","676432","Trustworthy,Untrustworthy","[{""page_index"":0,""viewing_time"":23611},{""page_index"":1,""viewing_time"":42098},{""page_index"":2,""viewing_time"":61885},{""page_index"":3,""viewing_time"":22072},{""page_index"":4,""viewing_time"":37904},{""page_index"":5,""viewing_time"":20722},{""page_index"":4,""viewing_time"":9480},{""page_index"":5,""viewing_time"":9578}]","227351","","","","","","","","","","","","","","","","","",""
"html-keyboard-response","4","258905","0.0-5.0","631381096e95278a3f97fed4","bdp_rwlrn","Wed Mar 15 2023 13:29:14 GMT-0500 (Central Daylight Time)","676432","Trustworthy,Untrustworthy","","8465","","","","","","<div class='header' style='text-align:left; position: absolute; top: 5%; left: 5%;'><small>Task 1 of 5</small></div><div class='instruxDiv'><p><strong>1) What is the maximum number of points you can choose to bet on a lottery?</strong></p><p>a) 0</p><p>b) 1</p><p>c) 5</p>","C","","","","","","","","","","",""
"html-keyboard-response","5","265205","0.0-6.0","631381096e95278a3f97fed4","bdp_rwlrn","Wed Mar 15 2023 13:29:14 GMT-0500 (Central Daylight Time)","676432","Trustworthy,Untrustworthy","","6189","","","","","","<div class='header' style='text-align:left; position: absolute; top: 5%; left: 5%;'><small>Task 1 of 5</small></div><div class='instruxDiv'><p><strong>1) What is the maximum number of points you can choose to bet on a lottery?</strong></p><p>a) 1</p><p>b) 1</p><p style='color:#00FF00'>c) 5</p><h3 style='color:#00FF00'>Correct!</h3><h3 class='center-content'>The correct response is c).</h3><h3 class='center-content'>The maximum number of points you can choose to bet on a lottery is 5 points.</h3><p><em>Press SPACEBAR to continue</em></p></div>"," ","","","","","","","","","","",""
"html-keyboard-response","6","271063","0.0-7.0","631381096e95278a3f97fed4","bdp_rwlrn","Wed Mar 15 2023 13:29:14 GMT-0500 (Central Daylight Time)","676432","Trustworthy,Untrustworthy","","5746","","","","","","<div class='header' style='text-align:left; position: absolute; top: 5%; left: 5%;'><small>Task 1 of 5</small></div><div class='instruxDiv'><p><strong>2) How many points can you win each round?</strong></p><p>a) 10 points</p><p>b) Double what you bet</p><p>c) Quadruple what you bet</p>","B","","","","","","","","","","",""
"html-keyboard-response","7","273867","0.0-8.0","631381096e95278a3f97fed4","bdp_rwlrn","Wed Mar 15 2023 13:29:14 GMT-0500 (Central Daylight Time)","676432","Trustworthy,Untrustworthy","","2701","","","","","","<div class='header' style='text-align:left; position: absolute; top: 5%; left: 5%;'><small>Task 1 of 5</small></div><div class='instruxDiv'><p><strong>2) How many points can you win each round?</strong></p><p>a) 10 points</p><p style='color:#00FF00'>b) Double what you bet</p><p>c) Quadruple what you bet</p><h3 style='color:#00FF00'>Correct!</h3><h3 class='center-content'>The correct response is b).</h3><h3 class='center-content'>You can win double the amount of points you bet.</h3><p><em>Press SPACEBAR to continue</em></p></div>"," ","","","","","","","","","","",""
"html-keyboard-response","8","278993","0.0-9.0","631381096e95278a3f97fed4","bdp_rwlrn","Wed Mar 15 2023 13:29:14 GMT-0500 (Central Daylight Time)","676432","Trustworthy,Untrustworthy","","null","","","","","","<div class='header' style='text-align:left; position: absolute; top: 5%; left: 5%;'><small>Task 1 of 5</small></div><div class='instruxDiv'><p>Thank you for completing the quiz<p>These are the actual lotteries you will be playing in the next block:<p><div class='tc' align='center'><img class='introPic' src='Fruit/mango.png'><br><strong>Mega Mangos</strong></div><div class='bl' align='center'><img class='introPic' src='Fruit/pears.png'><br><strong>Pears Aplenty</strong></div><div class='br' align='center'><img class='introPic' src='Fruit/watermelon.png'><br><strong>Watermelon Win$</strong></div></div><p>Across <strong>66 rounds</strong> you will play each lottery <strong>22 times</strong> (in random order).<p style='align:center; color:white'><font <em>Press SPACEBAR to continue</em></p>","null","","","","","","","","","","",""
"instructions","9","331289","0.0-10.0","631381096e95278a3f97fed4","bdp_rwlrn","Wed Mar 15 2023 13:29:14 GMT-0500 (Central Daylight Time)","676432","Trustworthy,Untrustworthy","[{""page_index"":0,""viewing_time"":21715},{""page_index"":1,""viewing_time"":30581}]","52296","","","","","","","","","","","","","","","","","",""
"html-keyboard-response","10","333773","0.0-11.0-1.0","631381096e95278a3f97fed4","bdp_rwlrn","Wed Mar 15 2023 13:29:14 GMT-0500 (Central Daylight Time)","676432","Trustworthy,Untrustworthy","","2380","","","","decision","","<div class='trialDiv'><img src='Fruit/pears.png'><br><font class='baseline'><strong>Pears Aplenty</strong><p>Choose number of points to bet.</font><div class='respPicDiv'><img src='img/responseButtonOffersNo0L.png' class='respPic'></div></div>","3","1","Pears Aplenty","Fruit/pears.png","Lost","0.2,0.8","12","0.2","5","1","",""
"html-keyboard-response","11","334034","0.0-11.0-2.0","631381096e95278a3f97fed4","bdp_rwlrn","Wed Mar 15 2023 13:29:14 GMT-0500 (Central Daylight Time)","676432","Trustworthy,Untrustworthy","","null","","","","decisionFB","","<div class='trialDiv'><img src='Fruit/pears.png'><br><font class='baseline'><strong>Pears Aplenty</strong><p>Choose number of points to bet.</font><div class='respPicDiv'><img src='img/responseButtonOffersNo0L3.png' class='respPic'></div></div>","null","1","Pears Aplenty","Fruit/pears.png","Lost","0.2,0.8","12","0.2","2","1","",""
"html-keyboard-response","12","335039","0.0-11.0-3.0","631381096e95278a3f97fed4","bdp_rwlrn","Wed Mar 15 2023 13:29:14 GMT-0500 (Central Daylight Time)","676432","Trustworthy,Untrustworthy","","null","","","","feedback","","<div class='respPicDiv'><img src='img/responseButtonOffersNo0_wht.png' class='respPic'></div><div class='trialDiv'><img src='Fruit/pears.png'><br><font class='baseline'><strong>Pears Aplenty</strong><p><strong><font class='negOutcome'>You LOST</font><p>You bet: 3</strong></font> &nbsp; &nbsp; &nbsp; &nbsp; &nbsp; &nbsp;<font class='negOutcome'>You receive: <strong>0</strong></font></div>","null","1","Pears Aplenty","Fruit/pears.png","Lost","0.2,0.8","12","0.2","2","1","",""
"html-keyboard-response","13","336504","0.0-11.0-1.1","631381096e95278a3f97fed4","bdp_rwlrn","Wed Mar 15 2023 13:29:14 GMT-0500 (Central Daylight Time)","676432","Trustworthy,Untrustworthy","","1464","","","","decision","","<div class='trialDiv'><img src='Fruit/watermelon.png'><br><font class='baseline'><strong>Watermelon Win$</strong><p>Choose number of points to bet.</font><div class='respPicDiv'><img src='img/responseButtonOffersNo0L.png' class='respPic'></div></div>","5","1","Watermelon Win$","Fruit/watermelon.png","Won","0.65,0.2","13","0.65","7","2","",""
"html-keyboard-response","14","336767","0.0-11.0-2.1","631381096e95278a3f97fed4","bdp_rwlrn","Wed Mar 15 2023 13:29:14 GMT-0500 (Central Daylight Time)","676432","Trustworthy,Untrustworthy","","null","","","","decisionFB","","<div class='trialDiv'><img src='Fruit/watermelon.png'><br><font class='baseline'><strong>Watermelon Win$</strong><p>Choose number of points to bet.</font><div class='respPicDiv'><img src='img/responseButtonOffersNo0L5.png' class='respPic'></div></div>","null","1","Watermelon Win$","Fruit/watermelon.png","Won","0.65,0.2","13","0.65","2","2","",""
"html-keyboard-response","15","337771","0.0-11.0-3.1","631381096e95278a3f97fed4","bdp_rwlrn","Wed Mar 15 2023 13:29:14 GMT-0500 (Central Daylight Time)","676432","Trustworthy,Untrustworthy","","null","","","","feedback","","<div class='respPicDiv'><img src='img/responseButtonOffersNo0_wht.png' class='respPic'></div><div class='trialDiv'><img src='Fruit/watermelon.png'><br><font class='baseline'><strong>Watermelon Win$</strong><p><strong><font class='posOutcome'>You WON</font><p>You bet: 5</strong></font> &nbsp; &nbsp; &nbsp; &nbsp; &nbsp; &nbsp;<font class='posOutcome'>you receive: <strong>10</strong></font></div>","null","1","Watermelon Win$","Fruit/watermelon.png","Won","0.65,0.2","13","0.65","12","2","",""
"html-keyboard-response","16","339444","0.0-11.0-1.2","631381096e95278a3f97fed4","bdp_rwlrn","Wed Mar 15 2023 13:29:14 GMT-0500 (Central Daylight Time)","676432","Trustworthy,Untrustworthy","","1672","","","","decision","","<div class='trialDiv'><img src='Fruit/mango.png'><br><font class='baseline'><strong>Mega Mangos</strong><p>Choose number of points to bet.</font><div class='respPicDiv'><img src='img/responseButtonOffersNo0L.png' class='respPic'></div></div>","2","1","Mega Mangos","Fruit/mango.png","Lost","0.2,0.65","11","0.2","17","3","",""
"html-keyboard-response","17","339700","0.0-11.0-2.2","631381096e95278a3f97fed4","bdp_rwlrn","Wed Mar 15 2023 13:29:14 GMT-0500 (Central Daylight Time)","676432","Trustworthy,Untrustworthy","","null","","","","decisionFB","","<div class='trialDiv'><img src='Fruit/mango.png'><br><font class='baseline'><strong>Mega Mangos</strong><p>Choose number of points to bet.</font><div class='respPicDiv'><img src='img/responseButtonOffersNo0L2.png' class='respPic'></div></div>","null","1","Mega Mangos","Fruit/mango.png","Lost","0.2,0.65","11","0.2","15","3","",""
"html-keyboard-response","18","340705","0.0-11.0-3.2","631381096e95278a3f97fed4","bdp_rwlrn","Wed Mar 15 2023 13:29:14 GMT-0500 (Central Daylight Time)","676432","Trustworthy,Untrustworthy","","null","","","","feedback","","<div class='respPicDiv'><img src='img/responseButtonOffersNo0_wht.png' class='respPic'></div><div class='trialDiv'><img src='Fruit/mango.png'><br><font class='baseline'><strong>Mega Mangos</strong><p><strong><font class='negOutcome'>You LOST</font><p>You bet: 2</strong></font> &nbsp; &nbsp; &nbsp; &nbsp; &nbsp; &nbsp;<font class='negOutcome'>You receive: <strong>0</strong></font></div>","null","1","Mega Mangos","Fruit/mango.png","Lost","0.2,0.65","11","0.2","15","3","",""
"html-keyboard-response","19","341614","0.0-11.0-1.3","631381096e95278a3f97fed4","bdp_rwlrn","Wed Mar 15 2023 13:29:14 GMT-0500 (Central Daylight Time)","676432","Trustworthy,Untrustworthy","","908","","","","decision","","<div class='trialDiv'><img src='Fruit/watermelon.png'><br><font class='baseline'><strong>Watermelon Win$</strong><p>Choose number of points to bet.</font><div class='respPicDiv'><img src='img/responseButtonOffersNo0L.png' class='respPic'></div></div>","5","2","Watermelon Win$","Fruit/watermelon.png","Lost","0.65,0.2","13","0.65","20","4","",""
"html-keyboard-response","20","341867","0.0-11.0-2.3","631381096e95278a3f97fed4","bdp_rwlrn","Wed Mar 15 2023 13:29:14 GMT-0500 (Central Daylight Time)","676432","Trustworthy,Untrustworthy","","null","","","","decisionFB","","<div class='trialDiv'><img src='Fruit/watermelon.png'><br><font class='baseline'><strong>Watermelon Win$</strong><p>Choose number of points to bet.</font><div class='respPicDiv'><img src='img/responseButtonOffersNo0L5.png' class='respPic'></div></div>","null","2","Watermelon Win$","Fruit/watermelon.png","Lost","0.65,0.2","13","0.65","15","4","",""
"html-keyboard-response","21","342873","0.0-11.0-3.3","631381096e95278a3f97fed4","bdp_rwlrn","Wed Mar 15 2023 13:29:14 GMT-0500 (Central Daylight Time)","676432","Trustworthy,Untrustworthy","","null","","","","feedback","","<div class='respPicDiv'><img src='img/responseButtonOffersNo0_wht.png' class='respPic'></div><div class='trialDiv'><img src='Fruit/watermelon.png'><br><font class='baseline'><strong>Watermelon Win$</strong><p><strong><font class='negOutcome'>You LOST</font><p>You bet: 5</strong></font> &nbsp; &nbsp; &nbsp; &nbsp; &nbsp; &nbsp;<font class='negOutcome'>You receive: <strong>0</strong></font></div>","null","2","Watermelon Win$","Fruit/watermelon.png","Lost","0.65,0.2","13","0.65","15","4","",""
"html-keyboard-response","22","343989","0.0-11.0-1.4","631381096e95278a3f97fed4","bdp_rwlrn","Wed Mar 15 2023 13:29:14 GMT-0500 (Central Daylight Time)","676432","Trustworthy,Untrustworthy","","1115","","","","decision","","<div class='trialDiv'><img src='Fruit/pears.png'><br><font class='baseline'><strong>Pears Aplenty</strong><p>Choose number of points to bet.</font><div class='respPicDiv'><img src='img/responseButtonOffersNo0L.png' class='respPic'></div></div>","4","2","Pears Aplenty","Fruit/pears.png","Lost","0.2,0.8","12","0.2","20","5","",""
"html-keyboard-response","23","344251","0.0-11.0-2.4","631381096e95278a3f97fed4","bdp_rwlrn","Wed Mar 15 2023 13:29:14 GMT-0500 (Central Daylight Time)","676432","Trustworthy,Untrustworthy","","null","","","","decisionFB","","<div class='trialDiv'><img src='Fruit/pears.png'><br><font class='baseline'><strong>Pears Aplenty</strong><p>Choose number of points to bet.</font><div class='respPicDiv'><img src='img/responseButtonOffersNo0L4.png' class='respPic'></div></div>","null","2","Pears Aplenty","Fruit/pears.png","Lost","0.2,0.8","12","0.2","16","5","",""
"html-keyboard-response","24","345256","0.0-11.0-3.4","631381096e95278a3f97fed4","bdp_rwlrn","Wed Mar 15 2023 13:29:14 GMT-0500 (Central Daylight Time)","676432","Trustworthy,Untrustworthy","","null","","","","feedback","","<div class='respPicDiv'><img src='img/responseButtonOffersNo0_wht.png' class='respPic'></div><div class='trialDiv'><img src='Fruit/pears.png'><br><font class='baseline'><strong>Pears Aplenty</strong><p><strong><font class='negOutcome'>You LOST</font><p>You bet: 4</strong></font> &nbsp; &nbsp; &nbsp; &nbsp; &nbsp; &nbsp;<font class='negOutcome'>You receive: <strong>0</strong></font></div>","null","2","Pears Aplenty","Fruit/pears.png","Lost","0.2,0.8","12","0.2","16","5","",""
"html-keyboard-response","25","346261","0.0-11.0-1.5","631381096e95278a3f97fed4","bdp_rwlrn","Wed Mar 15 2023 13:29:14 GMT-0500 (Central Daylight Time)","676432","Trustworthy,Untrustworthy","","1005","","","","decision","","<div class='trialDiv'><img src='Fruit/mango.png'><br><font class='baseline'><strong>Mega Mangos</strong><p>Choose number of points to bet.</font><div class='respPicDiv'><img src='img/responseButtonOffersNo0L.png' class='respPic'></div></div>","2","2","Mega Mangos","Fruit/mango.png","Lost","0.2,0.65","11","0.2","21","6","",""
"html-keyboard-response","26","346518","0.0-11.0-2.5","631381096e95278a3f97fed4","bdp_rwlrn","Wed Mar 15 2023 13:29:14 GMT-0500 (Central Daylight Time)","676432","Trustworthy,Untrustworthy","","null","","","","decisionFB","","<div class='trialDiv'><img src='Fruit/mango.png'><br><font class='baseline'><strong>Mega Mangos</strong><p>Choose number of points to bet.</font><div class='respPicDiv'><img src='img/responseButtonOffersNo0L2.png' class='respPic'></div></div>","null","2","Mega Mangos","Fruit/mango.png","Lost","0.2,0.65","11","0.2","19","6","",""
"html-keyboard-response","27","347522","0.0-11.0-3.5","631381096e95278a3f97fed4","bdp_rwlrn","Wed Mar 15 2023 13:29:14 GMT-0500 (Central Daylight Time)","676432","Trustworthy,Untrustworthy","","null","","","","feedback","","<div class='respPicDiv'><img src='img/responseButtonOffersNo0_wht.png' class='respPic'></div><div class='trialDiv'><img src='Fruit/mango.png'><br><font class='baseline'><strong>Mega Mangos</strong><p><strong><font class='negOutcome'>You LOST</font><p>You bet: 2</strong></font> &nbsp; &nbsp; &nbsp; &nbsp; &nbsp; &nbsp;<font class='negOutcome'>You receive: <strong>0</strong></font></div>","null","2","Mega Mangos","Fruit/mango.png","Lost","0.2,0.65","11","0.2","19","6","",""
"html-keyboard-response","28","348402","0.0-11.0-1.6","631381096e95278a3f97fed4","bdp_rwlrn","Wed Mar 15 2023 13:29:14 GMT-0500 (Central Daylight Time)","676432","Trustworthy,Untrustworthy","","879","","","","decision","","<div class='trialDiv'><img src='Fruit/watermelon.png'><br><font class='baseline'><strong>Watermelon Win$</strong><p>Choose number of points to bet.</font><div class='respPicDiv'><img src='img/responseButtonOffersNo0L.png' class='respPic'></div></div>","5","3","Watermelon Win$","Fruit/watermelon.png","Won","0.65,0.2","13","0.65","24","7","",""
"html-keyboard-response","29","348665","0.0-11.0-2.6","631381096e95278a3f97fed4","bdp_rwlrn","Wed Mar 15 2023 13:29:14 GMT-0500 (Central Daylight Time)","676432","Trustworthy,Untrustworthy","","null","","","","decisionFB","","<div class='trialDiv'><img src='Fruit/watermelon.png'><br><font class='baseline'><strong>Watermelon Win$</strong><p>Choose number of points to bet.</font><div class='respPicDiv'><img src='img/responseButtonOffersNo0L5.png' class='respPic'></div></div>","null","3","Watermelon Win$","Fruit/watermelon.png","Won","0.65,0.2","13","0.65","19","7","",""
"html-keyboard-response","30","349673","0.0-11.0-3.6","631381096e95278a3f97fed4","bdp_rwlrn","Wed Mar 15 2023 13:29:14 GMT-0500 (Central Daylight Time)","676432","Trustworthy,Untrustworthy","","null","","","","feedback","","<div class='respPicDiv'><img src='img/responseButtonOffersNo0_wht.png' class='respPic'></div><div class='trialDiv'><img src='Fruit/watermelon.png'><br><font class='baseline'><strong>Watermelon Win$</strong><p><strong><font class='posOutcome'>You WON</font><p>You bet: 5</strong></font> &nbsp; &nbsp; &nbsp; &nbsp; &nbsp; &nbsp;<font class='posOutcome'>you receive: <strong>10</strong></font></div>","null","3","Watermelon Win$","Fruit/watermelon.png","Won","0.65,0.2","13","0.65","29","7","",""
"html-keyboard-response","31","350690","0.0-11.0-1.7","631381096e95278a3f97fed4","bdp_rwlrn","Wed Mar 15 2023 13:29:14 GMT-0500 (Central Daylight Time)","676432","Trustworthy,Untrustworthy","","1017","","","","decision","","<div class='trialDiv'><img src='Fruit/pears.png'><br><font class='baseline'><strong>Pears Aplenty</strong><p>Choose number of points to bet.</font><div class='respPicDiv'><img src='img/responseButtonOffersNo0L.png' class='respPic'></div></div>","1","3","Pears Aplenty","Fruit/pears.png","Won","0.2,0.8","12","0.2","34","8","",""
"html-keyboard-response","32","350951","0.0-11.0-2.7","631381096e95278a3f97fed4","bdp_rwlrn","Wed Mar 15 2023 13:29:14 GMT-0500 (Central Daylight Time)","676432","Trustworthy,Untrustworthy","","null","","","","decisionFB","","<div class='trialDiv'><img src='Fruit/pears.png'><br><font class='baseline'><strong>Pears Aplenty</strong><p>Choose number of points to bet.</font><div class='respPicDiv'><img src='img/responseButtonOffersNo0L1.png' class='respPic'></div></div>","null","3","Pears Aplenty","Fruit/pears.png","Won","0.2,0.8","12","0.2","33","8","",""
"html-keyboard-response","33","351954","0.0-11.0-3.7","631381096e95278a3f97fed4","bdp_rwlrn","Wed Mar 15 2023 13:29:14 GMT-0500 (Central Daylight Time)","676432","Trustworthy,Untrustworthy","","null","","","","feedback","","<div class='respPicDiv'><img src='img/responseButtonOffersNo0_wht.png' class='respPic'></div><div class='trialDiv'><img src='Fruit/pears.png'><br><font class='baseline'><strong>Pears Aplenty</strong><p><strong><font class='posOutcome'>You WON</font><p>You bet: 1</strong></font> &nbsp; &nbsp; &nbsp; &nbsp; &nbsp; &nbsp;<font class='posOutcome'>you receive: <strong>2</strong></font></div>","null","3","Pears Aplenty","Fruit/pears.png","Won","0.2,0.8","12","0.2","35","8","",""
"html-keyboard-response","34","353057","0.0-11.0-1.8","631381096e95278a3f97fed4","bdp_rwlrn","Wed Mar 15 2023 13:29:14 GMT-0500 (Central Daylight Time)","676432","Trustworthy,Untrustworthy","","1102","","","","decision","","<div class='trialDiv'><img src='Fruit/mango.png'><br><font class='baseline'><strong>Mega Mangos</strong><p>Choose number of points to bet.</font><div class='respPicDiv'><img src='img/responseButtonOffersNo0L.png' class='respPic'></div></div>","3","3","Mega Mangos","Fruit/mango.png","Lost","0.2,0.65","11","0.2","40","9","",""
"html-keyboard-response","35","353316","0.0-11.0-2.8","631381096e95278a3f97fed4","bdp_rwlrn","Wed Mar 15 2023 13:29:14 GMT-0500 (Central Daylight Time)","676432","Trustworthy,Untrustworthy","","null","","","","decisionFB","","<div class='trialDiv'><img src='Fruit/mango.png'><br><font class='baseline'><strong>Mega Mangos</strong><p>Choose number of points to bet.</font><div class='respPicDiv'><img src='img/responseButtonOffersNo0L3.png' class='respPic'></div></div>","null","3","Mega Mangos","Fruit/mango.png","Lost","0.2,0.65","11","0.2","37","9","",""
"html-keyboard-response","36","354322","0.0-11.0-3.8","631381096e95278a3f97fed4","bdp_rwlrn","Wed Mar 15 2023 13:29:14 GMT-0500 (Central Daylight Time)","676432","Trustworthy,Untrustworthy","","null","","","","feedback","","<div class='respPicDiv'><img src='img/responseButtonOffersNo0_wht.png' class='respPic'></div><div class='trialDiv'><img src='Fruit/mango.png'><br><font class='baseline'><strong>Mega Mangos</strong><p><strong><font class='negOutcome'>You LOST</font><p>You bet: 3</strong></font> &nbsp; &nbsp; &nbsp; &nbsp; &nbsp; &nbsp;<font class='negOutcome'>You receive: <strong>0</strong></font></div>","null","3","Mega Mangos","Fruit/mango.png","Lost","0.2,0.65","11","0.2","37","9","",""
"html-keyboard-response","37","355140","0.0-11.0-1.9","631381096e95278a3f97fed4","bdp_rwlrn","Wed Mar 15 2023 13:29:14 GMT-0500 (Central Daylight Time)","676432","Trustworthy,Untrustworthy","","817","","","","decision","","<div class='trialDiv'><img src='Fruit/watermelon.png'><br><font class='baseline'><strong>Watermelon Win$</strong><p>Choose number of points to bet.</font><div class='respPicDiv'><img src='img/responseButtonOffersNo0L.png' class='respPic'></div></div>","5","4","Watermelon Win$","Fruit/watermelon.png","Won","0.65,0.2","13","0.65","42","10","",""
"html-keyboard-response","38","355400","0.0-11.0-2.9","631381096e95278a3f97fed4","bdp_rwlrn","Wed Mar 15 2023 13:29:14 GMT-0500 (Central Daylight Time)","676432","Trustworthy,Untrustworthy","","null","","","","decisionFB","","<div class='trialDiv'><img src='Fruit/watermelon.png'><br><font class='baseline'><strong>Watermelon Win$</strong><p>Choose number of points to bet.</font><div class='respPicDiv'><img src='img/responseButtonOffersNo0L5.png' class='respPic'></div></div>","null","4","Watermelon Win$","Fruit/watermelon.png","Won","0.65,0.2","13","0.65","37","10","",""
"html-keyboard-response","39","356410","0.0-11.0-3.9","631381096e95278a3f97fed4","bdp_rwlrn","Wed Mar 15 2023 13:29:14 GMT-0500 (Central Daylight Time)","676432","Trustworthy,Untrustworthy","","null","","","","feedback","","<div class='respPicDiv'><img src='img/responseButtonOffersNo0_wht.png' class='respPic'></div><div class='trialDiv'><img src='Fruit/watermelon.png'><br><font class='baseline'><strong>Watermelon Win$</strong><p><strong><font class='posOutcome'>You WON</font><p>You bet: 5</strong></font> &nbsp; &nbsp; &nbsp; &nbsp; &nbsp; &nbsp;<font class='posOutcome'>you receive: <strong>10</strong></font></div>","null","4","Watermelon Win$","Fruit/watermelon.png","Won","0.65,0.2","13","0.65","47","10","",""
"html-keyboard-response","40","357004","0.0-11.0-1.10","631381096e95278a3f97fed4","bdp_rwlrn","Wed Mar 15 2023 13:29:14 GMT-0500 (Central Daylight Time)","676432","Trustworthy,Untrustworthy","","594","","","","decision","","<div class='trialDiv'><img src='Fruit/pears.png'><br><font class='baseline'><strong>Pears Aplenty</strong><p>Choose number of points to bet.</font><div class='respPicDiv'><img src='img/responseButtonOffersNo0L.png' class='respPic'></div></div>","2","4","Pears Aplenty","Fruit/pears.png","Won","0.2,0.8","12","0.2","52","11","",""
"html-keyboard-response","41","357266","0.0-11.0-2.10","631381096e95278a3f97fed4","bdp_rwlrn","Wed Mar 15 2023 13:29:14 GMT-0500 (Central Daylight Time)","676432","Trustworthy,Untrustworthy","","null","","","","decisionFB","","<div class='trialDiv'><img src='Fruit/pears.png'><br><font class='baseline'><strong>Pears Aplenty</strong><p>Choose number of points to bet.</font><div class='respPicDiv'><img src='img/responseButtonOffersNo0L2.png' class='respPic'></div></div>","null","4","Pears Aplenty","Fruit/pears.png","Won","0.2,0.8","12","0.2","50","11","",""
"html-keyboard-response","42","358272","0.0-11.0-3.10","631381096e95278a3f97fed4","bdp_rwlrn","Wed Mar 15 2023 13:29:14 GMT-0500 (Central Daylight Time)","676432","Trustworthy,Untrustworthy","","null","","","","feedback","","<div class='respPicDiv'><img src='img/responseButtonOffersNo0_wht.png' class='respPic'></div><div class='trialDiv'><img src='Fruit/pears.png'><br><font class='baseline'><strong>Pears Aplenty</strong><p><strong><font class='posOutcome'>You WON</font><p>You bet: 2</strong></font> &nbsp; &nbsp; &nbsp; &nbsp; &nbsp; &nbsp;<font class='posOutcome'>you receive: <strong>4</strong></font></div>","null","4","Pears Aplenty","Fruit/pears.png","Won","0.2,0.8","12","0.2","54","11","",""
"html-keyboard-response","43","359528","0.0-11.0-1.11","631381096e95278a3f97fed4","bdp_rwlrn","Wed Mar 15 2023 13:29:14 GMT-0500 (Central Daylight Time)","676432","Trustworthy,Untrustworthy","","1255","","","","decision","","<div class='trialDiv'><img src='Fruit/mango.png'><br><font class='baseline'><strong>Mega Mangos</strong><p>Choose number of points to bet.</font><div class='respPicDiv'><img src='img/responseButtonOffersNo0L.png' class='respPic'></div></div>","4","4","Mega Mangos","Fruit/mango.png","Won","0.2,0.65","11","0.2","59","12","",""
"html-keyboard-response","44","359784","0.0-11.0-2.11","631381096e95278a3f97fed4","bdp_rwlrn","Wed Mar 15 2023 13:29:14 GMT-0500 (Central Daylight Time)","676432","Trustworthy,Untrustworthy","","null","","","","decisionFB","","<div class='trialDiv'><img src='Fruit/mango.png'><br><font class='baseline'><strong>Mega Mangos</strong><p>Choose number of points to bet.</font><div class='respPicDiv'><img src='img/responseButtonOffersNo0L4.png' class='respPic'></div></div>","null","4","Mega Mangos","Fruit/mango.png","Won","0.2,0.65","11","0.2","55","12","",""
"html-keyboard-response","45","360800","0.0-11.0-3.11","631381096e95278a3f97fed4","bdp_rwlrn","Wed Mar 15 2023 13:29:14 GMT-0500 (Central Daylight Time)","676432","Trustworthy,Untrustworthy","","null","","","","feedback","","<div class='respPicDiv'><img src='img/responseButtonOffersNo0_wht.png' class='respPic'></div><div class='trialDiv'><img src='Fruit/mango.png'><br><font class='baseline'><strong>Mega Mangos</strong><p><strong><font class='posOutcome'>You WON</font><p>You bet: 4</strong></font> &nbsp; &nbsp; &nbsp; &nbsp; &nbsp; &nbsp;<font class='posOutcome'>you receive: <strong>8</strong></font></div>","null","4","Mega Mangos","Fruit/mango.png","Won","0.2,0.65","11","0.2","63","12","",""
"html-keyboard-response","46","361554","0.0-11.0-1.12","631381096e95278a3f97fed4","bdp_rwlrn","Wed Mar 15 2023 13:29:14 GMT-0500 (Central Daylight Time)","676432","Trustworthy,Untrustworthy","","754","","","","decision","","<div class='trialDiv'><img src='Fruit/watermelon.png'><br><font class='baseline'><strong>Watermelon Win$</strong><p>Choose number of points to bet.</font><div class='respPicDiv'><img src='img/responseButtonOffersNo0L.png' class='respPic'></div></div>","5","5","Watermelon Win$","Fruit/watermelon.png","Won","0.65,0.2","13","0.65","68","13","",""
"html-keyboard-response","47","361812","0.0-11.0-2.12","631381096e95278a3f97fed4","bdp_rwlrn","Wed Mar 15 2023 13:29:14 GMT-0500 (Central Daylight Time)","676432","Trustworthy,Untrustworthy","","null","","","","decisionFB","","<div class='trialDiv'><img src='Fruit/watermelon.png'><br><font class='baseline'><strong>Watermelon Win$</strong><p>Choose number of points to bet.</font><div class='respPicDiv'><img src='img/responseButtonOffersNo0L5.png' class='respPic'></div></div>","null","5","Watermelon Win$","Fruit/watermelon.png","Won","0.65,0.2","13","0.65","63","13","",""
"html-keyboard-response","48","362818","0.0-11.0-3.12","631381096e95278a3f97fed4","bdp_rwlrn","Wed Mar 15 2023 13:29:14 GMT-0500 (Central Daylight Time)","676432","Trustworthy,Untrustworthy","","null","","","","feedback","","<div class='respPicDiv'><img src='img/responseButtonOffersNo0_wht.png' class='respPic'></div><div class='trialDiv'><img src='Fruit/watermelon.png'><br><font class='baseline'><strong>Watermelon Win$</strong><p><strong><font class='posOutcome'>You WON</font><p>You bet: 5</strong></font> &nbsp; &nbsp; &nbsp; &nbsp; &nbsp; &nbsp;<font class='posOutcome'>you receive: <strong>10</strong></font></div>","null","5","Watermelon Win$","Fruit/watermelon.png","Won","0.65,0.2","13","0.65","73","13","",""
"html-keyboard-response","49","364038","0.0-11.0-1.13","631381096e95278a3f97fed4","bdp_rwlrn","Wed Mar 15 2023 13:29:14 GMT-0500 (Central Daylight Time)","676432","Trustworthy,Untrustworthy","","1219","","","","decision","","<div class='trialDiv'><img src='Fruit/mango.png'><br><font class='baseline'><strong>Mega Mangos</strong><p>Choose number of points to bet.</font><div class='respPicDiv'><img src='img/responseButtonOffersNo0L.png' class='respPic'></div></div>","4","5","Mega Mangos","Fruit/mango.png","Lost","0.2,0.65","11","0.2","78","14","",""
"html-keyboard-response","50","364295","0.0-11.0-2.13","631381096e95278a3f97fed4","bdp_rwlrn","Wed Mar 15 2023 13:29:14 GMT-0500 (Central Daylight Time)","676432","Trustworthy,Untrustworthy","","null","","","","decisionFB","","<div class='trialDiv'><img src='Fruit/mango.png'><br><font class='baseline'><strong>Mega Mangos</strong><p>Choose number of points to bet.</font><div class='respPicDiv'><img src='img/responseButtonOffersNo0L4.png' class='respPic'></div></div>","null","5","Mega Mangos","Fruit/mango.png","Lost","0.2,0.65","11","0.2","74","14","",""
"html-keyboard-response","51","365301","0.0-11.0-3.13","631381096e95278a3f97fed4","bdp_rwlrn","Wed Mar 15 2023 13:29:14 GMT-0500 (Central Daylight Time)","676432","Trustworthy,Untrustworthy","","null","","","","feedback","","<div class='respPicDiv'><img src='img/responseButtonOffersNo0_wht.png' class='respPic'></div><div class='trialDiv'><img src='Fruit/mango.png'><br><font class='baseline'><strong>Mega Mangos</strong><p><strong><font class='negOutcome'>You LOST</font><p>You bet: 4</strong></font> &nbsp; &nbsp; &nbsp; &nbsp; &nbsp; &nbsp;<font class='negOutcome'>You receive: <strong>0</strong></font></div>","null","5","Mega Mangos","Fruit/mango.png","Lost","0.2,0.65","11","0.2","74","14","",""
"html-keyboard-response","52","367042","0.0-11.0-1.14","631381096e95278a3f97fed4","bdp_rwlrn","Wed Mar 15 2023 13:29:14 GMT-0500 (Central Daylight Time)","676432","Trustworthy,Untrustworthy","","1740","","","","decision","","<div class='trialDiv'><img src='Fruit/pears.png'><br><font class='baseline'><strong>Pears Aplenty</strong><p>Choose number of points to bet.</font><div class='respPicDiv'><img src='img/responseButtonOffersNo0L.png' class='respPic'></div></div>","1","5","Pears Aplenty","Fruit/pears.png","Lost","0.2,0.8","12","0.2","79","15","",""
"html-keyboard-response","53","367296","0.0-11.0-2.14","631381096e95278a3f97fed4","bdp_rwlrn","Wed Mar 15 2023 13:29:14 GMT-0500 (Central Daylight Time)","676432","Trustworthy,Untrustworthy","","null","","","","decisionFB","","<div class='trialDiv'><img src='Fruit/pears.png'><br><font class='baseline'><strong>Pears Aplenty</strong><p>Choose number of points to bet.</font><div class='respPicDiv'><img src='img/responseButtonOffersNo0L1.png' class='respPic'></div></div>","null","5","Pears Aplenty","Fruit/pears.png","Lost","0.2,0.8","12","0.2","78","15","",""
"html-keyboard-response","54","368302","0.0-11.0-3.14","631381096e95278a3f97fed4","bdp_rwlrn","Wed Mar 15 2023 13:29:14 GMT-0500 (Central Daylight Time)","676432","Trustworthy,Untrustworthy","","null","","","","feedback","","<div class='respPicDiv'><img src='img/responseButtonOffersNo0_wht.png' class='respPic'></div><div class='trialDiv'><img src='Fruit/pears.png'><br><font class='baseline'><strong>Pears Aplenty</strong><p><strong><font class='negOutcome'>You LOST</font><p>You bet: 1</strong></font> &nbsp; &nbsp; &nbsp; &nbsp; &nbsp; &nbsp;<font class='negOutcome'>You receive: <strong>0</strong></font></div>","null","5","Pears Aplenty","Fruit/pears.png","Lost","0.2,0.8","12","0.2","78","15","",""
"html-keyboard-response","55","368908","0.0-11.0-1.15","631381096e95278a3f97fed4","bdp_rwlrn","Wed Mar 15 2023 13:29:14 GMT-0500 (Central Daylight Time)","676432","Trustworthy,Untrustworthy","","605","","","","decision","","<div class='trialDiv'><img src='Fruit/mango.png'><br><font class='baseline'><strong>Mega Mangos</strong><p>Choose number of points to bet.</font><div class='respPicDiv'><img src='img/responseButtonOffersNo0L.png' class='respPic'></div></div>","5","6","Mega Mangos","Fruit/mango.png","Lost","0.2,0.65","11","0.2","83","16","",""
"html-keyboard-response","56","369162","0.0-11.0-2.15","631381096e95278a3f97fed4","bdp_rwlrn","Wed Mar 15 2023 13:29:14 GMT-0500 (Central Daylight Time)","676432","Trustworthy,Untrustworthy","","null","","","","decisionFB","","<div class='trialDiv'><img src='Fruit/mango.png'><br><font class='baseline'><strong>Mega Mangos</strong><p>Choose number of points to bet.</font><div class='respPicDiv'><img src='img/responseButtonOffersNo0L5.png' class='respPic'></div></div>","null","6","Mega Mangos","Fruit/mango.png","Lost","0.2,0.65","11","0.2","78","16","",""
"html-keyboard-response","57","370168","0.0-11.0-3.15","631381096e95278a3f97fed4","bdp_rwlrn","Wed Mar 15 2023 13:29:14 GMT-0500 (Central Daylight Time)","676432","Trustworthy,Untrustworthy","","null","","","","feedback","","<div class='respPicDiv'><img src='img/responseButtonOffersNo0_wht.png' class='respPic'></div><div class='trialDiv'><img src='Fruit/mango.png'><br><font class='baseline'><strong>Mega Mangos</strong><p><strong><font class='negOutcome'>You LOST</font><p>You bet: 5</strong></font> &nbsp; &nbsp; &nbsp; &nbsp; &nbsp; &nbsp;<font class='negOutcome'>You receive: <strong>0</strong></font></div>","null","6","Mega Mangos","Fruit/mango.png","Lost","0.2,0.65","11","0.2","78","16","",""
"html-keyboard-response","58","370498","0.0-11.0-1.16","631381096e95278a3f97fed4","bdp_rwlrn","Wed Mar 15 2023 13:29:14 GMT-0500 (Central Daylight Time)","676432","Trustworthy,Untrustworthy","","330","","","","decision","","<div class='trialDiv'><img src='Fruit/watermelon.png'><br><font class='baseline'><strong>Watermelon Win$</strong><p>Choose number of points to bet.</font><div class='respPicDiv'><img src='img/responseButtonOffersNo0L.png' class='respPic'></div></div>","4","6","Watermelon Win$","Fruit/watermelon.png","Lost","0.65,0.2","13","0.65","83","17","",""
"html-keyboard-response","59","370761","0.0-11.0-2.16","631381096e95278a3f97fed4","bdp_rwlrn","Wed Mar 15 2023 13:29:14 GMT-0500 (Central Daylight Time)","676432","Trustworthy,Untrustworthy","","null","","","","decisionFB","","<div class='trialDiv'><img src='Fruit/watermelon.png'><br><font class='baseline'><strong>Watermelon Win$</strong><p>Choose number of points to bet.</font><div class='respPicDiv'><img src='img/responseButtonOffersNo0L4.png' class='respPic'></div></div>","null","6","Watermelon Win$","Fruit/watermelon.png","Lost","0.65,0.2","13","0.65","79","17","",""
"html-keyboard-response","60","371768","0.0-11.0-3.16","631381096e95278a3f97fed4","bdp_rwlrn","Wed Mar 15 2023 13:29:14 GMT-0500 (Central Daylight Time)","676432","Trustworthy,Untrustworthy","","null","","","","feedback","","<div class='respPicDiv'><img src='img/responseButtonOffersNo0_wht.png' class='respPic'></div><div class='trialDiv'><img src='Fruit/watermelon.png'><br><font class='baseline'><strong>Watermelon Win$</strong><p><strong><font class='negOutcome'>You LOST</font><p>You bet: 4</strong></font> &nbsp; &nbsp; &nbsp; &nbsp; &nbsp; &nbsp;<font class='negOutcome'>You receive: <strong>0</strong></font></div>","null","6","Watermelon Win$","Fruit/watermelon.png","Lost","0.65,0.2","13","0.65","79","17","",""
"html-keyboard-response","61","372045","0.0-11.0-1.17","631381096e95278a3f97fed4","bdp_rwlrn","Wed Mar 15 2023 13:29:14 GMT-0500 (Central Daylight Time)","676432","Trustworthy,Untrustworthy","","275","","","","decision","","<div class='trialDiv'><img src='Fruit/pears.png'><br><font class='baseline'><strong>Pears Aplenty</strong><p>Choose number of points to bet.</font><div class='respPicDiv'><img src='img/responseButtonOffersNo0L.png' class='respPic'></div></div>","3","6","Pears Aplenty","Fruit/pears.png","Lost","0.2,0.8","12","0.2","84","18","",""
"html-keyboard-response","62","372296","0.0-11.0-2.17","631381096e95278a3f97fed4","bdp_rwlrn","Wed Mar 15 2023 13:29:14 GMT-0500 (Central Daylight Time)","676432","Trustworthy,Untrustworthy","","null","","","","decisionFB","","<div class='trialDiv'><img src='Fruit/pears.png'><br><font class='baseline'><strong>Pears Aplenty</strong><p>Choose number of points to bet.</font><div class='respPicDiv'><img src='img/responseButtonOffersNo0L3.png' class='respPic'></div></div>","null","6","Pears Aplenty","Fruit/pears.png","Lost","0.2,0.8","12","0.2","81","18","",""
"html-keyboard-response","63","373300","0.0-11.0-3.17","631381096e95278a3f97fed4","bdp_rwlrn","Wed Mar 15 2023 13:29:14 GMT-0500 (Central Daylight Time)","676432","Trustworthy,Untrustworthy","","null","","","","feedback","","<div class='respPicDiv'><img src='img/responseButtonOffersNo0_wht.png' class='respPic'></div><div class='trialDiv'><img src='Fruit/pears.png'><br><font class='baseline'><strong>Pears Aplenty</strong><p><strong><font class='negOutcome'>You LOST</font><p>You bet: 3</strong></font> &nbsp; &nbsp; &nbsp; &nbsp; &nbsp; &nbsp;<font class='negOutcome'>You receive: <strong>0</strong></font></div>","null","6","Pears Aplenty","Fruit/pears.png","Lost","0.2,0.8","12","0.2","81","18","",""
"html-keyboard-response","64","374507","0.0-11.0-1.18","631381096e95278a3f97fed4","bdp_rwlrn","Wed Mar 15 2023 13:29:14 GMT-0500 (Central Daylight Time)","676432","Trustworthy,Untrustworthy","","1206","","","","decision","","<div class='trialDiv'><img src='Fruit/mango.png'><br><font class='baseline'><strong>Mega Mangos</strong><p>Choose number of points to bet.</font><div class='respPicDiv'><img src='img/responseButtonOffersNo0L.png' class='respPic'></div></div>","2","7","Mega Mangos","Fruit/mango.png","Lost","0.2,0.65","11","0.2","86","19","",""
"html-keyboard-response","65","374763","0.0-11.0-2.18","631381096e95278a3f97fed4","bdp_rwlrn","Wed Mar 15 2023 13:29:14 GMT-0500 (Central Daylight Time)","676432","Trustworthy,Untrustworthy","","null","","","","decisionFB","","<div class='trialDiv'><img src='Fruit/mango.png'><br><font class='baseline'><strong>Mega Mangos</strong><p>Choose number of points to bet.</font><div class='respPicDiv'><img src='img/responseButtonOffersNo0L2.png' class='respPic'></div></div>","null","7","Mega Mangos","Fruit/mango.png","Lost","0.2,0.65","11","0.2","84","19","",""
"html-keyboard-response","66","375768","0.0-11.0-3.18","631381096e95278a3f97fed4","bdp_rwlrn","Wed Mar 15 2023 13:29:14 GMT-0500 (Central Daylight Time)","676432","Trustworthy,Untrustworthy","","null","","","","feedback","","<div class='respPicDiv'><img src='img/responseButtonOffersNo0_wht.png' class='respPic'></div><div class='trialDiv'><img src='Fruit/mango.png'><br><font class='baseline'><strong>Mega Mangos</strong><p><strong><font class='negOutcome'>You LOST</font><p>You bet: 2</strong></font> &nbsp; &nbsp; &nbsp; &nbsp; &nbsp; &nbsp;<font class='negOutcome'>You receive: <strong>0</strong></font></div>","null","7","Mega Mangos","Fruit/mango.png","Lost","0.2,0.65","11","0.2","84","19","",""
"html-keyboard-response","67","376534","0.0-11.0-1.19","631381096e95278a3f97fed4","bdp_rwlrn","Wed Mar 15 2023 13:29:14 GMT-0500 (Central Daylight Time)","676432","Trustworthy,Untrustworthy","","765","","","","decision","","<div class='trialDiv'><img src='Fruit/watermelon.png'><br><font class='baseline'><strong>Watermelon Win$</strong><p>Choose number of points to bet.</font><div class='respPicDiv'><img src='img/responseButtonOffersNo0L.png' class='respPic'></div></div>","5","7","Watermelon Win$","Fruit/watermelon.png","Lost","0.65,0.2","13","0.65","89","20","",""
"html-keyboard-response","68","376795","0.0-11.0-2.19","631381096e95278a3f97fed4","bdp_rwlrn","Wed Mar 15 2023 13:29:14 GMT-0500 (Central Daylight Time)","676432","Trustworthy,Untrustworthy","","null","","","","decisionFB","","<div class='trialDiv'><img src='Fruit/watermelon.png'><br><font class='baseline'><strong>Watermelon Win$</strong><p>Choose number of points to bet.</font><div class='respPicDiv'><img src='img/responseButtonOffersNo0L5.png' class='respPic'></div></div>","null","7","Watermelon Win$","Fruit/watermelon.png","Lost","0.65,0.2","13","0.65","84","20","",""
"html-keyboard-response","69","377801","0.0-11.0-3.19","631381096e95278a3f97fed4","bdp_rwlrn","Wed Mar 15 2023 13:29:14 GMT-0500 (Central Daylight Time)","676432","Trustworthy,Untrustworthy","","null","","","","feedback","","<div class='respPicDiv'><img src='img/responseButtonOffersNo0_wht.png' class='respPic'></div><div class='trialDiv'><img src='Fruit/watermelon.png'><br><font class='baseline'><strong>Watermelon Win$</strong><p><strong><font class='negOutcome'>You LOST</font><p>You bet: 5</strong></font> &nbsp; &nbsp; &nbsp; &nbsp; &nbsp; &nbsp;<font class='negOutcome'>You receive: <strong>0</strong></font></div>","null","7","Watermelon Win$","Fruit/watermelon.png","Lost","0.65,0.2","13","0.65","84","20","",""
"html-keyboard-response","70","378642","0.0-11.0-1.20","631381096e95278a3f97fed4","bdp_rwlrn","Wed Mar 15 2023 13:29:14 GMT-0500 (Central Daylight Time)","676432","Trustworthy,Untrustworthy","","839","","","","decision","","<div class='trialDiv'><img src='Fruit/pears.png'><br><font class='baseline'><strong>Pears Aplenty</strong><p>Choose number of points to bet.</font><div class='respPicDiv'><img src='img/responseButtonOffersNo0L.png' class='respPic'></div></div>","4","7","Pears Aplenty","Fruit/pears.png","Lost","0.2,0.8","12","0.2","89","21","",""
"html-keyboard-response","71","378896","0.0-11.0-2.20","631381096e95278a3f97fed4","bdp_rwlrn","Wed Mar 15 2023 13:29:14 GMT-0500 (Central Daylight Time)","676432","Trustworthy,Untrustworthy","","null","","","","decisionFB","","<div class='trialDiv'><img src='Fruit/pears.png'><br><font class='baseline'><strong>Pears Aplenty</strong><p>Choose number of points to bet.</font><div class='respPicDiv'><img src='img/responseButtonOffersNo0L4.png' class='respPic'></div></div>","null","7","Pears Aplenty","Fruit/pears.png","Lost","0.2,0.8","12","0.2","85","21","",""
"html-keyboard-response","72","379901","0.0-11.0-3.20","631381096e95278a3f97fed4","bdp_rwlrn","Wed Mar 15 2023 13:29:14 GMT-0500 (Central Daylight Time)","676432","Trustworthy,Untrustworthy","","null","","","","feedback","","<div class='respPicDiv'><img src='img/responseButtonOffersNo0_wht.png' class='respPic'></div><div class='trialDiv'><img src='Fruit/pears.png'><br><font class='baseline'><strong>Pears Aplenty</strong><p><strong><font class='negOutcome'>You LOST</font><p>You bet: 4</strong></font> &nbsp; &nbsp; &nbsp; &nbsp; &nbsp; &nbsp;<font class='negOutcome'>You receive: <strong>0</strong></font></div>","null","7","Pears Aplenty","Fruit/pears.png","Lost","0.2,0.8","12","0.2","85","21","",""
"html-keyboard-response","73","381468","0.0-11.0-1.21","631381096e95278a3f97fed4","bdp_rwlrn","Wed Mar 15 2023 13:29:14 GMT-0500 (Central Daylight Time)","676432","Trustworthy,Untrustworthy","","1567","","","","decision","","<div class='trialDiv'><img src='Fruit/mango.png'><br><font class='baseline'><strong>Mega Mangos</strong><p>Choose number of points to bet.</font><div class='respPicDiv'><img src='img/responseButtonOffersNo0L.png' class='respPic'></div></div>","4","8","Mega Mangos","Fruit/mango.png","Lost","0.2,0.65","11","0.2","90","22","",""
"html-keyboard-response","74","381728","0.0-11.0-2.21","631381096e95278a3f97fed4","bdp_rwlrn","Wed Mar 15 2023 13:29:14 GMT-0500 (Central Daylight Time)","676432","Trustworthy,Untrustworthy","","null","","","","decisionFB","","<div class='trialDiv'><img src='Fruit/mango.png'><br><font class='baseline'><strong>Mega Mangos</strong><p>Choose number of points to bet.</font><div class='respPicDiv'><img src='img/responseButtonOffersNo0L4.png' class='respPic'></div></div>","null","8","Mega Mangos","Fruit/mango.png","Lost","0.2,0.65","11","0.2","86","22","",""
"html-keyboard-response","75","382734","0.0-11.0-3.21","631381096e95278a3f97fed4","bdp_rwlrn","Wed Mar 15 2023 13:29:14 GMT-0500 (Central Daylight Time)","676432","Trustworthy,Untrustworthy","","null","","","","feedback","","<div class='respPicDiv'><img src='img/responseButtonOffersNo0_wht.png' class='respPic'></div><div class='trialDiv'><img src='Fruit/mango.png'><br><font class='baseline'><strong>Mega Mangos</strong><p><strong><font class='negOutcome'>You LOST</font><p>You bet: 4</strong></font> &nbsp; &nbsp; &nbsp; &nbsp; &nbsp; &nbsp;<font class='negOutcome'>You receive: <strong>0</strong></font></div>","null","8","Mega Mangos","Fruit/mango.png","Lost","0.2,0.65","11","0.2","86","22","",""
"html-keyboard-response","76","383392","0.0-11.0-1.22","631381096e95278a3f97fed4","bdp_rwlrn","Wed Mar 15 2023 13:29:14 GMT-0500 (Central Daylight Time)","676432","Trustworthy,Untrustworthy","","657","","","","decision","","<div class='trialDiv'><img src='Fruit/watermelon.png'><br><font class='baseline'><strong>Watermelon Win$</strong><p>Choose number of points to bet.</font><div class='respPicDiv'><img src='img/responseButtonOffersNo0L.png' class='respPic'></div></div>","5","8","Watermelon Win$","Fruit/watermelon.png","Won","0.65,0.2","13","0.65","91","23","",""
"html-keyboard-response","77","383646","0.0-11.0-2.22","631381096e95278a3f97fed4","bdp_rwlrn","Wed Mar 15 2023 13:29:14 GMT-0500 (Central Daylight Time)","676432","Trustworthy,Untrustworthy","","null","","","","decisionFB","","<div class='trialDiv'><img src='Fruit/watermelon.png'><br><font class='baseline'><strong>Watermelon Win$</strong><p>Choose number of points to bet.</font><div class='respPicDiv'><img src='img/responseButtonOffersNo0L5.png' class='respPic'></div></div>","null","8","Watermelon Win$","Fruit/watermelon.png","Won","0.65,0.2","13","0.65","86","23","",""
"html-keyboard-response","78","384651","0.0-11.0-3.22","631381096e95278a3f97fed4","bdp_rwlrn","Wed Mar 15 2023 13:29:14 GMT-0500 (Central Daylight Time)","676432","Trustworthy,Untrustworthy","","null","","","","feedback","","<div class='respPicDiv'><img src='img/responseButtonOffersNo0_wht.png' class='respPic'></div><div class='trialDiv'><img src='Fruit/watermelon.png'><br><font class='baseline'><strong>Watermelon Win$</strong><p><strong><font class='posOutcome'>You WON</font><p>You bet: 5</strong></font> &nbsp; &nbsp; &nbsp; &nbsp; &nbsp; &nbsp;<font class='posOutcome'>you receive: <strong>10</strong></font></div>","null","8","Watermelon Win$","Fruit/watermelon.png","Won","0.65,0.2","13","0.65","96","23","",""
"html-keyboard-response","79","385755","0.0-11.0-1.23","631381096e95278a3f97fed4","bdp_rwlrn","Wed Mar 15 2023 13:29:14 GMT-0500 (Central Daylight Time)","676432","Trustworthy,Untrustworthy","","1102","","","","decision","","<div class='trialDiv'><img src='Fruit/pears.png'><br><font class='baseline'><strong>Pears Aplenty</strong><p>Choose number of points to bet.</font><div class='respPicDiv'><img src='img/responseButtonOffersNo0L.png' class='respPic'></div></div>","1","8","Pears Aplenty","Fruit/pears.png","Lost","0.2,0.8","12","0.2","101","24","",""
"html-keyboard-response","80","386012","0.0-11.0-2.23","631381096e95278a3f97fed4","bdp_rwlrn","Wed Mar 15 2023 13:29:14 GMT-0500 (Central Daylight Time)","676432","Trustworthy,Untrustworthy","","null","","","","decisionFB","","<div class='trialDiv'><img src='Fruit/pears.png'><br><font class='baseline'><strong>Pears Aplenty</strong><p>Choose number of points to bet.</font><div class='respPicDiv'><img src='img/responseButtonOffersNo0L1.png' class='respPic'></div></div>","null","8","Pears Aplenty","Fruit/pears.png","Lost","0.2,0.8","12","0.2","100","24","",""
"html-keyboard-response","81","387017","0.0-11.0-3.23","631381096e95278a3f97fed4","bdp_rwlrn","Wed Mar 15 2023 13:29:14 GMT-0500 (Central Daylight Time)","676432","Trustworthy,Untrustworthy","","null","","","","feedback","","<div class='respPicDiv'><img src='img/responseButtonOffersNo0_wht.png' class='respPic'></div><div class='trialDiv'><img src='Fruit/pears.png'><br><font class='baseline'><strong>Pears Aplenty</strong><p><strong><font class='negOutcome'>You LOST</font><p>You bet: 1</strong></font> &nbsp; &nbsp; &nbsp; &nbsp; &nbsp; &nbsp;<font class='negOutcome'>You receive: <strong>0</strong></font></div>","null","8","Pears Aplenty","Fruit/pears.png","Lost","0.2,0.8","12","0.2","100","24","",""
"html-keyboard-response","82","388266","0.0-11.0-1.24","631381096e95278a3f97fed4","bdp_rwlrn","Wed Mar 15 2023 13:29:14 GMT-0500 (Central Daylight Time)","676432","Trustworthy,Untrustworthy","","1248","","","","decision","","<div class='trialDiv'><img src='Fruit/mango.png'><br><font class='baseline'><strong>Mega Mangos</strong><p>Choose number of points to bet.</font><div class='respPicDiv'><img src='img/responseButtonOffersNo0L.png' class='respPic'></div></div>","1","9","Mega Mangos","Fruit/mango.png","Lost","0.2,0.65","11","0.2","105","25","",""
"html-keyboard-response","83","388528","0.0-11.0-2.24","631381096e95278a3f97fed4","bdp_rwlrn","Wed Mar 15 2023 13:29:14 GMT-0500 (Central Daylight Time)","676432","Trustworthy,Untrustworthy","","null","","","","decisionFB","","<div class='trialDiv'><img src='Fruit/mango.png'><br><font class='baseline'><strong>Mega Mangos</strong><p>Choose number of points to bet.</font><div class='respPicDiv'><img src='img/responseButtonOffersNo0L1.png' class='respPic'></div></div>","null","9","Mega Mangos","Fruit/mango.png","Lost","0.2,0.65","11","0.2","104","25","",""
"html-keyboard-response","84","389543","0.0-11.0-3.24","631381096e95278a3f97fed4","bdp_rwlrn","Wed Mar 15 2023 13:29:14 GMT-0500 (Central Daylight Time)","676432","Trustworthy,Untrustworthy","","null","","","","feedback","","<div class='respPicDiv'><img src='img/responseButtonOffersNo0_wht.png' class='respPic'></div><div class='trialDiv'><img src='Fruit/mango.png'><br><font class='baseline'><strong>Mega Mangos</strong><p><strong><font class='negOutcome'>You LOST</font><p>You bet: 1</strong></font> &nbsp; &nbsp; &nbsp; &nbsp; &nbsp; &nbsp;<font class='negOutcome'>You receive: <strong>0</strong></font></div>","null","9","Mega Mangos","Fruit/mango.png","Lost","0.2,0.65","11","0.2","104","25","",""
"html-keyboard-response","85","389990","0.0-11.0-1.25","631381096e95278a3f97fed4","bdp_rwlrn","Wed Mar 15 2023 13:29:14 GMT-0500 (Central Daylight Time)","676432","Trustworthy,Untrustworthy","","447","","","","decision","","<div class='trialDiv'><img src='Fruit/watermelon.png'><br><font class='baseline'><strong>Watermelon Win$</strong><p>Choose number of points to bet.</font><div class='respPicDiv'><img src='img/responseButtonOffersNo0L.png' class='respPic'></div></div>","5","9","Watermelon Win$","Fruit/watermelon.png","Lost","0.65,0.2","13","0.65","109","26","",""
"html-keyboard-response","86","390246","0.0-11.0-2.25","631381096e95278a3f97fed4","bdp_rwlrn","Wed Mar 15 2023 13:29:14 GMT-0500 (Central Daylight Time)","676432","Trustworthy,Untrustworthy","","null","","","","decisionFB","","<div class='trialDiv'><img src='Fruit/watermelon.png'><br><font class='baseline'><strong>Watermelon Win$</strong><p>Choose number of points to bet.</font><div class='respPicDiv'><img src='img/responseButtonOffersNo0L5.png' class='respPic'></div></div>","null","9","Watermelon Win$","Fruit/watermelon.png","Lost","0.65,0.2","13","0.65","104","26","",""
"html-keyboard-response","87","391250","0.0-11.0-3.25","631381096e95278a3f97fed4","bdp_rwlrn","Wed Mar 15 2023 13:29:14 GMT-0500 (Central Daylight Time)","676432","Trustworthy,Untrustworthy","","null","","","","feedback","","<div class='respPicDiv'><img src='img/responseButtonOffersNo0_wht.png' class='respPic'></div><div class='trialDiv'><img src='Fruit/watermelon.png'><br><font class='baseline'><strong>Watermelon Win$</strong><p><strong><font class='negOutcome'>You LOST</font><p>You bet: 5</strong></font> &nbsp; &nbsp; &nbsp; &nbsp; &nbsp; &nbsp;<font class='negOutcome'>You receive: <strong>0</strong></font></div>","null","9","Watermelon Win$","Fruit/watermelon.png","Lost","0.65,0.2","13","0.65","104","26","",""
"html-keyboard-response","88","391568","0.0-11.0-1.26","631381096e95278a3f97fed4","bdp_rwlrn","Wed Mar 15 2023 13:29:14 GMT-0500 (Central Daylight Time)","676432","Trustworthy,Untrustworthy","","317","","","","decision","","<div class='trialDiv'><img src='Fruit/pears.png'><br><font class='baseline'><strong>Pears Aplenty</strong><p>Choose number of points to bet.</font><div class='respPicDiv'><img src='img/responseButtonOffersNo0L.png' class='respPic'></div></div>","3","9","Pears Aplenty","Fruit/pears.png","Lost","0.2,0.8","12","0.2","109","27","",""
"html-keyboard-response","89","391828","0.0-11.0-2.26","631381096e95278a3f97fed4","bdp_rwlrn","Wed Mar 15 2023 13:29:14 GMT-0500 (Central Daylight Time)","676432","Trustworthy,Untrustworthy","","null","","","","decisionFB","","<div class='trialDiv'><img src='Fruit/pears.png'><br><font class='baseline'><strong>Pears Aplenty</strong><p>Choose number of points to bet.</font><div class='respPicDiv'><img src='img/responseButtonOffersNo0L3.png' class='respPic'></div></div>","null","9","Pears Aplenty","Fruit/pears.png","Lost","0.2,0.8","12","0.2","106","27","",""
"html-keyboard-response","90","392834","0.0-11.0-3.26","631381096e95278a3f97fed4","bdp_rwlrn","Wed Mar 15 2023 13:29:14 GMT-0500 (Central Daylight Time)","676432","Trustworthy,Untrustworthy","","null","","","","feedback","","<div class='respPicDiv'><img src='img/responseButtonOffersNo0_wht.png' class='respPic'></div><div class='trialDiv'><img src='Fruit/pears.png'><br><font class='baseline'><strong>Pears Aplenty</strong><p><strong><font class='negOutcome'>You LOST</font><p>You bet: 3</strong></font> &nbsp; &nbsp; &nbsp; &nbsp; &nbsp; &nbsp;<font class='negOutcome'>You receive: <strong>0</strong></font></div>","null","9","Pears Aplenty","Fruit/pears.png","Lost","0.2,0.8","12","0.2","106","27","",""
"html-keyboard-response","91","394509","0.0-11.0-1.27","631381096e95278a3f97fed4","bdp_rwlrn","Wed Mar 15 2023 13:29:14 GMT-0500 (Central Daylight Time)","676432","Trustworthy,Untrustworthy","","1675","","","","decision","","<div class='trialDiv'><img src='Fruit/mango.png'><br><font class='baseline'><strong>Mega Mangos</strong><p>Choose number of points to bet.</font><div class='respPicDiv'><img src='img/responseButtonOffersNo0L.png' class='respPic'></div></div>","2","10","Mega Mangos","Fruit/mango.png","Lost","0.2,0.65","11","0.2","111","28","",""
"html-keyboard-response","92","394763","0.0-11.0-2.27","631381096e95278a3f97fed4","bdp_rwlrn","Wed Mar 15 2023 13:29:14 GMT-0500 (Central Daylight Time)","676432","Trustworthy,Untrustworthy","","null","","","","decisionFB","","<div class='trialDiv'><img src='Fruit/mango.png'><br><font class='baseline'><strong>Mega Mangos</strong><p>Choose number of points to bet.</font><div class='respPicDiv'><img src='img/responseButtonOffersNo0L2.png' class='respPic'></div></div>","null","10","Mega Mangos","Fruit/mango.png","Lost","0.2,0.65","11","0.2","109","28","",""
"html-keyboard-response","93","395767","0.0-11.0-3.27","631381096e95278a3f97fed4","bdp_rwlrn","Wed Mar 15 2023 13:29:14 GMT-0500 (Central Daylight Time)","676432","Trustworthy,Untrustworthy","","null","","","","feedback","","<div class='respPicDiv'><img src='img/responseButtonOffersNo0_wht.png' class='respPic'></div><div class='trialDiv'><img src='Fruit/mango.png'><br><font class='baseline'><strong>Mega Mangos</strong><p><strong><font class='negOutcome'>You LOST</font><p>You bet: 2</strong></font> &nbsp; &nbsp; &nbsp; &nbsp; &nbsp; &nbsp;<font class='negOutcome'>You receive: <strong>0</strong></font></div>","null","10","Mega Mangos","Fruit/mango.png","Lost","0.2,0.65","11","0.2","109","28","",""
"html-keyboard-response","94","397053","0.0-11.0-1.28","631381096e95278a3f97fed4","bdp_rwlrn","Wed Mar 15 2023 13:29:14 GMT-0500 (Central Daylight Time)","676432","Trustworthy,Untrustworthy","","1285","","","","decision","","<div class='trialDiv'><img src='Fruit/pears.png'><br><font class='baseline'><strong>Pears Aplenty</strong><p>Choose number of points to bet.</font><div class='respPicDiv'><img src='img/responseButtonOffersNo0L.png' class='respPic'></div></div>","1","10","Pears Aplenty","Fruit/pears.png","Lost","0.2,0.8","12","0.2","114","29","",""
"html-keyboard-response","95","397312","0.0-11.0-2.28","631381096e95278a3f97fed4","bdp_rwlrn","Wed Mar 15 2023 13:29:14 GMT-0500 (Central Daylight Time)","676432","Trustworthy,Untrustworthy","","null","","","","decisionFB","","<div class='trialDiv'><img src='Fruit/pears.png'><br><font class='baseline'><strong>Pears Aplenty</strong><p>Choose number of points to bet.</font><div class='respPicDiv'><img src='img/responseButtonOffersNo0L1.png' class='respPic'></div></div>","null","10","Pears Aplenty","Fruit/pears.png","Lost","0.2,0.8","12","0.2","113","29","",""
"html-keyboard-response","96","398317","0.0-11.0-3.28","631381096e95278a3f97fed4","bdp_rwlrn","Wed Mar 15 2023 13:29:14 GMT-0500 (Central Daylight Time)","676432","Trustworthy,Untrustworthy","","null","","","","feedback","","<div class='respPicDiv'><img src='img/responseButtonOffersNo0_wht.png' class='respPic'></div><div class='trialDiv'><img src='Fruit/pears.png'><br><font class='baseline'><strong>Pears Aplenty</strong><p><strong><font class='negOutcome'>You LOST</font><p>You bet: 1</strong></font> &nbsp; &nbsp; &nbsp; &nbsp; &nbsp; &nbsp;<font class='negOutcome'>You receive: <strong>0</strong></font></div>","null","10","Pears Aplenty","Fruit/pears.png","Lost","0.2,0.8","12","0.2","113","29","",""
"html-keyboard-response","97","398822","0.0-11.0-1.29","631381096e95278a3f97fed4","bdp_rwlrn","Wed Mar 15 2023 13:29:14 GMT-0500 (Central Daylight Time)","676432","Trustworthy,Untrustworthy","","504","","","","decision","","<div class='trialDiv'><img src='Fruit/watermelon.png'><br><font class='baseline'><strong>Watermelon Win$</strong><p>Choose number of points to bet.</font><div class='respPicDiv'><img src='img/responseButtonOffersNo0L.png' class='respPic'></div></div>","5","10","Watermelon Win$","Fruit/watermelon.png","Won","0.65,0.2","13","0.65","118","30","",""
"html-keyboard-response","98","399078","0.0-11.0-2.29","631381096e95278a3f97fed4","bdp_rwlrn","Wed Mar 15 2023 13:29:14 GMT-0500 (Central Daylight Time)","676432","Trustworthy,Untrustworthy","","null","","","","decisionFB","","<div class='trialDiv'><img src='Fruit/watermelon.png'><br><font class='baseline'><strong>Watermelon Win$</strong><p>Choose number of points to bet.</font><div class='respPicDiv'><img src='img/responseButtonOffersNo0L5.png' class='respPic'></div></div>","null","10","Watermelon Win$","Fruit/watermelon.png","Won","0.65,0.2","13","0.65","113","30","",""
"html-keyboard-response","99","400084","0.0-11.0-3.29","631381096e95278a3f97fed4","bdp_rwlrn","Wed Mar 15 2023 13:29:14 GMT-0500 (Central Daylight Time)","676432","Trustworthy,Untrustworthy","","null","","","","feedback","","<div class='respPicDiv'><img src='img/responseButtonOffersNo0_wht.png' class='respPic'></div><div class='trialDiv'><img src='Fruit/watermelon.png'><br><font class='baseline'><strong>Watermelon Win$</strong><p><strong><font class='posOutcome'>You WON</font><p>You bet: 5</strong></font> &nbsp; &nbsp; &nbsp; &nbsp; &nbsp; &nbsp;<font class='posOutcome'>you receive: <strong>10</strong></font></div>","null","10","Watermelon Win$","Fruit/watermelon.png","Won","0.65,0.2","13","0.65","123","30","",""
"html-keyboard-response","100","400550","0.0-11.0-1.30","631381096e95278a3f97fed4","bdp_rwlrn","Wed Mar 15 2023 13:29:14 GMT-0500 (Central Daylight Time)","676432","Trustworthy,Untrustworthy","","464","","","","decision","","<div class='trialDiv'><img src='Fruit/mango.png'><br><font class='baseline'><strong>Mega Mangos</strong><p>Choose number of points to bet.</font><div class='respPicDiv'><img src='img/responseButtonOffersNo0L.png' class='respPic'></div></div>","4","11","Mega Mangos","Fruit/mango.png","Won","0.2,0.65","11","0.2","128","31","",""
"html-keyboard-response","101","400811","0.0-11.0-2.30","631381096e95278a3f97fed4","bdp_rwlrn","Wed Mar 15 2023 13:29:14 GMT-0500 (Central Daylight Time)","676432","Trustworthy,Untrustworthy","","null","","","","decisionFB","","<div class='trialDiv'><img src='Fruit/mango.png'><br><font class='baseline'><strong>Mega Mangos</strong><p>Choose number of points to bet.</font><div class='respPicDiv'><img src='img/responseButtonOffersNo0L4.png' class='respPic'></div></div>","null","11","Mega Mangos","Fruit/mango.png","Won","0.2,0.65","11","0.2","124","31","",""
"html-keyboard-response","102","401817","0.0-11.0-3.30","631381096e95278a3f97fed4","bdp_rwlrn","Wed Mar 15 2023 13:29:14 GMT-0500 (Central Daylight Time)","676432","Trustworthy,Untrustworthy","","null","","","","feedback","","<div class='respPicDiv'><img src='img/responseButtonOffersNo0_wht.png' class='respPic'></div><div class='trialDiv'><img src='Fruit/mango.png'><br><font class='baseline'><strong>Mega Mangos</strong><p><strong><font class='posOutcome'>You WON</font><p>You bet: 4</strong></font> &nbsp; &nbsp; &nbsp; &nbsp; &nbsp; &nbsp;<font class='posOutcome'>you receive: <strong>8</strong></font></div>","null","11","Mega Mangos","Fruit/mango.png","Won","0.2,0.65","11","0.2","132","31","",""
"html-keyboard-response","103","402728","0.0-11.0-1.31","631381096e95278a3f97fed4","bdp_rwlrn","Wed Mar 15 2023 13:29:14 GMT-0500 (Central Daylight Time)","676432","Trustworthy,Untrustworthy","","910","","","","decision","","<div class='trialDiv'><img src='Fruit/pears.png'><br><font class='baseline'><strong>Pears Aplenty</strong><p>Choose number of points to bet.</font><div class='respPicDiv'><img src='img/responseButtonOffersNo0L.png' class='respPic'></div></div>","3","11","Pears Aplenty","Fruit/pears.png","Lost","0.2,0.8","12","0.2","137","32","",""
"html-keyboard-response","104","402980","0.0-11.0-2.31","631381096e95278a3f97fed4","bdp_rwlrn","Wed Mar 15 2023 13:29:14 GMT-0500 (Central Daylight Time)","676432","Trustworthy,Untrustworthy","","null","","","","decisionFB","","<div class='trialDiv'><img src='Fruit/pears.png'><br><font class='baseline'><strong>Pears Aplenty</strong><p>Choose number of points to bet.</font><div class='respPicDiv'><img src='img/responseButtonOffersNo0L3.png' class='respPic'></div></div>","null","11","Pears Aplenty","Fruit/pears.png","Lost","0.2,0.8","12","0.2","134","32","",""
"html-keyboard-response","105","403984","0.0-11.0-3.31","631381096e95278a3f97fed4","bdp_rwlrn","Wed Mar 15 2023 13:29:14 GMT-0500 (Central Daylight Time)","676432","Trustworthy,Untrustworthy","","null","","","","feedback","","<div class='respPicDiv'><img src='img/responseButtonOffersNo0_wht.png' class='respPic'></div><div class='trialDiv'><img src='Fruit/pears.png'><br><font class='baseline'><strong>Pears Aplenty</strong><p><strong><font class='negOutcome'>You LOST</font><p>You bet: 3</strong></font> &nbsp; &nbsp; &nbsp; &nbsp; &nbsp; &nbsp;<font class='negOutcome'>You receive: <strong>0</strong></font></div>","null","11","Pears Aplenty","Fruit/pears.png","Lost","0.2,0.8","12","0.2","134","32","",""
"html-keyboard-response","106","404497","0.0-11.0-1.32","631381096e95278a3f97fed4","bdp_rwlrn","Wed Mar 15 2023 13:29:14 GMT-0500 (Central Daylight Time)","676432","Trustworthy,Untrustworthy","","512","","","","decision","","<div class='trialDiv'><img src='Fruit/watermelon.png'><br><font class='baseline'><strong>Watermelon Win$</strong><p>Choose number of points to bet.</font><div class='respPicDiv'><img src='img/responseButtonOffersNo0L.png' class='respPic'></div></div>","5","11","Watermelon Win$","Fruit/watermelon.png","Won","0.65,0.2","13","0.65","139","33","",""
"html-keyboard-response","107","404761","0.0-11.0-2.32","631381096e95278a3f97fed4","bdp_rwlrn","Wed Mar 15 2023 13:29:14 GMT-0500 (Central Daylight Time)","676432","Trustworthy,Untrustworthy","","null","","","","decisionFB","","<div class='trialDiv'><img src='Fruit/watermelon.png'><br><font class='baseline'><strong>Watermelon Win$</strong><p>Choose number of points to bet.</font><div class='respPicDiv'><img src='img/responseButtonOffersNo0L5.png' class='respPic'></div></div>","null","11","Watermelon Win$","Fruit/watermelon.png","Won","0.65,0.2","13","0.65","134","33","",""
"html-keyboard-response","108","405767","0.0-11.0-3.32","631381096e95278a3f97fed4","bdp_rwlrn","Wed Mar 15 2023 13:29:14 GMT-0500 (Central Daylight Time)","676432","Trustworthy,Untrustworthy","","null","","","","feedback","","<div class='respPicDiv'><img src='img/responseButtonOffersNo0_wht.png' class='respPic'></div><div class='trialDiv'><img src='Fruit/watermelon.png'><br><font class='baseline'><strong>Watermelon Win$</strong><p><strong><font class='posOutcome'>You WON</font><p>You bet: 5</strong></font> &nbsp; &nbsp; &nbsp; &nbsp; &nbsp; &nbsp;<font class='posOutcome'>you receive: <strong>10</strong></font></div>","null","11","Watermelon Win$","Fruit/watermelon.png","Won","0.65,0.2","13","0.65","144","33","",""
"html-keyboard-response","109","407315","0.0-11.0-1.33","631381096e95278a3f97fed4","bdp_rwlrn","Wed Mar 15 2023 13:29:14 GMT-0500 (Central Daylight Time)","676432","Trustworthy,Untrustworthy","","1546","","","","decision","","<div class='trialDiv'><img src='Fruit/mango.png'><br><font class='baseline'><strong>Mega Mangos</strong><p>Choose number of points to bet.</font><div class='respPicDiv'><img src='img/responseButtonOffersNo0L.png' class='respPic'></div></div>","3","12","Mega Mangos","Fruit/mango.png","Won","0.2,0.65","11","0.2","149","34","",""
"html-keyboard-response","110","407577","0.0-11.0-2.33","631381096e95278a3f97fed4","bdp_rwlrn","Wed Mar 15 2023 13:29:14 GMT-0500 (Central Daylight Time)","676432","Trustworthy,Untrustworthy","","null","","","","decisionFB","","<div class='trialDiv'><img src='Fruit/mango.png'><br><font class='baseline'><strong>Mega Mangos</strong><p>Choose number of points to bet.</font><div class='respPicDiv'><img src='img/responseButtonOffersNo0L3.png' class='respPic'></div></div>","null","12","Mega Mangos","Fruit/mango.png","Won","0.2,0.65","11","0.2","146","34","",""
"html-keyboard-response","111","408585","0.0-11.0-3.33","631381096e95278a3f97fed4","bdp_rwlrn","Wed Mar 15 2023 13:29:14 GMT-0500 (Central Daylight Time)","676432","Trustworthy,Untrustworthy","","null","","","","feedback","","<div class='respPicDiv'><img src='img/responseButtonOffersNo0_wht.png' class='respPic'></div><div class='trialDiv'><img src='Fruit/mango.png'><br><font class='baseline'><strong>Mega Mangos</strong><p><strong><font class='posOutcome'>You WON</font><p>You bet: 3</strong></font> &nbsp; &nbsp; &nbsp; &nbsp; &nbsp; &nbsp;<font class='posOutcome'>you receive: <strong>6</strong></font></div>","null","12","Mega Mangos","Fruit/mango.png","Won","0.2,0.65","11","0.2","152","34","",""
"html-keyboard-response","112","409330","0.0-11.0-1.34","631381096e95278a3f97fed4","bdp_rwlrn","Wed Mar 15 2023 13:29:14 GMT-0500 (Central Daylight Time)","676432","Trustworthy,Untrustworthy","","745","","","","decision","","<div class='trialDiv'><img src='Fruit/watermelon.png'><br><font class='baseline'><strong>Watermelon Win$</strong><p>Choose number of points to bet.</font><div class='respPicDiv'><img src='img/responseButtonOffersNo0L.png' class='respPic'></div></div>","5","12","Watermelon Win$","Fruit/watermelon.png","Lost","0.65,0.2","13","0.65","157","35","",""
"html-keyboard-response","113","409595","0.0-11.0-2.34","631381096e95278a3f97fed4","bdp_rwlrn","Wed Mar 15 2023 13:29:14 GMT-0500 (Central Daylight Time)","676432","Trustworthy,Untrustworthy","","null","","","","decisionFB","","<div class='trialDiv'><img src='Fruit/watermelon.png'><br><font class='baseline'><strong>Watermelon Win$</strong><p>Choose number of points to bet.</font><div class='respPicDiv'><img src='img/responseButtonOffersNo0L5.png' class='respPic'></div></div>","null","12","Watermelon Win$","Fruit/watermelon.png","Lost","0.65,0.2","13","0.65","152","35","",""
"html-keyboard-response","114","410601","0.0-11.0-3.34","631381096e95278a3f97fed4","bdp_rwlrn","Wed Mar 15 2023 13:29:14 GMT-0500 (Central Daylight Time)","676432","Trustworthy,Untrustworthy","","null","","","","feedback","","<div class='respPicDiv'><img src='img/responseButtonOffersNo0_wht.png' class='respPic'></div><div class='trialDiv'><img src='Fruit/watermelon.png'><br><font class='baseline'><strong>Watermelon Win$</strong><p><strong><font class='negOutcome'>You LOST</font><p>You bet: 5</strong></font> &nbsp; &nbsp; &nbsp; &nbsp; &nbsp; &nbsp;<font class='negOutcome'>You receive: <strong>0</strong></font></div>","null","12","Watermelon Win$","Fruit/watermelon.png","Lost","0.65,0.2","13","0.65","152","35","",""
"html-keyboard-response","115","411509","0.0-11.0-1.35","631381096e95278a3f97fed4","bdp_rwlrn","Wed Mar 15 2023 13:29:14 GMT-0500 (Central Daylight Time)","676432","Trustworthy,Untrustworthy","","908","","","","decision","","<div class='trialDiv'><img src='Fruit/pears.png'><br><font class='baseline'><strong>Pears Aplenty</strong><p>Choose number of points to bet.</font><div class='respPicDiv'><img src='img/responseButtonOffersNo0L.png' class='respPic'></div></div>","3","12","Pears Aplenty","Fruit/pears.png","Won","0.2,0.8","12","0.2","157","36","",""
"html-keyboard-response","116","411763","0.0-11.0-2.35","631381096e95278a3f97fed4","bdp_rwlrn","Wed Mar 15 2023 13:29:14 GMT-0500 (Central Daylight Time)","676432","Trustworthy,Untrustworthy","","null","","","","decisionFB","","<div class='trialDiv'><img src='Fruit/pears.png'><br><font class='baseline'><strong>Pears Aplenty</strong><p>Choose number of points to bet.</font><div class='respPicDiv'><img src='img/responseButtonOffersNo0L3.png' class='respPic'></div></div>","null","12","Pears Aplenty","Fruit/pears.png","Won","0.2,0.8","12","0.2","154","36","",""
"html-keyboard-response","117","412768","0.0-11.0-3.35","631381096e95278a3f97fed4","bdp_rwlrn","Wed Mar 15 2023 13:29:14 GMT-0500 (Central Daylight Time)","676432","Trustworthy,Untrustworthy","","null","","","","feedback","","<div class='respPicDiv'><img src='img/responseButtonOffersNo0_wht.png' class='respPic'></div><div class='trialDiv'><img src='Fruit/pears.png'><br><font class='baseline'><strong>Pears Aplenty</strong><p><strong><font class='posOutcome'>You WON</font><p>You bet: 3</strong></font> &nbsp; &nbsp; &nbsp; &nbsp; &nbsp; &nbsp;<font class='posOutcome'>you receive: <strong>6</strong></font></div>","null","12","Pears Aplenty","Fruit/pears.png","Won","0.2,0.8","12","0.2","160","36","",""
"html-keyboard-response","118","413301","0.0-11.0-1.36","631381096e95278a3f97fed4","bdp_rwlrn","Wed Mar 15 2023 13:29:14 GMT-0500 (Central Daylight Time)","676432","Trustworthy,Untrustworthy","","533","","","","decision","","<div class='trialDiv'><img src='Fruit/watermelon.png'><br><font class='baseline'><strong>Watermelon Win$</strong><p>Choose number of points to bet.</font><div class='respPicDiv'><img src='img/responseButtonOffersNo0L.png' class='respPic'></div></div>","5","13","Watermelon Win$","Fruit/watermelon.png","Won","0.65,0.2","13","0.65","165","37","",""
"html-keyboard-response","119","413562","0.0-11.0-2.36","631381096e95278a3f97fed4","bdp_rwlrn","Wed Mar 15 2023 13:29:14 GMT-0500 (Central Daylight Time)","676432","Trustworthy,Untrustworthy","","null","","","","decisionFB","","<div class='trialDiv'><img src='Fruit/watermelon.png'><br><font class='baseline'><strong>Watermelon Win$</strong><p>Choose number of points to bet.</font><div class='respPicDiv'><img src='img/responseButtonOffersNo0L5.png' class='respPic'></div></div>","null","13","Watermelon Win$","Fruit/watermelon.png","Won","0.65,0.2","13","0.65","160","37","",""
"html-keyboard-response","120","414567","0.0-11.0-3.36","631381096e95278a3f97fed4","bdp_rwlrn","Wed Mar 15 2023 13:29:14 GMT-0500 (Central Daylight Time)","676432","Trustworthy,Untrustworthy","","null","","","","feedback","","<div class='respPicDiv'><img src='img/responseButtonOffersNo0_wht.png' class='respPic'></div><div class='trialDiv'><img src='Fruit/watermelon.png'><br><font class='baseline'><strong>Watermelon Win$</strong><p><strong><font class='posOutcome'>You WON</font><p>You bet: 5</strong></font> &nbsp; &nbsp; &nbsp; &nbsp; &nbsp; &nbsp;<font class='posOutcome'>you receive: <strong>10</strong></font></div>","null","13","Watermelon Win$","Fruit/watermelon.png","Won","0.65,0.2","13","0.65","170","37","",""
"html-keyboard-response","121","415010","0.0-11.0-1.37","631381096e95278a3f97fed4","bdp_rwlrn","Wed Mar 15 2023 13:29:14 GMT-0500 (Central Daylight Time)","676432","Trustworthy,Untrustworthy","","442","","","","decision","","<div class='trialDiv'><img src='Fruit/mango.png'><br><font class='baseline'><strong>Mega Mangos</strong><p>Choose number of points to bet.</font><div class='respPicDiv'><img src='img/responseButtonOffersNo0L.png' class='respPic'></div></div>","3","13","Mega Mangos","Fruit/mango.png","Won","0.2,0.65","11","0.2","175","38","",""
"html-keyboard-response","122","415263","0.0-11.0-2.37","631381096e95278a3f97fed4","bdp_rwlrn","Wed Mar 15 2023 13:29:14 GMT-0500 (Central Daylight Time)","676432","Trustworthy,Untrustworthy","","null","","","","decisionFB","","<div class='trialDiv'><img src='Fruit/mango.png'><br><font class='baseline'><strong>Mega Mangos</strong><p>Choose number of points to bet.</font><div class='respPicDiv'><img src='img/responseButtonOffersNo0L3.png' class='respPic'></div></div>","null","13","Mega Mangos","Fruit/mango.png","Won","0.2,0.65","11","0.2","172","38","",""
"html-keyboard-response","123","416271","0.0-11.0-3.37","631381096e95278a3f97fed4","bdp_rwlrn","Wed Mar 15 2023 13:29:14 GMT-0500 (Central Daylight Time)","676432","Trustworthy,Untrustworthy","","null","","","","feedback","","<div class='respPicDiv'><img src='img/responseButtonOffersNo0_wht.png' class='respPic'></div><div class='trialDiv'><img src='Fruit/mango.png'><br><font class='baseline'><strong>Mega Mangos</strong><p><strong><font class='posOutcome'>You WON</font><p>You bet: 3</strong></font> &nbsp; &nbsp; &nbsp; &nbsp; &nbsp; &nbsp;<font class='posOutcome'>you receive: <strong>6</strong></font></div>","null","13","Mega Mangos","Fruit/mango.png","Won","0.2,0.65","11","0.2","178","38","",""
"html-keyboard-response","124","416843","0.0-11.0-1.38","631381096e95278a3f97fed4","bdp_rwlrn","Wed Mar 15 2023 13:29:14 GMT-0500 (Central Daylight Time)","676432","Trustworthy,Untrustworthy","","571","","","","decision","","<div class='trialDiv'><img src='Fruit/pears.png'><br><font class='baseline'><strong>Pears Aplenty</strong><p>Choose number of points to bet.</font><div class='respPicDiv'><img src='img/responseButtonOffersNo0L.png' class='respPic'></div></div>","5","13","Pears Aplenty","Fruit/pears.png","Won","0.2,0.8","12","0.2","183","39","",""
"html-keyboard-response","125","417096","0.0-11.0-2.38","631381096e95278a3f97fed4","bdp_rwlrn","Wed Mar 15 2023 13:29:14 GMT-0500 (Central Daylight Time)","676432","Trustworthy,Untrustworthy","","null","","","","decisionFB","","<div class='trialDiv'><img src='Fruit/pears.png'><br><font class='baseline'><strong>Pears Aplenty</strong><p>Choose number of points to bet.</font><div class='respPicDiv'><img src='img/responseButtonOffersNo0L5.png' class='respPic'></div></div>","null","13","Pears Aplenty","Fruit/pears.png","Won","0.2,0.8","12","0.2","178","39","",""
"html-keyboard-response","126","418101","0.0-11.0-3.38","631381096e95278a3f97fed4","bdp_rwlrn","Wed Mar 15 2023 13:29:14 GMT-0500 (Central Daylight Time)","676432","Trustworthy,Untrustworthy","","null","","","","feedback","","<div class='respPicDiv'><img src='img/responseButtonOffersNo0_wht.png' class='respPic'></div><div class='trialDiv'><img src='Fruit/pears.png'><br><font class='baseline'><strong>Pears Aplenty</strong><p><strong><font class='posOutcome'>You WON</font><p>You bet: 5</strong></font> &nbsp; &nbsp; &nbsp; &nbsp; &nbsp; &nbsp;<font class='posOutcome'>you receive: <strong>10</strong></font></div>","null","13","Pears Aplenty","Fruit/pears.png","Won","0.2,0.8","12","0.2","188","39","",""
"html-keyboard-response","127","418603","0.0-11.0-1.39","631381096e95278a3f97fed4","bdp_rwlrn","Wed Mar 15 2023 13:29:14 GMT-0500 (Central Daylight Time)","676432","Trustworthy,Untrustworthy","","501","","","","decision","","<div class='trialDiv'><img src='Fruit/mango.png'><br><font class='baseline'><strong>Mega Mangos</strong><p>Choose number of points to bet.</font><div class='respPicDiv'><img src='img/responseButtonOffersNo0L.png' class='respPic'></div></div>","3","14","Mega Mangos","Fruit/mango.png","Lost","0.2,0.65","11","0.2","193","40","",""
"html-keyboard-response","128","418862","0.0-11.0-2.39","631381096e95278a3f97fed4","bdp_rwlrn","Wed Mar 15 2023 13:29:14 GMT-0500 (Central Daylight Time)","676432","Trustworthy,Untrustworthy","","null","","","","decisionFB","","<div class='trialDiv'><img src='Fruit/mango.png'><br><font class='baseline'><strong>Mega Mangos</strong><p>Choose number of points to bet.</font><div class='respPicDiv'><img src='img/responseButtonOffersNo0L3.png' class='respPic'></div></div>","null","14","Mega Mangos","Fruit/mango.png","Lost","0.2,0.65","11","0.2","190","40","",""
"html-keyboard-response","129","419867","0.0-11.0-3.39","631381096e95278a3f97fed4","bdp_rwlrn","Wed Mar 15 2023 13:29:14 GMT-0500 (Central Daylight Time)","676432","Trustworthy,Untrustworthy","","null","","","","feedback","","<div class='respPicDiv'><img src='img/responseButtonOffersNo0_wht.png' class='respPic'></div><div class='trialDiv'><img src='Fruit/mango.png'><br><font class='baseline'><strong>Mega Mangos</strong><p><strong><font class='negOutcome'>You LOST</font><p>You bet: 3</strong></font> &nbsp; &nbsp; &nbsp; &nbsp; &nbsp; &nbsp;<font class='negOutcome'>You receive: <strong>0</strong></font></div>","null","14","Mega Mangos","Fruit/mango.png","Lost","0.2,0.65","11","0.2","190","40","",""
"html-keyboard-response","130","420335","0.0-11.0-1.40","631381096e95278a3f97fed4","bdp_rwlrn","Wed Mar 15 2023 13:29:14 GMT-0500 (Central Daylight Time)","676432","Trustworthy,Untrustworthy","","467","","","","decision","","<div class='trialDiv'><img src='Fruit/pears.png'><br><font class='baseline'><strong>Pears Aplenty</strong><p>Choose number of points to bet.</font><div class='respPicDiv'><img src='img/responseButtonOffersNo0L.png' class='respPic'></div></div>","4","14","Pears Aplenty","Fruit/pears.png","Won","0.2,0.8","12","0.2","195","41","",""
"html-keyboard-response","131","420595","0.0-11.0-2.40","631381096e95278a3f97fed4","bdp_rwlrn","Wed Mar 15 2023 13:29:14 GMT-0500 (Central Daylight Time)","676432","Trustworthy,Untrustworthy","","null","","","","decisionFB","","<div class='trialDiv'><img src='Fruit/pears.png'><br><font class='baseline'><strong>Pears Aplenty</strong><p>Choose number of points to bet.</font><div class='respPicDiv'><img src='img/responseButtonOffersNo0L4.png' class='respPic'></div></div>","null","14","Pears Aplenty","Fruit/pears.png","Won","0.2,0.8","12","0.2","191","41","",""
"html-keyboard-response","132","421602","0.0-11.0-3.40","631381096e95278a3f97fed4","bdp_rwlrn","Wed Mar 15 2023 13:29:14 GMT-0500 (Central Daylight Time)","676432","Trustworthy,Untrustworthy","","null","","","","feedback","","<div class='respPicDiv'><img src='img/responseButtonOffersNo0_wht.png' class='respPic'></div><div class='trialDiv'><img src='Fruit/pears.png'><br><font class='baseline'><strong>Pears Aplenty</strong><p><strong><font class='posOutcome'>You WON</font><p>You bet: 4</strong></font> &nbsp; &nbsp; &nbsp; &nbsp; &nbsp; &nbsp;<font class='posOutcome'>you receive: <strong>8</strong></font></div>","null","14","Pears Aplenty","Fruit/pears.png","Won","0.2,0.8","12","0.2","199","41","",""
"html-keyboard-response","133","422118","0.0-11.0-1.41","631381096e95278a3f97fed4","bdp_rwlrn","Wed Mar 15 2023 13:29:14 GMT-0500 (Central Daylight Time)","676432","Trustworthy,Untrustworthy","","516","","","","decision","","<div class='trialDiv'><img src='Fruit/watermelon.png'><br><font class='baseline'><strong>Watermelon Win$</strong><p>Choose number of points to bet.</font><div class='respPicDiv'><img src='img/responseButtonOffersNo0L.png' class='respPic'></div></div>","5","14","Watermelon Win$","Fruit/watermelon.png","Lost","0.65,0.2","13","0.65","204","42","",""
"html-keyboard-response","134","422378","0.0-11.0-2.41","631381096e95278a3f97fed4","bdp_rwlrn","Wed Mar 15 2023 13:29:14 GMT-0500 (Central Daylight Time)","676432","Trustworthy,Untrustworthy","","null","","","","decisionFB","","<div class='trialDiv'><img src='Fruit/watermelon.png'><br><font class='baseline'><strong>Watermelon Win$</strong><p>Choose number of points to bet.</font><div class='respPicDiv'><img src='img/responseButtonOffersNo0L5.png' class='respPic'></div></div>","null","14","Watermelon Win$","Fruit/watermelon.png","Lost","0.65,0.2","13","0.65","199","42","",""
"html-keyboard-response","135","423384","0.0-11.0-3.41","631381096e95278a3f97fed4","bdp_rwlrn","Wed Mar 15 2023 13:29:14 GMT-0500 (Central Daylight Time)","676432","Trustworthy,Untrustworthy","","null","","","","feedback","","<div class='respPicDiv'><img src='img/responseButtonOffersNo0_wht.png' class='respPic'></div><div class='trialDiv'><img src='Fruit/watermelon.png'><br><font class='baseline'><strong>Watermelon Win$</strong><p><strong><font class='negOutcome'>You LOST</font><p>You bet: 5</strong></font> &nbsp; &nbsp; &nbsp; &nbsp; &nbsp; &nbsp;<font class='negOutcome'>You receive: <strong>0</strong></font></div>","null","14","Watermelon Win$","Fruit/watermelon.png","Lost","0.65,0.2","13","0.65","199","42","",""
"html-keyboard-response","136","423997","0.0-11.0-1.42","631381096e95278a3f97fed4","bdp_rwlrn","Wed Mar 15 2023 13:29:14 GMT-0500 (Central Daylight Time)","676432","Trustworthy,Untrustworthy","","612","","","","decision","","<div class='trialDiv'><img src='Fruit/pears.png'><br><font class='baseline'><strong>Pears Aplenty</strong><p>Choose number of points to bet.</font><div class='respPicDiv'><img src='img/responseButtonOffersNo0L.png' class='respPic'></div></div>","4","15","Pears Aplenty","Fruit/pears.png","Won","0.2,0.8","12","0.2","204","43","",""
"html-keyboard-response","137","424262","0.0-11.0-2.42","631381096e95278a3f97fed4","bdp_rwlrn","Wed Mar 15 2023 13:29:14 GMT-0500 (Central Daylight Time)","676432","Trustworthy,Untrustworthy","","null","","","","decisionFB","","<div class='trialDiv'><img src='Fruit/pears.png'><br><font class='baseline'><strong>Pears Aplenty</strong><p>Choose number of points to bet.</font><div class='respPicDiv'><img src='img/responseButtonOffersNo0L4.png' class='respPic'></div></div>","null","15","Pears Aplenty","Fruit/pears.png","Won","0.2,0.8","12","0.2","200","43","",""
"html-keyboard-response","138","425268","0.0-11.0-3.42","631381096e95278a3f97fed4","bdp_rwlrn","Wed Mar 15 2023 13:29:14 GMT-0500 (Central Daylight Time)","676432","Trustworthy,Untrustworthy","","null","","","","feedback","","<div class='respPicDiv'><img src='img/responseButtonOffersNo0_wht.png' class='respPic'></div><div class='trialDiv'><img src='Fruit/pears.png'><br><font class='baseline'><strong>Pears Aplenty</strong><p><strong><font class='posOutcome'>You WON</font><p>You bet: 4</strong></font> &nbsp; &nbsp; &nbsp; &nbsp; &nbsp; &nbsp;<font class='posOutcome'>you receive: <strong>8</strong></font></div>","null","15","Pears Aplenty","Fruit/pears.png","Won","0.2,0.8","12","0.2","208","43","",""
"html-keyboard-response","139","426403","0.0-11.0-1.43","631381096e95278a3f97fed4","bdp_rwlrn","Wed Mar 15 2023 13:29:14 GMT-0500 (Central Daylight Time)","676432","Trustworthy,Untrustworthy","","1134","","","","decision","","<div class='trialDiv'><img src='Fruit/mango.png'><br><font class='baseline'><strong>Mega Mangos</strong><p>Choose number of points to bet.</font><div class='respPicDiv'><img src='img/responseButtonOffersNo0L.png' class='respPic'></div></div>","1","15","Mega Mangos","Fruit/mango.png","Won","0.2,0.65","11","0.2","213","44","",""
"html-keyboard-response","140","426662","0.0-11.0-2.43","631381096e95278a3f97fed4","bdp_rwlrn","Wed Mar 15 2023 13:29:14 GMT-0500 (Central Daylight Time)","676432","Trustworthy,Untrustworthy","","null","","","","decisionFB","","<div class='trialDiv'><img src='Fruit/mango.png'><br><font class='baseline'><strong>Mega Mangos</strong><p>Choose number of points to bet.</font><div class='respPicDiv'><img src='img/responseButtonOffersNo0L1.png' class='respPic'></div></div>","null","15","Mega Mangos","Fruit/mango.png","Won","0.2,0.65","11","0.2","212","44","",""
"html-keyboard-response","141","427667","0.0-11.0-3.43","631381096e95278a3f97fed4","bdp_rwlrn","Wed Mar 15 2023 13:29:14 GMT-0500 (Central Daylight Time)","676432","Trustworthy,Untrustworthy","","null","","","","feedback","","<div class='respPicDiv'><img src='img/responseButtonOffersNo0_wht.png' class='respPic'></div><div class='trialDiv'><img src='Fruit/mango.png'><br><font class='baseline'><strong>Mega Mangos</strong><p><strong><font class='posOutcome'>You WON</font><p>You bet: 1</strong></font> &nbsp; &nbsp; &nbsp; &nbsp; &nbsp; &nbsp;<font class='posOutcome'>you receive: <strong>2</strong></font></div>","null","15","Mega Mangos","Fruit/mango.png","Won","0.2,0.65","11","0.2","214","44","",""
"html-keyboard-response","142","429565","0.0-11.0-1.44","631381096e95278a3f97fed4","bdp_rwlrn","Wed Mar 15 2023 13:29:14 GMT-0500 (Central Daylight Time)","676432","Trustworthy,Untrustworthy","","1897","","","","decision","","<div class='trialDiv'><img src='Fruit/watermelon.png'><br><font class='baseline'><strong>Watermelon Win$</strong><p>Choose number of points to bet.</font><div class='respPicDiv'><img src='img/responseButtonOffersNo0L.png' class='respPic'></div></div>","5","15","Watermelon Win$","Fruit/watermelon.png","Lost","0.65,0.2","13","0.65","219","45","",""
"html-keyboard-response","143","429828","0.0-11.0-2.44","631381096e95278a3f97fed4","bdp_rwlrn","Wed Mar 15 2023 13:29:14 GMT-0500 (Central Daylight Time)","676432","Trustworthy,Untrustworthy","","null","","","","decisionFB","","<div class='trialDiv'><img src='Fruit/watermelon.png'><br><font class='baseline'><strong>Watermelon Win$</strong><p>Choose number of points to bet.</font><div class='respPicDiv'><img src='img/responseButtonOffersNo0L5.png' class='respPic'></div></div>","null","15","Watermelon Win$","Fruit/watermelon.png","Lost","0.65,0.2","13","0.65","214","45","",""
"html-keyboard-response","144","430834","0.0-11.0-3.44","631381096e95278a3f97fed4","bdp_rwlrn","Wed Mar 15 2023 13:29:14 GMT-0500 (Central Daylight Time)","676432","Trustworthy,Untrustworthy","","null","","","","feedback","","<div class='respPicDiv'><img src='img/responseButtonOffersNo0_wht.png' class='respPic'></div><div class='trialDiv'><img src='Fruit/watermelon.png'><br><font class='baseline'><strong>Watermelon Win$</strong><p><strong><font class='negOutcome'>You LOST</font><p>You bet: 5</strong></font> &nbsp; &nbsp; &nbsp; &nbsp; &nbsp; &nbsp;<font class='negOutcome'>You receive: <strong>0</strong></font></div>","null","15","Watermelon Win$","Fruit/watermelon.png","Lost","0.65,0.2","13","0.65","214","45","",""
"html-keyboard-response","145","431241","0.0-11.0-1.45","631381096e95278a3f97fed4","bdp_rwlrn","Wed Mar 15 2023 13:29:14 GMT-0500 (Central Daylight Time)","676432","Trustworthy,Untrustworthy","","407","","","","decision","","<div class='trialDiv'><img src='Fruit/mango.png'><br><font class='baseline'><strong>Mega Mangos</strong><p>Choose number of points to bet.</font><div class='respPicDiv'><img src='img/responseButtonOffersNo0L.png' class='respPic'></div></div>","1","16","Mega Mangos","Fruit/mango.png","Won","0.2,0.65","11","0.2","219","46","",""
"html-keyboard-response","146","431496","0.0-11.0-2.45","631381096e95278a3f97fed4","bdp_rwlrn","Wed Mar 15 2023 13:29:14 GMT-0500 (Central Daylight Time)","676432","Trustworthy,Untrustworthy","","null","","","","decisionFB","","<div class='trialDiv'><img src='Fruit/mango.png'><br><font class='baseline'><strong>Mega Mangos</strong><p>Choose number of points to bet.</font><div class='respPicDiv'><img src='img/responseButtonOffersNo0L1.png' class='respPic'></div></div>","null","16","Mega Mangos","Fruit/mango.png","Won","0.2,0.65","11","0.2","218","46","",""
"html-keyboard-response","147","432501","0.0-11.0-3.45","631381096e95278a3f97fed4","bdp_rwlrn","Wed Mar 15 2023 13:29:14 GMT-0500 (Central Daylight Time)","676432","Trustworthy,Untrustworthy","","null","","","","feedback","","<div class='respPicDiv'><img src='img/responseButtonOffersNo0_wht.png' class='respPic'></div><div class='trialDiv'><img src='Fruit/mango.png'><br><font class='baseline'><strong>Mega Mangos</strong><p><strong><font class='posOutcome'>You WON</font><p>You bet: 1</strong></font> &nbsp; &nbsp; &nbsp; &nbsp; &nbsp; &nbsp;<font class='posOutcome'>you receive: <strong>2</strong></font></div>","null","16","Mega Mangos","Fruit/mango.png","Won","0.2,0.65","11","0.2","220","46","",""
"html-keyboard-response","148","432776","0.0-11.0-1.46","631381096e95278a3f97fed4","bdp_rwlrn","Wed Mar 15 2023 13:29:14 GMT-0500 (Central Daylight Time)","676432","Trustworthy,Untrustworthy","","274","","","","decision","","<div class='trialDiv'><img src='Fruit/watermelon.png'><br><font class='baseline'><strong>Watermelon Win$</strong><p>Choose number of points to bet.</font><div class='respPicDiv'><img src='img/responseButtonOffersNo0L.png' class='respPic'></div></div>","1","16","Watermelon Win$","Fruit/watermelon.png","Won","0.65,0.2","13","0.65","225","47","",""
"html-keyboard-response","149","433028","0.0-11.0-2.46","631381096e95278a3f97fed4","bdp_rwlrn","Wed Mar 15 2023 13:29:14 GMT-0500 (Central Daylight Time)","676432","Trustworthy,Untrustworthy","","null","","","","decisionFB","","<div class='trialDiv'><img src='Fruit/watermelon.png'><br><font class='baseline'><strong>Watermelon Win$</strong><p>Choose number of points to bet.</font><div class='respPicDiv'><img src='img/responseButtonOffersNo0L1.png' class='respPic'></div></div>","null","16","Watermelon Win$","Fruit/watermelon.png","Won","0.65,0.2","13","0.65","224","47","",""
"html-keyboard-response","150","434034","0.0-11.0-3.46","631381096e95278a3f97fed4","bdp_rwlrn","Wed Mar 15 2023 13:29:14 GMT-0500 (Central Daylight Time)","676432","Trustworthy,Untrustworthy","","null","","","","feedback","","<div class='respPicDiv'><img src='img/responseButtonOffersNo0_wht.png' class='respPic'></div><div class='trialDiv'><img src='Fruit/watermelon.png'><br><font class='baseline'><strong>Watermelon Win$</strong><p><strong><font class='posOutcome'>You WON</font><p>You bet: 1</strong></font> &nbsp; &nbsp; &nbsp; &nbsp; &nbsp; &nbsp;<font class='posOutcome'>you receive: <strong>2</strong></font></div>","null","16","Watermelon Win$","Fruit/watermelon.png","Won","0.65,0.2","13","0.65","226","47","",""
"html-keyboard-response","151","434713","0.0-11.0-1.47","631381096e95278a3f97fed4","bdp_rwlrn","Wed Mar 15 2023 13:29:14 GMT-0500 (Central Daylight Time)","676432","Trustworthy,Untrustworthy","","678","","","","decision","","<div class='trialDiv'><img src='Fruit/pears.png'><br><font class='baseline'><strong>Pears Aplenty</strong><p>Choose number of points to bet.</font><div class='respPicDiv'><img src='img/responseButtonOffersNo0L.png' class='respPic'></div></div>","1","16","Pears Aplenty","Fruit/pears.png","Lost","0.2,0.8","12","0.2","231","48","",""
"html-keyboard-response","152","434978","0.0-11.0-2.47","631381096e95278a3f97fed4","bdp_rwlrn","Wed Mar 15 2023 13:29:14 GMT-0500 (Central Daylight Time)","676432","Trustworthy,Untrustworthy","","null","","","","decisionFB","","<div class='trialDiv'><img src='Fruit/pears.png'><br><font class='baseline'><strong>Pears Aplenty</strong><p>Choose number of points to bet.</font><div class='respPicDiv'><img src='img/responseButtonOffersNo0L1.png' class='respPic'></div></div>","null","16","Pears Aplenty","Fruit/pears.png","Lost","0.2,0.8","12","0.2","230","48","",""
"html-keyboard-response","153","435984","0.0-11.0-3.47","631381096e95278a3f97fed4","bdp_rwlrn","Wed Mar 15 2023 13:29:14 GMT-0500 (Central Daylight Time)","676432","Trustworthy,Untrustworthy","","null","","","","feedback","","<div class='respPicDiv'><img src='img/responseButtonOffersNo0_wht.png' class='respPic'></div><div class='trialDiv'><img src='Fruit/pears.png'><br><font class='baseline'><strong>Pears Aplenty</strong><p><strong><font class='negOutcome'>You LOST</font><p>You bet: 1</strong></font> &nbsp; &nbsp; &nbsp; &nbsp; &nbsp; &nbsp;<font class='negOutcome'>You receive: <strong>0</strong></font></div>","null","16","Pears Aplenty","Fruit/pears.png","Lost","0.2,0.8","12","0.2","230","48","",""
"html-keyboard-response","154","437661","0.0-11.0-1.48","631381096e95278a3f97fed4","bdp_rwlrn","Wed Mar 15 2023 13:29:14 GMT-0500 (Central Daylight Time)","676432","Trustworthy,Untrustworthy","","1676","","","","decision","","<div class='trialDiv'><img src='Fruit/watermelon.png'><br><font class='baseline'><strong>Watermelon Win$</strong><p>Choose number of points to bet.</font><div class='respPicDiv'><img src='img/responseButtonOffersNo0L.png' class='respPic'></div></div>","5","17","Watermelon Win$","Fruit/watermelon.png","Lost","0.65,0.2","13","0.65","235","49","",""
"html-keyboard-response","155","437913","0.0-11.0-2.48","631381096e95278a3f97fed4","bdp_rwlrn","Wed Mar 15 2023 13:29:14 GMT-0500 (Central Daylight Time)","676432","Trustworthy,Untrustworthy","","null","","","","decisionFB","","<div class='trialDiv'><img src='Fruit/watermelon.png'><br><font class='baseline'><strong>Watermelon Win$</strong><p>Choose number of points to bet.</font><div class='respPicDiv'><img src='img/responseButtonOffersNo0L5.png' class='respPic'></div></div>","null","17","Watermelon Win$","Fruit/watermelon.png","Lost","0.65,0.2","13","0.65","230","49","",""
"html-keyboard-response","156","438917","0.0-11.0-3.48","631381096e95278a3f97fed4","bdp_rwlrn","Wed Mar 15 2023 13:29:14 GMT-0500 (Central Daylight Time)","676432","Trustworthy,Untrustworthy","","null","","","","feedback","","<div class='respPicDiv'><img src='img/responseButtonOffersNo0_wht.png' class='respPic'></div><div class='trialDiv'><img src='Fruit/watermelon.png'><br><font class='baseline'><strong>Watermelon Win$</strong><p><strong><font class='negOutcome'>You LOST</font><p>You bet: 5</strong></font> &nbsp; &nbsp; &nbsp; &nbsp; &nbsp; &nbsp;<font class='negOutcome'>You receive: <strong>0</strong></font></div>","null","17","Watermelon Win$","Fruit/watermelon.png","Lost","0.65,0.2","13","0.65","230","49","",""
"html-keyboard-response","157","439247","0.0-11.0-1.49","631381096e95278a3f97fed4","bdp_rwlrn","Wed Mar 15 2023 13:29:14 GMT-0500 (Central Daylight Time)","676432","Trustworthy,Untrustworthy","","329","","","","decision","","<div class='trialDiv'><img src='Fruit/mango.png'><br><font class='baseline'><strong>Mega Mangos</strong><p>Choose number of points to bet.</font><div class='respPicDiv'><img src='img/responseButtonOffersNo0L.png' class='respPic'></div></div>","5","17","Mega Mangos","Fruit/mango.png","Won","0.2,0.65","11","0.2","235","50","",""
"html-keyboard-response","158","439512","0.0-11.0-2.49","631381096e95278a3f97fed4","bdp_rwlrn","Wed Mar 15 2023 13:29:14 GMT-0500 (Central Daylight Time)","676432","Trustworthy,Untrustworthy","","null","","","","decisionFB","","<div class='trialDiv'><img src='Fruit/mango.png'><br><font class='baseline'><strong>Mega Mangos</strong><p>Choose number of points to bet.</font><div class='respPicDiv'><img src='img/responseButtonOffersNo0L5.png' class='respPic'></div></div>","null","17","Mega Mangos","Fruit/mango.png","Won","0.2,0.65","11","0.2","230","50","",""
"html-keyboard-response","159","440517","0.0-11.0-3.49","631381096e95278a3f97fed4","bdp_rwlrn","Wed Mar 15 2023 13:29:14 GMT-0500 (Central Daylight Time)","676432","Trustworthy,Untrustworthy","","null","","","","feedback","","<div class='respPicDiv'><img src='img/responseButtonOffersNo0_wht.png' class='respPic'></div><div class='trialDiv'><img src='Fruit/mango.png'><br><font class='baseline'><strong>Mega Mangos</strong><p><strong><font class='posOutcome'>You WON</font><p>You bet: 5</strong></font> &nbsp; &nbsp; &nbsp; &nbsp; &nbsp; &nbsp;<font class='posOutcome'>you receive: <strong>10</strong></font></div>","null","17","Mega Mangos","Fruit/mango.png","Won","0.2,0.65","11","0.2","240","50","",""
"html-keyboard-response","160","442368","0.0-11.0-1.50","631381096e95278a3f97fed4","bdp_rwlrn","Wed Mar 15 2023 13:29:14 GMT-0500 (Central Daylight Time)","676432","Trustworthy,Untrustworthy","","1851","","","","decision","","<div class='trialDiv'><img src='Fruit/pears.png'><br><font class='baseline'><strong>Pears Aplenty</strong><p>Choose number of points to bet.</font><div class='respPicDiv'><img src='img/responseButtonOffersNo0L.png' class='respPic'></div></div>","1","17","Pears Aplenty","Fruit/pears.png","Won","0.2,0.8","12","0.2","245","51","",""
"html-keyboard-response","161","442628","0.0-11.0-2.50","631381096e95278a3f97fed4","bdp_rwlrn","Wed Mar 15 2023 13:29:14 GMT-0500 (Central Daylight Time)","676432","Trustworthy,Untrustworthy","","null","","","","decisionFB","","<div class='trialDiv'><img src='Fruit/pears.png'><br><font class='baseline'><strong>Pears Aplenty</strong><p>Choose number of points to bet.</font><div class='respPicDiv'><img src='img/responseButtonOffersNo0L1.png' class='respPic'></div></div>","null","17","Pears Aplenty","Fruit/pears.png","Won","0.2,0.8","12","0.2","244","51","",""
"html-keyboard-response","162","443634","0.0-11.0-3.50","631381096e95278a3f97fed4","bdp_rwlrn","Wed Mar 15 2023 13:29:14 GMT-0500 (Central Daylight Time)","676432","Trustworthy,Untrustworthy","","null","","","","feedback","","<div class='respPicDiv'><img src='img/responseButtonOffersNo0_wht.png' class='respPic'></div><div class='trialDiv'><img src='Fruit/pears.png'><br><font class='baseline'><strong>Pears Aplenty</strong><p><strong><font class='posOutcome'>You WON</font><p>You bet: 1</strong></font> &nbsp; &nbsp; &nbsp; &nbsp; &nbsp; &nbsp;<font class='posOutcome'>you receive: <strong>2</strong></font></div>","null","17","Pears Aplenty","Fruit/pears.png","Won","0.2,0.8","12","0.2","246","51","",""
