"event","trial","time","trialtype","numBlurs","subject_id","task","startTime","totalTime","labels","trial_type","trial_index","time_elapsed","internal_node_id","view_history","rt","success","stimulus","key_press","ltround","name","fileID","outcome","lottotype","lottoswpt","lottocurrpshare","point_total","round","faceID","face"
"blur","0","0","blurevent","1","63e5b3e89a3823139cb9d35e","bdp_rwlrn","Fri Mar 10 2023 15:26:51 GMT-0500 (Eastern Standard Time)","335920","Untrustworthy,Trustworthy","","","","","","","","","","","","","","","","","","","",""
"focus","0","0","focusevent","","63e5b3e89a3823139cb9d35e","bdp_rwlrn","Fri Mar 10 2023 15:26:51 GMT-0500 (Eastern Standard Time)","335920","Untrustworthy,Trustworthy","","","","","","","","","","","","","","","","","","","",""
"","","","","","63e5b3e89a3823139cb9d35e","bdp_rwlrn","Fri Mar 10 2023 15:26:51 GMT-0500 (Eastern Standard Time)","335920","Untrustworthy,Trustworthy","pavlovia","0","4","0.0-0.0","","","","","","","","","","","","","","","",""
"","","","","","63e5b3e89a3823139cb9d35e","bdp_rwlrn","Fri Mar 10 2023 15:26:51 GMT-0500 (Eastern Standard Time)","335920","Untrustworthy,Trustworthy","instructions","1","2241","0.0-1.0","[{""page_index"":0,""viewing_time"":2236}]","2236","","","","","","","","","","","","","",""
"fullscreenenter","2","6069","fullscreenenter","","63e5b3e89a3823139cb9d35e","bdp_rwlrn","Fri Mar 10 2023 15:26:51 GMT-0500 (Eastern Standard Time)","335920","Untrustworthy,Trustworthy","","","","","","","","","","","","","","","","","","","",""
"","","","","","63e5b3e89a3823139cb9d35e","bdp_rwlrn","Fri Mar 10 2023 15:26:51 GMT-0500 (Eastern Standard Time)","335920","Untrustworthy,Trustworthy","fullscreen","2","7045","0.0-2.0","","","true","","","","","","","","","","","","",""
"","","","","","63e5b3e89a3823139cb9d35e","bdp_rwlrn","Fri Mar 10 2023 15:26:51 GMT-0500 (Eastern Standard Time)","335920","Untrustworthy,Trustworthy","instructions","3","77327","0.0-4.0","[{""page_index"":0,""viewing_time"":51840},{""page_index"":1,""viewing_time"":6823},{""page_index"":2,""viewing_time"":2801},{""page_index"":3,""viewing_time"":3456},{""page_index"":4,""viewing_time"":4383},{""page_index"":5,""viewing_time"":976}]","70279","","","","","","","","","","","","","",""
"","","","","","63e5b3e89a3823139cb9d35e","bdp_rwlrn","Fri Mar 10 2023 15:26:51 GMT-0500 (Eastern Standard Time)","335920","Untrustworthy,Trustworthy","html-keyboard-response","4","81713","0.0-5.0","","4383","","<div class='header' style='text-align:left; position: absolute; top: 5%; left: 5%;'><small>Task 3 of 5</small></div><div class='instruxDiv'><p><strong>1) What is the maximum number of points you can choose to bet on a lottery?</strong></p><p>a) 0</p><p>b) 1</p><p>c) 5</p>","B","","","","","","","","","","",""
"","","","","","63e5b3e89a3823139cb9d35e","bdp_rwlrn","Fri Mar 10 2023 15:26:51 GMT-0500 (Eastern Standard Time)","335920","Untrustworthy,Trustworthy","html-keyboard-response","5","86448","0.0-6.0","","4633","","<div class='header' style='text-align:left; position: absolute; top: 5%; left: 5%;'><small>Task 3 of 5</small></div><div class='instruxDiv'><p><strong>1) What is the maximum number of points you can choose to bet on a lottery?</strong></p><p>a) 0</p><p style='color:#FF0000'>b) 1</p><p>c) 5</p><h3 style='color:#FF0000'>Incorrect!</h3><h3 class='center-content'>The correct response is c).</h3><h3 class='center-content'>The maximum number of points you can choose to bet on a lottery is 5 points.</h3><p><em>Press SPACEBAR to continue</em></p></div>"," ","","","","","","","","","","",""
"","","","","","63e5b3e89a3823139cb9d35e","bdp_rwlrn","Fri Mar 10 2023 15:26:51 GMT-0500 (Eastern Standard Time)","335920","Untrustworthy,Trustworthy","html-keyboard-response","6","94160","0.0-7.0","","7609","","<div class='header' style='text-align:left; position: absolute; top: 5%; left: 5%;'><small>Task 3 of 5</small></div><div class='instruxDiv'><p><strong>2) How many points can you win each round?</strong></p><p>a) 10 points</p><p>b) Double what you bet</p><p>c) Quadruple what you bet</p>","B","","","","","","","","","","",""
"","","","","","63e5b3e89a3823139cb9d35e","bdp_rwlrn","Fri Mar 10 2023 15:26:51 GMT-0500 (Eastern Standard Time)","335920","Untrustworthy,Trustworthy","html-keyboard-response","7","95904","0.0-8.0","","1641","","<div class='header' style='text-align:left; position: absolute; top: 5%; left: 5%;'><small>Task 3 of 5</small></div><div class='instruxDiv'><p><strong>2) How many points can you win each round?</strong></p><p>a) 10 points</p><p style='color:#00FF00'>b) Double what you bet</p><p>c) Quadruple what you bet</p><h3 style='color:#00FF00'>Correct!</h3><h3 class='center-content'>The correct response is b).</h3><h3 class='center-content'>You can win double the amount of points you bet.</h3><p><em>Press SPACEBAR to continue</em></p></div>"," ","","","","","","","","","","",""
"","","","","","63e5b3e89a3823139cb9d35e","bdp_rwlrn","Fri Mar 10 2023 15:26:51 GMT-0500 (Eastern Standard Time)","335920","Untrustworthy,Trustworthy","html-keyboard-response","8","101009","0.0-9.0","","null","","<div class='header' style='text-align:left; position: absolute; top: 5%; left: 5%;'><small>Task 3 of 5</small></div><div class='instruxDiv'><p>Thank you for completing the quiz<p>These are the actual lotteries you will be playing in the next block:<p><div class='tc' align='center'><img class='introPic' src='Fruit/melon.png'><br><strong>Melon Millions</strong></div><div class='bl' align='center'><img class='introPic' src='Fruit/lemon.png'><br><strong>Lucky Lemons</strong></div><div class='br' align='center'><img class='introPic' src='Fruit/mixed-berries2.png'><br><strong>Berry Bla$t</strong></div></div><p>Across <strong>66 rounds</strong> you will play each lottery <strong>22 times</strong> (in random order).<p style='align:center; color:white'><font <em>Press SPACEBAR to continue</em></p>","null","","","","","","","","","","",""
"","","","","","63e5b3e89a3823139cb9d35e","bdp_rwlrn","Fri Mar 10 2023 15:26:51 GMT-0500 (Eastern Standard Time)","335920","Untrustworthy,Trustworthy","instructions","9","108368","0.0-10.0","[{""page_index"":0,""viewing_time"":5302},{""page_index"":1,""viewing_time"":2055}]","7357","","","","","","","","","","","","","",""
"","","","decision","","63e5b3e89a3823139cb9d35e","bdp_rwlrn","Fri Mar 10 2023 15:26:51 GMT-0500 (Eastern Standard Time)","335920","Untrustworthy,Trustworthy","html-keyboard-response","10","110888","0.0-11.0-1.0","","2417","","<div class='trialDiv'><img src='Fruit/lemon.png'><br><font class='baseline'><strong>Lucky Lemons</strong><p>Choose number of points to bet.</font><div class='respPicDiv'><img src='img/responseButtonOffersNo0L.png' class='respPic'></div></div>","5","1","Lucky Lemons","Fruit/lemon.png","Lost","0.2,0.65","10","0.2","5","1","",""
"","","","decisionFB","","63e5b3e89a3823139cb9d35e","bdp_rwlrn","Fri Mar 10 2023 15:26:51 GMT-0500 (Eastern Standard Time)","335920","Untrustworthy,Trustworthy","html-keyboard-response","11","111142","0.0-11.0-2.0","","null","","<div class='trialDiv'><img src='Fruit/lemon.png'><br><font class='baseline'><strong>Lucky Lemons</strong><p>Choose number of points to bet.</font><div class='respPicDiv'><img src='img/responseButtonOffersNo0L5.png' class='respPic'></div></div>","null","1","Lucky Lemons","Fruit/lemon.png","Lost","0.2,0.65","10","0.2","0","1","",""
"","","","feedback","","63e5b3e89a3823139cb9d35e","bdp_rwlrn","Fri Mar 10 2023 15:26:51 GMT-0500 (Eastern Standard Time)","335920","Untrustworthy,Trustworthy","html-keyboard-response","12","112144","0.0-11.0-3.0","","null","","<div class='respPicDiv'><img src='img/responseButtonOffersNo0_wht.png' class='respPic'></div><div class='trialDiv'><img src='Fruit/lemon.png'><br><font class='baseline'><strong>Lucky Lemons</strong><p><strong><font class='negOutcome'>You LOST</font><p>You bet: 5</strong></font> &nbsp; &nbsp; &nbsp; &nbsp; &nbsp; &nbsp;<font class='negOutcome'>You receive: <strong>0</strong></font></div>","null","1","Lucky Lemons","Fruit/lemon.png","Lost","0.2,0.65","10","0.2","0","1","",""
"","","","decision","","63e5b3e89a3823139cb9d35e","bdp_rwlrn","Fri Mar 10 2023 15:26:51 GMT-0500 (Eastern Standard Time)","335920","Untrustworthy,Trustworthy","html-keyboard-response","13","112616","0.0-11.0-1.1","","470","","<div class='trialDiv'><img src='Fruit/mixed-berries2.png'><br><font class='baseline'><strong>Berry Bla$t</strong><p>Choose number of points to bet.</font><div class='respPicDiv'><img src='img/responseButtonOffersNo0L.png' class='respPic'></div></div>","5","1","Berry Bla$t","Fruit/mixed-berries2.png","Won","0.8,0.35","8","0.8","5","2","",""
"","","","decisionFB","","63e5b3e89a3823139cb9d35e","bdp_rwlrn","Fri Mar 10 2023 15:26:51 GMT-0500 (Eastern Standard Time)","335920","Untrustworthy,Trustworthy","html-keyboard-response","14","112874","0.0-11.0-2.1","","null","","<div class='trialDiv'><img src='Fruit/mixed-berries2.png'><br><font class='baseline'><strong>Berry Bla$t</strong><p>Choose number of points to bet.</font><div class='respPicDiv'><img src='img/responseButtonOffersNo0L5.png' class='respPic'></div></div>","null","1","Berry Bla$t","Fruit/mixed-berries2.png","Won","0.8,0.35","8","0.8","0","2","",""
"","","","feedback","","63e5b3e89a3823139cb9d35e","bdp_rwlrn","Fri Mar 10 2023 15:26:51 GMT-0500 (Eastern Standard Time)","335920","Untrustworthy,Trustworthy","html-keyboard-response","15","113876","0.0-11.0-3.1","","null","","<div class='respPicDiv'><img src='img/responseButtonOffersNo0_wht.png' class='respPic'></div><div class='trialDiv'><img src='Fruit/mixed-berries2.png'><br><font class='baseline'><strong>Berry Bla$t</strong><p><strong><font class='posOutcome'>You WON</font><p>You bet: 5</strong></font> &nbsp; &nbsp; &nbsp; &nbsp; &nbsp; &nbsp;<font class='posOutcome'>you receive: <strong>10</strong></font></div>","null","1","Berry Bla$t","Fruit/mixed-berries2.png","Won","0.8,0.35","8","0.8","10","2","",""
"","","","decision","","63e5b3e89a3823139cb9d35e","bdp_rwlrn","Fri Mar 10 2023 15:26:51 GMT-0500 (Eastern Standard Time)","335920","Untrustworthy,Trustworthy","html-keyboard-response","16","114216","0.0-11.0-1.2","","338","","<div class='trialDiv'><img src='Fruit/melon.png'><br><font class='baseline'><strong>Melon Millions</strong><p>Choose number of points to bet.</font><div class='respPicDiv'><img src='img/responseButtonOffersNo0L.png' class='respPic'></div></div>","5","1","Melon Millions","Fruit/melon.png","Lost","0.2,0.8","12","0.2","15","3","",""
"","","","decisionFB","","63e5b3e89a3823139cb9d35e","bdp_rwlrn","Fri Mar 10 2023 15:26:51 GMT-0500 (Eastern Standard Time)","335920","Untrustworthy,Trustworthy","html-keyboard-response","17","114468","0.0-11.0-2.2","","null","","<div class='trialDiv'><img src='Fruit/melon.png'><br><font class='baseline'><strong>Melon Millions</strong><p>Choose number of points to bet.</font><div class='respPicDiv'><img src='img/responseButtonOffersNo0L5.png' class='respPic'></div></div>","null","1","Melon Millions","Fruit/melon.png","Lost","0.2,0.8","12","0.2","10","3","",""
"","","","feedback","","63e5b3e89a3823139cb9d35e","bdp_rwlrn","Fri Mar 10 2023 15:26:51 GMT-0500 (Eastern Standard Time)","335920","Untrustworthy,Trustworthy","html-keyboard-response","18","115471","0.0-11.0-3.2","","null","","<div class='respPicDiv'><img src='img/responseButtonOffersNo0_wht.png' class='respPic'></div><div class='trialDiv'><img src='Fruit/melon.png'><br><font class='baseline'><strong>Melon Millions</strong><p><strong><font class='negOutcome'>You LOST</font><p>You bet: 5</strong></font> &nbsp; &nbsp; &nbsp; &nbsp; &nbsp; &nbsp;<font class='negOutcome'>You receive: <strong>0</strong></font></div>","null","1","Melon Millions","Fruit/melon.png","Lost","0.2,0.8","12","0.2","10","3","",""
"","","","decision","","63e5b3e89a3823139cb9d35e","bdp_rwlrn","Fri Mar 10 2023 15:26:51 GMT-0500 (Eastern Standard Time)","335920","Untrustworthy,Trustworthy","html-keyboard-response","19","115776","0.0-11.0-1.3","","303","","<div class='trialDiv'><img src='Fruit/mixed-berries2.png'><br><font class='baseline'><strong>Berry Bla$t</strong><p>Choose number of points to bet.</font><div class='respPicDiv'><img src='img/responseButtonOffersNo0L.png' class='respPic'></div></div>","5","2","Berry Bla$t","Fruit/mixed-berries2.png","Won","0.8,0.35","8","0.8","15","4","",""
"","","","decisionFB","","63e5b3e89a3823139cb9d35e","bdp_rwlrn","Fri Mar 10 2023 15:26:51 GMT-0500 (Eastern Standard Time)","335920","Untrustworthy,Trustworthy","html-keyboard-response","20","116028","0.0-11.0-2.3","","null","","<div class='trialDiv'><img src='Fruit/mixed-berries2.png'><br><font class='baseline'><strong>Berry Bla$t</strong><p>Choose number of points to bet.</font><div class='respPicDiv'><img src='img/responseButtonOffersNo0L5.png' class='respPic'></div></div>","null","2","Berry Bla$t","Fruit/mixed-berries2.png","Won","0.8,0.35","8","0.8","10","4","",""
"","","","feedback","","63e5b3e89a3823139cb9d35e","bdp_rwlrn","Fri Mar 10 2023 15:26:51 GMT-0500 (Eastern Standard Time)","335920","Untrustworthy,Trustworthy","html-keyboard-response","21","117031","0.0-11.0-3.3","","null","","<div class='respPicDiv'><img src='img/responseButtonOffersNo0_wht.png' class='respPic'></div><div class='trialDiv'><img src='Fruit/mixed-berries2.png'><br><font class='baseline'><strong>Berry Bla$t</strong><p><strong><font class='posOutcome'>You WON</font><p>You bet: 5</strong></font> &nbsp; &nbsp; &nbsp; &nbsp; &nbsp; &nbsp;<font class='posOutcome'>you receive: <strong>10</strong></font></div>","null","2","Berry Bla$t","Fruit/mixed-berries2.png","Won","0.8,0.35","8","0.8","20","4","",""
"","","","decision","","63e5b3e89a3823139cb9d35e","bdp_rwlrn","Fri Mar 10 2023 15:26:51 GMT-0500 (Eastern Standard Time)","335920","Untrustworthy,Trustworthy","html-keyboard-response","22","117328","0.0-11.0-1.4","","295","","<div class='trialDiv'><img src='Fruit/melon.png'><br><font class='baseline'><strong>Melon Millions</strong><p>Choose number of points to bet.</font><div class='respPicDiv'><img src='img/responseButtonOffersNo0L.png' class='respPic'></div></div>","5","2","Melon Millions","Fruit/melon.png","Won","0.2,0.8","12","0.2","25","5","",""
"","","","decisionFB","","63e5b3e89a3823139cb9d35e","bdp_rwlrn","Fri Mar 10 2023 15:26:51 GMT-0500 (Eastern Standard Time)","335920","Untrustworthy,Trustworthy","html-keyboard-response","23","117580","0.0-11.0-2.4","","null","","<div class='trialDiv'><img src='Fruit/melon.png'><br><font class='baseline'><strong>Melon Millions</strong><p>Choose number of points to bet.</font><div class='respPicDiv'><img src='img/responseButtonOffersNo0L5.png' class='respPic'></div></div>","null","2","Melon Millions","Fruit/melon.png","Won","0.2,0.8","12","0.2","20","5","",""
"","","","feedback","","63e5b3e89a3823139cb9d35e","bdp_rwlrn","Fri Mar 10 2023 15:26:51 GMT-0500 (Eastern Standard Time)","335920","Untrustworthy,Trustworthy","html-keyboard-response","24","118583","0.0-11.0-3.4","","null","","<div class='respPicDiv'><img src='img/responseButtonOffersNo0_wht.png' class='respPic'></div><div class='trialDiv'><img src='Fruit/melon.png'><br><font class='baseline'><strong>Melon Millions</strong><p><strong><font class='posOutcome'>You WON</font><p>You bet: 5</strong></font> &nbsp; &nbsp; &nbsp; &nbsp; &nbsp; &nbsp;<font class='posOutcome'>you receive: <strong>10</strong></font></div>","null","2","Melon Millions","Fruit/melon.png","Won","0.2,0.8","12","0.2","30","5","",""
"","","","decision","","63e5b3e89a3823139cb9d35e","bdp_rwlrn","Fri Mar 10 2023 15:26:51 GMT-0500 (Eastern Standard Time)","335920","Untrustworthy,Trustworthy","html-keyboard-response","25","118760","0.0-11.0-1.5","","175","","<div class='trialDiv'><img src='Fruit/lemon.png'><br><font class='baseline'><strong>Lucky Lemons</strong><p>Choose number of points to bet.</font><div class='respPicDiv'><img src='img/responseButtonOffersNo0L.png' class='respPic'></div></div>","5","2","Lucky Lemons","Fruit/lemon.png","Lost","0.2,0.65","10","0.2","35","6","",""
"","","","decisionFB","","63e5b3e89a3823139cb9d35e","bdp_rwlrn","Fri Mar 10 2023 15:26:51 GMT-0500 (Eastern Standard Time)","335920","Untrustworthy,Trustworthy","html-keyboard-response","26","119012","0.0-11.0-2.5","","null","","<div class='trialDiv'><img src='Fruit/lemon.png'><br><font class='baseline'><strong>Lucky Lemons</strong><p>Choose number of points to bet.</font><div class='respPicDiv'><img src='img/responseButtonOffersNo0L5.png' class='respPic'></div></div>","null","2","Lucky Lemons","Fruit/lemon.png","Lost","0.2,0.65","10","0.2","30","6","",""
"","","","feedback","","63e5b3e89a3823139cb9d35e","bdp_rwlrn","Fri Mar 10 2023 15:26:51 GMT-0500 (Eastern Standard Time)","335920","Untrustworthy,Trustworthy","html-keyboard-response","27","120014","0.0-11.0-3.5","","null","","<div class='respPicDiv'><img src='img/responseButtonOffersNo0_wht.png' class='respPic'></div><div class='trialDiv'><img src='Fruit/lemon.png'><br><font class='baseline'><strong>Lucky Lemons</strong><p><strong><font class='negOutcome'>You LOST</font><p>You bet: 5</strong></font> &nbsp; &nbsp; &nbsp; &nbsp; &nbsp; &nbsp;<font class='negOutcome'>You receive: <strong>0</strong></font></div>","null","2","Lucky Lemons","Fruit/lemon.png","Lost","0.2,0.65","10","0.2","30","6","",""
"","","","decision","","63e5b3e89a3823139cb9d35e","bdp_rwlrn","Fri Mar 10 2023 15:26:51 GMT-0500 (Eastern Standard Time)","335920","Untrustworthy,Trustworthy","html-keyboard-response","28","120039","0.0-11.0-1.6","","24","","<div class='trialDiv'><img src='Fruit/melon.png'><br><font class='baseline'><strong>Melon Millions</strong><p>Choose number of points to bet.</font><div class='respPicDiv'><img src='img/responseButtonOffersNo0L.png' class='respPic'></div></div>","5","3","Melon Millions","Fruit/melon.png","Lost","0.2,0.8","12","0.2","35","7","",""
"","","","decisionFB","","63e5b3e89a3823139cb9d35e","bdp_rwlrn","Fri Mar 10 2023 15:26:51 GMT-0500 (Eastern Standard Time)","335920","Untrustworthy,Trustworthy","html-keyboard-response","29","120291","0.0-11.0-2.6","","null","","<div class='trialDiv'><img src='Fruit/melon.png'><br><font class='baseline'><strong>Melon Millions</strong><p>Choose number of points to bet.</font><div class='respPicDiv'><img src='img/responseButtonOffersNo0L5.png' class='respPic'></div></div>","null","3","Melon Millions","Fruit/melon.png","Lost","0.2,0.8","12","0.2","30","7","",""
"","","","feedback","","63e5b3e89a3823139cb9d35e","bdp_rwlrn","Fri Mar 10 2023 15:26:51 GMT-0500 (Eastern Standard Time)","335920","Untrustworthy,Trustworthy","html-keyboard-response","30","121296","0.0-11.0-3.6","","null","","<div class='respPicDiv'><img src='img/responseButtonOffersNo0_wht.png' class='respPic'></div><div class='trialDiv'><img src='Fruit/melon.png'><br><font class='baseline'><strong>Melon Millions</strong><p><strong><font class='negOutcome'>You LOST</font><p>You bet: 5</strong></font> &nbsp; &nbsp; &nbsp; &nbsp; &nbsp; &nbsp;<font class='negOutcome'>You receive: <strong>0</strong></font></div>","null","3","Melon Millions","Fruit/melon.png","Lost","0.2,0.8","12","0.2","30","7","",""
"","","","decision","","63e5b3e89a3823139cb9d35e","bdp_rwlrn","Fri Mar 10 2023 15:26:51 GMT-0500 (Eastern Standard Time)","335920","Untrustworthy,Trustworthy","html-keyboard-response","31","121376","0.0-11.0-1.7","","79","","<div class='trialDiv'><img src='Fruit/mixed-berries2.png'><br><font class='baseline'><strong>Berry Bla$t</strong><p>Choose number of points to bet.</font><div class='respPicDiv'><img src='img/responseButtonOffersNo0L.png' class='respPic'></div></div>","5","3","Berry Bla$t","Fruit/mixed-berries2.png","Won","0.8,0.35","8","0.8","35","8","",""
"","","","decisionFB","","63e5b3e89a3823139cb9d35e","bdp_rwlrn","Fri Mar 10 2023 15:26:51 GMT-0500 (Eastern Standard Time)","335920","Untrustworthy,Trustworthy","html-keyboard-response","32","121629","0.0-11.0-2.7","","null","","<div class='trialDiv'><img src='Fruit/mixed-berries2.png'><br><font class='baseline'><strong>Berry Bla$t</strong><p>Choose number of points to bet.</font><div class='respPicDiv'><img src='img/responseButtonOffersNo0L5.png' class='respPic'></div></div>","null","3","Berry Bla$t","Fruit/mixed-berries2.png","Won","0.8,0.35","8","0.8","30","8","",""
"","","","feedback","","63e5b3e89a3823139cb9d35e","bdp_rwlrn","Fri Mar 10 2023 15:26:51 GMT-0500 (Eastern Standard Time)","335920","Untrustworthy,Trustworthy","html-keyboard-response","33","122633","0.0-11.0-3.7","","null","","<div class='respPicDiv'><img src='img/responseButtonOffersNo0_wht.png' class='respPic'></div><div class='trialDiv'><img src='Fruit/mixed-berries2.png'><br><font class='baseline'><strong>Berry Bla$t</strong><p><strong><font class='posOutcome'>You WON</font><p>You bet: 5</strong></font> &nbsp; &nbsp; &nbsp; &nbsp; &nbsp; &nbsp;<font class='posOutcome'>you receive: <strong>10</strong></font></div>","null","3","Berry Bla$t","Fruit/mixed-berries2.png","Won","0.8,0.35","8","0.8","40","8","",""
"","","","decision","","63e5b3e89a3823139cb9d35e","bdp_rwlrn","Fri Mar 10 2023 15:26:51 GMT-0500 (Eastern Standard Time)","335920","Untrustworthy,Trustworthy","html-keyboard-response","34","123304","0.0-11.0-1.8","","669","","<div class='trialDiv'><img src='Fruit/lemon.png'><br><font class='baseline'><strong>Lucky Lemons</strong><p>Choose number of points to bet.</font><div class='respPicDiv'><img src='img/responseButtonOffersNo0L.png' class='respPic'></div></div>","5","3","Lucky Lemons","Fruit/lemon.png","Lost","0.2,0.65","10","0.2","45","9","",""
"","","","decisionFB","","63e5b3e89a3823139cb9d35e","bdp_rwlrn","Fri Mar 10 2023 15:26:51 GMT-0500 (Eastern Standard Time)","335920","Untrustworthy,Trustworthy","html-keyboard-response","35","123556","0.0-11.0-2.8","","null","","<div class='trialDiv'><img src='Fruit/lemon.png'><br><font class='baseline'><strong>Lucky Lemons</strong><p>Choose number of points to bet.</font><div class='respPicDiv'><img src='img/responseButtonOffersNo0L5.png' class='respPic'></div></div>","null","3","Lucky Lemons","Fruit/lemon.png","Lost","0.2,0.65","10","0.2","40","9","",""
"","","","feedback","","63e5b3e89a3823139cb9d35e","bdp_rwlrn","Fri Mar 10 2023 15:26:51 GMT-0500 (Eastern Standard Time)","335920","Untrustworthy,Trustworthy","html-keyboard-response","36","124558","0.0-11.0-3.8","","null","","<div class='respPicDiv'><img src='img/responseButtonOffersNo0_wht.png' class='respPic'></div><div class='trialDiv'><img src='Fruit/lemon.png'><br><font class='baseline'><strong>Lucky Lemons</strong><p><strong><font class='negOutcome'>You LOST</font><p>You bet: 5</strong></font> &nbsp; &nbsp; &nbsp; &nbsp; &nbsp; &nbsp;<font class='negOutcome'>You receive: <strong>0</strong></font></div>","null","3","Lucky Lemons","Fruit/lemon.png","Lost","0.2,0.65","10","0.2","40","9","",""
"","","","decision","","63e5b3e89a3823139cb9d35e","bdp_rwlrn","Fri Mar 10 2023 15:26:51 GMT-0500 (Eastern Standard Time)","335920","Untrustworthy,Trustworthy","html-keyboard-response","37","124623","0.0-11.0-1.9","","64","","<div class='trialDiv'><img src='Fruit/melon.png'><br><font class='baseline'><strong>Melon Millions</strong><p>Choose number of points to bet.</font><div class='respPicDiv'><img src='img/responseButtonOffersNo0L.png' class='respPic'></div></div>","5","4","Melon Millions","Fruit/melon.png","Lost","0.2,0.8","12","0.2","45","10","",""
"","","","decisionFB","","63e5b3e89a3823139cb9d35e","bdp_rwlrn","Fri Mar 10 2023 15:26:51 GMT-0500 (Eastern Standard Time)","335920","Untrustworthy,Trustworthy","html-keyboard-response","38","124875","0.0-11.0-2.9","","null","","<div class='trialDiv'><img src='Fruit/melon.png'><br><font class='baseline'><strong>Melon Millions</strong><p>Choose number of points to bet.</font><div class='respPicDiv'><img src='img/responseButtonOffersNo0L5.png' class='respPic'></div></div>","null","4","Melon Millions","Fruit/melon.png","Lost","0.2,0.8","12","0.2","40","10","",""
"","","","feedback","","63e5b3e89a3823139cb9d35e","bdp_rwlrn","Fri Mar 10 2023 15:26:51 GMT-0500 (Eastern Standard Time)","335920","Untrustworthy,Trustworthy","html-keyboard-response","39","125877","0.0-11.0-3.9","","null","","<div class='respPicDiv'><img src='img/responseButtonOffersNo0_wht.png' class='respPic'></div><div class='trialDiv'><img src='Fruit/melon.png'><br><font class='baseline'><strong>Melon Millions</strong><p><strong><font class='negOutcome'>You LOST</font><p>You bet: 5</strong></font> &nbsp; &nbsp; &nbsp; &nbsp; &nbsp; &nbsp;<font class='negOutcome'>You receive: <strong>0</strong></font></div>","null","4","Melon Millions","Fruit/melon.png","Lost","0.2,0.8","12","0.2","40","10","",""
"","","","decision","","63e5b3e89a3823139cb9d35e","bdp_rwlrn","Fri Mar 10 2023 15:26:51 GMT-0500 (Eastern Standard Time)","335920","Untrustworthy,Trustworthy","html-keyboard-response","40","126008","0.0-11.0-1.10","","129","","<div class='trialDiv'><img src='Fruit/mixed-berries2.png'><br><font class='baseline'><strong>Berry Bla$t</strong><p>Choose number of points to bet.</font><div class='respPicDiv'><img src='img/responseButtonOffersNo0L.png' class='respPic'></div></div>","5","4","Berry Bla$t","Fruit/mixed-berries2.png","Won","0.8,0.35","8","0.8","45","11","",""
"","","","decisionFB","","63e5b3e89a3823139cb9d35e","bdp_rwlrn","Fri Mar 10 2023 15:26:51 GMT-0500 (Eastern Standard Time)","335920","Untrustworthy,Trustworthy","html-keyboard-response","41","126260","0.0-11.0-2.10","","null","","<div class='trialDiv'><img src='Fruit/mixed-berries2.png'><br><font class='baseline'><strong>Berry Bla$t</strong><p>Choose number of points to bet.</font><div class='respPicDiv'><img src='img/responseButtonOffersNo0L5.png' class='respPic'></div></div>","null","4","Berry Bla$t","Fruit/mixed-berries2.png","Won","0.8,0.35","8","0.8","40","11","",""
"","","","feedback","","63e5b3e89a3823139cb9d35e","bdp_rwlrn","Fri Mar 10 2023 15:26:51 GMT-0500 (Eastern Standard Time)","335920","Untrustworthy,Trustworthy","html-keyboard-response","42","127263","0.0-11.0-3.10","","null","","<div class='respPicDiv'><img src='img/responseButtonOffersNo0_wht.png' class='respPic'></div><div class='trialDiv'><img src='Fruit/mixed-berries2.png'><br><font class='baseline'><strong>Berry Bla$t</strong><p><strong><font class='posOutcome'>You WON</font><p>You bet: 5</strong></font> &nbsp; &nbsp; &nbsp; &nbsp; &nbsp; &nbsp;<font class='posOutcome'>you receive: <strong>10</strong></font></div>","null","4","Berry Bla$t","Fruit/mixed-berries2.png","Won","0.8,0.35","8","0.8","50","11","",""
"","","","decision","","63e5b3e89a3823139cb9d35e","bdp_rwlrn","Fri Mar 10 2023 15:26:51 GMT-0500 (Eastern Standard Time)","335920","Untrustworthy,Trustworthy","html-keyboard-response","43","128000","0.0-11.0-1.11","","735","","<div class='trialDiv'><img src='Fruit/lemon.png'><br><font class='baseline'><strong>Lucky Lemons</strong><p>Choose number of points to bet.</font><div class='respPicDiv'><img src='img/responseButtonOffersNo0L.png' class='respPic'></div></div>","1","4","Lucky Lemons","Fruit/lemon.png","Lost","0.2,0.65","10","0.2","55","12","",""
"","","","decisionFB","","63e5b3e89a3823139cb9d35e","bdp_rwlrn","Fri Mar 10 2023 15:26:51 GMT-0500 (Eastern Standard Time)","335920","Untrustworthy,Trustworthy","html-keyboard-response","44","128252","0.0-11.0-2.11","","null","","<div class='trialDiv'><img src='Fruit/lemon.png'><br><font class='baseline'><strong>Lucky Lemons</strong><p>Choose number of points to bet.</font><div class='respPicDiv'><img src='img/responseButtonOffersNo0L1.png' class='respPic'></div></div>","null","4","Lucky Lemons","Fruit/lemon.png","Lost","0.2,0.65","10","0.2","54","12","",""
"","","","feedback","","63e5b3e89a3823139cb9d35e","bdp_rwlrn","Fri Mar 10 2023 15:26:51 GMT-0500 (Eastern Standard Time)","335920","Untrustworthy,Trustworthy","html-keyboard-response","45","129254","0.0-11.0-3.11","","null","","<div class='respPicDiv'><img src='img/responseButtonOffersNo0_wht.png' class='respPic'></div><div class='trialDiv'><img src='Fruit/lemon.png'><br><font class='baseline'><strong>Lucky Lemons</strong><p><strong><font class='negOutcome'>You LOST</font><p>You bet: 1</strong></font> &nbsp; &nbsp; &nbsp; &nbsp; &nbsp; &nbsp;<font class='negOutcome'>You receive: <strong>0</strong></font></div>","null","4","Lucky Lemons","Fruit/lemon.png","Lost","0.2,0.65","10","0.2","54","12","",""
"","","","decision","","63e5b3e89a3823139cb9d35e","bdp_rwlrn","Fri Mar 10 2023 15:26:51 GMT-0500 (Eastern Standard Time)","335920","Untrustworthy,Trustworthy","html-keyboard-response","46","129519","0.0-11.0-1.12","","263","","<div class='trialDiv'><img src='Fruit/mixed-berries2.png'><br><font class='baseline'><strong>Berry Bla$t</strong><p>Choose number of points to bet.</font><div class='respPicDiv'><img src='img/responseButtonOffersNo0L.png' class='respPic'></div></div>","5","5","Berry Bla$t","Fruit/mixed-berries2.png","Won","0.8,0.35","8","0.8","59","13","",""
"","","","decisionFB","","63e5b3e89a3823139cb9d35e","bdp_rwlrn","Fri Mar 10 2023 15:26:51 GMT-0500 (Eastern Standard Time)","335920","Untrustworthy,Trustworthy","html-keyboard-response","47","129771","0.0-11.0-2.12","","null","","<div class='trialDiv'><img src='Fruit/mixed-berries2.png'><br><font class='baseline'><strong>Berry Bla$t</strong><p>Choose number of points to bet.</font><div class='respPicDiv'><img src='img/responseButtonOffersNo0L5.png' class='respPic'></div></div>","null","5","Berry Bla$t","Fruit/mixed-berries2.png","Won","0.8,0.35","8","0.8","54","13","",""
"","","","feedback","","63e5b3e89a3823139cb9d35e","bdp_rwlrn","Fri Mar 10 2023 15:26:51 GMT-0500 (Eastern Standard Time)","335920","Untrustworthy,Trustworthy","html-keyboard-response","48","130774","0.0-11.0-3.12","","null","","<div class='respPicDiv'><img src='img/responseButtonOffersNo0_wht.png' class='respPic'></div><div class='trialDiv'><img src='Fruit/mixed-berries2.png'><br><font class='baseline'><strong>Berry Bla$t</strong><p><strong><font class='posOutcome'>You WON</font><p>You bet: 5</strong></font> &nbsp; &nbsp; &nbsp; &nbsp; &nbsp; &nbsp;<font class='posOutcome'>you receive: <strong>10</strong></font></div>","null","5","Berry Bla$t","Fruit/mixed-berries2.png","Won","0.8,0.35","8","0.8","64","13","",""
"","","","decision","","63e5b3e89a3823139cb9d35e","bdp_rwlrn","Fri Mar 10 2023 15:26:51 GMT-0500 (Eastern Standard Time)","335920","Untrustworthy,Trustworthy","html-keyboard-response","49","130992","0.0-11.0-1.13","","216","","<div class='trialDiv'><img src='Fruit/melon.png'><br><font class='baseline'><strong>Melon Millions</strong><p>Choose number of points to bet.</font><div class='respPicDiv'><img src='img/responseButtonOffersNo0L.png' class='respPic'></div></div>","5","5","Melon Millions","Fruit/melon.png","Won","0.2,0.8","12","0.2","69","14","",""
"","","","decisionFB","","63e5b3e89a3823139cb9d35e","bdp_rwlrn","Fri Mar 10 2023 15:26:51 GMT-0500 (Eastern Standard Time)","335920","Untrustworthy,Trustworthy","html-keyboard-response","50","131244","0.0-11.0-2.13","","null","","<div class='trialDiv'><img src='Fruit/melon.png'><br><font class='baseline'><strong>Melon Millions</strong><p>Choose number of points to bet.</font><div class='respPicDiv'><img src='img/responseButtonOffersNo0L5.png' class='respPic'></div></div>","null","5","Melon Millions","Fruit/melon.png","Won","0.2,0.8","12","0.2","64","14","",""
"","","","feedback","","63e5b3e89a3823139cb9d35e","bdp_rwlrn","Fri Mar 10 2023 15:26:51 GMT-0500 (Eastern Standard Time)","335920","Untrustworthy,Trustworthy","html-keyboard-response","51","132246","0.0-11.0-3.13","","null","","<div class='respPicDiv'><img src='img/responseButtonOffersNo0_wht.png' class='respPic'></div><div class='trialDiv'><img src='Fruit/melon.png'><br><font class='baseline'><strong>Melon Millions</strong><p><strong><font class='posOutcome'>You WON</font><p>You bet: 5</strong></font> &nbsp; &nbsp; &nbsp; &nbsp; &nbsp; &nbsp;<font class='posOutcome'>you receive: <strong>10</strong></font></div>","null","5","Melon Millions","Fruit/melon.png","Won","0.2,0.8","12","0.2","74","14","",""
"","","","decision","","63e5b3e89a3823139cb9d35e","bdp_rwlrn","Fri Mar 10 2023 15:26:51 GMT-0500 (Eastern Standard Time)","335920","Untrustworthy,Trustworthy","html-keyboard-response","52","132879","0.0-11.0-1.14","","631","","<div class='trialDiv'><img src='Fruit/lemon.png'><br><font class='baseline'><strong>Lucky Lemons</strong><p>Choose number of points to bet.</font><div class='respPicDiv'><img src='img/responseButtonOffersNo0L.png' class='respPic'></div></div>","1","5","Lucky Lemons","Fruit/lemon.png","Won","0.2,0.65","10","0.2","79","15","",""
"","","","decisionFB","","63e5b3e89a3823139cb9d35e","bdp_rwlrn","Fri Mar 10 2023 15:26:51 GMT-0500 (Eastern Standard Time)","335920","Untrustworthy,Trustworthy","html-keyboard-response","53","133131","0.0-11.0-2.14","","null","","<div class='trialDiv'><img src='Fruit/lemon.png'><br><font class='baseline'><strong>Lucky Lemons</strong><p>Choose number of points to bet.</font><div class='respPicDiv'><img src='img/responseButtonOffersNo0L1.png' class='respPic'></div></div>","null","5","Lucky Lemons","Fruit/lemon.png","Won","0.2,0.65","10","0.2","78","15","",""
"","","","feedback","","63e5b3e89a3823139cb9d35e","bdp_rwlrn","Fri Mar 10 2023 15:26:51 GMT-0500 (Eastern Standard Time)","335920","Untrustworthy,Trustworthy","html-keyboard-response","54","134133","0.0-11.0-3.14","","null","","<div class='respPicDiv'><img src='img/responseButtonOffersNo0_wht.png' class='respPic'></div><div class='trialDiv'><img src='Fruit/lemon.png'><br><font class='baseline'><strong>Lucky Lemons</strong><p><strong><font class='posOutcome'>You WON</font><p>You bet: 1</strong></font> &nbsp; &nbsp; &nbsp; &nbsp; &nbsp; &nbsp;<font class='posOutcome'>you receive: <strong>2</strong></font></div>","null","5","Lucky Lemons","Fruit/lemon.png","Won","0.2,0.65","10","0.2","80","15","",""
"","","","decision","","63e5b3e89a3823139cb9d35e","bdp_rwlrn","Fri Mar 10 2023 15:26:51 GMT-0500 (Eastern Standard Time)","335920","Untrustworthy,Trustworthy","html-keyboard-response","55","134351","0.0-11.0-1.15","","216","","<div class='trialDiv'><img src='Fruit/melon.png'><br><font class='baseline'><strong>Melon Millions</strong><p>Choose number of points to bet.</font><div class='respPicDiv'><img src='img/responseButtonOffersNo0L.png' class='respPic'></div></div>","1","6","Melon Millions","Fruit/melon.png","Lost","0.2,0.8","12","0.2","85","16","",""
"","","","decisionFB","","63e5b3e89a3823139cb9d35e","bdp_rwlrn","Fri Mar 10 2023 15:26:51 GMT-0500 (Eastern Standard Time)","335920","Untrustworthy,Trustworthy","html-keyboard-response","56","134603","0.0-11.0-2.15","","null","","<div class='trialDiv'><img src='Fruit/melon.png'><br><font class='baseline'><strong>Melon Millions</strong><p>Choose number of points to bet.</font><div class='respPicDiv'><img src='img/responseButtonOffersNo0L1.png' class='respPic'></div></div>","null","6","Melon Millions","Fruit/melon.png","Lost","0.2,0.8","12","0.2","84","16","",""
"","","","feedback","","63e5b3e89a3823139cb9d35e","bdp_rwlrn","Fri Mar 10 2023 15:26:51 GMT-0500 (Eastern Standard Time)","335920","Untrustworthy,Trustworthy","html-keyboard-response","57","135605","0.0-11.0-3.15","","null","","<div class='respPicDiv'><img src='img/responseButtonOffersNo0_wht.png' class='respPic'></div><div class='trialDiv'><img src='Fruit/melon.png'><br><font class='baseline'><strong>Melon Millions</strong><p><strong><font class='negOutcome'>You LOST</font><p>You bet: 1</strong></font> &nbsp; &nbsp; &nbsp; &nbsp; &nbsp; &nbsp;<font class='negOutcome'>You receive: <strong>0</strong></font></div>","null","6","Melon Millions","Fruit/melon.png","Lost","0.2,0.8","12","0.2","84","16","",""
"","","","decision","","63e5b3e89a3823139cb9d35e","bdp_rwlrn","Fri Mar 10 2023 15:26:51 GMT-0500 (Eastern Standard Time)","335920","Untrustworthy,Trustworthy","html-keyboard-response","58","135863","0.0-11.0-1.16","","257","","<div class='trialDiv'><img src='Fruit/lemon.png'><br><font class='baseline'><strong>Lucky Lemons</strong><p>Choose number of points to bet.</font><div class='respPicDiv'><img src='img/responseButtonOffersNo0L.png' class='respPic'></div></div>","5","6","Lucky Lemons","Fruit/lemon.png","Won","0.2,0.65","10","0.2","89","17","",""
"","","","decisionFB","","63e5b3e89a3823139cb9d35e","bdp_rwlrn","Fri Mar 10 2023 15:26:51 GMT-0500 (Eastern Standard Time)","335920","Untrustworthy,Trustworthy","html-keyboard-response","59","136115","0.0-11.0-2.16","","null","","<div class='trialDiv'><img src='Fruit/lemon.png'><br><font class='baseline'><strong>Lucky Lemons</strong><p>Choose number of points to bet.</font><div class='respPicDiv'><img src='img/responseButtonOffersNo0L5.png' class='respPic'></div></div>","null","6","Lucky Lemons","Fruit/lemon.png","Won","0.2,0.65","10","0.2","84","17","",""
"","","","feedback","","63e5b3e89a3823139cb9d35e","bdp_rwlrn","Fri Mar 10 2023 15:26:51 GMT-0500 (Eastern Standard Time)","335920","Untrustworthy,Trustworthy","html-keyboard-response","60","137118","0.0-11.0-3.16","","null","","<div class='respPicDiv'><img src='img/responseButtonOffersNo0_wht.png' class='respPic'></div><div class='trialDiv'><img src='Fruit/lemon.png'><br><font class='baseline'><strong>Lucky Lemons</strong><p><strong><font class='posOutcome'>You WON</font><p>You bet: 5</strong></font> &nbsp; &nbsp; &nbsp; &nbsp; &nbsp; &nbsp;<font class='posOutcome'>you receive: <strong>10</strong></font></div>","null","6","Lucky Lemons","Fruit/lemon.png","Won","0.2,0.65","10","0.2","94","17","",""
"","","","decision","","63e5b3e89a3823139cb9d35e","bdp_rwlrn","Fri Mar 10 2023 15:26:51 GMT-0500 (Eastern Standard Time)","335920","Untrustworthy,Trustworthy","html-keyboard-response","61","137335","0.0-11.0-1.17","","216","","<div class='trialDiv'><img src='Fruit/mixed-berries2.png'><br><font class='baseline'><strong>Berry Bla$t</strong><p>Choose number of points to bet.</font><div class='respPicDiv'><img src='img/responseButtonOffersNo0L.png' class='respPic'></div></div>","5","6","Berry Bla$t","Fruit/mixed-berries2.png","Won","0.8,0.35","8","0.8","99","18","",""
"","","","decisionFB","","63e5b3e89a3823139cb9d35e","bdp_rwlrn","Fri Mar 10 2023 15:26:51 GMT-0500 (Eastern Standard Time)","335920","Untrustworthy,Trustworthy","html-keyboard-response","62","137588","0.0-11.0-2.17","","null","","<div class='trialDiv'><img src='Fruit/mixed-berries2.png'><br><font class='baseline'><strong>Berry Bla$t</strong><p>Choose number of points to bet.</font><div class='respPicDiv'><img src='img/responseButtonOffersNo0L5.png' class='respPic'></div></div>","null","6","Berry Bla$t","Fruit/mixed-berries2.png","Won","0.8,0.35","8","0.8","94","18","",""
"","","","feedback","","63e5b3e89a3823139cb9d35e","bdp_rwlrn","Fri Mar 10 2023 15:26:51 GMT-0500 (Eastern Standard Time)","335920","Untrustworthy,Trustworthy","html-keyboard-response","63","138590","0.0-11.0-3.17","","null","","<div class='respPicDiv'><img src='img/responseButtonOffersNo0_wht.png' class='respPic'></div><div class='trialDiv'><img src='Fruit/mixed-berries2.png'><br><font class='baseline'><strong>Berry Bla$t</strong><p><strong><font class='posOutcome'>You WON</font><p>You bet: 5</strong></font> &nbsp; &nbsp; &nbsp; &nbsp; &nbsp; &nbsp;<font class='posOutcome'>you receive: <strong>10</strong></font></div>","null","6","Berry Bla$t","Fruit/mixed-berries2.png","Won","0.8,0.35","8","0.8","104","18","",""
"","","","decision","","63e5b3e89a3823139cb9d35e","bdp_rwlrn","Fri Mar 10 2023 15:26:51 GMT-0500 (Eastern Standard Time)","335920","Untrustworthy,Trustworthy","html-keyboard-response","64","138807","0.0-11.0-1.18","","216","","<div class='trialDiv'><img src='Fruit/melon.png'><br><font class='baseline'><strong>Melon Millions</strong><p>Choose number of points to bet.</font><div class='respPicDiv'><img src='img/responseButtonOffersNo0L.png' class='respPic'></div></div>","1","7","Melon Millions","Fruit/melon.png","Won","0.2,0.8","12","0.2","109","19","",""
"","","","decisionFB","","63e5b3e89a3823139cb9d35e","bdp_rwlrn","Fri Mar 10 2023 15:26:51 GMT-0500 (Eastern Standard Time)","335920","Untrustworthy,Trustworthy","html-keyboard-response","65","139059","0.0-11.0-2.18","","null","","<div class='trialDiv'><img src='Fruit/melon.png'><br><font class='baseline'><strong>Melon Millions</strong><p>Choose number of points to bet.</font><div class='respPicDiv'><img src='img/responseButtonOffersNo0L1.png' class='respPic'></div></div>","null","7","Melon Millions","Fruit/melon.png","Won","0.2,0.8","12","0.2","108","19","",""
"","","","feedback","","63e5b3e89a3823139cb9d35e","bdp_rwlrn","Fri Mar 10 2023 15:26:51 GMT-0500 (Eastern Standard Time)","335920","Untrustworthy,Trustworthy","html-keyboard-response","66","140062","0.0-11.0-3.18","","null","","<div class='respPicDiv'><img src='img/responseButtonOffersNo0_wht.png' class='respPic'></div><div class='trialDiv'><img src='Fruit/melon.png'><br><font class='baseline'><strong>Melon Millions</strong><p><strong><font class='posOutcome'>You WON</font><p>You bet: 1</strong></font> &nbsp; &nbsp; &nbsp; &nbsp; &nbsp; &nbsp;<font class='posOutcome'>you receive: <strong>2</strong></font></div>","null","7","Melon Millions","Fruit/melon.png","Won","0.2,0.8","12","0.2","110","19","",""
"","","","decision","","63e5b3e89a3823139cb9d35e","bdp_rwlrn","Fri Mar 10 2023 15:26:51 GMT-0500 (Eastern Standard Time)","335920","Untrustworthy,Trustworthy","html-keyboard-response","67","140311","0.0-11.0-1.19","","247","","<div class='trialDiv'><img src='Fruit/lemon.png'><br><font class='baseline'><strong>Lucky Lemons</strong><p>Choose number of points to bet.</font><div class='respPicDiv'><img src='img/responseButtonOffersNo0L.png' class='respPic'></div></div>","1","7","Lucky Lemons","Fruit/lemon.png","Lost","0.2,0.65","10","0.2","115","20","",""
"","","","decisionFB","","63e5b3e89a3823139cb9d35e","bdp_rwlrn","Fri Mar 10 2023 15:26:51 GMT-0500 (Eastern Standard Time)","335920","Untrustworthy,Trustworthy","html-keyboard-response","68","140563","0.0-11.0-2.19","","null","","<div class='trialDiv'><img src='Fruit/lemon.png'><br><font class='baseline'><strong>Lucky Lemons</strong><p>Choose number of points to bet.</font><div class='respPicDiv'><img src='img/responseButtonOffersNo0L1.png' class='respPic'></div></div>","null","7","Lucky Lemons","Fruit/lemon.png","Lost","0.2,0.65","10","0.2","114","20","",""
"","","","feedback","","63e5b3e89a3823139cb9d35e","bdp_rwlrn","Fri Mar 10 2023 15:26:51 GMT-0500 (Eastern Standard Time)","335920","Untrustworthy,Trustworthy","html-keyboard-response","69","141567","0.0-11.0-3.19","","null","","<div class='respPicDiv'><img src='img/responseButtonOffersNo0_wht.png' class='respPic'></div><div class='trialDiv'><img src='Fruit/lemon.png'><br><font class='baseline'><strong>Lucky Lemons</strong><p><strong><font class='negOutcome'>You LOST</font><p>You bet: 1</strong></font> &nbsp; &nbsp; &nbsp; &nbsp; &nbsp; &nbsp;<font class='negOutcome'>You receive: <strong>0</strong></font></div>","null","7","Lucky Lemons","Fruit/lemon.png","Lost","0.2,0.65","10","0.2","114","20","",""
"","","","decision","","63e5b3e89a3823139cb9d35e","bdp_rwlrn","Fri Mar 10 2023 15:26:51 GMT-0500 (Eastern Standard Time)","335920","Untrustworthy,Trustworthy","html-keyboard-response","70","141800","0.0-11.0-1.20","","231","","<div class='trialDiv'><img src='Fruit/mixed-berries2.png'><br><font class='baseline'><strong>Berry Bla$t</strong><p>Choose number of points to bet.</font><div class='respPicDiv'><img src='img/responseButtonOffersNo0L.png' class='respPic'></div></div>","5","7","Berry Bla$t","Fruit/mixed-berries2.png","Won","0.8,0.35","8","0.8","119","21","",""
"","","","decisionFB","","63e5b3e89a3823139cb9d35e","bdp_rwlrn","Fri Mar 10 2023 15:26:51 GMT-0500 (Eastern Standard Time)","335920","Untrustworthy,Trustworthy","html-keyboard-response","71","142052","0.0-11.0-2.20","","null","","<div class='trialDiv'><img src='Fruit/mixed-berries2.png'><br><font class='baseline'><strong>Berry Bla$t</strong><p>Choose number of points to bet.</font><div class='respPicDiv'><img src='img/responseButtonOffersNo0L5.png' class='respPic'></div></div>","null","7","Berry Bla$t","Fruit/mixed-berries2.png","Won","0.8,0.35","8","0.8","114","21","",""
"","","","feedback","","63e5b3e89a3823139cb9d35e","bdp_rwlrn","Fri Mar 10 2023 15:26:51 GMT-0500 (Eastern Standard Time)","335920","Untrustworthy,Trustworthy","html-keyboard-response","72","143055","0.0-11.0-3.20","","null","","<div class='respPicDiv'><img src='img/responseButtonOffersNo0_wht.png' class='respPic'></div><div class='trialDiv'><img src='Fruit/mixed-berries2.png'><br><font class='baseline'><strong>Berry Bla$t</strong><p><strong><font class='posOutcome'>You WON</font><p>You bet: 5</strong></font> &nbsp; &nbsp; &nbsp; &nbsp; &nbsp; &nbsp;<font class='posOutcome'>you receive: <strong>10</strong></font></div>","null","7","Berry Bla$t","Fruit/mixed-berries2.png","Won","0.8,0.35","8","0.8","124","21","",""
"","","","decision","","63e5b3e89a3823139cb9d35e","bdp_rwlrn","Fri Mar 10 2023 15:26:51 GMT-0500 (Eastern Standard Time)","335920","Untrustworthy,Trustworthy","html-keyboard-response","73","143215","0.0-11.0-1.21","","159","","<div class='trialDiv'><img src='Fruit/melon.png'><br><font class='baseline'><strong>Melon Millions</strong><p>Choose number of points to bet.</font><div class='respPicDiv'><img src='img/responseButtonOffersNo0L.png' class='respPic'></div></div>","5","8","Melon Millions","Fruit/melon.png","Lost","0.2,0.8","12","0.2","129","22","",""
"","","","decisionFB","","63e5b3e89a3823139cb9d35e","bdp_rwlrn","Fri Mar 10 2023 15:26:51 GMT-0500 (Eastern Standard Time)","335920","Untrustworthy,Trustworthy","html-keyboard-response","74","143467","0.0-11.0-2.21","","null","","<div class='trialDiv'><img src='Fruit/melon.png'><br><font class='baseline'><strong>Melon Millions</strong><p>Choose number of points to bet.</font><div class='respPicDiv'><img src='img/responseButtonOffersNo0L5.png' class='respPic'></div></div>","null","8","Melon Millions","Fruit/melon.png","Lost","0.2,0.8","12","0.2","124","22","",""
"","","","feedback","","63e5b3e89a3823139cb9d35e","bdp_rwlrn","Fri Mar 10 2023 15:26:51 GMT-0500 (Eastern Standard Time)","335920","Untrustworthy,Trustworthy","html-keyboard-response","75","144469","0.0-11.0-3.21","","null","","<div class='respPicDiv'><img src='img/responseButtonOffersNo0_wht.png' class='respPic'></div><div class='trialDiv'><img src='Fruit/melon.png'><br><font class='baseline'><strong>Melon Millions</strong><p><strong><font class='negOutcome'>You LOST</font><p>You bet: 5</strong></font> &nbsp; &nbsp; &nbsp; &nbsp; &nbsp; &nbsp;<font class='negOutcome'>You receive: <strong>0</strong></font></div>","null","8","Melon Millions","Fruit/melon.png","Lost","0.2,0.8","12","0.2","124","22","",""
"","","","decision","","63e5b3e89a3823139cb9d35e","bdp_rwlrn","Fri Mar 10 2023 15:26:51 GMT-0500 (Eastern Standard Time)","335920","Untrustworthy,Trustworthy","html-keyboard-response","76","144647","0.0-11.0-1.22","","176","","<div class='trialDiv'><img src='Fruit/mixed-berries2.png'><br><font class='baseline'><strong>Berry Bla$t</strong><p>Choose number of points to bet.</font><div class='respPicDiv'><img src='img/responseButtonOffersNo0L.png' class='respPic'></div></div>","1","8","Berry Bla$t","Fruit/mixed-berries2.png","Won","0.8,0.35","8","0.8","129","23","",""
"","","","decisionFB","","63e5b3e89a3823139cb9d35e","bdp_rwlrn","Fri Mar 10 2023 15:26:51 GMT-0500 (Eastern Standard Time)","335920","Untrustworthy,Trustworthy","html-keyboard-response","77","144899","0.0-11.0-2.22","","null","","<div class='trialDiv'><img src='Fruit/mixed-berries2.png'><br><font class='baseline'><strong>Berry Bla$t</strong><p>Choose number of points to bet.</font><div class='respPicDiv'><img src='img/responseButtonOffersNo0L1.png' class='respPic'></div></div>","null","8","Berry Bla$t","Fruit/mixed-berries2.png","Won","0.8,0.35","8","0.8","128","23","",""
"","","","feedback","","63e5b3e89a3823139cb9d35e","bdp_rwlrn","Fri Mar 10 2023 15:26:51 GMT-0500 (Eastern Standard Time)","335920","Untrustworthy,Trustworthy","html-keyboard-response","78","145901","0.0-11.0-3.22","","null","","<div class='respPicDiv'><img src='img/responseButtonOffersNo0_wht.png' class='respPic'></div><div class='trialDiv'><img src='Fruit/mixed-berries2.png'><br><font class='baseline'><strong>Berry Bla$t</strong><p><strong><font class='posOutcome'>You WON</font><p>You bet: 1</strong></font> &nbsp; &nbsp; &nbsp; &nbsp; &nbsp; &nbsp;<font class='posOutcome'>you receive: <strong>2</strong></font></div>","null","8","Berry Bla$t","Fruit/mixed-berries2.png","Won","0.8,0.35","8","0.8","130","23","",""
"","","","decision","","63e5b3e89a3823139cb9d35e","bdp_rwlrn","Fri Mar 10 2023 15:26:51 GMT-0500 (Eastern Standard Time)","335920","Untrustworthy,Trustworthy","html-keyboard-response","79","145976","0.0-11.0-1.23","","73","","<div class='trialDiv'><img src='Fruit/lemon.png'><br><font class='baseline'><strong>Lucky Lemons</strong><p>Choose number of points to bet.</font><div class='respPicDiv'><img src='img/responseButtonOffersNo0L.png' class='respPic'></div></div>","5","8","Lucky Lemons","Fruit/lemon.png","Lost","0.2,0.65","10","0.2","135","24","",""
"","","","decisionFB","","63e5b3e89a3823139cb9d35e","bdp_rwlrn","Fri Mar 10 2023 15:26:51 GMT-0500 (Eastern Standard Time)","335920","Untrustworthy,Trustworthy","html-keyboard-response","80","146228","0.0-11.0-2.23","","null","","<div class='trialDiv'><img src='Fruit/lemon.png'><br><font class='baseline'><strong>Lucky Lemons</strong><p>Choose number of points to bet.</font><div class='respPicDiv'><img src='img/responseButtonOffersNo0L5.png' class='respPic'></div></div>","null","8","Lucky Lemons","Fruit/lemon.png","Lost","0.2,0.65","10","0.2","130","24","",""
"","","","feedback","","63e5b3e89a3823139cb9d35e","bdp_rwlrn","Fri Mar 10 2023 15:26:51 GMT-0500 (Eastern Standard Time)","335920","Untrustworthy,Trustworthy","html-keyboard-response","81","147231","0.0-11.0-3.23","","null","","<div class='respPicDiv'><img src='img/responseButtonOffersNo0_wht.png' class='respPic'></div><div class='trialDiv'><img src='Fruit/lemon.png'><br><font class='baseline'><strong>Lucky Lemons</strong><p><strong><font class='negOutcome'>You LOST</font><p>You bet: 5</strong></font> &nbsp; &nbsp; &nbsp; &nbsp; &nbsp; &nbsp;<font class='negOutcome'>You receive: <strong>0</strong></font></div>","null","8","Lucky Lemons","Fruit/lemon.png","Lost","0.2,0.65","10","0.2","130","24","",""
"","","","decision","","63e5b3e89a3823139cb9d35e","bdp_rwlrn","Fri Mar 10 2023 15:26:51 GMT-0500 (Eastern Standard Time)","335920","Untrustworthy,Trustworthy","html-keyboard-response","82","147240","0.0-11.0-1.24","","8","","<div class='trialDiv'><img src='Fruit/mixed-berries2.png'><br><font class='baseline'><strong>Berry Bla$t</strong><p>Choose number of points to bet.</font><div class='respPicDiv'><img src='img/responseButtonOffersNo0L.png' class='respPic'></div></div>","5","9","Berry Bla$t","Fruit/mixed-berries2.png","Won","0.8,0.35","8","0.8","135","25","",""
"","","","decisionFB","","63e5b3e89a3823139cb9d35e","bdp_rwlrn","Fri Mar 10 2023 15:26:51 GMT-0500 (Eastern Standard Time)","335920","Untrustworthy,Trustworthy","html-keyboard-response","83","147492","0.0-11.0-2.24","","null","","<div class='trialDiv'><img src='Fruit/mixed-berries2.png'><br><font class='baseline'><strong>Berry Bla$t</strong><p>Choose number of points to bet.</font><div class='respPicDiv'><img src='img/responseButtonOffersNo0L5.png' class='respPic'></div></div>","null","9","Berry Bla$t","Fruit/mixed-berries2.png","Won","0.8,0.35","8","0.8","130","25","",""
"","","","feedback","","63e5b3e89a3823139cb9d35e","bdp_rwlrn","Fri Mar 10 2023 15:26:51 GMT-0500 (Eastern Standard Time)","335920","Untrustworthy,Trustworthy","html-keyboard-response","84","148496","0.0-11.0-3.24","","null","","<div class='respPicDiv'><img src='img/responseButtonOffersNo0_wht.png' class='respPic'></div><div class='trialDiv'><img src='Fruit/mixed-berries2.png'><br><font class='baseline'><strong>Berry Bla$t</strong><p><strong><font class='posOutcome'>You WON</font><p>You bet: 5</strong></font> &nbsp; &nbsp; &nbsp; &nbsp; &nbsp; &nbsp;<font class='posOutcome'>you receive: <strong>10</strong></font></div>","null","9","Berry Bla$t","Fruit/mixed-berries2.png","Won","0.8,0.35","8","0.8","140","25","",""
"","","","decision","","63e5b3e89a3823139cb9d35e","bdp_rwlrn","Fri Mar 10 2023 15:26:51 GMT-0500 (Eastern Standard Time)","335920","Untrustworthy,Trustworthy","html-keyboard-response","85","148559","0.0-11.0-1.25","","61","","<div class='trialDiv'><img src='Fruit/lemon.png'><br><font class='baseline'><strong>Lucky Lemons</strong><p>Choose number of points to bet.</font><div class='respPicDiv'><img src='img/responseButtonOffersNo0L.png' class='respPic'></div></div>","5","9","Lucky Lemons","Fruit/lemon.png","Lost","0.2,0.65","10","0.2","145","26","",""
"","","","decisionFB","","63e5b3e89a3823139cb9d35e","bdp_rwlrn","Fri Mar 10 2023 15:26:51 GMT-0500 (Eastern Standard Time)","335920","Untrustworthy,Trustworthy","html-keyboard-response","86","148811","0.0-11.0-2.25","","null","","<div class='trialDiv'><img src='Fruit/lemon.png'><br><font class='baseline'><strong>Lucky Lemons</strong><p>Choose number of points to bet.</font><div class='respPicDiv'><img src='img/responseButtonOffersNo0L5.png' class='respPic'></div></div>","null","9","Lucky Lemons","Fruit/lemon.png","Lost","0.2,0.65","10","0.2","140","26","",""
"","","","feedback","","63e5b3e89a3823139cb9d35e","bdp_rwlrn","Fri Mar 10 2023 15:26:51 GMT-0500 (Eastern Standard Time)","335920","Untrustworthy,Trustworthy","html-keyboard-response","87","149813","0.0-11.0-3.25","","null","","<div class='respPicDiv'><img src='img/responseButtonOffersNo0_wht.png' class='respPic'></div><div class='trialDiv'><img src='Fruit/lemon.png'><br><font class='baseline'><strong>Lucky Lemons</strong><p><strong><font class='negOutcome'>You LOST</font><p>You bet: 5</strong></font> &nbsp; &nbsp; &nbsp; &nbsp; &nbsp; &nbsp;<font class='negOutcome'>You receive: <strong>0</strong></font></div>","null","9","Lucky Lemons","Fruit/lemon.png","Lost","0.2,0.65","10","0.2","140","26","",""
"","","","decision","","63e5b3e89a3823139cb9d35e","bdp_rwlrn","Fri Mar 10 2023 15:26:51 GMT-0500 (Eastern Standard Time)","335920","Untrustworthy,Trustworthy","html-keyboard-response","88","149959","0.0-11.0-1.26","","145","","<div class='trialDiv'><img src='Fruit/melon.png'><br><font class='baseline'><strong>Melon Millions</strong><p>Choose number of points to bet.</font><div class='respPicDiv'><img src='img/responseButtonOffersNo0L.png' class='respPic'></div></div>","5","9","Melon Millions","Fruit/melon.png","Won","0.2,0.8","12","0.2","145","27","",""
"","","","decisionFB","","63e5b3e89a3823139cb9d35e","bdp_rwlrn","Fri Mar 10 2023 15:26:51 GMT-0500 (Eastern Standard Time)","335920","Untrustworthy,Trustworthy","html-keyboard-response","89","150212","0.0-11.0-2.26","","null","","<div class='trialDiv'><img src='Fruit/melon.png'><br><font class='baseline'><strong>Melon Millions</strong><p>Choose number of points to bet.</font><div class='respPicDiv'><img src='img/responseButtonOffersNo0L5.png' class='respPic'></div></div>","null","9","Melon Millions","Fruit/melon.png","Won","0.2,0.8","12","0.2","140","27","",""
"","","","feedback","","63e5b3e89a3823139cb9d35e","bdp_rwlrn","Fri Mar 10 2023 15:26:51 GMT-0500 (Eastern Standard Time)","335920","Untrustworthy,Trustworthy","html-keyboard-response","90","151213","0.0-11.0-3.26","","null","","<div class='respPicDiv'><img src='img/responseButtonOffersNo0_wht.png' class='respPic'></div><div class='trialDiv'><img src='Fruit/melon.png'><br><font class='baseline'><strong>Melon Millions</strong><p><strong><font class='posOutcome'>You WON</font><p>You bet: 5</strong></font> &nbsp; &nbsp; &nbsp; &nbsp; &nbsp; &nbsp;<font class='posOutcome'>you receive: <strong>10</strong></font></div>","null","9","Melon Millions","Fruit/melon.png","Won","0.2,0.8","12","0.2","150","27","",""
"","","","decision","","63e5b3e89a3823139cb9d35e","bdp_rwlrn","Fri Mar 10 2023 15:26:51 GMT-0500 (Eastern Standard Time)","335920","Untrustworthy,Trustworthy","html-keyboard-response","91","151328","0.0-11.0-1.27","","113","","<div class='trialDiv'><img src='Fruit/mixed-berries2.png'><br><font class='baseline'><strong>Berry Bla$t</strong><p>Choose number of points to bet.</font><div class='respPicDiv'><img src='img/responseButtonOffersNo0L.png' class='respPic'></div></div>","5","10","Berry Bla$t","Fruit/mixed-berries2.png","Won","0.8,0.35","8","0.8","155","28","",""
"","","","decisionFB","","63e5b3e89a3823139cb9d35e","bdp_rwlrn","Fri Mar 10 2023 15:26:51 GMT-0500 (Eastern Standard Time)","335920","Untrustworthy,Trustworthy","html-keyboard-response","92","151580","0.0-11.0-2.27","","null","","<div class='trialDiv'><img src='Fruit/mixed-berries2.png'><br><font class='baseline'><strong>Berry Bla$t</strong><p>Choose number of points to bet.</font><div class='respPicDiv'><img src='img/responseButtonOffersNo0L5.png' class='respPic'></div></div>","null","10","Berry Bla$t","Fruit/mixed-berries2.png","Won","0.8,0.35","8","0.8","150","28","",""
"","","","feedback","","63e5b3e89a3823139cb9d35e","bdp_rwlrn","Fri Mar 10 2023 15:26:51 GMT-0500 (Eastern Standard Time)","335920","Untrustworthy,Trustworthy","html-keyboard-response","93","152583","0.0-11.0-3.27","","null","","<div class='respPicDiv'><img src='img/responseButtonOffersNo0_wht.png' class='respPic'></div><div class='trialDiv'><img src='Fruit/mixed-berries2.png'><br><font class='baseline'><strong>Berry Bla$t</strong><p><strong><font class='posOutcome'>You WON</font><p>You bet: 5</strong></font> &nbsp; &nbsp; &nbsp; &nbsp; &nbsp; &nbsp;<font class='posOutcome'>you receive: <strong>10</strong></font></div>","null","10","Berry Bla$t","Fruit/mixed-berries2.png","Won","0.8,0.35","8","0.8","160","28","",""
"","","","decision","","63e5b3e89a3823139cb9d35e","bdp_rwlrn","Fri Mar 10 2023 15:26:51 GMT-0500 (Eastern Standard Time)","335920","Untrustworthy,Trustworthy","html-keyboard-response","94","152655","0.0-11.0-1.28","","71","","<div class='trialDiv'><img src='Fruit/lemon.png'><br><font class='baseline'><strong>Lucky Lemons</strong><p>Choose number of points to bet.</font><div class='respPicDiv'><img src='img/responseButtonOffersNo0L.png' class='respPic'></div></div>","5","10","Lucky Lemons","Fruit/lemon.png","Lost","0.2,0.65","10","0.2","165","29","",""
"","","","decisionFB","","63e5b3e89a3823139cb9d35e","bdp_rwlrn","Fri Mar 10 2023 15:26:51 GMT-0500 (Eastern Standard Time)","335920","Untrustworthy,Trustworthy","html-keyboard-response","95","152907","0.0-11.0-2.28","","null","","<div class='trialDiv'><img src='Fruit/lemon.png'><br><font class='baseline'><strong>Lucky Lemons</strong><p>Choose number of points to bet.</font><div class='respPicDiv'><img src='img/responseButtonOffersNo0L5.png' class='respPic'></div></div>","null","10","Lucky Lemons","Fruit/lemon.png","Lost","0.2,0.65","10","0.2","160","29","",""
"","","","feedback","","63e5b3e89a3823139cb9d35e","bdp_rwlrn","Fri Mar 10 2023 15:26:51 GMT-0500 (Eastern Standard Time)","335920","Untrustworthy,Trustworthy","html-keyboard-response","96","153911","0.0-11.0-3.28","","null","","<div class='respPicDiv'><img src='img/responseButtonOffersNo0_wht.png' class='respPic'></div><div class='trialDiv'><img src='Fruit/lemon.png'><br><font class='baseline'><strong>Lucky Lemons</strong><p><strong><font class='negOutcome'>You LOST</font><p>You bet: 5</strong></font> &nbsp; &nbsp; &nbsp; &nbsp; &nbsp; &nbsp;<font class='negOutcome'>You receive: <strong>0</strong></font></div>","null","10","Lucky Lemons","Fruit/lemon.png","Lost","0.2,0.65","10","0.2","160","29","",""
"","","","decision","","63e5b3e89a3823139cb9d35e","bdp_rwlrn","Fri Mar 10 2023 15:26:51 GMT-0500 (Eastern Standard Time)","335920","Untrustworthy,Trustworthy","html-keyboard-response","97","153983","0.0-11.0-1.29","","71","","<div class='trialDiv'><img src='Fruit/melon.png'><br><font class='baseline'><strong>Melon Millions</strong><p>Choose number of points to bet.</font><div class='respPicDiv'><img src='img/responseButtonOffersNo0L.png' class='respPic'></div></div>","5","10","Melon Millions","Fruit/melon.png","Lost","0.2,0.8","12","0.2","165","30","",""
"","","","decisionFB","","63e5b3e89a3823139cb9d35e","bdp_rwlrn","Fri Mar 10 2023 15:26:51 GMT-0500 (Eastern Standard Time)","335920","Untrustworthy,Trustworthy","html-keyboard-response","98","154235","0.0-11.0-2.29","","null","","<div class='trialDiv'><img src='Fruit/melon.png'><br><font class='baseline'><strong>Melon Millions</strong><p>Choose number of points to bet.</font><div class='respPicDiv'><img src='img/responseButtonOffersNo0L5.png' class='respPic'></div></div>","null","10","Melon Millions","Fruit/melon.png","Lost","0.2,0.8","12","0.2","160","30","",""
"","","","feedback","","63e5b3e89a3823139cb9d35e","bdp_rwlrn","Fri Mar 10 2023 15:26:51 GMT-0500 (Eastern Standard Time)","335920","Untrustworthy,Trustworthy","html-keyboard-response","99","155238","0.0-11.0-3.29","","null","","<div class='respPicDiv'><img src='img/responseButtonOffersNo0_wht.png' class='respPic'></div><div class='trialDiv'><img src='Fruit/melon.png'><br><font class='baseline'><strong>Melon Millions</strong><p><strong><font class='negOutcome'>You LOST</font><p>You bet: 5</strong></font> &nbsp; &nbsp; &nbsp; &nbsp; &nbsp; &nbsp;<font class='negOutcome'>You receive: <strong>0</strong></font></div>","null","10","Melon Millions","Fruit/melon.png","Lost","0.2,0.8","12","0.2","160","30","",""
"","","","decision","","63e5b3e89a3823139cb9d35e","bdp_rwlrn","Fri Mar 10 2023 15:26:51 GMT-0500 (Eastern Standard Time)","335920","Untrustworthy,Trustworthy","html-keyboard-response","100","155287","0.0-11.0-1.30","","48","","<div class='trialDiv'><img src='Fruit/lemon.png'><br><font class='baseline'><strong>Lucky Lemons</strong><p>Choose number of points to bet.</font><div class='respPicDiv'><img src='img/responseButtonOffersNo0L.png' class='respPic'></div></div>","5","11","Lucky Lemons","Fruit/lemon.png","Won","0.2,0.65","10","0.2","165","31","",""
"","","","decisionFB","","63e5b3e89a3823139cb9d35e","bdp_rwlrn","Fri Mar 10 2023 15:26:51 GMT-0500 (Eastern Standard Time)","335920","Untrustworthy,Trustworthy","html-keyboard-response","101","155539","0.0-11.0-2.30","","null","","<div class='trialDiv'><img src='Fruit/lemon.png'><br><font class='baseline'><strong>Lucky Lemons</strong><p>Choose number of points to bet.</font><div class='respPicDiv'><img src='img/responseButtonOffersNo0L5.png' class='respPic'></div></div>","null","11","Lucky Lemons","Fruit/lemon.png","Won","0.2,0.65","10","0.2","160","31","",""
"","","","feedback","","63e5b3e89a3823139cb9d35e","bdp_rwlrn","Fri Mar 10 2023 15:26:51 GMT-0500 (Eastern Standard Time)","335920","Untrustworthy,Trustworthy","html-keyboard-response","102","156543","0.0-11.0-3.30","","null","","<div class='respPicDiv'><img src='img/responseButtonOffersNo0_wht.png' class='respPic'></div><div class='trialDiv'><img src='Fruit/lemon.png'><br><font class='baseline'><strong>Lucky Lemons</strong><p><strong><font class='posOutcome'>You WON</font><p>You bet: 5</strong></font> &nbsp; &nbsp; &nbsp; &nbsp; &nbsp; &nbsp;<font class='posOutcome'>you receive: <strong>10</strong></font></div>","null","11","Lucky Lemons","Fruit/lemon.png","Won","0.2,0.65","10","0.2","170","31","",""
"","","","decision","","63e5b3e89a3823139cb9d35e","bdp_rwlrn","Fri Mar 10 2023 15:26:51 GMT-0500 (Eastern Standard Time)","335920","Untrustworthy,Trustworthy","html-keyboard-response","103","156663","0.0-11.0-1.31","","119","","<div class='trialDiv'><img src='Fruit/mixed-berries2.png'><br><font class='baseline'><strong>Berry Bla$t</strong><p>Choose number of points to bet.</font><div class='respPicDiv'><img src='img/responseButtonOffersNo0L.png' class='respPic'></div></div>","5","11","Berry Bla$t","Fruit/mixed-berries2.png","Lost","0.8,0.35","8","0.8","175","32","",""
"","","","decisionFB","","63e5b3e89a3823139cb9d35e","bdp_rwlrn","Fri Mar 10 2023 15:26:51 GMT-0500 (Eastern Standard Time)","335920","Untrustworthy,Trustworthy","html-keyboard-response","104","156916","0.0-11.0-2.31","","null","","<div class='trialDiv'><img src='Fruit/mixed-berries2.png'><br><font class='baseline'><strong>Berry Bla$t</strong><p>Choose number of points to bet.</font><div class='respPicDiv'><img src='img/responseButtonOffersNo0L5.png' class='respPic'></div></div>","null","11","Berry Bla$t","Fruit/mixed-berries2.png","Lost","0.8,0.35","8","0.8","170","32","",""
"","","","feedback","","63e5b3e89a3823139cb9d35e","bdp_rwlrn","Fri Mar 10 2023 15:26:51 GMT-0500 (Eastern Standard Time)","335920","Untrustworthy,Trustworthy","html-keyboard-response","105","157918","0.0-11.0-3.31","","null","","<div class='respPicDiv'><img src='img/responseButtonOffersNo0_wht.png' class='respPic'></div><div class='trialDiv'><img src='Fruit/mixed-berries2.png'><br><font class='baseline'><strong>Berry Bla$t</strong><p><strong><font class='negOutcome'>You LOST</font><p>You bet: 5</strong></font> &nbsp; &nbsp; &nbsp; &nbsp; &nbsp; &nbsp;<font class='negOutcome'>You receive: <strong>0</strong></font></div>","null","11","Berry Bla$t","Fruit/mixed-berries2.png","Lost","0.8,0.35","8","0.8","170","32","",""
"","","","decision","","63e5b3e89a3823139cb9d35e","bdp_rwlrn","Fri Mar 10 2023 15:26:51 GMT-0500 (Eastern Standard Time)","335920","Untrustworthy,Trustworthy","html-keyboard-response","106","158423","0.0-11.0-1.32","","503","","<div class='trialDiv'><img src='Fruit/melon.png'><br><font class='baseline'><strong>Melon Millions</strong><p>Choose number of points to bet.</font><div class='respPicDiv'><img src='img/responseButtonOffersNo0L.png' class='respPic'></div></div>","5","11","Melon Millions","Fruit/melon.png","Lost","0.2,0.8","12","0.2","175","33","",""
"","","","decisionFB","","63e5b3e89a3823139cb9d35e","bdp_rwlrn","Fri Mar 10 2023 15:26:51 GMT-0500 (Eastern Standard Time)","335920","Untrustworthy,Trustworthy","html-keyboard-response","107","158675","0.0-11.0-2.32","","null","","<div class='trialDiv'><img src='Fruit/melon.png'><br><font class='baseline'><strong>Melon Millions</strong><p>Choose number of points to bet.</font><div class='respPicDiv'><img src='img/responseButtonOffersNo0L5.png' class='respPic'></div></div>","null","11","Melon Millions","Fruit/melon.png","Lost","0.2,0.8","12","0.2","170","33","",""
"","","","feedback","","63e5b3e89a3823139cb9d35e","bdp_rwlrn","Fri Mar 10 2023 15:26:51 GMT-0500 (Eastern Standard Time)","335920","Untrustworthy,Trustworthy","html-keyboard-response","108","159679","0.0-11.0-3.32","","null","","<div class='respPicDiv'><img src='img/responseButtonOffersNo0_wht.png' class='respPic'></div><div class='trialDiv'><img src='Fruit/melon.png'><br><font class='baseline'><strong>Melon Millions</strong><p><strong><font class='negOutcome'>You LOST</font><p>You bet: 5</strong></font> &nbsp; &nbsp; &nbsp; &nbsp; &nbsp; &nbsp;<font class='negOutcome'>You receive: <strong>0</strong></font></div>","null","11","Melon Millions","Fruit/melon.png","Lost","0.2,0.8","12","0.2","170","33","",""
"","","","decision","","63e5b3e89a3823139cb9d35e","bdp_rwlrn","Fri Mar 10 2023 15:26:51 GMT-0500 (Eastern Standard Time)","335920","Untrustworthy,Trustworthy","html-keyboard-response","109","159951","0.0-11.0-1.33","","271","","<div class='trialDiv'><img src='Fruit/mixed-berries2.png'><br><font class='baseline'><strong>Berry Bla$t</strong><p>Choose number of points to bet.</font><div class='respPicDiv'><img src='img/responseButtonOffersNo0L.png' class='respPic'></div></div>","5","12","Berry Bla$t","Fruit/mixed-berries2.png","Won","0.8,0.35","8","0.8","175","34","",""
"","","","decisionFB","","63e5b3e89a3823139cb9d35e","bdp_rwlrn","Fri Mar 10 2023 15:26:51 GMT-0500 (Eastern Standard Time)","335920","Untrustworthy,Trustworthy","html-keyboard-response","110","160204","0.0-11.0-2.33","","null","","<div class='trialDiv'><img src='Fruit/mixed-berries2.png'><br><font class='baseline'><strong>Berry Bla$t</strong><p>Choose number of points to bet.</font><div class='respPicDiv'><img src='img/responseButtonOffersNo0L5.png' class='respPic'></div></div>","null","12","Berry Bla$t","Fruit/mixed-berries2.png","Won","0.8,0.35","8","0.8","170","34","",""
"","","","feedback","","63e5b3e89a3823139cb9d35e","bdp_rwlrn","Fri Mar 10 2023 15:26:51 GMT-0500 (Eastern Standard Time)","335920","Untrustworthy,Trustworthy","html-keyboard-response","111","161205","0.0-11.0-3.33","","null","","<div class='respPicDiv'><img src='img/responseButtonOffersNo0_wht.png' class='respPic'></div><div class='trialDiv'><img src='Fruit/mixed-berries2.png'><br><font class='baseline'><strong>Berry Bla$t</strong><p><strong><font class='posOutcome'>You WON</font><p>You bet: 5</strong></font> &nbsp; &nbsp; &nbsp; &nbsp; &nbsp; &nbsp;<font class='posOutcome'>you receive: <strong>10</strong></font></div>","null","12","Berry Bla$t","Fruit/mixed-berries2.png","Won","0.8,0.35","8","0.8","180","34","",""
"","","","decision","","63e5b3e89a3823139cb9d35e","bdp_rwlrn","Fri Mar 10 2023 15:26:51 GMT-0500 (Eastern Standard Time)","335920","Untrustworthy,Trustworthy","html-keyboard-response","112","161463","0.0-11.0-1.34","","256","","<div class='trialDiv'><img src='Fruit/melon.png'><br><font class='baseline'><strong>Melon Millions</strong><p>Choose number of points to bet.</font><div class='respPicDiv'><img src='img/responseButtonOffersNo0L.png' class='respPic'></div></div>","5","12","Melon Millions","Fruit/melon.png","Won","0.2,0.8","12","0.2","185","35","",""
"","","","decisionFB","","63e5b3e89a3823139cb9d35e","bdp_rwlrn","Fri Mar 10 2023 15:26:51 GMT-0500 (Eastern Standard Time)","335920","Untrustworthy,Trustworthy","html-keyboard-response","113","161716","0.0-11.0-2.34","","null","","<div class='trialDiv'><img src='Fruit/melon.png'><br><font class='baseline'><strong>Melon Millions</strong><p>Choose number of points to bet.</font><div class='respPicDiv'><img src='img/responseButtonOffersNo0L5.png' class='respPic'></div></div>","null","12","Melon Millions","Fruit/melon.png","Won","0.2,0.8","12","0.2","180","35","",""
"","","","feedback","","63e5b3e89a3823139cb9d35e","bdp_rwlrn","Fri Mar 10 2023 15:26:51 GMT-0500 (Eastern Standard Time)","335920","Untrustworthy,Trustworthy","html-keyboard-response","114","162718","0.0-11.0-3.34","","null","","<div class='respPicDiv'><img src='img/responseButtonOffersNo0_wht.png' class='respPic'></div><div class='trialDiv'><img src='Fruit/melon.png'><br><font class='baseline'><strong>Melon Millions</strong><p><strong><font class='posOutcome'>You WON</font><p>You bet: 5</strong></font> &nbsp; &nbsp; &nbsp; &nbsp; &nbsp; &nbsp;<font class='posOutcome'>you receive: <strong>10</strong></font></div>","null","12","Melon Millions","Fruit/melon.png","Won","0.2,0.8","12","0.2","190","35","",""
"","","","decision","","63e5b3e89a3823139cb9d35e","bdp_rwlrn","Fri Mar 10 2023 15:26:51 GMT-0500 (Eastern Standard Time)","335920","Untrustworthy,Trustworthy","html-keyboard-response","115","162975","0.0-11.0-1.35","","256","","<div class='trialDiv'><img src='Fruit/lemon.png'><br><font class='baseline'><strong>Lucky Lemons</strong><p>Choose number of points to bet.</font><div class='respPicDiv'><img src='img/responseButtonOffersNo0L.png' class='respPic'></div></div>","5","12","Lucky Lemons","Fruit/lemon.png","Won","0.2,0.65","10","0.2","195","36","",""
"","","","decisionFB","","63e5b3e89a3823139cb9d35e","bdp_rwlrn","Fri Mar 10 2023 15:26:51 GMT-0500 (Eastern Standard Time)","335920","Untrustworthy,Trustworthy","html-keyboard-response","116","163227","0.0-11.0-2.35","","null","","<div class='trialDiv'><img src='Fruit/lemon.png'><br><font class='baseline'><strong>Lucky Lemons</strong><p>Choose number of points to bet.</font><div class='respPicDiv'><img src='img/responseButtonOffersNo0L5.png' class='respPic'></div></div>","null","12","Lucky Lemons","Fruit/lemon.png","Won","0.2,0.65","10","0.2","190","36","",""
"","","","feedback","","63e5b3e89a3823139cb9d35e","bdp_rwlrn","Fri Mar 10 2023 15:26:51 GMT-0500 (Eastern Standard Time)","335920","Untrustworthy,Trustworthy","html-keyboard-response","117","164230","0.0-11.0-3.35","","null","","<div class='respPicDiv'><img src='img/responseButtonOffersNo0_wht.png' class='respPic'></div><div class='trialDiv'><img src='Fruit/lemon.png'><br><font class='baseline'><strong>Lucky Lemons</strong><p><strong><font class='posOutcome'>You WON</font><p>You bet: 5</strong></font> &nbsp; &nbsp; &nbsp; &nbsp; &nbsp; &nbsp;<font class='posOutcome'>you receive: <strong>10</strong></font></div>","null","12","Lucky Lemons","Fruit/lemon.png","Won","0.2,0.65","10","0.2","200","36","",""
"","","","decision","","63e5b3e89a3823139cb9d35e","bdp_rwlrn","Fri Mar 10 2023 15:26:51 GMT-0500 (Eastern Standard Time)","335920","Untrustworthy,Trustworthy","html-keyboard-response","118","164424","0.0-11.0-1.36","","191","","<div class='trialDiv'><img src='Fruit/mixed-berries2.png'><br><font class='baseline'><strong>Berry Bla$t</strong><p>Choose number of points to bet.</font><div class='respPicDiv'><img src='img/responseButtonOffersNo0L.png' class='respPic'></div></div>","5","13","Berry Bla$t","Fruit/mixed-berries2.png","Lost","0.8,0.35","8","0.8","205","37","",""
"","","","decisionFB","","63e5b3e89a3823139cb9d35e","bdp_rwlrn","Fri Mar 10 2023 15:26:51 GMT-0500 (Eastern Standard Time)","335920","Untrustworthy,Trustworthy","html-keyboard-response","119","164676","0.0-11.0-2.36","","null","","<div class='trialDiv'><img src='Fruit/mixed-berries2.png'><br><font class='baseline'><strong>Berry Bla$t</strong><p>Choose number of points to bet.</font><div class='respPicDiv'><img src='img/responseButtonOffersNo0L5.png' class='respPic'></div></div>","null","13","Berry Bla$t","Fruit/mixed-berries2.png","Lost","0.8,0.35","8","0.8","200","37","",""
"","","","feedback","","63e5b3e89a3823139cb9d35e","bdp_rwlrn","Fri Mar 10 2023 15:26:51 GMT-0500 (Eastern Standard Time)","335920","Untrustworthy,Trustworthy","html-keyboard-response","120","165679","0.0-11.0-3.36","","null","","<div class='respPicDiv'><img src='img/responseButtonOffersNo0_wht.png' class='respPic'></div><div class='trialDiv'><img src='Fruit/mixed-berries2.png'><br><font class='baseline'><strong>Berry Bla$t</strong><p><strong><font class='negOutcome'>You LOST</font><p>You bet: 5</strong></font> &nbsp; &nbsp; &nbsp; &nbsp; &nbsp; &nbsp;<font class='negOutcome'>You receive: <strong>0</strong></font></div>","null","13","Berry Bla$t","Fruit/mixed-berries2.png","Lost","0.8,0.35","8","0.8","200","37","",""
"","","","decision","","63e5b3e89a3823139cb9d35e","bdp_rwlrn","Fri Mar 10 2023 15:26:51 GMT-0500 (Eastern Standard Time)","335920","Untrustworthy,Trustworthy","html-keyboard-response","121","165719","0.0-11.0-1.37","","39","","<div class='trialDiv'><img src='Fruit/melon.png'><br><font class='baseline'><strong>Melon Millions</strong><p>Choose number of points to bet.</font><div class='respPicDiv'><img src='img/responseButtonOffersNo0L.png' class='respPic'></div></div>","1","13","Melon Millions","Fruit/melon.png","Won","0.2,0.8","12","0.2","205","38","",""
"","","","decisionFB","","63e5b3e89a3823139cb9d35e","bdp_rwlrn","Fri Mar 10 2023 15:26:51 GMT-0500 (Eastern Standard Time)","335920","Untrustworthy,Trustworthy","html-keyboard-response","122","165972","0.0-11.0-2.37","","null","","<div class='trialDiv'><img src='Fruit/melon.png'><br><font class='baseline'><strong>Melon Millions</strong><p>Choose number of points to bet.</font><div class='respPicDiv'><img src='img/responseButtonOffersNo0L1.png' class='respPic'></div></div>","null","13","Melon Millions","Fruit/melon.png","Won","0.2,0.8","12","0.2","204","38","",""
"","","","feedback","","63e5b3e89a3823139cb9d35e","bdp_rwlrn","Fri Mar 10 2023 15:26:51 GMT-0500 (Eastern Standard Time)","335920","Untrustworthy,Trustworthy","html-keyboard-response","123","166975","0.0-11.0-3.37","","null","","<div class='respPicDiv'><img src='img/responseButtonOffersNo0_wht.png' class='respPic'></div><div class='trialDiv'><img src='Fruit/melon.png'><br><font class='baseline'><strong>Melon Millions</strong><p><strong><font class='posOutcome'>You WON</font><p>You bet: 1</strong></font> &nbsp; &nbsp; &nbsp; &nbsp; &nbsp; &nbsp;<font class='posOutcome'>you receive: <strong>2</strong></font></div>","null","13","Melon Millions","Fruit/melon.png","Won","0.2,0.8","12","0.2","206","38","",""
"","","","decision","","63e5b3e89a3823139cb9d35e","bdp_rwlrn","Fri Mar 10 2023 15:26:51 GMT-0500 (Eastern Standard Time)","335920","Untrustworthy,Trustworthy","html-keyboard-response","124","167208","0.0-11.0-1.38","","231","","<div class='trialDiv'><img src='Fruit/lemon.png'><br><font class='baseline'><strong>Lucky Lemons</strong><p>Choose number of points to bet.</font><div class='respPicDiv'><img src='img/responseButtonOffersNo0L.png' class='respPic'></div></div>","1","13","Lucky Lemons","Fruit/lemon.png","Lost","0.2,0.65","10","0.2","211","39","",""
"","","","decisionFB","","63e5b3e89a3823139cb9d35e","bdp_rwlrn","Fri Mar 10 2023 15:26:51 GMT-0500 (Eastern Standard Time)","335920","Untrustworthy,Trustworthy","html-keyboard-response","125","167460","0.0-11.0-2.38","","null","","<div class='trialDiv'><img src='Fruit/lemon.png'><br><font class='baseline'><strong>Lucky Lemons</strong><p>Choose number of points to bet.</font><div class='respPicDiv'><img src='img/responseButtonOffersNo0L1.png' class='respPic'></div></div>","null","13","Lucky Lemons","Fruit/lemon.png","Lost","0.2,0.65","10","0.2","210","39","",""
"","","","feedback","","63e5b3e89a3823139cb9d35e","bdp_rwlrn","Fri Mar 10 2023 15:26:51 GMT-0500 (Eastern Standard Time)","335920","Untrustworthy,Trustworthy","html-keyboard-response","126","168463","0.0-11.0-3.38","","null","","<div class='respPicDiv'><img src='img/responseButtonOffersNo0_wht.png' class='respPic'></div><div class='trialDiv'><img src='Fruit/lemon.png'><br><font class='baseline'><strong>Lucky Lemons</strong><p><strong><font class='negOutcome'>You LOST</font><p>You bet: 1</strong></font> &nbsp; &nbsp; &nbsp; &nbsp; &nbsp; &nbsp;<font class='negOutcome'>You receive: <strong>0</strong></font></div>","null","13","Lucky Lemons","Fruit/lemon.png","Lost","0.2,0.65","10","0.2","210","39","",""
"","","","decision","","63e5b3e89a3823139cb9d35e","bdp_rwlrn","Fri Mar 10 2023 15:26:51 GMT-0500 (Eastern Standard Time)","335920","Untrustworthy,Trustworthy","html-keyboard-response","127","168903","0.0-11.0-1.39","","439","","<div class='trialDiv'><img src='Fruit/melon.png'><br><font class='baseline'><strong>Melon Millions</strong><p>Choose number of points to bet.</font><div class='respPicDiv'><img src='img/responseButtonOffersNo0L.png' class='respPic'></div></div>","5","14","Melon Millions","Fruit/melon.png","Won","0.2,0.8","12","0.2","215","40","",""
"","","","decisionFB","","63e5b3e89a3823139cb9d35e","bdp_rwlrn","Fri Mar 10 2023 15:26:51 GMT-0500 (Eastern Standard Time)","335920","Untrustworthy,Trustworthy","html-keyboard-response","128","169156","0.0-11.0-2.39","","null","","<div class='trialDiv'><img src='Fruit/melon.png'><br><font class='baseline'><strong>Melon Millions</strong><p>Choose number of points to bet.</font><div class='respPicDiv'><img src='img/responseButtonOffersNo0L5.png' class='respPic'></div></div>","null","14","Melon Millions","Fruit/melon.png","Won","0.2,0.8","12","0.2","210","40","",""
"","","","feedback","","63e5b3e89a3823139cb9d35e","bdp_rwlrn","Fri Mar 10 2023 15:26:51 GMT-0500 (Eastern Standard Time)","335920","Untrustworthy,Trustworthy","html-keyboard-response","129","170157","0.0-11.0-3.39","","null","","<div class='respPicDiv'><img src='img/responseButtonOffersNo0_wht.png' class='respPic'></div><div class='trialDiv'><img src='Fruit/melon.png'><br><font class='baseline'><strong>Melon Millions</strong><p><strong><font class='posOutcome'>You WON</font><p>You bet: 5</strong></font> &nbsp; &nbsp; &nbsp; &nbsp; &nbsp; &nbsp;<font class='posOutcome'>you receive: <strong>10</strong></font></div>","null","14","Melon Millions","Fruit/melon.png","Won","0.2,0.8","12","0.2","220","40","",""
"","","","decision","","63e5b3e89a3823139cb9d35e","bdp_rwlrn","Fri Mar 10 2023 15:26:51 GMT-0500 (Eastern Standard Time)","335920","Untrustworthy,Trustworthy","html-keyboard-response","130","170400","0.0-11.0-1.40","","241","","<div class='trialDiv'><img src='Fruit/lemon.png'><br><font class='baseline'><strong>Lucky Lemons</strong><p>Choose number of points to bet.</font><div class='respPicDiv'><img src='img/responseButtonOffersNo0L.png' class='respPic'></div></div>","5","14","Lucky Lemons","Fruit/lemon.png","Won","0.2,0.65","10","0.2","225","41","",""
"","","","decisionFB","","63e5b3e89a3823139cb9d35e","bdp_rwlrn","Fri Mar 10 2023 15:26:51 GMT-0500 (Eastern Standard Time)","335920","Untrustworthy,Trustworthy","html-keyboard-response","131","170652","0.0-11.0-2.40","","null","","<div class='trialDiv'><img src='Fruit/lemon.png'><br><font class='baseline'><strong>Lucky Lemons</strong><p>Choose number of points to bet.</font><div class='respPicDiv'><img src='img/responseButtonOffersNo0L5.png' class='respPic'></div></div>","null","14","Lucky Lemons","Fruit/lemon.png","Won","0.2,0.65","10","0.2","220","41","",""
"","","","feedback","","63e5b3e89a3823139cb9d35e","bdp_rwlrn","Fri Mar 10 2023 15:26:51 GMT-0500 (Eastern Standard Time)","335920","Untrustworthy,Trustworthy","html-keyboard-response","132","171654","0.0-11.0-3.40","","null","","<div class='respPicDiv'><img src='img/responseButtonOffersNo0_wht.png' class='respPic'></div><div class='trialDiv'><img src='Fruit/lemon.png'><br><font class='baseline'><strong>Lucky Lemons</strong><p><strong><font class='posOutcome'>You WON</font><p>You bet: 5</strong></font> &nbsp; &nbsp; &nbsp; &nbsp; &nbsp; &nbsp;<font class='posOutcome'>you receive: <strong>10</strong></font></div>","null","14","Lucky Lemons","Fruit/lemon.png","Won","0.2,0.65","10","0.2","230","41","",""
"","","","decision","","63e5b3e89a3823139cb9d35e","bdp_rwlrn","Fri Mar 10 2023 15:26:51 GMT-0500 (Eastern Standard Time)","335920","Untrustworthy,Trustworthy","html-keyboard-response","133","171767","0.0-11.0-1.41","","112","","<div class='trialDiv'><img src='Fruit/mixed-berries2.png'><br><font class='baseline'><strong>Berry Bla$t</strong><p>Choose number of points to bet.</font><div class='respPicDiv'><img src='img/responseButtonOffersNo0L.png' class='respPic'></div></div>","5","14","Berry Bla$t","Fruit/mixed-berries2.png","Won","0.8,0.35","8","0.8","235","42","",""
"","","","decisionFB","","63e5b3e89a3823139cb9d35e","bdp_rwlrn","Fri Mar 10 2023 15:26:51 GMT-0500 (Eastern Standard Time)","335920","Untrustworthy,Trustworthy","html-keyboard-response","134","172020","0.0-11.0-2.41","","null","","<div class='trialDiv'><img src='Fruit/mixed-berries2.png'><br><font class='baseline'><strong>Berry Bla$t</strong><p>Choose number of points to bet.</font><div class='respPicDiv'><img src='img/responseButtonOffersNo0L5.png' class='respPic'></div></div>","null","14","Berry Bla$t","Fruit/mixed-berries2.png","Won","0.8,0.35","8","0.8","230","42","",""
"","","","feedback","","63e5b3e89a3823139cb9d35e","bdp_rwlrn","Fri Mar 10 2023 15:26:51 GMT-0500 (Eastern Standard Time)","335920","Untrustworthy,Trustworthy","html-keyboard-response","135","173023","0.0-11.0-3.41","","null","","<div class='respPicDiv'><img src='img/responseButtonOffersNo0_wht.png' class='respPic'></div><div class='trialDiv'><img src='Fruit/mixed-berries2.png'><br><font class='baseline'><strong>Berry Bla$t</strong><p><strong><font class='posOutcome'>You WON</font><p>You bet: 5</strong></font> &nbsp; &nbsp; &nbsp; &nbsp; &nbsp; &nbsp;<font class='posOutcome'>you receive: <strong>10</strong></font></div>","null","14","Berry Bla$t","Fruit/mixed-berries2.png","Won","0.8,0.35","8","0.8","240","42","",""
"","","","decision","","63e5b3e89a3823139cb9d35e","bdp_rwlrn","Fri Mar 10 2023 15:26:51 GMT-0500 (Eastern Standard Time)","335920","Untrustworthy,Trustworthy","html-keyboard-response","136","173255","0.0-11.0-1.42","","231","","<div class='trialDiv'><img src='Fruit/melon.png'><br><font class='baseline'><strong>Melon Millions</strong><p>Choose number of points to bet.</font><div class='respPicDiv'><img src='img/responseButtonOffersNo0L.png' class='respPic'></div></div>","5","15","Melon Millions","Fruit/melon.png","Lost","0.2,0.8","12","0.2","245","43","",""
"","","","decisionFB","","63e5b3e89a3823139cb9d35e","bdp_rwlrn","Fri Mar 10 2023 15:26:51 GMT-0500 (Eastern Standard Time)","335920","Untrustworthy,Trustworthy","html-keyboard-response","137","173507","0.0-11.0-2.42","","null","","<div class='trialDiv'><img src='Fruit/melon.png'><br><font class='baseline'><strong>Melon Millions</strong><p>Choose number of points to bet.</font><div class='respPicDiv'><img src='img/responseButtonOffersNo0L5.png' class='respPic'></div></div>","null","15","Melon Millions","Fruit/melon.png","Lost","0.2,0.8","12","0.2","240","43","",""
"","","","feedback","","63e5b3e89a3823139cb9d35e","bdp_rwlrn","Fri Mar 10 2023 15:26:51 GMT-0500 (Eastern Standard Time)","335920","Untrustworthy,Trustworthy","html-keyboard-response","138","174511","0.0-11.0-3.42","","null","","<div class='respPicDiv'><img src='img/responseButtonOffersNo0_wht.png' class='respPic'></div><div class='trialDiv'><img src='Fruit/melon.png'><br><font class='baseline'><strong>Melon Millions</strong><p><strong><font class='negOutcome'>You LOST</font><p>You bet: 5</strong></font> &nbsp; &nbsp; &nbsp; &nbsp; &nbsp; &nbsp;<font class='negOutcome'>You receive: <strong>0</strong></font></div>","null","15","Melon Millions","Fruit/melon.png","Lost","0.2,0.8","12","0.2","240","43","",""
"","","","decision","","63e5b3e89a3823139cb9d35e","bdp_rwlrn","Fri Mar 10 2023 15:26:51 GMT-0500 (Eastern Standard Time)","335920","Untrustworthy,Trustworthy","html-keyboard-response","139","174575","0.0-11.0-1.43","","63","","<div class='trialDiv'><img src='Fruit/mixed-berries2.png'><br><font class='baseline'><strong>Berry Bla$t</strong><p>Choose number of points to bet.</font><div class='respPicDiv'><img src='img/responseButtonOffersNo0L.png' class='respPic'></div></div>","5","15","Berry Bla$t","Fruit/mixed-berries2.png","Lost","0.8,0.35","8","0.8","245","44","",""
"","","","decisionFB","","63e5b3e89a3823139cb9d35e","bdp_rwlrn","Fri Mar 10 2023 15:26:51 GMT-0500 (Eastern Standard Time)","335920","Untrustworthy,Trustworthy","html-keyboard-response","140","174828","0.0-11.0-2.43","","null","","<div class='trialDiv'><img src='Fruit/mixed-berries2.png'><br><font class='baseline'><strong>Berry Bla$t</strong><p>Choose number of points to bet.</font><div class='respPicDiv'><img src='img/responseButtonOffersNo0L5.png' class='respPic'></div></div>","null","15","Berry Bla$t","Fruit/mixed-berries2.png","Lost","0.8,0.35","8","0.8","240","44","",""
"","","","feedback","","63e5b3e89a3823139cb9d35e","bdp_rwlrn","Fri Mar 10 2023 15:26:51 GMT-0500 (Eastern Standard Time)","335920","Untrustworthy,Trustworthy","html-keyboard-response","141","175831","0.0-11.0-3.43","","null","","<div class='respPicDiv'><img src='img/responseButtonOffersNo0_wht.png' class='respPic'></div><div class='trialDiv'><img src='Fruit/mixed-berries2.png'><br><font class='baseline'><strong>Berry Bla$t</strong><p><strong><font class='negOutcome'>You LOST</font><p>You bet: 5</strong></font> &nbsp; &nbsp; &nbsp; &nbsp; &nbsp; &nbsp;<font class='negOutcome'>You receive: <strong>0</strong></font></div>","null","15","Berry Bla$t","Fruit/mixed-berries2.png","Lost","0.8,0.35","8","0.8","240","44","",""
"","","","decision","","63e5b3e89a3823139cb9d35e","bdp_rwlrn","Fri Mar 10 2023 15:26:51 GMT-0500 (Eastern Standard Time)","335920","Untrustworthy,Trustworthy","html-keyboard-response","142","175983","0.0-11.0-1.44","","151","","<div class='trialDiv'><img src='Fruit/lemon.png'><br><font class='baseline'><strong>Lucky Lemons</strong><p>Choose number of points to bet.</font><div class='respPicDiv'><img src='img/responseButtonOffersNo0L.png' class='respPic'></div></div>","5","15","Lucky Lemons","Fruit/lemon.png","Lost","0.2,0.65","10","0.2","245","45","",""
"","","","decisionFB","","63e5b3e89a3823139cb9d35e","bdp_rwlrn","Fri Mar 10 2023 15:26:51 GMT-0500 (Eastern Standard Time)","335920","Untrustworthy,Trustworthy","html-keyboard-response","143","176236","0.0-11.0-2.44","","null","","<div class='trialDiv'><img src='Fruit/lemon.png'><br><font class='baseline'><strong>Lucky Lemons</strong><p>Choose number of points to bet.</font><div class='respPicDiv'><img src='img/responseButtonOffersNo0L5.png' class='respPic'></div></div>","null","15","Lucky Lemons","Fruit/lemon.png","Lost","0.2,0.65","10","0.2","240","45","",""
"","","","feedback","","63e5b3e89a3823139cb9d35e","bdp_rwlrn","Fri Mar 10 2023 15:26:51 GMT-0500 (Eastern Standard Time)","335920","Untrustworthy,Trustworthy","html-keyboard-response","144","177240","0.0-11.0-3.44","","null","","<div class='respPicDiv'><img src='img/responseButtonOffersNo0_wht.png' class='respPic'></div><div class='trialDiv'><img src='Fruit/lemon.png'><br><font class='baseline'><strong>Lucky Lemons</strong><p><strong><font class='negOutcome'>You LOST</font><p>You bet: 5</strong></font> &nbsp; &nbsp; &nbsp; &nbsp; &nbsp; &nbsp;<font class='negOutcome'>You receive: <strong>0</strong></font></div>","null","15","Lucky Lemons","Fruit/lemon.png","Lost","0.2,0.65","10","0.2","240","45","",""
"","","","decision","","63e5b3e89a3823139cb9d35e","bdp_rwlrn","Fri Mar 10 2023 15:26:51 GMT-0500 (Eastern Standard Time)","335920","Untrustworthy,Trustworthy","html-keyboard-response","145","177304","0.0-11.0-1.45","","62","","<div class='trialDiv'><img src='Fruit/mixed-berries2.png'><br><font class='baseline'><strong>Berry Bla$t</strong><p>Choose number of points to bet.</font><div class='respPicDiv'><img src='img/responseButtonOffersNo0L.png' class='respPic'></div></div>","5","16","Berry Bla$t","Fruit/mixed-berries2.png","Won","0.8,0.35","8","0.8","245","46","",""
"","","","decisionFB","","63e5b3e89a3823139cb9d35e","bdp_rwlrn","Fri Mar 10 2023 15:26:51 GMT-0500 (Eastern Standard Time)","335920","Untrustworthy,Trustworthy","html-keyboard-response","146","177555","0.0-11.0-2.45","","null","","<div class='trialDiv'><img src='Fruit/mixed-berries2.png'><br><font class='baseline'><strong>Berry Bla$t</strong><p>Choose number of points to bet.</font><div class='respPicDiv'><img src='img/responseButtonOffersNo0L5.png' class='respPic'></div></div>","null","16","Berry Bla$t","Fruit/mixed-berries2.png","Won","0.8,0.35","8","0.8","240","46","",""
"","","","feedback","","63e5b3e89a3823139cb9d35e","bdp_rwlrn","Fri Mar 10 2023 15:26:51 GMT-0500 (Eastern Standard Time)","335920","Untrustworthy,Trustworthy","html-keyboard-response","147","178559","0.0-11.0-3.45","","null","","<div class='respPicDiv'><img src='img/responseButtonOffersNo0_wht.png' class='respPic'></div><div class='trialDiv'><img src='Fruit/mixed-berries2.png'><br><font class='baseline'><strong>Berry Bla$t</strong><p><strong><font class='posOutcome'>You WON</font><p>You bet: 5</strong></font> &nbsp; &nbsp; &nbsp; &nbsp; &nbsp; &nbsp;<font class='posOutcome'>you receive: <strong>10</strong></font></div>","null","16","Berry Bla$t","Fruit/mixed-berries2.png","Won","0.8,0.35","8","0.8","250","46","",""
"","","","decision","","63e5b3e89a3823139cb9d35e","bdp_rwlrn","Fri Mar 10 2023 15:26:51 GMT-0500 (Eastern Standard Time)","335920","Untrustworthy,Trustworthy","html-keyboard-response","148","178680","0.0-11.0-1.46","","118","","<div class='trialDiv'><img src='Fruit/melon.png'><br><font class='baseline'><strong>Melon Millions</strong><p>Choose number of points to bet.</font><div class='respPicDiv'><img src='img/responseButtonOffersNo0L.png' class='respPic'></div></div>","5","16","Melon Millions","Fruit/melon.png","Won","0.2,0.8","12","0.2","255","47","",""
"","","","decisionFB","","63e5b3e89a3823139cb9d35e","bdp_rwlrn","Fri Mar 10 2023 15:26:51 GMT-0500 (Eastern Standard Time)","335920","Untrustworthy,Trustworthy","html-keyboard-response","149","178932","0.0-11.0-2.46","","null","","<div class='trialDiv'><img src='Fruit/melon.png'><br><font class='baseline'><strong>Melon Millions</strong><p>Choose number of points to bet.</font><div class='respPicDiv'><img src='img/responseButtonOffersNo0L5.png' class='respPic'></div></div>","null","16","Melon Millions","Fruit/melon.png","Won","0.2,0.8","12","0.2","250","47","",""
"","","","feedback","","63e5b3e89a3823139cb9d35e","bdp_rwlrn","Fri Mar 10 2023 15:26:51 GMT-0500 (Eastern Standard Time)","335920","Untrustworthy,Trustworthy","html-keyboard-response","150","179935","0.0-11.0-3.46","","null","","<div class='respPicDiv'><img src='img/responseButtonOffersNo0_wht.png' class='respPic'></div><div class='trialDiv'><img src='Fruit/melon.png'><br><font class='baseline'><strong>Melon Millions</strong><p><strong><font class='posOutcome'>You WON</font><p>You bet: 5</strong></font> &nbsp; &nbsp; &nbsp; &nbsp; &nbsp; &nbsp;<font class='posOutcome'>you receive: <strong>10</strong></font></div>","null","16","Melon Millions","Fruit/melon.png","Won","0.2,0.8","12","0.2","260","47","",""
"","","","decision","","63e5b3e89a3823139cb9d35e","bdp_rwlrn","Fri Mar 10 2023 15:26:51 GMT-0500 (Eastern Standard Time)","335920","Untrustworthy,Trustworthy","html-keyboard-response","151","179984","0.0-11.0-1.47","","47","","<div class='trialDiv'><img src='Fruit/lemon.png'><br><font class='baseline'><strong>Lucky Lemons</strong><p>Choose number of points to bet.</font><div class='respPicDiv'><img src='img/responseButtonOffersNo0L.png' class='respPic'></div></div>","5","16","Lucky Lemons","Fruit/lemon.png","Lost","0.2,0.65","10","0.2","265","48","",""
"","","","decisionFB","","63e5b3e89a3823139cb9d35e","bdp_rwlrn","Fri Mar 10 2023 15:26:51 GMT-0500 (Eastern Standard Time)","335920","Untrustworthy,Trustworthy","html-keyboard-response","152","180235","0.0-11.0-2.47","","null","","<div class='trialDiv'><img src='Fruit/lemon.png'><br><font class='baseline'><strong>Lucky Lemons</strong><p>Choose number of points to bet.</font><div class='respPicDiv'><img src='img/responseButtonOffersNo0L5.png' class='respPic'></div></div>","null","16","Lucky Lemons","Fruit/lemon.png","Lost","0.2,0.65","10","0.2","260","48","",""
"","","","feedback","","63e5b3e89a3823139cb9d35e","bdp_rwlrn","Fri Mar 10 2023 15:26:51 GMT-0500 (Eastern Standard Time)","335920","Untrustworthy,Trustworthy","html-keyboard-response","153","181238","0.0-11.0-3.47","","null","","<div class='respPicDiv'><img src='img/responseButtonOffersNo0_wht.png' class='respPic'></div><div class='trialDiv'><img src='Fruit/lemon.png'><br><font class='baseline'><strong>Lucky Lemons</strong><p><strong><font class='negOutcome'>You LOST</font><p>You bet: 5</strong></font> &nbsp; &nbsp; &nbsp; &nbsp; &nbsp; &nbsp;<font class='negOutcome'>You receive: <strong>0</strong></font></div>","null","16","Lucky Lemons","Fruit/lemon.png","Lost","0.2,0.65","10","0.2","260","48","",""
"","","","decision","","63e5b3e89a3823139cb9d35e","bdp_rwlrn","Fri Mar 10 2023 15:26:51 GMT-0500 (Eastern Standard Time)","335920","Untrustworthy,Trustworthy","html-keyboard-response","154","181464","0.0-11.0-1.48","","224","","<div class='trialDiv'><img src='Fruit/mixed-berries2.png'><br><font class='baseline'><strong>Berry Bla$t</strong><p>Choose number of points to bet.</font><div class='respPicDiv'><img src='img/responseButtonOffersNo0L.png' class='respPic'></div></div>","5","17","Berry Bla$t","Fruit/mixed-berries2.png","Lost","0.8,0.35","8","0.8","265","49","",""
"","","","decisionFB","","63e5b3e89a3823139cb9d35e","bdp_rwlrn","Fri Mar 10 2023 15:26:51 GMT-0500 (Eastern Standard Time)","335920","Untrustworthy,Trustworthy","html-keyboard-response","155","181717","0.0-11.0-2.48","","null","","<div class='trialDiv'><img src='Fruit/mixed-berries2.png'><br><font class='baseline'><strong>Berry Bla$t</strong><p>Choose number of points to bet.</font><div class='respPicDiv'><img src='img/responseButtonOffersNo0L5.png' class='respPic'></div></div>","null","17","Berry Bla$t","Fruit/mixed-berries2.png","Lost","0.8,0.35","8","0.8","260","49","",""
"","","","feedback","","63e5b3e89a3823139cb9d35e","bdp_rwlrn","Fri Mar 10 2023 15:26:51 GMT-0500 (Eastern Standard Time)","335920","Untrustworthy,Trustworthy","html-keyboard-response","156","182719","0.0-11.0-3.48","","null","","<div class='respPicDiv'><img src='img/responseButtonOffersNo0_wht.png' class='respPic'></div><div class='trialDiv'><img src='Fruit/mixed-berries2.png'><br><font class='baseline'><strong>Berry Bla$t</strong><p><strong><font class='negOutcome'>You LOST</font><p>You bet: 5</strong></font> &nbsp; &nbsp; &nbsp; &nbsp; &nbsp; &nbsp;<font class='negOutcome'>You receive: <strong>0</strong></font></div>","null","17","Berry Bla$t","Fruit/mixed-berries2.png","Lost","0.8,0.35","8","0.8","260","49","",""
"","","","decision","","63e5b3e89a3823139cb9d35e","bdp_rwlrn","Fri Mar 10 2023 15:26:51 GMT-0500 (Eastern Standard Time)","335920","Untrustworthy,Trustworthy","html-keyboard-response","157","183240","0.0-11.0-1.49","","520","","<div class='trialDiv'><img src='Fruit/melon.png'><br><font class='baseline'><strong>Melon Millions</strong><p>Choose number of points to bet.</font><div class='respPicDiv'><img src='img/responseButtonOffersNo0L.png' class='respPic'></div></div>","5","17","Melon Millions","Fruit/melon.png","Won","0.2,0.8","12","0.2","265","50","",""
"","","","decisionFB","","63e5b3e89a3823139cb9d35e","bdp_rwlrn","Fri Mar 10 2023 15:26:51 GMT-0500 (Eastern Standard Time)","335920","Untrustworthy,Trustworthy","html-keyboard-response","158","183492","0.0-11.0-2.49","","null","","<div class='trialDiv'><img src='Fruit/melon.png'><br><font class='baseline'><strong>Melon Millions</strong><p>Choose number of points to bet.</font><div class='respPicDiv'><img src='img/responseButtonOffersNo0L5.png' class='respPic'></div></div>","null","17","Melon Millions","Fruit/melon.png","Won","0.2,0.8","12","0.2","260","50","",""
"","","","feedback","","63e5b3e89a3823139cb9d35e","bdp_rwlrn","Fri Mar 10 2023 15:26:51 GMT-0500 (Eastern Standard Time)","335920","Untrustworthy,Trustworthy","html-keyboard-response","159","184494","0.0-11.0-3.49","","null","","<div class='respPicDiv'><img src='img/responseButtonOffersNo0_wht.png' class='respPic'></div><div class='trialDiv'><img src='Fruit/melon.png'><br><font class='baseline'><strong>Melon Millions</strong><p><strong><font class='posOutcome'>You WON</font><p>You bet: 5</strong></font> &nbsp; &nbsp; &nbsp; &nbsp; &nbsp; &nbsp;<font class='posOutcome'>you receive: <strong>10</strong></font></div>","null","17","Melon Millions","Fruit/melon.png","Won","0.2,0.8","12","0.2","270","50","",""
"","","","decision","","63e5b3e89a3823139cb9d35e","bdp_rwlrn","Fri Mar 10 2023 15:26:51 GMT-0500 (Eastern Standard Time)","335920","Untrustworthy,Trustworthy","html-keyboard-response","160","184832","0.0-11.0-1.50","","337","","<div class='trialDiv'><img src='Fruit/lemon.png'><br><font class='baseline'><strong>Lucky Lemons</strong><p>Choose number of points to bet.</font><div class='respPicDiv'><img src='img/responseButtonOffersNo0L.png' class='respPic'></div></div>","5","17","Lucky Lemons","Fruit/lemon.png","Won","0.2,0.65","10","0.2","275","51","",""
"","","","decisionFB","","63e5b3e89a3823139cb9d35e","bdp_rwlrn","Fri Mar 10 2023 15:26:51 GMT-0500 (Eastern Standard Time)","335920","Untrustworthy,Trustworthy","html-keyboard-response","161","185083","0.0-11.0-2.50","","null","","<div class='trialDiv'><img src='Fruit/lemon.png'><br><font class='baseline'><strong>Lucky Lemons</strong><p>Choose number of points to bet.</font><div class='respPicDiv'><img src='img/responseButtonOffersNo0L5.png' class='respPic'></div></div>","null","17","Lucky Lemons","Fruit/lemon.png","Won","0.2,0.65","10","0.2","270","51","",""
