"event","trial","time","trialtype","numBlurs","subject_id","task","startTime","totalTime","labels","trial_type","trial_index","time_elapsed","internal_node_id","view_history","rt","success","stimulus","key_press","ltround","name","fileID","outcome","lottotype","lottoswpt","lottocurrpshare","point_total","round","faceID","face"
"blur","0","0","blurevent","1","6143e0914f93b50419ba30ab","bdp_rwlrn","Tue Mar 14 2023 00:23:38 GMT-0400 (Eastern Daylight Time)","276559","Untrustworthy,Trustworthy","","","","","","","","","","","","","","","","","","","",""
"","","","","","6143e0914f93b50419ba30ab","bdp_rwlrn","Tue Mar 14 2023 00:23:38 GMT-0400 (Eastern Daylight Time)","276559","Untrustworthy,Trustworthy","pavlovia","0","2","0.0-0.0","","","","","","","","","","","","","","","",""
"focus","1","199","focusevent","","6143e0914f93b50419ba30ab","bdp_rwlrn","Tue Mar 14 2023 00:23:38 GMT-0400 (Eastern Daylight Time)","276559","Untrustworthy,Trustworthy","","","","","","","","","","","","","","","","","","","",""
"","","","","","6143e0914f93b50419ba30ab","bdp_rwlrn","Tue Mar 14 2023 00:23:38 GMT-0400 (Eastern Daylight Time)","276559","Untrustworthy,Trustworthy","instructions","1","4757","0.0-1.0","[{""page_index"":0,""viewing_time"":4754}]","4754","","","","","","","","","","","","","",""
"fullscreenenter","2","6187","fullscreenenter","","6143e0914f93b50419ba30ab","bdp_rwlrn","Tue Mar 14 2023 00:23:38 GMT-0400 (Eastern Daylight Time)","276559","Untrustworthy,Trustworthy","","","","","","","","","","","","","","","","","","","",""
"","","","","","6143e0914f93b50419ba30ab","bdp_rwlrn","Tue Mar 14 2023 00:23:38 GMT-0400 (Eastern Daylight Time)","276559","Untrustworthy,Trustworthy","fullscreen","2","7173","0.0-2.0","","","true","","","","","","","","","","","","",""
"","","","","","6143e0914f93b50419ba30ab","bdp_rwlrn","Tue Mar 14 2023 00:23:38 GMT-0400 (Eastern Daylight Time)","276559","Untrustworthy,Trustworthy","instructions","3","35203","0.0-4.0","[{""page_index"":0,""viewing_time"":4519},{""page_index"":1,""viewing_time"":3660},{""page_index"":2,""viewing_time"":3554},{""page_index"":3,""viewing_time"":2683},{""page_index"":4,""viewing_time"":12314},{""page_index"":5,""viewing_time"":1298}]","28028","","","","","","","","","","","","","",""
"","","","","","6143e0914f93b50419ba30ab","bdp_rwlrn","Tue Mar 14 2023 00:23:38 GMT-0400 (Eastern Daylight Time)","276559","Untrustworthy,Trustworthy","html-keyboard-response","4","37776","0.0-5.0","","2572","","<div class='header' style='text-align:left; position: absolute; top: 5%; left: 5%;'><small>Task 3 of 5</small></div><div class='instruxDiv'><p><strong>1) What is the maximum number of points you can choose to bet on a lottery?</strong></p><p>a) 0</p><p>b) 1</p><p>c) 5</p>","C","","","","","","","","","","",""
"","","","","","6143e0914f93b50419ba30ab","bdp_rwlrn","Tue Mar 14 2023 00:23:38 GMT-0400 (Eastern Daylight Time)","276559","Untrustworthy,Trustworthy","html-keyboard-response","5","39161","0.0-6.0","","1284","","<div class='header' style='text-align:left; position: absolute; top: 5%; left: 5%;'><small>Task 3 of 5</small></div><div class='instruxDiv'><p><strong>1) What is the maximum number of points you can choose to bet on a lottery?</strong></p><p>a) 1</p><p>b) 1</p><p style='color:#00FF00'>c) 5</p><h3 style='color:#00FF00'>Correct!</h3><h3 class='center-content'>The correct response is c).</h3><h3 class='center-content'>The maximum number of points you can choose to bet on a lottery is 5 points.</h3><p><em>Press SPACEBAR to continue</em></p></div>"," ","","","","","","","","","","",""
"","","","","","6143e0914f93b50419ba30ab","bdp_rwlrn","Tue Mar 14 2023 00:23:38 GMT-0400 (Eastern Daylight Time)","276559","Untrustworthy,Trustworthy","html-keyboard-response","6","43766","0.0-7.0","","4504","","<div class='header' style='text-align:left; position: absolute; top: 5%; left: 5%;'><small>Task 3 of 5</small></div><div class='instruxDiv'><p><strong>2) How many points can you win each round?</strong></p><p>a) 10 points</p><p>b) Double what you bet</p><p>c) Quadruple what you bet</p>","B","","","","","","","","","","",""
"","","","","","6143e0914f93b50419ba30ab","bdp_rwlrn","Tue Mar 14 2023 00:23:38 GMT-0400 (Eastern Daylight Time)","276559","Untrustworthy,Trustworthy","html-keyboard-response","7","45024","0.0-8.0","","1157","","<div class='header' style='text-align:left; position: absolute; top: 5%; left: 5%;'><small>Task 3 of 5</small></div><div class='instruxDiv'><p><strong>2) How many points can you win each round?</strong></p><p>a) 10 points</p><p style='color:#00FF00'>b) Double what you bet</p><p>c) Quadruple what you bet</p><h3 style='color:#00FF00'>Correct!</h3><h3 class='center-content'>The correct response is b).</h3><h3 class='center-content'>You can win double the amount of points you bet.</h3><p><em>Press SPACEBAR to continue</em></p></div>"," ","","","","","","","","","","",""
"","","","","","6143e0914f93b50419ba30ab","bdp_rwlrn","Tue Mar 14 2023 00:23:38 GMT-0400 (Eastern Daylight Time)","276559","Untrustworthy,Trustworthy","html-keyboard-response","8","50126","0.0-9.0","","null","","<div class='header' style='text-align:left; position: absolute; top: 5%; left: 5%;'><small>Task 3 of 5</small></div><div class='instruxDiv'><p>Thank you for completing the quiz<p>These are the actual lotteries you will be playing in the next block:<p><div class='tc' align='center'><img class='introPic' src='Fruit/melon.png'><br><strong>Melon Millions</strong></div><div class='bl' align='center'><img class='introPic' src='Fruit/mango.png'><br><strong>Mega Mangos</strong></div><div class='br' align='center'><img class='introPic' src='Fruit/watermelon.png'><br><strong>Watermelon Win$</strong></div></div><p>Across <strong>66 rounds</strong> you will play each lottery <strong>22 times</strong> (in random order).<p style='align:center; color:white'><font <em>Press SPACEBAR to continue</em></p>","null","","","","","","","","","","",""
"","","","","","6143e0914f93b50419ba30ab","bdp_rwlrn","Tue Mar 14 2023 00:23:38 GMT-0400 (Eastern Daylight Time)","276559","Untrustworthy,Trustworthy","instructions","9","52902","0.0-10.0","[{""page_index"":0,""viewing_time"":1177},{""page_index"":1,""viewing_time"":1598}]","2775","","","","","","","","","","","","","",""
"","","","decision","","6143e0914f93b50419ba30ab","bdp_rwlrn","Tue Mar 14 2023 00:23:38 GMT-0400 (Eastern Daylight Time)","276559","Untrustworthy,Trustworthy","html-keyboard-response","10","54260","0.0-11.0-1.0","","1257","","<div class='trialDiv'><img src='Fruit/mango.png'><br><font class='baseline'><strong>Mega Mangos</strong><p>Choose number of points to bet.</font><div class='respPicDiv'><img src='img/responseButtonOffersNo0L.png' class='respPic'></div></div>","5","1","Mega Mangos","Fruit/mango.png","Won","0.8,0.35","12","0.8","5","1","",""
"","","","decisionFB","","6143e0914f93b50419ba30ab","bdp_rwlrn","Tue Mar 14 2023 00:23:38 GMT-0400 (Eastern Daylight Time)","276559","Untrustworthy,Trustworthy","html-keyboard-response","11","54512","0.0-11.0-2.0","","null","","<div class='trialDiv'><img src='Fruit/mango.png'><br><font class='baseline'><strong>Mega Mangos</strong><p>Choose number of points to bet.</font><div class='respPicDiv'><img src='img/responseButtonOffersNo0L5.png' class='respPic'></div></div>","null","1","Mega Mangos","Fruit/mango.png","Won","0.8,0.35","12","0.8","0","1","",""
"","","","feedback","","6143e0914f93b50419ba30ab","bdp_rwlrn","Tue Mar 14 2023 00:23:38 GMT-0400 (Eastern Daylight Time)","276559","Untrustworthy,Trustworthy","html-keyboard-response","12","55515","0.0-11.0-3.0","","null","","<div class='respPicDiv'><img src='img/responseButtonOffersNo0_wht.png' class='respPic'></div><div class='trialDiv'><img src='Fruit/mango.png'><br><font class='baseline'><strong>Mega Mangos</strong><p><strong><font class='posOutcome'>You WON</font><p>You bet: 5</strong></font> &nbsp; &nbsp; &nbsp; &nbsp; &nbsp; &nbsp;<font class='posOutcome'>you receive: <strong>10</strong></font></div>","null","1","Mega Mangos","Fruit/mango.png","Won","0.8,0.35","12","0.8","10","1","",""
"","","","decision","","6143e0914f93b50419ba30ab","bdp_rwlrn","Tue Mar 14 2023 00:23:38 GMT-0400 (Eastern Daylight Time)","276559","Untrustworthy,Trustworthy","html-keyboard-response","13","55787","0.0-11.0-1.1","","271","","<div class='trialDiv'><img src='Fruit/melon.png'><br><font class='baseline'><strong>Melon Millions</strong><p>Choose number of points to bet.</font><div class='respPicDiv'><img src='img/responseButtonOffersNo0L.png' class='respPic'></div></div>","4","1","Melon Millions","Fruit/melon.png","Lost","0.35,0.8","8","0.35","15","2","",""
"","","","decisionFB","","6143e0914f93b50419ba30ab","bdp_rwlrn","Tue Mar 14 2023 00:23:38 GMT-0400 (Eastern Daylight Time)","276559","Untrustworthy,Trustworthy","html-keyboard-response","14","56039","0.0-11.0-2.1","","null","","<div class='trialDiv'><img src='Fruit/melon.png'><br><font class='baseline'><strong>Melon Millions</strong><p>Choose number of points to bet.</font><div class='respPicDiv'><img src='img/responseButtonOffersNo0L4.png' class='respPic'></div></div>","null","1","Melon Millions","Fruit/melon.png","Lost","0.35,0.8","8","0.35","11","2","",""
"","","","feedback","","6143e0914f93b50419ba30ab","bdp_rwlrn","Tue Mar 14 2023 00:23:38 GMT-0400 (Eastern Daylight Time)","276559","Untrustworthy,Trustworthy","html-keyboard-response","15","57040","0.0-11.0-3.1","","null","","<div class='respPicDiv'><img src='img/responseButtonOffersNo0_wht.png' class='respPic'></div><div class='trialDiv'><img src='Fruit/melon.png'><br><font class='baseline'><strong>Melon Millions</strong><p><strong><font class='negOutcome'>You LOST</font><p>You bet: 4</strong></font> &nbsp; &nbsp; &nbsp; &nbsp; &nbsp; &nbsp;<font class='negOutcome'>You receive: <strong>0</strong></font></div>","null","1","Melon Millions","Fruit/melon.png","Lost","0.35,0.8","8","0.35","11","2","",""
"","","","decision","","6143e0914f93b50419ba30ab","bdp_rwlrn","Tue Mar 14 2023 00:23:38 GMT-0400 (Eastern Daylight Time)","276559","Untrustworthy,Trustworthy","html-keyboard-response","16","57277","0.0-11.0-1.2","","236","","<div class='trialDiv'><img src='Fruit/watermelon.png'><br><font class='baseline'><strong>Watermelon Win$</strong><p>Choose number of points to bet.</font><div class='respPicDiv'><img src='img/responseButtonOffersNo0L.png' class='respPic'></div></div>","5","1","Watermelon Win$","Fruit/watermelon.png","Won","0.35,0.65","13","0.35","16","3","",""
"","","","decisionFB","","6143e0914f93b50419ba30ab","bdp_rwlrn","Tue Mar 14 2023 00:23:38 GMT-0400 (Eastern Daylight Time)","276559","Untrustworthy,Trustworthy","html-keyboard-response","17","57528","0.0-11.0-2.2","","null","","<div class='trialDiv'><img src='Fruit/watermelon.png'><br><font class='baseline'><strong>Watermelon Win$</strong><p>Choose number of points to bet.</font><div class='respPicDiv'><img src='img/responseButtonOffersNo0L5.png' class='respPic'></div></div>","null","1","Watermelon Win$","Fruit/watermelon.png","Won","0.35,0.65","13","0.35","11","3","",""
"","","","feedback","","6143e0914f93b50419ba30ab","bdp_rwlrn","Tue Mar 14 2023 00:23:38 GMT-0400 (Eastern Daylight Time)","276559","Untrustworthy,Trustworthy","html-keyboard-response","18","58531","0.0-11.0-3.2","","null","","<div class='respPicDiv'><img src='img/responseButtonOffersNo0_wht.png' class='respPic'></div><div class='trialDiv'><img src='Fruit/watermelon.png'><br><font class='baseline'><strong>Watermelon Win$</strong><p><strong><font class='posOutcome'>You WON</font><p>You bet: 5</strong></font> &nbsp; &nbsp; &nbsp; &nbsp; &nbsp; &nbsp;<font class='posOutcome'>you receive: <strong>10</strong></font></div>","null","1","Watermelon Win$","Fruit/watermelon.png","Won","0.35,0.65","13","0.35","21","3","",""
"","","","decision","","6143e0914f93b50419ba30ab","bdp_rwlrn","Tue Mar 14 2023 00:23:38 GMT-0400 (Eastern Daylight Time)","276559","Untrustworthy,Trustworthy","html-keyboard-response","19","58726","0.0-11.0-1.3","","193","","<div class='trialDiv'><img src='Fruit/mango.png'><br><font class='baseline'><strong>Mega Mangos</strong><p>Choose number of points to bet.</font><div class='respPicDiv'><img src='img/responseButtonOffersNo0L.png' class='respPic'></div></div>","3","2","Mega Mangos","Fruit/mango.png","Won","0.8,0.35","12","0.8","26","4","",""
"","","","decisionFB","","6143e0914f93b50419ba30ab","bdp_rwlrn","Tue Mar 14 2023 00:23:38 GMT-0400 (Eastern Daylight Time)","276559","Untrustworthy,Trustworthy","html-keyboard-response","20","58977","0.0-11.0-2.3","","null","","<div class='trialDiv'><img src='Fruit/mango.png'><br><font class='baseline'><strong>Mega Mangos</strong><p>Choose number of points to bet.</font><div class='respPicDiv'><img src='img/responseButtonOffersNo0L3.png' class='respPic'></div></div>","null","2","Mega Mangos","Fruit/mango.png","Won","0.8,0.35","12","0.8","23","4","",""
"","","","feedback","","6143e0914f93b50419ba30ab","bdp_rwlrn","Tue Mar 14 2023 00:23:38 GMT-0400 (Eastern Daylight Time)","276559","Untrustworthy,Trustworthy","html-keyboard-response","21","59980","0.0-11.0-3.3","","null","","<div class='respPicDiv'><img src='img/responseButtonOffersNo0_wht.png' class='respPic'></div><div class='trialDiv'><img src='Fruit/mango.png'><br><font class='baseline'><strong>Mega Mangos</strong><p><strong><font class='posOutcome'>You WON</font><p>You bet: 3</strong></font> &nbsp; &nbsp; &nbsp; &nbsp; &nbsp; &nbsp;<font class='posOutcome'>you receive: <strong>6</strong></font></div>","null","2","Mega Mangos","Fruit/mango.png","Won","0.8,0.35","12","0.8","29","4","",""
"","","","decision","","6143e0914f93b50419ba30ab","bdp_rwlrn","Tue Mar 14 2023 00:23:38 GMT-0400 (Eastern Daylight Time)","276559","Untrustworthy,Trustworthy","html-keyboard-response","22","60324","0.0-11.0-1.4","","344","","<div class='trialDiv'><img src='Fruit/watermelon.png'><br><font class='baseline'><strong>Watermelon Win$</strong><p>Choose number of points to bet.</font><div class='respPicDiv'><img src='img/responseButtonOffersNo0L.png' class='respPic'></div></div>","5","2","Watermelon Win$","Fruit/watermelon.png","Lost","0.35,0.65","13","0.35","34","5","",""
"","","","decisionFB","","6143e0914f93b50419ba30ab","bdp_rwlrn","Tue Mar 14 2023 00:23:38 GMT-0400 (Eastern Daylight Time)","276559","Untrustworthy,Trustworthy","html-keyboard-response","23","60576","0.0-11.0-2.4","","null","","<div class='trialDiv'><img src='Fruit/watermelon.png'><br><font class='baseline'><strong>Watermelon Win$</strong><p>Choose number of points to bet.</font><div class='respPicDiv'><img src='img/responseButtonOffersNo0L5.png' class='respPic'></div></div>","null","2","Watermelon Win$","Fruit/watermelon.png","Lost","0.35,0.65","13","0.35","29","5","",""
"","","","feedback","","6143e0914f93b50419ba30ab","bdp_rwlrn","Tue Mar 14 2023 00:23:38 GMT-0400 (Eastern Daylight Time)","276559","Untrustworthy,Trustworthy","html-keyboard-response","24","61577","0.0-11.0-3.4","","null","","<div class='respPicDiv'><img src='img/responseButtonOffersNo0_wht.png' class='respPic'></div><div class='trialDiv'><img src='Fruit/watermelon.png'><br><font class='baseline'><strong>Watermelon Win$</strong><p><strong><font class='negOutcome'>You LOST</font><p>You bet: 5</strong></font> &nbsp; &nbsp; &nbsp; &nbsp; &nbsp; &nbsp;<font class='negOutcome'>You receive: <strong>0</strong></font></div>","null","2","Watermelon Win$","Fruit/watermelon.png","Lost","0.35,0.65","13","0.35","29","5","",""
"","","","decision","","6143e0914f93b50419ba30ab","bdp_rwlrn","Tue Mar 14 2023 00:23:38 GMT-0400 (Eastern Daylight Time)","276559","Untrustworthy,Trustworthy","html-keyboard-response","25","61638","0.0-11.0-1.5","","60","","<div class='trialDiv'><img src='Fruit/melon.png'><br><font class='baseline'><strong>Melon Millions</strong><p>Choose number of points to bet.</font><div class='respPicDiv'><img src='img/responseButtonOffersNo0L.png' class='respPic'></div></div>","2","2","Melon Millions","Fruit/melon.png","Won","0.35,0.8","8","0.35","34","6","",""
"","","","decisionFB","","6143e0914f93b50419ba30ab","bdp_rwlrn","Tue Mar 14 2023 00:23:38 GMT-0400 (Eastern Daylight Time)","276559","Untrustworthy,Trustworthy","html-keyboard-response","26","61890","0.0-11.0-2.5","","null","","<div class='trialDiv'><img src='Fruit/melon.png'><br><font class='baseline'><strong>Melon Millions</strong><p>Choose number of points to bet.</font><div class='respPicDiv'><img src='img/responseButtonOffersNo0L2.png' class='respPic'></div></div>","null","2","Melon Millions","Fruit/melon.png","Won","0.35,0.8","8","0.35","32","6","",""
"","","","feedback","","6143e0914f93b50419ba30ab","bdp_rwlrn","Tue Mar 14 2023 00:23:38 GMT-0400 (Eastern Daylight Time)","276559","Untrustworthy,Trustworthy","html-keyboard-response","27","62891","0.0-11.0-3.5","","null","","<div class='respPicDiv'><img src='img/responseButtonOffersNo0_wht.png' class='respPic'></div><div class='trialDiv'><img src='Fruit/melon.png'><br><font class='baseline'><strong>Melon Millions</strong><p><strong><font class='posOutcome'>You WON</font><p>You bet: 2</strong></font> &nbsp; &nbsp; &nbsp; &nbsp; &nbsp; &nbsp;<font class='posOutcome'>you receive: <strong>4</strong></font></div>","null","2","Melon Millions","Fruit/melon.png","Won","0.35,0.8","8","0.35","36","6","",""
"","","","decision","","6143e0914f93b50419ba30ab","bdp_rwlrn","Tue Mar 14 2023 00:23:38 GMT-0400 (Eastern Daylight Time)","276559","Untrustworthy,Trustworthy","html-keyboard-response","28","63107","0.0-11.0-1.6","","216","","<div class='trialDiv'><img src='Fruit/watermelon.png'><br><font class='baseline'><strong>Watermelon Win$</strong><p>Choose number of points to bet.</font><div class='respPicDiv'><img src='img/responseButtonOffersNo0L.png' class='respPic'></div></div>","5","3","Watermelon Win$","Fruit/watermelon.png","Lost","0.35,0.65","13","0.35","41","7","",""
"","","","decisionFB","","6143e0914f93b50419ba30ab","bdp_rwlrn","Tue Mar 14 2023 00:23:38 GMT-0400 (Eastern Daylight Time)","276559","Untrustworthy,Trustworthy","html-keyboard-response","29","63360","0.0-11.0-2.6","","null","","<div class='trialDiv'><img src='Fruit/watermelon.png'><br><font class='baseline'><strong>Watermelon Win$</strong><p>Choose number of points to bet.</font><div class='respPicDiv'><img src='img/responseButtonOffersNo0L5.png' class='respPic'></div></div>","null","3","Watermelon Win$","Fruit/watermelon.png","Lost","0.35,0.65","13","0.35","36","7","",""
"","","","feedback","","6143e0914f93b50419ba30ab","bdp_rwlrn","Tue Mar 14 2023 00:23:38 GMT-0400 (Eastern Daylight Time)","276559","Untrustworthy,Trustworthy","html-keyboard-response","30","64362","0.0-11.0-3.6","","null","","<div class='respPicDiv'><img src='img/responseButtonOffersNo0_wht.png' class='respPic'></div><div class='trialDiv'><img src='Fruit/watermelon.png'><br><font class='baseline'><strong>Watermelon Win$</strong><p><strong><font class='negOutcome'>You LOST</font><p>You bet: 5</strong></font> &nbsp; &nbsp; &nbsp; &nbsp; &nbsp; &nbsp;<font class='negOutcome'>You receive: <strong>0</strong></font></div>","null","3","Watermelon Win$","Fruit/watermelon.png","Lost","0.35,0.65","13","0.35","36","7","",""
"","","","decision","","6143e0914f93b50419ba30ab","bdp_rwlrn","Tue Mar 14 2023 00:23:38 GMT-0400 (Eastern Daylight Time)","276559","Untrustworthy,Trustworthy","html-keyboard-response","31","64545","0.0-11.0-1.7","","183","","<div class='trialDiv'><img src='Fruit/mango.png'><br><font class='baseline'><strong>Mega Mangos</strong><p>Choose number of points to bet.</font><div class='respPicDiv'><img src='img/responseButtonOffersNo0L.png' class='respPic'></div></div>","1","3","Mega Mangos","Fruit/mango.png","Won","0.8,0.35","12","0.8","41","8","",""
"","","","decisionFB","","6143e0914f93b50419ba30ab","bdp_rwlrn","Tue Mar 14 2023 00:23:38 GMT-0400 (Eastern Daylight Time)","276559","Untrustworthy,Trustworthy","html-keyboard-response","32","64797","0.0-11.0-2.7","","null","","<div class='trialDiv'><img src='Fruit/mango.png'><br><font class='baseline'><strong>Mega Mangos</strong><p>Choose number of points to bet.</font><div class='respPicDiv'><img src='img/responseButtonOffersNo0L1.png' class='respPic'></div></div>","null","3","Mega Mangos","Fruit/mango.png","Won","0.8,0.35","12","0.8","40","8","",""
"","","","feedback","","6143e0914f93b50419ba30ab","bdp_rwlrn","Tue Mar 14 2023 00:23:38 GMT-0400 (Eastern Daylight Time)","276559","Untrustworthy,Trustworthy","html-keyboard-response","33","65799","0.0-11.0-3.7","","null","","<div class='respPicDiv'><img src='img/responseButtonOffersNo0_wht.png' class='respPic'></div><div class='trialDiv'><img src='Fruit/mango.png'><br><font class='baseline'><strong>Mega Mangos</strong><p><strong><font class='posOutcome'>You WON</font><p>You bet: 1</strong></font> &nbsp; &nbsp; &nbsp; &nbsp; &nbsp; &nbsp;<font class='posOutcome'>you receive: <strong>2</strong></font></div>","null","3","Mega Mangos","Fruit/mango.png","Won","0.8,0.35","12","0.8","42","8","",""
"","","","decision","","6143e0914f93b50419ba30ab","bdp_rwlrn","Tue Mar 14 2023 00:23:38 GMT-0400 (Eastern Daylight Time)","276559","Untrustworthy,Trustworthy","html-keyboard-response","34","65936","0.0-11.0-1.8","","136","","<div class='trialDiv'><img src='Fruit/melon.png'><br><font class='baseline'><strong>Melon Millions</strong><p>Choose number of points to bet.</font><div class='respPicDiv'><img src='img/responseButtonOffersNo0L.png' class='respPic'></div></div>","5","3","Melon Millions","Fruit/melon.png","Won","0.35,0.8","8","0.35","47","9","",""
"","","","decisionFB","","6143e0914f93b50419ba30ab","bdp_rwlrn","Tue Mar 14 2023 00:23:38 GMT-0400 (Eastern Daylight Time)","276559","Untrustworthy,Trustworthy","html-keyboard-response","35","66188","0.0-11.0-2.8","","null","","<div class='trialDiv'><img src='Fruit/melon.png'><br><font class='baseline'><strong>Melon Millions</strong><p>Choose number of points to bet.</font><div class='respPicDiv'><img src='img/responseButtonOffersNo0L5.png' class='respPic'></div></div>","null","3","Melon Millions","Fruit/melon.png","Won","0.35,0.8","8","0.35","42","9","",""
"","","","feedback","","6143e0914f93b50419ba30ab","bdp_rwlrn","Tue Mar 14 2023 00:23:38 GMT-0400 (Eastern Daylight Time)","276559","Untrustworthy,Trustworthy","html-keyboard-response","36","67189","0.0-11.0-3.8","","null","","<div class='respPicDiv'><img src='img/responseButtonOffersNo0_wht.png' class='respPic'></div><div class='trialDiv'><img src='Fruit/melon.png'><br><font class='baseline'><strong>Melon Millions</strong><p><strong><font class='posOutcome'>You WON</font><p>You bet: 5</strong></font> &nbsp; &nbsp; &nbsp; &nbsp; &nbsp; &nbsp;<font class='posOutcome'>you receive: <strong>10</strong></font></div>","null","3","Melon Millions","Fruit/melon.png","Won","0.35,0.8","8","0.35","52","9","",""
"","","","decision","","6143e0914f93b50419ba30ab","bdp_rwlrn","Tue Mar 14 2023 00:23:38 GMT-0400 (Eastern Daylight Time)","276559","Untrustworthy,Trustworthy","html-keyboard-response","37","67441","0.0-11.0-1.9","","251","","<div class='trialDiv'><img src='Fruit/watermelon.png'><br><font class='baseline'><strong>Watermelon Win$</strong><p>Choose number of points to bet.</font><div class='respPicDiv'><img src='img/responseButtonOffersNo0L.png' class='respPic'></div></div>","4","4","Watermelon Win$","Fruit/watermelon.png","Won","0.35,0.65","13","0.35","57","10","",""
"","","","decisionFB","","6143e0914f93b50419ba30ab","bdp_rwlrn","Tue Mar 14 2023 00:23:38 GMT-0400 (Eastern Daylight Time)","276559","Untrustworthy,Trustworthy","html-keyboard-response","38","67693","0.0-11.0-2.9","","null","","<div class='trialDiv'><img src='Fruit/watermelon.png'><br><font class='baseline'><strong>Watermelon Win$</strong><p>Choose number of points to bet.</font><div class='respPicDiv'><img src='img/responseButtonOffersNo0L4.png' class='respPic'></div></div>","null","4","Watermelon Win$","Fruit/watermelon.png","Won","0.35,0.65","13","0.35","53","10","",""
"","","","feedback","","6143e0914f93b50419ba30ab","bdp_rwlrn","Tue Mar 14 2023 00:23:38 GMT-0400 (Eastern Daylight Time)","276559","Untrustworthy,Trustworthy","html-keyboard-response","39","68694","0.0-11.0-3.9","","null","","<div class='respPicDiv'><img src='img/responseButtonOffersNo0_wht.png' class='respPic'></div><div class='trialDiv'><img src='Fruit/watermelon.png'><br><font class='baseline'><strong>Watermelon Win$</strong><p><strong><font class='posOutcome'>You WON</font><p>You bet: 4</strong></font> &nbsp; &nbsp; &nbsp; &nbsp; &nbsp; &nbsp;<font class='posOutcome'>you receive: <strong>8</strong></font></div>","null","4","Watermelon Win$","Fruit/watermelon.png","Won","0.35,0.65","13","0.35","61","10","",""
"","","","decision","","6143e0914f93b50419ba30ab","bdp_rwlrn","Tue Mar 14 2023 00:23:38 GMT-0400 (Eastern Daylight Time)","276559","Untrustworthy,Trustworthy","html-keyboard-response","40","68866","0.0-11.0-1.10","","171","","<div class='trialDiv'><img src='Fruit/melon.png'><br><font class='baseline'><strong>Melon Millions</strong><p>Choose number of points to bet.</font><div class='respPicDiv'><img src='img/responseButtonOffersNo0L.png' class='respPic'></div></div>","5","4","Melon Millions","Fruit/melon.png","Lost","0.35,0.8","8","0.35","66","11","",""
"","","","decisionFB","","6143e0914f93b50419ba30ab","bdp_rwlrn","Tue Mar 14 2023 00:23:38 GMT-0400 (Eastern Daylight Time)","276559","Untrustworthy,Trustworthy","html-keyboard-response","41","69132","0.0-11.0-2.10","","null","","<div class='trialDiv'><img src='Fruit/melon.png'><br><font class='baseline'><strong>Melon Millions</strong><p>Choose number of points to bet.</font><div class='respPicDiv'><img src='img/responseButtonOffersNo0L5.png' class='respPic'></div></div>","null","4","Melon Millions","Fruit/melon.png","Lost","0.35,0.8","8","0.35","61","11","",""
"","","","feedback","","6143e0914f93b50419ba30ab","bdp_rwlrn","Tue Mar 14 2023 00:23:38 GMT-0400 (Eastern Daylight Time)","276559","Untrustworthy,Trustworthy","html-keyboard-response","42","70133","0.0-11.0-3.10","","null","","<div class='respPicDiv'><img src='img/responseButtonOffersNo0_wht.png' class='respPic'></div><div class='trialDiv'><img src='Fruit/melon.png'><br><font class='baseline'><strong>Melon Millions</strong><p><strong><font class='negOutcome'>You LOST</font><p>You bet: 5</strong></font> &nbsp; &nbsp; &nbsp; &nbsp; &nbsp; &nbsp;<font class='negOutcome'>You receive: <strong>0</strong></font></div>","null","4","Melon Millions","Fruit/melon.png","Lost","0.35,0.8","8","0.35","61","11","",""
"","","","decision","","6143e0914f93b50419ba30ab","bdp_rwlrn","Tue Mar 14 2023 00:23:38 GMT-0400 (Eastern Daylight Time)","276559","Untrustworthy,Trustworthy","html-keyboard-response","43","70252","0.0-11.0-1.11","","118","","<div class='trialDiv'><img src='Fruit/mango.png'><br><font class='baseline'><strong>Mega Mangos</strong><p>Choose number of points to bet.</font><div class='respPicDiv'><img src='img/responseButtonOffersNo0L.png' class='respPic'></div></div>","3","4","Mega Mangos","Fruit/mango.png","Won","0.8,0.35","12","0.8","66","12","",""
"","","","decisionFB","","6143e0914f93b50419ba30ab","bdp_rwlrn","Tue Mar 14 2023 00:23:38 GMT-0400 (Eastern Daylight Time)","276559","Untrustworthy,Trustworthy","html-keyboard-response","44","70503","0.0-11.0-2.11","","null","","<div class='trialDiv'><img src='Fruit/mango.png'><br><font class='baseline'><strong>Mega Mangos</strong><p>Choose number of points to bet.</font><div class='respPicDiv'><img src='img/responseButtonOffersNo0L3.png' class='respPic'></div></div>","null","4","Mega Mangos","Fruit/mango.png","Won","0.8,0.35","12","0.8","63","12","",""
"","","","feedback","","6143e0914f93b50419ba30ab","bdp_rwlrn","Tue Mar 14 2023 00:23:38 GMT-0400 (Eastern Daylight Time)","276559","Untrustworthy,Trustworthy","html-keyboard-response","45","71506","0.0-11.0-3.11","","null","","<div class='respPicDiv'><img src='img/responseButtonOffersNo0_wht.png' class='respPic'></div><div class='trialDiv'><img src='Fruit/mango.png'><br><font class='baseline'><strong>Mega Mangos</strong><p><strong><font class='posOutcome'>You WON</font><p>You bet: 3</strong></font> &nbsp; &nbsp; &nbsp; &nbsp; &nbsp; &nbsp;<font class='posOutcome'>you receive: <strong>6</strong></font></div>","null","4","Mega Mangos","Fruit/mango.png","Won","0.8,0.35","12","0.8","69","12","",""
"","","","decision","","6143e0914f93b50419ba30ab","bdp_rwlrn","Tue Mar 14 2023 00:23:38 GMT-0400 (Eastern Daylight Time)","276559","Untrustworthy,Trustworthy","html-keyboard-response","46","71570","0.0-11.0-1.12","","63","","<div class='trialDiv'><img src='Fruit/melon.png'><br><font class='baseline'><strong>Melon Millions</strong><p>Choose number of points to bet.</font><div class='respPicDiv'><img src='img/responseButtonOffersNo0L.png' class='respPic'></div></div>","5","5","Melon Millions","Fruit/melon.png","Lost","0.35,0.8","8","0.35","74","13","",""
"","","","decisionFB","","6143e0914f93b50419ba30ab","bdp_rwlrn","Tue Mar 14 2023 00:23:38 GMT-0400 (Eastern Daylight Time)","276559","Untrustworthy,Trustworthy","html-keyboard-response","47","71822","0.0-11.0-2.12","","null","","<div class='trialDiv'><img src='Fruit/melon.png'><br><font class='baseline'><strong>Melon Millions</strong><p>Choose number of points to bet.</font><div class='respPicDiv'><img src='img/responseButtonOffersNo0L5.png' class='respPic'></div></div>","null","5","Melon Millions","Fruit/melon.png","Lost","0.35,0.8","8","0.35","69","13","",""
"","","","feedback","","6143e0914f93b50419ba30ab","bdp_rwlrn","Tue Mar 14 2023 00:23:38 GMT-0400 (Eastern Daylight Time)","276559","Untrustworthy,Trustworthy","html-keyboard-response","48","72824","0.0-11.0-3.12","","null","","<div class='respPicDiv'><img src='img/responseButtonOffersNo0_wht.png' class='respPic'></div><div class='trialDiv'><img src='Fruit/melon.png'><br><font class='baseline'><strong>Melon Millions</strong><p><strong><font class='negOutcome'>You LOST</font><p>You bet: 5</strong></font> &nbsp; &nbsp; &nbsp; &nbsp; &nbsp; &nbsp;<font class='negOutcome'>You receive: <strong>0</strong></font></div>","null","5","Melon Millions","Fruit/melon.png","Lost","0.35,0.8","8","0.35","69","13","",""
"","","","decision","","6143e0914f93b50419ba30ab","bdp_rwlrn","Tue Mar 14 2023 00:23:38 GMT-0400 (Eastern Daylight Time)","276559","Untrustworthy,Trustworthy","html-keyboard-response","49","73272","0.0-11.0-1.13","","446","","<div class='trialDiv'><img src='Fruit/mango.png'><br><font class='baseline'><strong>Mega Mangos</strong><p>Choose number of points to bet.</font><div class='respPicDiv'><img src='img/responseButtonOffersNo0L.png' class='respPic'></div></div>","2","5","Mega Mangos","Fruit/mango.png","Won","0.8,0.35","12","0.8","74","14","",""
"","","","decisionFB","","6143e0914f93b50419ba30ab","bdp_rwlrn","Tue Mar 14 2023 00:23:38 GMT-0400 (Eastern Daylight Time)","276559","Untrustworthy,Trustworthy","html-keyboard-response","50","73523","0.0-11.0-2.13","","null","","<div class='trialDiv'><img src='Fruit/mango.png'><br><font class='baseline'><strong>Mega Mangos</strong><p>Choose number of points to bet.</font><div class='respPicDiv'><img src='img/responseButtonOffersNo0L2.png' class='respPic'></div></div>","null","5","Mega Mangos","Fruit/mango.png","Won","0.8,0.35","12","0.8","72","14","",""
"","","","feedback","","6143e0914f93b50419ba30ab","bdp_rwlrn","Tue Mar 14 2023 00:23:38 GMT-0400 (Eastern Daylight Time)","276559","Untrustworthy,Trustworthy","html-keyboard-response","51","74526","0.0-11.0-3.13","","null","","<div class='respPicDiv'><img src='img/responseButtonOffersNo0_wht.png' class='respPic'></div><div class='trialDiv'><img src='Fruit/mango.png'><br><font class='baseline'><strong>Mega Mangos</strong><p><strong><font class='posOutcome'>You WON</font><p>You bet: 2</strong></font> &nbsp; &nbsp; &nbsp; &nbsp; &nbsp; &nbsp;<font class='posOutcome'>you receive: <strong>4</strong></font></div>","null","5","Mega Mangos","Fruit/mango.png","Won","0.8,0.35","12","0.8","76","14","",""
"","","","decision","","6143e0914f93b50419ba30ab","bdp_rwlrn","Tue Mar 14 2023 00:23:38 GMT-0400 (Eastern Daylight Time)","276559","Untrustworthy,Trustworthy","html-keyboard-response","52","74550","0.0-11.0-1.14","","23","","<div class='trialDiv'><img src='Fruit/watermelon.png'><br><font class='baseline'><strong>Watermelon Win$</strong><p>Choose number of points to bet.</font><div class='respPicDiv'><img src='img/responseButtonOffersNo0L.png' class='respPic'></div></div>","5","5","Watermelon Win$","Fruit/watermelon.png","Won","0.35,0.65","13","0.35","81","15","",""
"","","","decisionFB","","6143e0914f93b50419ba30ab","bdp_rwlrn","Tue Mar 14 2023 00:23:38 GMT-0400 (Eastern Daylight Time)","276559","Untrustworthy,Trustworthy","html-keyboard-response","53","74801","0.0-11.0-2.14","","null","","<div class='trialDiv'><img src='Fruit/watermelon.png'><br><font class='baseline'><strong>Watermelon Win$</strong><p>Choose number of points to bet.</font><div class='respPicDiv'><img src='img/responseButtonOffersNo0L5.png' class='respPic'></div></div>","null","5","Watermelon Win$","Fruit/watermelon.png","Won","0.35,0.65","13","0.35","76","15","",""
"","","","feedback","","6143e0914f93b50419ba30ab","bdp_rwlrn","Tue Mar 14 2023 00:23:38 GMT-0400 (Eastern Daylight Time)","276559","Untrustworthy,Trustworthy","html-keyboard-response","54","75803","0.0-11.0-3.14","","null","","<div class='respPicDiv'><img src='img/responseButtonOffersNo0_wht.png' class='respPic'></div><div class='trialDiv'><img src='Fruit/watermelon.png'><br><font class='baseline'><strong>Watermelon Win$</strong><p><strong><font class='posOutcome'>You WON</font><p>You bet: 5</strong></font> &nbsp; &nbsp; &nbsp; &nbsp; &nbsp; &nbsp;<font class='posOutcome'>you receive: <strong>10</strong></font></div>","null","5","Watermelon Win$","Fruit/watermelon.png","Won","0.35,0.65","13","0.35","86","15","",""
"","","","decision","","6143e0914f93b50419ba30ab","bdp_rwlrn","Tue Mar 14 2023 00:23:38 GMT-0400 (Eastern Daylight Time)","276559","Untrustworthy,Trustworthy","html-keyboard-response","55","76120","0.0-11.0-1.15","","316","","<div class='trialDiv'><img src='Fruit/mango.png'><br><font class='baseline'><strong>Mega Mangos</strong><p>Choose number of points to bet.</font><div class='respPicDiv'><img src='img/responseButtonOffersNo0L.png' class='respPic'></div></div>","5","6","Mega Mangos","Fruit/mango.png","Lost","0.8,0.35","12","0.8","91","16","",""
"","","","decisionFB","","6143e0914f93b50419ba30ab","bdp_rwlrn","Tue Mar 14 2023 00:23:38 GMT-0400 (Eastern Daylight Time)","276559","Untrustworthy,Trustworthy","html-keyboard-response","56","76372","0.0-11.0-2.15","","null","","<div class='trialDiv'><img src='Fruit/mango.png'><br><font class='baseline'><strong>Mega Mangos</strong><p>Choose number of points to bet.</font><div class='respPicDiv'><img src='img/responseButtonOffersNo0L5.png' class='respPic'></div></div>","null","6","Mega Mangos","Fruit/mango.png","Lost","0.8,0.35","12","0.8","86","16","",""
"","","","feedback","","6143e0914f93b50419ba30ab","bdp_rwlrn","Tue Mar 14 2023 00:23:38 GMT-0400 (Eastern Daylight Time)","276559","Untrustworthy,Trustworthy","html-keyboard-response","57","77374","0.0-11.0-3.15","","null","","<div class='respPicDiv'><img src='img/responseButtonOffersNo0_wht.png' class='respPic'></div><div class='trialDiv'><img src='Fruit/mango.png'><br><font class='baseline'><strong>Mega Mangos</strong><p><strong><font class='negOutcome'>You LOST</font><p>You bet: 5</strong></font> &nbsp; &nbsp; &nbsp; &nbsp; &nbsp; &nbsp;<font class='negOutcome'>You receive: <strong>0</strong></font></div>","null","6","Mega Mangos","Fruit/mango.png","Lost","0.8,0.35","12","0.8","86","16","",""
"","","","decision","","6143e0914f93b50419ba30ab","bdp_rwlrn","Tue Mar 14 2023 00:23:38 GMT-0400 (Eastern Daylight Time)","276559","Untrustworthy,Trustworthy","html-keyboard-response","58","77646","0.0-11.0-1.16","","272","","<div class='trialDiv'><img src='Fruit/watermelon.png'><br><font class='baseline'><strong>Watermelon Win$</strong><p>Choose number of points to bet.</font><div class='respPicDiv'><img src='img/responseButtonOffersNo0L.png' class='respPic'></div></div>","5","6","Watermelon Win$","Fruit/watermelon.png","Won","0.35,0.65","13","0.35","91","17","",""
"","","","decisionFB","","6143e0914f93b50419ba30ab","bdp_rwlrn","Tue Mar 14 2023 00:23:38 GMT-0400 (Eastern Daylight Time)","276559","Untrustworthy,Trustworthy","html-keyboard-response","59","77898","0.0-11.0-2.16","","null","","<div class='trialDiv'><img src='Fruit/watermelon.png'><br><font class='baseline'><strong>Watermelon Win$</strong><p>Choose number of points to bet.</font><div class='respPicDiv'><img src='img/responseButtonOffersNo0L5.png' class='respPic'></div></div>","null","6","Watermelon Win$","Fruit/watermelon.png","Won","0.35,0.65","13","0.35","86","17","",""
"","","","feedback","","6143e0914f93b50419ba30ab","bdp_rwlrn","Tue Mar 14 2023 00:23:38 GMT-0400 (Eastern Daylight Time)","276559","Untrustworthy,Trustworthy","html-keyboard-response","60","78901","0.0-11.0-3.16","","null","","<div class='respPicDiv'><img src='img/responseButtonOffersNo0_wht.png' class='respPic'></div><div class='trialDiv'><img src='Fruit/watermelon.png'><br><font class='baseline'><strong>Watermelon Win$</strong><p><strong><font class='posOutcome'>You WON</font><p>You bet: 5</strong></font> &nbsp; &nbsp; &nbsp; &nbsp; &nbsp; &nbsp;<font class='posOutcome'>you receive: <strong>10</strong></font></div>","null","6","Watermelon Win$","Fruit/watermelon.png","Won","0.35,0.65","13","0.35","96","17","",""
"","","","decision","","6143e0914f93b50419ba30ab","bdp_rwlrn","Tue Mar 14 2023 00:23:38 GMT-0400 (Eastern Daylight Time)","276559","Untrustworthy,Trustworthy","html-keyboard-response","61","79140","0.0-11.0-1.17","","238","","<div class='trialDiv'><img src='Fruit/melon.png'><br><font class='baseline'><strong>Melon Millions</strong><p>Choose number of points to bet.</font><div class='respPicDiv'><img src='img/responseButtonOffersNo0L.png' class='respPic'></div></div>","5","6","Melon Millions","Fruit/melon.png","Lost","0.35,0.8","8","0.35","101","18","",""
"","","","decisionFB","","6143e0914f93b50419ba30ab","bdp_rwlrn","Tue Mar 14 2023 00:23:38 GMT-0400 (Eastern Daylight Time)","276559","Untrustworthy,Trustworthy","html-keyboard-response","62","79392","0.0-11.0-2.17","","null","","<div class='trialDiv'><img src='Fruit/melon.png'><br><font class='baseline'><strong>Melon Millions</strong><p>Choose number of points to bet.</font><div class='respPicDiv'><img src='img/responseButtonOffersNo0L5.png' class='respPic'></div></div>","null","6","Melon Millions","Fruit/melon.png","Lost","0.35,0.8","8","0.35","96","18","",""
"","","","feedback","","6143e0914f93b50419ba30ab","bdp_rwlrn","Tue Mar 14 2023 00:23:38 GMT-0400 (Eastern Daylight Time)","276559","Untrustworthy,Trustworthy","html-keyboard-response","63","80410","0.0-11.0-3.17","","null","","<div class='respPicDiv'><img src='img/responseButtonOffersNo0_wht.png' class='respPic'></div><div class='trialDiv'><img src='Fruit/melon.png'><br><font class='baseline'><strong>Melon Millions</strong><p><strong><font class='negOutcome'>You LOST</font><p>You bet: 5</strong></font> &nbsp; &nbsp; &nbsp; &nbsp; &nbsp; &nbsp;<font class='negOutcome'>You receive: <strong>0</strong></font></div>","null","6","Melon Millions","Fruit/melon.png","Lost","0.35,0.8","8","0.35","96","18","",""
"","","","decision","","6143e0914f93b50419ba30ab","bdp_rwlrn","Tue Mar 14 2023 00:23:38 GMT-0400 (Eastern Daylight Time)","276559","Untrustworthy,Trustworthy","html-keyboard-response","64","80531","0.0-11.0-1.18","","120","","<div class='trialDiv'><img src='Fruit/watermelon.png'><br><font class='baseline'><strong>Watermelon Win$</strong><p>Choose number of points to bet.</font><div class='respPicDiv'><img src='img/responseButtonOffersNo0L.png' class='respPic'></div></div>","5","7","Watermelon Win$","Fruit/watermelon.png","Won","0.35,0.65","13","0.35","101","19","",""
"","","","decisionFB","","6143e0914f93b50419ba30ab","bdp_rwlrn","Tue Mar 14 2023 00:23:38 GMT-0400 (Eastern Daylight Time)","276559","Untrustworthy,Trustworthy","html-keyboard-response","65","80783","0.0-11.0-2.18","","null","","<div class='trialDiv'><img src='Fruit/watermelon.png'><br><font class='baseline'><strong>Watermelon Win$</strong><p>Choose number of points to bet.</font><div class='respPicDiv'><img src='img/responseButtonOffersNo0L5.png' class='respPic'></div></div>","null","7","Watermelon Win$","Fruit/watermelon.png","Won","0.35,0.65","13","0.35","96","19","",""
"","","","feedback","","6143e0914f93b50419ba30ab","bdp_rwlrn","Tue Mar 14 2023 00:23:38 GMT-0400 (Eastern Daylight Time)","276559","Untrustworthy,Trustworthy","html-keyboard-response","66","81785","0.0-11.0-3.18","","null","","<div class='respPicDiv'><img src='img/responseButtonOffersNo0_wht.png' class='respPic'></div><div class='trialDiv'><img src='Fruit/watermelon.png'><br><font class='baseline'><strong>Watermelon Win$</strong><p><strong><font class='posOutcome'>You WON</font><p>You bet: 5</strong></font> &nbsp; &nbsp; &nbsp; &nbsp; &nbsp; &nbsp;<font class='posOutcome'>you receive: <strong>10</strong></font></div>","null","7","Watermelon Win$","Fruit/watermelon.png","Won","0.35,0.65","13","0.35","106","19","",""
"","","","decision","","6143e0914f93b50419ba30ab","bdp_rwlrn","Tue Mar 14 2023 00:23:38 GMT-0400 (Eastern Daylight Time)","276559","Untrustworthy,Trustworthy","html-keyboard-response","67","82017","0.0-11.0-1.19","","232","","<div class='trialDiv'><img src='Fruit/melon.png'><br><font class='baseline'><strong>Melon Millions</strong><p>Choose number of points to bet.</font><div class='respPicDiv'><img src='img/responseButtonOffersNo0L.png' class='respPic'></div></div>","2","7","Melon Millions","Fruit/melon.png","Lost","0.35,0.8","8","0.35","111","20","",""
"","","","decisionFB","","6143e0914f93b50419ba30ab","bdp_rwlrn","Tue Mar 14 2023 00:23:38 GMT-0400 (Eastern Daylight Time)","276559","Untrustworthy,Trustworthy","html-keyboard-response","68","82269","0.0-11.0-2.19","","null","","<div class='trialDiv'><img src='Fruit/melon.png'><br><font class='baseline'><strong>Melon Millions</strong><p>Choose number of points to bet.</font><div class='respPicDiv'><img src='img/responseButtonOffersNo0L2.png' class='respPic'></div></div>","null","7","Melon Millions","Fruit/melon.png","Lost","0.35,0.8","8","0.35","109","20","",""
"","","","feedback","","6143e0914f93b50419ba30ab","bdp_rwlrn","Tue Mar 14 2023 00:23:38 GMT-0400 (Eastern Daylight Time)","276559","Untrustworthy,Trustworthy","html-keyboard-response","69","83271","0.0-11.0-3.19","","null","","<div class='respPicDiv'><img src='img/responseButtonOffersNo0_wht.png' class='respPic'></div><div class='trialDiv'><img src='Fruit/melon.png'><br><font class='baseline'><strong>Melon Millions</strong><p><strong><font class='negOutcome'>You LOST</font><p>You bet: 2</strong></font> &nbsp; &nbsp; &nbsp; &nbsp; &nbsp; &nbsp;<font class='negOutcome'>You receive: <strong>0</strong></font></div>","null","7","Melon Millions","Fruit/melon.png","Lost","0.35,0.8","8","0.35","109","20","",""
"","","","decision","","6143e0914f93b50419ba30ab","bdp_rwlrn","Tue Mar 14 2023 00:23:38 GMT-0400 (Eastern Daylight Time)","276559","Untrustworthy,Trustworthy","html-keyboard-response","70","83763","0.0-11.0-1.20","","492","","<div class='trialDiv'><img src='Fruit/mango.png'><br><font class='baseline'><strong>Mega Mangos</strong><p>Choose number of points to bet.</font><div class='respPicDiv'><img src='img/responseButtonOffersNo0L.png' class='respPic'></div></div>","3","7","Mega Mangos","Fruit/mango.png","Won","0.8,0.35","12","0.8","114","21","",""
"","","","decisionFB","","6143e0914f93b50419ba30ab","bdp_rwlrn","Tue Mar 14 2023 00:23:38 GMT-0400 (Eastern Daylight Time)","276559","Untrustworthy,Trustworthy","html-keyboard-response","71","84015","0.0-11.0-2.20","","null","","<div class='trialDiv'><img src='Fruit/mango.png'><br><font class='baseline'><strong>Mega Mangos</strong><p>Choose number of points to bet.</font><div class='respPicDiv'><img src='img/responseButtonOffersNo0L3.png' class='respPic'></div></div>","null","7","Mega Mangos","Fruit/mango.png","Won","0.8,0.35","12","0.8","111","21","",""
"","","","feedback","","6143e0914f93b50419ba30ab","bdp_rwlrn","Tue Mar 14 2023 00:23:38 GMT-0400 (Eastern Daylight Time)","276559","Untrustworthy,Trustworthy","html-keyboard-response","72","85017","0.0-11.0-3.20","","null","","<div class='respPicDiv'><img src='img/responseButtonOffersNo0_wht.png' class='respPic'></div><div class='trialDiv'><img src='Fruit/mango.png'><br><font class='baseline'><strong>Mega Mangos</strong><p><strong><font class='posOutcome'>You WON</font><p>You bet: 3</strong></font> &nbsp; &nbsp; &nbsp; &nbsp; &nbsp; &nbsp;<font class='posOutcome'>you receive: <strong>6</strong></font></div>","null","7","Mega Mangos","Fruit/mango.png","Won","0.8,0.35","12","0.8","117","21","",""
"","","","decision","","6143e0914f93b50419ba30ab","bdp_rwlrn","Tue Mar 14 2023 00:23:38 GMT-0400 (Eastern Daylight Time)","276559","Untrustworthy,Trustworthy","html-keyboard-response","73","85233","0.0-11.0-1.21","","215","","<div class='trialDiv'><img src='Fruit/melon.png'><br><font class='baseline'><strong>Melon Millions</strong><p>Choose number of points to bet.</font><div class='respPicDiv'><img src='img/responseButtonOffersNo0L.png' class='respPic'></div></div>","5","8","Melon Millions","Fruit/melon.png","Won","0.35,0.8","8","0.35","122","22","",""
"","","","decisionFB","","6143e0914f93b50419ba30ab","bdp_rwlrn","Tue Mar 14 2023 00:23:38 GMT-0400 (Eastern Daylight Time)","276559","Untrustworthy,Trustworthy","html-keyboard-response","74","85484","0.0-11.0-2.21","","null","","<div class='trialDiv'><img src='Fruit/melon.png'><br><font class='baseline'><strong>Melon Millions</strong><p>Choose number of points to bet.</font><div class='respPicDiv'><img src='img/responseButtonOffersNo0L5.png' class='respPic'></div></div>","null","8","Melon Millions","Fruit/melon.png","Won","0.35,0.8","8","0.35","117","22","",""
"","","","feedback","","6143e0914f93b50419ba30ab","bdp_rwlrn","Tue Mar 14 2023 00:23:38 GMT-0400 (Eastern Daylight Time)","276559","Untrustworthy,Trustworthy","html-keyboard-response","75","86485","0.0-11.0-3.21","","null","","<div class='respPicDiv'><img src='img/responseButtonOffersNo0_wht.png' class='respPic'></div><div class='trialDiv'><img src='Fruit/melon.png'><br><font class='baseline'><strong>Melon Millions</strong><p><strong><font class='posOutcome'>You WON</font><p>You bet: 5</strong></font> &nbsp; &nbsp; &nbsp; &nbsp; &nbsp; &nbsp;<font class='posOutcome'>you receive: <strong>10</strong></font></div>","null","8","Melon Millions","Fruit/melon.png","Won","0.35,0.8","8","0.35","127","22","",""
"","","","decision","","6143e0914f93b50419ba30ab","bdp_rwlrn","Tue Mar 14 2023 00:23:38 GMT-0400 (Eastern Daylight Time)","276559","Untrustworthy,Trustworthy","html-keyboard-response","76","87014","0.0-11.0-1.22","","528","","<div class='trialDiv'><img src='Fruit/mango.png'><br><font class='baseline'><strong>Mega Mangos</strong><p>Choose number of points to bet.</font><div class='respPicDiv'><img src='img/responseButtonOffersNo0L.png' class='respPic'></div></div>","4","8","Mega Mangos","Fruit/mango.png","Won","0.8,0.35","12","0.8","132","23","",""
"","","","decisionFB","","6143e0914f93b50419ba30ab","bdp_rwlrn","Tue Mar 14 2023 00:23:38 GMT-0400 (Eastern Daylight Time)","276559","Untrustworthy,Trustworthy","html-keyboard-response","77","87266","0.0-11.0-2.22","","null","","<div class='trialDiv'><img src='Fruit/mango.png'><br><font class='baseline'><strong>Mega Mangos</strong><p>Choose number of points to bet.</font><div class='respPicDiv'><img src='img/responseButtonOffersNo0L4.png' class='respPic'></div></div>","null","8","Mega Mangos","Fruit/mango.png","Won","0.8,0.35","12","0.8","128","23","",""
"","","","feedback","","6143e0914f93b50419ba30ab","bdp_rwlrn","Tue Mar 14 2023 00:23:38 GMT-0400 (Eastern Daylight Time)","276559","Untrustworthy,Trustworthy","html-keyboard-response","78","88268","0.0-11.0-3.22","","null","","<div class='respPicDiv'><img src='img/responseButtonOffersNo0_wht.png' class='respPic'></div><div class='trialDiv'><img src='Fruit/mango.png'><br><font class='baseline'><strong>Mega Mangos</strong><p><strong><font class='posOutcome'>You WON</font><p>You bet: 4</strong></font> &nbsp; &nbsp; &nbsp; &nbsp; &nbsp; &nbsp;<font class='posOutcome'>you receive: <strong>8</strong></font></div>","null","8","Mega Mangos","Fruit/mango.png","Won","0.8,0.35","12","0.8","136","23","",""
"","","","decision","","6143e0914f93b50419ba30ab","bdp_rwlrn","Tue Mar 14 2023 00:23:38 GMT-0400 (Eastern Daylight Time)","276559","Untrustworthy,Trustworthy","html-keyboard-response","79","88564","0.0-11.0-1.23","","295","","<div class='trialDiv'><img src='Fruit/watermelon.png'><br><font class='baseline'><strong>Watermelon Win$</strong><p>Choose number of points to bet.</font><div class='respPicDiv'><img src='img/responseButtonOffersNo0L.png' class='respPic'></div></div>","5","8","Watermelon Win$","Fruit/watermelon.png","Lost","0.35,0.65","13","0.35","141","24","",""
"","","","decisionFB","","6143e0914f93b50419ba30ab","bdp_rwlrn","Tue Mar 14 2023 00:23:38 GMT-0400 (Eastern Daylight Time)","276559","Untrustworthy,Trustworthy","html-keyboard-response","80","88816","0.0-11.0-2.23","","null","","<div class='trialDiv'><img src='Fruit/watermelon.png'><br><font class='baseline'><strong>Watermelon Win$</strong><p>Choose number of points to bet.</font><div class='respPicDiv'><img src='img/responseButtonOffersNo0L5.png' class='respPic'></div></div>","null","8","Watermelon Win$","Fruit/watermelon.png","Lost","0.35,0.65","13","0.35","136","24","",""
"","","","feedback","","6143e0914f93b50419ba30ab","bdp_rwlrn","Tue Mar 14 2023 00:23:38 GMT-0400 (Eastern Daylight Time)","276559","Untrustworthy,Trustworthy","html-keyboard-response","81","89818","0.0-11.0-3.23","","null","","<div class='respPicDiv'><img src='img/responseButtonOffersNo0_wht.png' class='respPic'></div><div class='trialDiv'><img src='Fruit/watermelon.png'><br><font class='baseline'><strong>Watermelon Win$</strong><p><strong><font class='negOutcome'>You LOST</font><p>You bet: 5</strong></font> &nbsp; &nbsp; &nbsp; &nbsp; &nbsp; &nbsp;<font class='negOutcome'>You receive: <strong>0</strong></font></div>","null","8","Watermelon Win$","Fruit/watermelon.png","Lost","0.35,0.65","13","0.35","136","24","",""
"","","","decision","","6143e0914f93b50419ba30ab","bdp_rwlrn","Tue Mar 14 2023 00:23:38 GMT-0400 (Eastern Daylight Time)","276559","Untrustworthy,Trustworthy","html-keyboard-response","82","89946","0.0-11.0-1.24","","127","","<div class='trialDiv'><img src='Fruit/melon.png'><br><font class='baseline'><strong>Melon Millions</strong><p>Choose number of points to bet.</font><div class='respPicDiv'><img src='img/responseButtonOffersNo0L.png' class='respPic'></div></div>","2","9","Melon Millions","Fruit/melon.png","Won","0.35,0.8","8","0.35","141","25","",""
"","","","decisionFB","","6143e0914f93b50419ba30ab","bdp_rwlrn","Tue Mar 14 2023 00:23:38 GMT-0400 (Eastern Daylight Time)","276559","Untrustworthy,Trustworthy","html-keyboard-response","83","90199","0.0-11.0-2.24","","null","","<div class='trialDiv'><img src='Fruit/melon.png'><br><font class='baseline'><strong>Melon Millions</strong><p>Choose number of points to bet.</font><div class='respPicDiv'><img src='img/responseButtonOffersNo0L2.png' class='respPic'></div></div>","null","9","Melon Millions","Fruit/melon.png","Won","0.35,0.8","8","0.35","139","25","",""
"","","","feedback","","6143e0914f93b50419ba30ab","bdp_rwlrn","Tue Mar 14 2023 00:23:38 GMT-0400 (Eastern Daylight Time)","276559","Untrustworthy,Trustworthy","html-keyboard-response","84","91201","0.0-11.0-3.24","","null","","<div class='respPicDiv'><img src='img/responseButtonOffersNo0_wht.png' class='respPic'></div><div class='trialDiv'><img src='Fruit/melon.png'><br><font class='baseline'><strong>Melon Millions</strong><p><strong><font class='posOutcome'>You WON</font><p>You bet: 2</strong></font> &nbsp; &nbsp; &nbsp; &nbsp; &nbsp; &nbsp;<font class='posOutcome'>you receive: <strong>4</strong></font></div>","null","9","Melon Millions","Fruit/melon.png","Won","0.35,0.8","8","0.35","143","25","",""
"","","","decision","","6143e0914f93b50419ba30ab","bdp_rwlrn","Tue Mar 14 2023 00:23:38 GMT-0400 (Eastern Daylight Time)","276559","Untrustworthy,Trustworthy","html-keyboard-response","85","91732","0.0-11.0-1.25","","530","","<div class='trialDiv'><img src='Fruit/watermelon.png'><br><font class='baseline'><strong>Watermelon Win$</strong><p>Choose number of points to bet.</font><div class='respPicDiv'><img src='img/responseButtonOffersNo0L.png' class='respPic'></div></div>","3","9","Watermelon Win$","Fruit/watermelon.png","Lost","0.35,0.65","13","0.35","148","26","",""
"","","","decisionFB","","6143e0914f93b50419ba30ab","bdp_rwlrn","Tue Mar 14 2023 00:23:38 GMT-0400 (Eastern Daylight Time)","276559","Untrustworthy,Trustworthy","html-keyboard-response","86","91984","0.0-11.0-2.25","","null","","<div class='trialDiv'><img src='Fruit/watermelon.png'><br><font class='baseline'><strong>Watermelon Win$</strong><p>Choose number of points to bet.</font><div class='respPicDiv'><img src='img/responseButtonOffersNo0L3.png' class='respPic'></div></div>","null","9","Watermelon Win$","Fruit/watermelon.png","Lost","0.35,0.65","13","0.35","145","26","",""
"","","","feedback","","6143e0914f93b50419ba30ab","bdp_rwlrn","Tue Mar 14 2023 00:23:38 GMT-0400 (Eastern Daylight Time)","276559","Untrustworthy,Trustworthy","html-keyboard-response","87","92985","0.0-11.0-3.25","","null","","<div class='respPicDiv'><img src='img/responseButtonOffersNo0_wht.png' class='respPic'></div><div class='trialDiv'><img src='Fruit/watermelon.png'><br><font class='baseline'><strong>Watermelon Win$</strong><p><strong><font class='negOutcome'>You LOST</font><p>You bet: 3</strong></font> &nbsp; &nbsp; &nbsp; &nbsp; &nbsp; &nbsp;<font class='negOutcome'>You receive: <strong>0</strong></font></div>","null","9","Watermelon Win$","Fruit/watermelon.png","Lost","0.35,0.65","13","0.35","145","26","",""
"","","","decision","","6143e0914f93b50419ba30ab","bdp_rwlrn","Tue Mar 14 2023 00:23:38 GMT-0400 (Eastern Daylight Time)","276559","Untrustworthy,Trustworthy","html-keyboard-response","88","93109","0.0-11.0-1.26","","123","","<div class='trialDiv'><img src='Fruit/mango.png'><br><font class='baseline'><strong>Mega Mangos</strong><p>Choose number of points to bet.</font><div class='respPicDiv'><img src='img/responseButtonOffersNo0L.png' class='respPic'></div></div>","4","9","Mega Mangos","Fruit/mango.png","Won","0.8,0.35","12","0.8","150","27","",""
"","","","decisionFB","","6143e0914f93b50419ba30ab","bdp_rwlrn","Tue Mar 14 2023 00:23:38 GMT-0400 (Eastern Daylight Time)","276559","Untrustworthy,Trustworthy","html-keyboard-response","89","93361","0.0-11.0-2.26","","null","","<div class='trialDiv'><img src='Fruit/mango.png'><br><font class='baseline'><strong>Mega Mangos</strong><p>Choose number of points to bet.</font><div class='respPicDiv'><img src='img/responseButtonOffersNo0L4.png' class='respPic'></div></div>","null","9","Mega Mangos","Fruit/mango.png","Won","0.8,0.35","12","0.8","146","27","",""
"","","","feedback","","6143e0914f93b50419ba30ab","bdp_rwlrn","Tue Mar 14 2023 00:23:38 GMT-0400 (Eastern Daylight Time)","276559","Untrustworthy,Trustworthy","html-keyboard-response","90","94373","0.0-11.0-3.26","","null","","<div class='respPicDiv'><img src='img/responseButtonOffersNo0_wht.png' class='respPic'></div><div class='trialDiv'><img src='Fruit/mango.png'><br><font class='baseline'><strong>Mega Mangos</strong><p><strong><font class='posOutcome'>You WON</font><p>You bet: 4</strong></font> &nbsp; &nbsp; &nbsp; &nbsp; &nbsp; &nbsp;<font class='posOutcome'>you receive: <strong>8</strong></font></div>","null","9","Mega Mangos","Fruit/mango.png","Won","0.8,0.35","12","0.8","154","27","",""
"","","","decision","","6143e0914f93b50419ba30ab","bdp_rwlrn","Tue Mar 14 2023 00:23:38 GMT-0400 (Eastern Daylight Time)","276559","Untrustworthy,Trustworthy","html-keyboard-response","91","94514","0.0-11.0-1.27","","140","","<div class='trialDiv'><img src='Fruit/watermelon.png'><br><font class='baseline'><strong>Watermelon Win$</strong><p>Choose number of points to bet.</font><div class='respPicDiv'><img src='img/responseButtonOffersNo0L.png' class='respPic'></div></div>","1","10","Watermelon Win$","Fruit/watermelon.png","Won","0.35,0.65","13","0.35","159","28","",""
"","","","decisionFB","","6143e0914f93b50419ba30ab","bdp_rwlrn","Tue Mar 14 2023 00:23:38 GMT-0400 (Eastern Daylight Time)","276559","Untrustworthy,Trustworthy","html-keyboard-response","92","94766","0.0-11.0-2.27","","null","","<div class='trialDiv'><img src='Fruit/watermelon.png'><br><font class='baseline'><strong>Watermelon Win$</strong><p>Choose number of points to bet.</font><div class='respPicDiv'><img src='img/responseButtonOffersNo0L1.png' class='respPic'></div></div>","null","10","Watermelon Win$","Fruit/watermelon.png","Won","0.35,0.65","13","0.35","158","28","",""
"","","","feedback","","6143e0914f93b50419ba30ab","bdp_rwlrn","Tue Mar 14 2023 00:23:38 GMT-0400 (Eastern Daylight Time)","276559","Untrustworthy,Trustworthy","html-keyboard-response","93","95767","0.0-11.0-3.27","","null","","<div class='respPicDiv'><img src='img/responseButtonOffersNo0_wht.png' class='respPic'></div><div class='trialDiv'><img src='Fruit/watermelon.png'><br><font class='baseline'><strong>Watermelon Win$</strong><p><strong><font class='posOutcome'>You WON</font><p>You bet: 1</strong></font> &nbsp; &nbsp; &nbsp; &nbsp; &nbsp; &nbsp;<font class='posOutcome'>you receive: <strong>2</strong></font></div>","null","10","Watermelon Win$","Fruit/watermelon.png","Won","0.35,0.65","13","0.35","160","28","",""
"","","","decision","","6143e0914f93b50419ba30ab","bdp_rwlrn","Tue Mar 14 2023 00:23:38 GMT-0400 (Eastern Daylight Time)","276559","Untrustworthy,Trustworthy","html-keyboard-response","94","95959","0.0-11.0-1.28","","190","","<div class='trialDiv'><img src='Fruit/melon.png'><br><font class='baseline'><strong>Melon Millions</strong><p>Choose number of points to bet.</font><div class='respPicDiv'><img src='img/responseButtonOffersNo0L.png' class='respPic'></div></div>","5","10","Melon Millions","Fruit/melon.png","Won","0.35,0.8","8","0.35","165","29","",""
"","","","decisionFB","","6143e0914f93b50419ba30ab","bdp_rwlrn","Tue Mar 14 2023 00:23:38 GMT-0400 (Eastern Daylight Time)","276559","Untrustworthy,Trustworthy","html-keyboard-response","95","96210","0.0-11.0-2.28","","null","","<div class='trialDiv'><img src='Fruit/melon.png'><br><font class='baseline'><strong>Melon Millions</strong><p>Choose number of points to bet.</font><div class='respPicDiv'><img src='img/responseButtonOffersNo0L5.png' class='respPic'></div></div>","null","10","Melon Millions","Fruit/melon.png","Won","0.35,0.8","8","0.35","160","29","",""
"","","","feedback","","6143e0914f93b50419ba30ab","bdp_rwlrn","Tue Mar 14 2023 00:23:38 GMT-0400 (Eastern Daylight Time)","276559","Untrustworthy,Trustworthy","html-keyboard-response","96","97212","0.0-11.0-3.28","","null","","<div class='respPicDiv'><img src='img/responseButtonOffersNo0_wht.png' class='respPic'></div><div class='trialDiv'><img src='Fruit/melon.png'><br><font class='baseline'><strong>Melon Millions</strong><p><strong><font class='posOutcome'>You WON</font><p>You bet: 5</strong></font> &nbsp; &nbsp; &nbsp; &nbsp; &nbsp; &nbsp;<font class='posOutcome'>you receive: <strong>10</strong></font></div>","null","10","Melon Millions","Fruit/melon.png","Won","0.35,0.8","8","0.35","170","29","",""
"","","","decision","","6143e0914f93b50419ba30ab","bdp_rwlrn","Tue Mar 14 2023 00:23:38 GMT-0400 (Eastern Daylight Time)","276559","Untrustworthy,Trustworthy","html-keyboard-response","97","97261","0.0-11.0-1.29","","48","","<div class='trialDiv'><img src='Fruit/mango.png'><br><font class='baseline'><strong>Mega Mangos</strong><p>Choose number of points to bet.</font><div class='respPicDiv'><img src='img/responseButtonOffersNo0L.png' class='respPic'></div></div>","3","10","Mega Mangos","Fruit/mango.png","Won","0.8,0.35","12","0.8","175","30","",""
"","","","decisionFB","","6143e0914f93b50419ba30ab","bdp_rwlrn","Tue Mar 14 2023 00:23:38 GMT-0400 (Eastern Daylight Time)","276559","Untrustworthy,Trustworthy","html-keyboard-response","98","97513","0.0-11.0-2.29","","null","","<div class='trialDiv'><img src='Fruit/mango.png'><br><font class='baseline'><strong>Mega Mangos</strong><p>Choose number of points to bet.</font><div class='respPicDiv'><img src='img/responseButtonOffersNo0L3.png' class='respPic'></div></div>","null","10","Mega Mangos","Fruit/mango.png","Won","0.8,0.35","12","0.8","172","30","",""
"","","","feedback","","6143e0914f93b50419ba30ab","bdp_rwlrn","Tue Mar 14 2023 00:23:38 GMT-0400 (Eastern Daylight Time)","276559","Untrustworthy,Trustworthy","html-keyboard-response","99","98515","0.0-11.0-3.29","","null","","<div class='respPicDiv'><img src='img/responseButtonOffersNo0_wht.png' class='respPic'></div><div class='trialDiv'><img src='Fruit/mango.png'><br><font class='baseline'><strong>Mega Mangos</strong><p><strong><font class='posOutcome'>You WON</font><p>You bet: 3</strong></font> &nbsp; &nbsp; &nbsp; &nbsp; &nbsp; &nbsp;<font class='posOutcome'>you receive: <strong>6</strong></font></div>","null","10","Mega Mangos","Fruit/mango.png","Won","0.8,0.35","12","0.8","178","30","",""
"","","","decision","","6143e0914f93b50419ba30ab","bdp_rwlrn","Tue Mar 14 2023 00:23:38 GMT-0400 (Eastern Daylight Time)","276559","Untrustworthy,Trustworthy","html-keyboard-response","100","98656","0.0-11.0-1.30","","139","","<div class='trialDiv'><img src='Fruit/melon.png'><br><font class='baseline'><strong>Melon Millions</strong><p>Choose number of points to bet.</font><div class='respPicDiv'><img src='img/responseButtonOffersNo0L.png' class='respPic'></div></div>","4","11","Melon Millions","Fruit/melon.png","Won","0.35,0.8","8","0.35","183","31","",""
"","","","decisionFB","","6143e0914f93b50419ba30ab","bdp_rwlrn","Tue Mar 14 2023 00:23:38 GMT-0400 (Eastern Daylight Time)","276559","Untrustworthy,Trustworthy","html-keyboard-response","101","98907","0.0-11.0-2.30","","null","","<div class='trialDiv'><img src='Fruit/melon.png'><br><font class='baseline'><strong>Melon Millions</strong><p>Choose number of points to bet.</font><div class='respPicDiv'><img src='img/responseButtonOffersNo0L4.png' class='respPic'></div></div>","null","11","Melon Millions","Fruit/melon.png","Won","0.35,0.8","8","0.35","179","31","",""
"","","","feedback","","6143e0914f93b50419ba30ab","bdp_rwlrn","Tue Mar 14 2023 00:23:38 GMT-0400 (Eastern Daylight Time)","276559","Untrustworthy,Trustworthy","html-keyboard-response","102","99910","0.0-11.0-3.30","","null","","<div class='respPicDiv'><img src='img/responseButtonOffersNo0_wht.png' class='respPic'></div><div class='trialDiv'><img src='Fruit/melon.png'><br><font class='baseline'><strong>Melon Millions</strong><p><strong><font class='posOutcome'>You WON</font><p>You bet: 4</strong></font> &nbsp; &nbsp; &nbsp; &nbsp; &nbsp; &nbsp;<font class='posOutcome'>you receive: <strong>8</strong></font></div>","null","11","Melon Millions","Fruit/melon.png","Won","0.35,0.8","8","0.35","187","31","",""
"","","","decision","","6143e0914f93b50419ba30ab","bdp_rwlrn","Tue Mar 14 2023 00:23:38 GMT-0400 (Eastern Daylight Time)","276559","Untrustworthy,Trustworthy","html-keyboard-response","103","100054","0.0-11.0-1.31","","144","","<div class='trialDiv'><img src='Fruit/mango.png'><br><font class='baseline'><strong>Mega Mangos</strong><p>Choose number of points to bet.</font><div class='respPicDiv'><img src='img/responseButtonOffersNo0L.png' class='respPic'></div></div>","2","11","Mega Mangos","Fruit/mango.png","Won","0.8,0.35","12","0.8","192","32","",""
"","","","decisionFB","","6143e0914f93b50419ba30ab","bdp_rwlrn","Tue Mar 14 2023 00:23:38 GMT-0400 (Eastern Daylight Time)","276559","Untrustworthy,Trustworthy","html-keyboard-response","104","100305","0.0-11.0-2.31","","null","","<div class='trialDiv'><img src='Fruit/mango.png'><br><font class='baseline'><strong>Mega Mangos</strong><p>Choose number of points to bet.</font><div class='respPicDiv'><img src='img/responseButtonOffersNo0L2.png' class='respPic'></div></div>","null","11","Mega Mangos","Fruit/mango.png","Won","0.8,0.35","12","0.8","190","32","",""
"","","","feedback","","6143e0914f93b50419ba30ab","bdp_rwlrn","Tue Mar 14 2023 00:23:38 GMT-0400 (Eastern Daylight Time)","276559","Untrustworthy,Trustworthy","html-keyboard-response","105","101307","0.0-11.0-3.31","","null","","<div class='respPicDiv'><img src='img/responseButtonOffersNo0_wht.png' class='respPic'></div><div class='trialDiv'><img src='Fruit/mango.png'><br><font class='baseline'><strong>Mega Mangos</strong><p><strong><font class='posOutcome'>You WON</font><p>You bet: 2</strong></font> &nbsp; &nbsp; &nbsp; &nbsp; &nbsp; &nbsp;<font class='posOutcome'>you receive: <strong>4</strong></font></div>","null","11","Mega Mangos","Fruit/mango.png","Won","0.8,0.35","12","0.8","194","32","",""
"","","","decision","","6143e0914f93b50419ba30ab","bdp_rwlrn","Tue Mar 14 2023 00:23:38 GMT-0400 (Eastern Daylight Time)","276559","Untrustworthy,Trustworthy","html-keyboard-response","106","101499","0.0-11.0-1.32","","192","","<div class='trialDiv'><img src='Fruit/watermelon.png'><br><font class='baseline'><strong>Watermelon Win$</strong><p>Choose number of points to bet.</font><div class='respPicDiv'><img src='img/responseButtonOffersNo0L.png' class='respPic'></div></div>","4","11","Watermelon Win$","Fruit/watermelon.png","Lost","0.35,0.65","13","0.35","199","33","",""
"","","","decisionFB","","6143e0914f93b50419ba30ab","bdp_rwlrn","Tue Mar 14 2023 00:23:38 GMT-0400 (Eastern Daylight Time)","276559","Untrustworthy,Trustworthy","html-keyboard-response","107","101751","0.0-11.0-2.32","","null","","<div class='trialDiv'><img src='Fruit/watermelon.png'><br><font class='baseline'><strong>Watermelon Win$</strong><p>Choose number of points to bet.</font><div class='respPicDiv'><img src='img/responseButtonOffersNo0L4.png' class='respPic'></div></div>","null","11","Watermelon Win$","Fruit/watermelon.png","Lost","0.35,0.65","13","0.35","195","33","",""
"","","","feedback","","6143e0914f93b50419ba30ab","bdp_rwlrn","Tue Mar 14 2023 00:23:38 GMT-0400 (Eastern Daylight Time)","276559","Untrustworthy,Trustworthy","html-keyboard-response","108","102752","0.0-11.0-3.32","","null","","<div class='respPicDiv'><img src='img/responseButtonOffersNo0_wht.png' class='respPic'></div><div class='trialDiv'><img src='Fruit/watermelon.png'><br><font class='baseline'><strong>Watermelon Win$</strong><p><strong><font class='negOutcome'>You LOST</font><p>You bet: 4</strong></font> &nbsp; &nbsp; &nbsp; &nbsp; &nbsp; &nbsp;<font class='negOutcome'>You receive: <strong>0</strong></font></div>","null","11","Watermelon Win$","Fruit/watermelon.png","Lost","0.35,0.65","13","0.35","195","33","",""
"","","","decision","","6143e0914f93b50419ba30ab","bdp_rwlrn","Tue Mar 14 2023 00:23:38 GMT-0400 (Eastern Daylight Time)","276559","Untrustworthy,Trustworthy","html-keyboard-response","109","102950","0.0-11.0-1.33","","197","","<div class='trialDiv'><img src='Fruit/melon.png'><br><font class='baseline'><strong>Melon Millions</strong><p>Choose number of points to bet.</font><div class='respPicDiv'><img src='img/responseButtonOffersNo0L.png' class='respPic'></div></div>","1","12","Melon Millions","Fruit/melon.png","Won","0.35,0.8","8","0.35","200","34","",""
"","","","decisionFB","","6143e0914f93b50419ba30ab","bdp_rwlrn","Tue Mar 14 2023 00:23:38 GMT-0400 (Eastern Daylight Time)","276559","Untrustworthy,Trustworthy","html-keyboard-response","110","103202","0.0-11.0-2.33","","null","","<div class='trialDiv'><img src='Fruit/melon.png'><br><font class='baseline'><strong>Melon Millions</strong><p>Choose number of points to bet.</font><div class='respPicDiv'><img src='img/responseButtonOffersNo0L1.png' class='respPic'></div></div>","null","12","Melon Millions","Fruit/melon.png","Won","0.35,0.8","8","0.35","199","34","",""
"","","","feedback","","6143e0914f93b50419ba30ab","bdp_rwlrn","Tue Mar 14 2023 00:23:38 GMT-0400 (Eastern Daylight Time)","276559","Untrustworthy,Trustworthy","html-keyboard-response","111","104203","0.0-11.0-3.33","","null","","<div class='respPicDiv'><img src='img/responseButtonOffersNo0_wht.png' class='respPic'></div><div class='trialDiv'><img src='Fruit/melon.png'><br><font class='baseline'><strong>Melon Millions</strong><p><strong><font class='posOutcome'>You WON</font><p>You bet: 1</strong></font> &nbsp; &nbsp; &nbsp; &nbsp; &nbsp; &nbsp;<font class='posOutcome'>you receive: <strong>2</strong></font></div>","null","12","Melon Millions","Fruit/melon.png","Won","0.35,0.8","8","0.35","201","34","",""
"","","","decision","","6143e0914f93b50419ba30ab","bdp_rwlrn","Tue Mar 14 2023 00:23:38 GMT-0400 (Eastern Daylight Time)","276559","Untrustworthy,Trustworthy","html-keyboard-response","112","104222","0.0-11.0-1.34","","18","","<div class='trialDiv'><img src='Fruit/watermelon.png'><br><font class='baseline'><strong>Watermelon Win$</strong><p>Choose number of points to bet.</font><div class='respPicDiv'><img src='img/responseButtonOffersNo0L.png' class='respPic'></div></div>","5","12","Watermelon Win$","Fruit/watermelon.png","Lost","0.35,0.65","13","0.35","206","35","",""
"","","","decisionFB","","6143e0914f93b50419ba30ab","bdp_rwlrn","Tue Mar 14 2023 00:23:38 GMT-0400 (Eastern Daylight Time)","276559","Untrustworthy,Trustworthy","html-keyboard-response","113","104474","0.0-11.0-2.34","","null","","<div class='trialDiv'><img src='Fruit/watermelon.png'><br><font class='baseline'><strong>Watermelon Win$</strong><p>Choose number of points to bet.</font><div class='respPicDiv'><img src='img/responseButtonOffersNo0L5.png' class='respPic'></div></div>","null","12","Watermelon Win$","Fruit/watermelon.png","Lost","0.35,0.65","13","0.35","201","35","",""
"","","","feedback","","6143e0914f93b50419ba30ab","bdp_rwlrn","Tue Mar 14 2023 00:23:38 GMT-0400 (Eastern Daylight Time)","276559","Untrustworthy,Trustworthy","html-keyboard-response","114","105476","0.0-11.0-3.34","","null","","<div class='respPicDiv'><img src='img/responseButtonOffersNo0_wht.png' class='respPic'></div><div class='trialDiv'><img src='Fruit/watermelon.png'><br><font class='baseline'><strong>Watermelon Win$</strong><p><strong><font class='negOutcome'>You LOST</font><p>You bet: 5</strong></font> &nbsp; &nbsp; &nbsp; &nbsp; &nbsp; &nbsp;<font class='negOutcome'>You receive: <strong>0</strong></font></div>","null","12","Watermelon Win$","Fruit/watermelon.png","Lost","0.35,0.65","13","0.35","201","35","",""
"","","","decision","","6143e0914f93b50419ba30ab","bdp_rwlrn","Tue Mar 14 2023 00:23:38 GMT-0400 (Eastern Daylight Time)","276559","Untrustworthy,Trustworthy","html-keyboard-response","115","105928","0.0-11.0-1.35","","452","","<div class='trialDiv'><img src='Fruit/mango.png'><br><font class='baseline'><strong>Mega Mangos</strong><p>Choose number of points to bet.</font><div class='respPicDiv'><img src='img/responseButtonOffersNo0L.png' class='respPic'></div></div>","4","12","Mega Mangos","Fruit/mango.png","Lost","0.8,0.35","12","0.8","206","36","",""
"","","","decisionFB","","6143e0914f93b50419ba30ab","bdp_rwlrn","Tue Mar 14 2023 00:23:38 GMT-0400 (Eastern Daylight Time)","276559","Untrustworthy,Trustworthy","html-keyboard-response","116","106180","0.0-11.0-2.35","","null","","<div class='trialDiv'><img src='Fruit/mango.png'><br><font class='baseline'><strong>Mega Mangos</strong><p>Choose number of points to bet.</font><div class='respPicDiv'><img src='img/responseButtonOffersNo0L4.png' class='respPic'></div></div>","null","12","Mega Mangos","Fruit/mango.png","Lost","0.8,0.35","12","0.8","202","36","",""
"","","","feedback","","6143e0914f93b50419ba30ab","bdp_rwlrn","Tue Mar 14 2023 00:23:38 GMT-0400 (Eastern Daylight Time)","276559","Untrustworthy,Trustworthy","html-keyboard-response","117","107182","0.0-11.0-3.35","","null","","<div class='respPicDiv'><img src='img/responseButtonOffersNo0_wht.png' class='respPic'></div><div class='trialDiv'><img src='Fruit/mango.png'><br><font class='baseline'><strong>Mega Mangos</strong><p><strong><font class='negOutcome'>You LOST</font><p>You bet: 4</strong></font> &nbsp; &nbsp; &nbsp; &nbsp; &nbsp; &nbsp;<font class='negOutcome'>You receive: <strong>0</strong></font></div>","null","12","Mega Mangos","Fruit/mango.png","Lost","0.8,0.35","12","0.8","202","36","",""
"","","","decision","","6143e0914f93b50419ba30ab","bdp_rwlrn","Tue Mar 14 2023 00:23:38 GMT-0400 (Eastern Daylight Time)","276559","Untrustworthy,Trustworthy","html-keyboard-response","118","107586","0.0-11.0-1.36","","403","","<div class='trialDiv'><img src='Fruit/watermelon.png'><br><font class='baseline'><strong>Watermelon Win$</strong><p>Choose number of points to bet.</font><div class='respPicDiv'><img src='img/responseButtonOffersNo0L.png' class='respPic'></div></div>","3","13","Watermelon Win$","Fruit/watermelon.png","Won","0.35,0.65","13","0.35","207","37","",""
"","","","decisionFB","","6143e0914f93b50419ba30ab","bdp_rwlrn","Tue Mar 14 2023 00:23:38 GMT-0400 (Eastern Daylight Time)","276559","Untrustworthy,Trustworthy","html-keyboard-response","119","107838","0.0-11.0-2.36","","null","","<div class='trialDiv'><img src='Fruit/watermelon.png'><br><font class='baseline'><strong>Watermelon Win$</strong><p>Choose number of points to bet.</font><div class='respPicDiv'><img src='img/responseButtonOffersNo0L3.png' class='respPic'></div></div>","null","13","Watermelon Win$","Fruit/watermelon.png","Won","0.35,0.65","13","0.35","204","37","",""
"","","","feedback","","6143e0914f93b50419ba30ab","bdp_rwlrn","Tue Mar 14 2023 00:23:38 GMT-0400 (Eastern Daylight Time)","276559","Untrustworthy,Trustworthy","html-keyboard-response","120","108841","0.0-11.0-3.36","","null","","<div class='respPicDiv'><img src='img/responseButtonOffersNo0_wht.png' class='respPic'></div><div class='trialDiv'><img src='Fruit/watermelon.png'><br><font class='baseline'><strong>Watermelon Win$</strong><p><strong><font class='posOutcome'>You WON</font><p>You bet: 3</strong></font> &nbsp; &nbsp; &nbsp; &nbsp; &nbsp; &nbsp;<font class='posOutcome'>you receive: <strong>6</strong></font></div>","null","13","Watermelon Win$","Fruit/watermelon.png","Won","0.35,0.65","13","0.35","210","37","",""
"","","","decision","","6143e0914f93b50419ba30ab","bdp_rwlrn","Tue Mar 14 2023 00:23:38 GMT-0400 (Eastern Daylight Time)","276559","Untrustworthy,Trustworthy","html-keyboard-response","121","109123","0.0-11.0-1.37","","281","","<div class='trialDiv'><img src='Fruit/melon.png'><br><font class='baseline'><strong>Melon Millions</strong><p>Choose number of points to bet.</font><div class='respPicDiv'><img src='img/responseButtonOffersNo0L.png' class='respPic'></div></div>","5","13","Melon Millions","Fruit/melon.png","Won","0.35,0.8","8","0.35","215","38","",""
"","","","decisionFB","","6143e0914f93b50419ba30ab","bdp_rwlrn","Tue Mar 14 2023 00:23:38 GMT-0400 (Eastern Daylight Time)","276559","Untrustworthy,Trustworthy","html-keyboard-response","122","109375","0.0-11.0-2.37","","null","","<div class='trialDiv'><img src='Fruit/melon.png'><br><font class='baseline'><strong>Melon Millions</strong><p>Choose number of points to bet.</font><div class='respPicDiv'><img src='img/responseButtonOffersNo0L5.png' class='respPic'></div></div>","null","13","Melon Millions","Fruit/melon.png","Won","0.35,0.8","8","0.35","210","38","",""
"","","","feedback","","6143e0914f93b50419ba30ab","bdp_rwlrn","Tue Mar 14 2023 00:23:38 GMT-0400 (Eastern Daylight Time)","276559","Untrustworthy,Trustworthy","html-keyboard-response","123","110376","0.0-11.0-3.37","","null","","<div class='respPicDiv'><img src='img/responseButtonOffersNo0_wht.png' class='respPic'></div><div class='trialDiv'><img src='Fruit/melon.png'><br><font class='baseline'><strong>Melon Millions</strong><p><strong><font class='posOutcome'>You WON</font><p>You bet: 5</strong></font> &nbsp; &nbsp; &nbsp; &nbsp; &nbsp; &nbsp;<font class='posOutcome'>you receive: <strong>10</strong></font></div>","null","13","Melon Millions","Fruit/melon.png","Won","0.35,0.8","8","0.35","220","38","",""
"","","","decision","","6143e0914f93b50419ba30ab","bdp_rwlrn","Tue Mar 14 2023 00:23:38 GMT-0400 (Eastern Daylight Time)","276559","Untrustworthy,Trustworthy","html-keyboard-response","124","110480","0.0-11.0-1.38","","103","","<div class='trialDiv'><img src='Fruit/mango.png'><br><font class='baseline'><strong>Mega Mangos</strong><p>Choose number of points to bet.</font><div class='respPicDiv'><img src='img/responseButtonOffersNo0L.png' class='respPic'></div></div>","4","13","Mega Mangos","Fruit/mango.png","Lost","0.8,0.35","12","0.8","225","39","",""
"","","","decisionFB","","6143e0914f93b50419ba30ab","bdp_rwlrn","Tue Mar 14 2023 00:23:38 GMT-0400 (Eastern Daylight Time)","276559","Untrustworthy,Trustworthy","html-keyboard-response","125","110732","0.0-11.0-2.38","","null","","<div class='trialDiv'><img src='Fruit/mango.png'><br><font class='baseline'><strong>Mega Mangos</strong><p>Choose number of points to bet.</font><div class='respPicDiv'><img src='img/responseButtonOffersNo0L4.png' class='respPic'></div></div>","null","13","Mega Mangos","Fruit/mango.png","Lost","0.8,0.35","12","0.8","221","39","",""
"","","","feedback","","6143e0914f93b50419ba30ab","bdp_rwlrn","Tue Mar 14 2023 00:23:38 GMT-0400 (Eastern Daylight Time)","276559","Untrustworthy,Trustworthy","html-keyboard-response","126","111734","0.0-11.0-3.38","","null","","<div class='respPicDiv'><img src='img/responseButtonOffersNo0_wht.png' class='respPic'></div><div class='trialDiv'><img src='Fruit/mango.png'><br><font class='baseline'><strong>Mega Mangos</strong><p><strong><font class='negOutcome'>You LOST</font><p>You bet: 4</strong></font> &nbsp; &nbsp; &nbsp; &nbsp; &nbsp; &nbsp;<font class='negOutcome'>You receive: <strong>0</strong></font></div>","null","13","Mega Mangos","Fruit/mango.png","Lost","0.8,0.35","12","0.8","221","39","",""
"","","","decision","","6143e0914f93b50419ba30ab","bdp_rwlrn","Tue Mar 14 2023 00:23:38 GMT-0400 (Eastern Daylight Time)","276559","Untrustworthy,Trustworthy","html-keyboard-response","127","112222","0.0-11.0-1.39","","487","","<div class='trialDiv'><img src='Fruit/melon.png'><br><font class='baseline'><strong>Melon Millions</strong><p>Choose number of points to bet.</font><div class='respPicDiv'><img src='img/responseButtonOffersNo0L.png' class='respPic'></div></div>","2","14","Melon Millions","Fruit/melon.png","Won","0.35,0.8","8","0.35","226","40","",""
"","","","decisionFB","","6143e0914f93b50419ba30ab","bdp_rwlrn","Tue Mar 14 2023 00:23:38 GMT-0400 (Eastern Daylight Time)","276559","Untrustworthy,Trustworthy","html-keyboard-response","128","112474","0.0-11.0-2.39","","null","","<div class='trialDiv'><img src='Fruit/melon.png'><br><font class='baseline'><strong>Melon Millions</strong><p>Choose number of points to bet.</font><div class='respPicDiv'><img src='img/responseButtonOffersNo0L2.png' class='respPic'></div></div>","null","14","Melon Millions","Fruit/melon.png","Won","0.35,0.8","8","0.35","224","40","",""
"","","","feedback","","6143e0914f93b50419ba30ab","bdp_rwlrn","Tue Mar 14 2023 00:23:38 GMT-0400 (Eastern Daylight Time)","276559","Untrustworthy,Trustworthy","html-keyboard-response","129","113476","0.0-11.0-3.39","","null","","<div class='respPicDiv'><img src='img/responseButtonOffersNo0_wht.png' class='respPic'></div><div class='trialDiv'><img src='Fruit/melon.png'><br><font class='baseline'><strong>Melon Millions</strong><p><strong><font class='posOutcome'>You WON</font><p>You bet: 2</strong></font> &nbsp; &nbsp; &nbsp; &nbsp; &nbsp; &nbsp;<font class='posOutcome'>you receive: <strong>4</strong></font></div>","null","14","Melon Millions","Fruit/melon.png","Won","0.35,0.8","8","0.35","228","40","",""
"","","","decision","","6143e0914f93b50419ba30ab","bdp_rwlrn","Tue Mar 14 2023 00:23:38 GMT-0400 (Eastern Daylight Time)","276559","Untrustworthy,Trustworthy","html-keyboard-response","130","114448","0.0-11.0-1.40","","971","","<div class='trialDiv'><img src='Fruit/mango.png'><br><font class='baseline'><strong>Mega Mangos</strong><p>Choose number of points to bet.</font><div class='respPicDiv'><img src='img/responseButtonOffersNo0L.png' class='respPic'></div></div>","3","14","Mega Mangos","Fruit/mango.png","Lost","0.8,0.35","12","0.8","233","41","",""
"","","","decisionFB","","6143e0914f93b50419ba30ab","bdp_rwlrn","Tue Mar 14 2023 00:23:38 GMT-0400 (Eastern Daylight Time)","276559","Untrustworthy,Trustworthy","html-keyboard-response","131","114700","0.0-11.0-2.40","","null","","<div class='trialDiv'><img src='Fruit/mango.png'><br><font class='baseline'><strong>Mega Mangos</strong><p>Choose number of points to bet.</font><div class='respPicDiv'><img src='img/responseButtonOffersNo0L3.png' class='respPic'></div></div>","null","14","Mega Mangos","Fruit/mango.png","Lost","0.8,0.35","12","0.8","230","41","",""
"","","","feedback","","6143e0914f93b50419ba30ab","bdp_rwlrn","Tue Mar 14 2023 00:23:38 GMT-0400 (Eastern Daylight Time)","276559","Untrustworthy,Trustworthy","html-keyboard-response","132","115701","0.0-11.0-3.40","","null","","<div class='respPicDiv'><img src='img/responseButtonOffersNo0_wht.png' class='respPic'></div><div class='trialDiv'><img src='Fruit/mango.png'><br><font class='baseline'><strong>Mega Mangos</strong><p><strong><font class='negOutcome'>You LOST</font><p>You bet: 3</strong></font> &nbsp; &nbsp; &nbsp; &nbsp; &nbsp; &nbsp;<font class='negOutcome'>You receive: <strong>0</strong></font></div>","null","14","Mega Mangos","Fruit/mango.png","Lost","0.8,0.35","12","0.8","230","41","",""
"","","","decision","","6143e0914f93b50419ba30ab","bdp_rwlrn","Tue Mar 14 2023 00:23:38 GMT-0400 (Eastern Daylight Time)","276559","Untrustworthy,Trustworthy","html-keyboard-response","133","116138","0.0-11.0-1.41","","436","","<div class='trialDiv'><img src='Fruit/watermelon.png'><br><font class='baseline'><strong>Watermelon Win$</strong><p>Choose number of points to bet.</font><div class='respPicDiv'><img src='img/responseButtonOffersNo0L.png' class='respPic'></div></div>","5","14","Watermelon Win$","Fruit/watermelon.png","Won","0.35,0.65","13","0.35","235","42","",""
"","","","decisionFB","","6143e0914f93b50419ba30ab","bdp_rwlrn","Tue Mar 14 2023 00:23:38 GMT-0400 (Eastern Daylight Time)","276559","Untrustworthy,Trustworthy","html-keyboard-response","134","116390","0.0-11.0-2.41","","null","","<div class='trialDiv'><img src='Fruit/watermelon.png'><br><font class='baseline'><strong>Watermelon Win$</strong><p>Choose number of points to bet.</font><div class='respPicDiv'><img src='img/responseButtonOffersNo0L5.png' class='respPic'></div></div>","null","14","Watermelon Win$","Fruit/watermelon.png","Won","0.35,0.65","13","0.35","230","42","",""
"","","","feedback","","6143e0914f93b50419ba30ab","bdp_rwlrn","Tue Mar 14 2023 00:23:38 GMT-0400 (Eastern Daylight Time)","276559","Untrustworthy,Trustworthy","html-keyboard-response","135","117391","0.0-11.0-3.41","","null","","<div class='respPicDiv'><img src='img/responseButtonOffersNo0_wht.png' class='respPic'></div><div class='trialDiv'><img src='Fruit/watermelon.png'><br><font class='baseline'><strong>Watermelon Win$</strong><p><strong><font class='posOutcome'>You WON</font><p>You bet: 5</strong></font> &nbsp; &nbsp; &nbsp; &nbsp; &nbsp; &nbsp;<font class='posOutcome'>you receive: <strong>10</strong></font></div>","null","14","Watermelon Win$","Fruit/watermelon.png","Won","0.35,0.65","13","0.35","240","42","",""
"","","","decision","","6143e0914f93b50419ba30ab","bdp_rwlrn","Tue Mar 14 2023 00:23:38 GMT-0400 (Eastern Daylight Time)","276559","Untrustworthy,Trustworthy","html-keyboard-response","136","117648","0.0-11.0-1.42","","256","","<div class='trialDiv'><img src='Fruit/melon.png'><br><font class='baseline'><strong>Melon Millions</strong><p>Choose number of points to bet.</font><div class='respPicDiv'><img src='img/responseButtonOffersNo0L.png' class='respPic'></div></div>","3","15","Melon Millions","Fruit/melon.png","Won","0.35,0.8","8","0.35","245","43","",""
"","","","decisionFB","","6143e0914f93b50419ba30ab","bdp_rwlrn","Tue Mar 14 2023 00:23:38 GMT-0400 (Eastern Daylight Time)","276559","Untrustworthy,Trustworthy","html-keyboard-response","137","117900","0.0-11.0-2.42","","null","","<div class='trialDiv'><img src='Fruit/melon.png'><br><font class='baseline'><strong>Melon Millions</strong><p>Choose number of points to bet.</font><div class='respPicDiv'><img src='img/responseButtonOffersNo0L3.png' class='respPic'></div></div>","null","15","Melon Millions","Fruit/melon.png","Won","0.35,0.8","8","0.35","242","43","",""
"","","","feedback","","6143e0914f93b50419ba30ab","bdp_rwlrn","Tue Mar 14 2023 00:23:38 GMT-0400 (Eastern Daylight Time)","276559","Untrustworthy,Trustworthy","html-keyboard-response","138","118902","0.0-11.0-3.42","","null","","<div class='respPicDiv'><img src='img/responseButtonOffersNo0_wht.png' class='respPic'></div><div class='trialDiv'><img src='Fruit/melon.png'><br><font class='baseline'><strong>Melon Millions</strong><p><strong><font class='posOutcome'>You WON</font><p>You bet: 3</strong></font> &nbsp; &nbsp; &nbsp; &nbsp; &nbsp; &nbsp;<font class='posOutcome'>you receive: <strong>6</strong></font></div>","null","15","Melon Millions","Fruit/melon.png","Won","0.35,0.8","8","0.35","248","43","",""
"","","","decision","","6143e0914f93b50419ba30ab","bdp_rwlrn","Tue Mar 14 2023 00:23:38 GMT-0400 (Eastern Daylight Time)","276559","Untrustworthy,Trustworthy","html-keyboard-response","139","119177","0.0-11.0-1.43","","274","","<div class='trialDiv'><img src='Fruit/watermelon.png'><br><font class='baseline'><strong>Watermelon Win$</strong><p>Choose number of points to bet.</font><div class='respPicDiv'><img src='img/responseButtonOffersNo0L.png' class='respPic'></div></div>","4","15","Watermelon Win$","Fruit/watermelon.png","Won","0.35,0.65","13","0.35","253","44","",""
"","","","decisionFB","","6143e0914f93b50419ba30ab","bdp_rwlrn","Tue Mar 14 2023 00:23:38 GMT-0400 (Eastern Daylight Time)","276559","Untrustworthy,Trustworthy","html-keyboard-response","140","119428","0.0-11.0-2.43","","null","","<div class='trialDiv'><img src='Fruit/watermelon.png'><br><font class='baseline'><strong>Watermelon Win$</strong><p>Choose number of points to bet.</font><div class='respPicDiv'><img src='img/responseButtonOffersNo0L4.png' class='respPic'></div></div>","null","15","Watermelon Win$","Fruit/watermelon.png","Won","0.35,0.65","13","0.35","249","44","",""
"","","","feedback","","6143e0914f93b50419ba30ab","bdp_rwlrn","Tue Mar 14 2023 00:23:38 GMT-0400 (Eastern Daylight Time)","276559","Untrustworthy,Trustworthy","html-keyboard-response","141","120430","0.0-11.0-3.43","","null","","<div class='respPicDiv'><img src='img/responseButtonOffersNo0_wht.png' class='respPic'></div><div class='trialDiv'><img src='Fruit/watermelon.png'><br><font class='baseline'><strong>Watermelon Win$</strong><p><strong><font class='posOutcome'>You WON</font><p>You bet: 4</strong></font> &nbsp; &nbsp; &nbsp; &nbsp; &nbsp; &nbsp;<font class='posOutcome'>you receive: <strong>8</strong></font></div>","null","15","Watermelon Win$","Fruit/watermelon.png","Won","0.35,0.65","13","0.35","257","44","",""
"","","","decision","","6143e0914f93b50419ba30ab","bdp_rwlrn","Tue Mar 14 2023 00:23:38 GMT-0400 (Eastern Daylight Time)","276559","Untrustworthy,Trustworthy","html-keyboard-response","142","120661","0.0-11.0-1.44","","231","","<div class='trialDiv'><img src='Fruit/mango.png'><br><font class='baseline'><strong>Mega Mangos</strong><p>Choose number of points to bet.</font><div class='respPicDiv'><img src='img/responseButtonOffersNo0L.png' class='respPic'></div></div>","1","15","Mega Mangos","Fruit/mango.png","Lost","0.8,0.35","12","0.8","262","45","",""
"","","","decisionFB","","6143e0914f93b50419ba30ab","bdp_rwlrn","Tue Mar 14 2023 00:23:38 GMT-0400 (Eastern Daylight Time)","276559","Untrustworthy,Trustworthy","html-keyboard-response","143","120913","0.0-11.0-2.44","","null","","<div class='trialDiv'><img src='Fruit/mango.png'><br><font class='baseline'><strong>Mega Mangos</strong><p>Choose number of points to bet.</font><div class='respPicDiv'><img src='img/responseButtonOffersNo0L1.png' class='respPic'></div></div>","null","15","Mega Mangos","Fruit/mango.png","Lost","0.8,0.35","12","0.8","261","45","",""
"","","","feedback","","6143e0914f93b50419ba30ab","bdp_rwlrn","Tue Mar 14 2023 00:23:38 GMT-0400 (Eastern Daylight Time)","276559","Untrustworthy,Trustworthy","html-keyboard-response","144","121915","0.0-11.0-3.44","","null","","<div class='respPicDiv'><img src='img/responseButtonOffersNo0_wht.png' class='respPic'></div><div class='trialDiv'><img src='Fruit/mango.png'><br><font class='baseline'><strong>Mega Mangos</strong><p><strong><font class='negOutcome'>You LOST</font><p>You bet: 1</strong></font> &nbsp; &nbsp; &nbsp; &nbsp; &nbsp; &nbsp;<font class='negOutcome'>You receive: <strong>0</strong></font></div>","null","15","Mega Mangos","Fruit/mango.png","Lost","0.8,0.35","12","0.8","261","45","",""
"","","","decision","","6143e0914f93b50419ba30ab","bdp_rwlrn","Tue Mar 14 2023 00:23:38 GMT-0400 (Eastern Daylight Time)","276559","Untrustworthy,Trustworthy","html-keyboard-response","145","122131","0.0-11.0-1.45","","215","","<div class='trialDiv'><img src='Fruit/melon.png'><br><font class='baseline'><strong>Melon Millions</strong><p>Choose number of points to bet.</font><div class='respPicDiv'><img src='img/responseButtonOffersNo0L.png' class='respPic'></div></div>","2","16","Melon Millions","Fruit/melon.png","Won","0.35,0.8","8","0.35","266","46","",""
"","","","decisionFB","","6143e0914f93b50419ba30ab","bdp_rwlrn","Tue Mar 14 2023 00:23:38 GMT-0400 (Eastern Daylight Time)","276559","Untrustworthy,Trustworthy","html-keyboard-response","146","122384","0.0-11.0-2.45","","null","","<div class='trialDiv'><img src='Fruit/melon.png'><br><font class='baseline'><strong>Melon Millions</strong><p>Choose number of points to bet.</font><div class='respPicDiv'><img src='img/responseButtonOffersNo0L2.png' class='respPic'></div></div>","null","16","Melon Millions","Fruit/melon.png","Won","0.35,0.8","8","0.35","264","46","",""
"","","","feedback","","6143e0914f93b50419ba30ab","bdp_rwlrn","Tue Mar 14 2023 00:23:38 GMT-0400 (Eastern Daylight Time)","276559","Untrustworthy,Trustworthy","html-keyboard-response","147","123385","0.0-11.0-3.45","","null","","<div class='respPicDiv'><img src='img/responseButtonOffersNo0_wht.png' class='respPic'></div><div class='trialDiv'><img src='Fruit/melon.png'><br><font class='baseline'><strong>Melon Millions</strong><p><strong><font class='posOutcome'>You WON</font><p>You bet: 2</strong></font> &nbsp; &nbsp; &nbsp; &nbsp; &nbsp; &nbsp;<font class='posOutcome'>you receive: <strong>4</strong></font></div>","null","16","Melon Millions","Fruit/melon.png","Won","0.35,0.8","8","0.35","268","46","",""
"","","","decision","","6143e0914f93b50419ba30ab","bdp_rwlrn","Tue Mar 14 2023 00:23:38 GMT-0400 (Eastern Daylight Time)","276559","Untrustworthy,Trustworthy","html-keyboard-response","148","123957","0.0-11.0-1.46","","571","","<div class='trialDiv'><img src='Fruit/watermelon.png'><br><font class='baseline'><strong>Watermelon Win$</strong><p>Choose number of points to bet.</font><div class='respPicDiv'><img src='img/responseButtonOffersNo0L.png' class='respPic'></div></div>","3","16","Watermelon Win$","Fruit/watermelon.png","Won","0.35,0.65","13","0.35","273","47","",""
"","","","decisionFB","","6143e0914f93b50419ba30ab","bdp_rwlrn","Tue Mar 14 2023 00:23:38 GMT-0400 (Eastern Daylight Time)","276559","Untrustworthy,Trustworthy","html-keyboard-response","149","124209","0.0-11.0-2.46","","null","","<div class='trialDiv'><img src='Fruit/watermelon.png'><br><font class='baseline'><strong>Watermelon Win$</strong><p>Choose number of points to bet.</font><div class='respPicDiv'><img src='img/responseButtonOffersNo0L3.png' class='respPic'></div></div>","null","16","Watermelon Win$","Fruit/watermelon.png","Won","0.35,0.65","13","0.35","270","47","",""
"","","","feedback","","6143e0914f93b50419ba30ab","bdp_rwlrn","Tue Mar 14 2023 00:23:38 GMT-0400 (Eastern Daylight Time)","276559","Untrustworthy,Trustworthy","html-keyboard-response","150","125211","0.0-11.0-3.46","","null","","<div class='respPicDiv'><img src='img/responseButtonOffersNo0_wht.png' class='respPic'></div><div class='trialDiv'><img src='Fruit/watermelon.png'><br><font class='baseline'><strong>Watermelon Win$</strong><p><strong><font class='posOutcome'>You WON</font><p>You bet: 3</strong></font> &nbsp; &nbsp; &nbsp; &nbsp; &nbsp; &nbsp;<font class='posOutcome'>you receive: <strong>6</strong></font></div>","null","16","Watermelon Win$","Fruit/watermelon.png","Won","0.35,0.65","13","0.35","276","47","",""
"","","","decision","","6143e0914f93b50419ba30ab","bdp_rwlrn","Tue Mar 14 2023 00:23:38 GMT-0400 (Eastern Daylight Time)","276559","Untrustworthy,Trustworthy","html-keyboard-response","151","125738","0.0-11.0-1.47","","526","","<div class='trialDiv'><img src='Fruit/mango.png'><br><font class='baseline'><strong>Mega Mangos</strong><p>Choose number of points to bet.</font><div class='respPicDiv'><img src='img/responseButtonOffersNo0L.png' class='respPic'></div></div>","2","16","Mega Mangos","Fruit/mango.png","Won","0.8,0.35","12","0.8","281","48","",""
"","","","decisionFB","","6143e0914f93b50419ba30ab","bdp_rwlrn","Tue Mar 14 2023 00:23:38 GMT-0400 (Eastern Daylight Time)","276559","Untrustworthy,Trustworthy","html-keyboard-response","152","125990","0.0-11.0-2.47","","null","","<div class='trialDiv'><img src='Fruit/mango.png'><br><font class='baseline'><strong>Mega Mangos</strong><p>Choose number of points to bet.</font><div class='respPicDiv'><img src='img/responseButtonOffersNo0L2.png' class='respPic'></div></div>","null","16","Mega Mangos","Fruit/mango.png","Won","0.8,0.35","12","0.8","279","48","",""
"","","","feedback","","6143e0914f93b50419ba30ab","bdp_rwlrn","Tue Mar 14 2023 00:23:38 GMT-0400 (Eastern Daylight Time)","276559","Untrustworthy,Trustworthy","html-keyboard-response","153","126991","0.0-11.0-3.47","","null","","<div class='respPicDiv'><img src='img/responseButtonOffersNo0_wht.png' class='respPic'></div><div class='trialDiv'><img src='Fruit/mango.png'><br><font class='baseline'><strong>Mega Mangos</strong><p><strong><font class='posOutcome'>You WON</font><p>You bet: 2</strong></font> &nbsp; &nbsp; &nbsp; &nbsp; &nbsp; &nbsp;<font class='posOutcome'>you receive: <strong>4</strong></font></div>","null","16","Mega Mangos","Fruit/mango.png","Won","0.8,0.35","12","0.8","283","48","",""
"","","","decision","","6143e0914f93b50419ba30ab","bdp_rwlrn","Tue Mar 14 2023 00:23:38 GMT-0400 (Eastern Daylight Time)","276559","Untrustworthy,Trustworthy","html-keyboard-response","154","127280","0.0-11.0-1.48","","288","","<div class='trialDiv'><img src='Fruit/watermelon.png'><br><font class='baseline'><strong>Watermelon Win$</strong><p>Choose number of points to bet.</font><div class='respPicDiv'><img src='img/responseButtonOffersNo0L.png' class='respPic'></div></div>","3","17","Watermelon Win$","Fruit/watermelon.png","Won","0.35,0.65","13","0.35","288","49","",""
"","","","decisionFB","","6143e0914f93b50419ba30ab","bdp_rwlrn","Tue Mar 14 2023 00:23:38 GMT-0400 (Eastern Daylight Time)","276559","Untrustworthy,Trustworthy","html-keyboard-response","155","127531","0.0-11.0-2.48","","null","","<div class='trialDiv'><img src='Fruit/watermelon.png'><br><font class='baseline'><strong>Watermelon Win$</strong><p>Choose number of points to bet.</font><div class='respPicDiv'><img src='img/responseButtonOffersNo0L3.png' class='respPic'></div></div>","null","17","Watermelon Win$","Fruit/watermelon.png","Won","0.35,0.65","13","0.35","285","49","",""
"","","","feedback","","6143e0914f93b50419ba30ab","bdp_rwlrn","Tue Mar 14 2023 00:23:38 GMT-0400 (Eastern Daylight Time)","276559","Untrustworthy,Trustworthy","html-keyboard-response","156","128533","0.0-11.0-3.48","","null","","<div class='respPicDiv'><img src='img/responseButtonOffersNo0_wht.png' class='respPic'></div><div class='trialDiv'><img src='Fruit/watermelon.png'><br><font class='baseline'><strong>Watermelon Win$</strong><p><strong><font class='posOutcome'>You WON</font><p>You bet: 3</strong></font> &nbsp; &nbsp; &nbsp; &nbsp; &nbsp; &nbsp;<font class='posOutcome'>you receive: <strong>6</strong></font></div>","null","17","Watermelon Win$","Fruit/watermelon.png","Won","0.35,0.65","13","0.35","291","49","",""
"","","","decision","","6143e0914f93b50419ba30ab","bdp_rwlrn","Tue Mar 14 2023 00:23:38 GMT-0400 (Eastern Daylight Time)","276559","Untrustworthy,Trustworthy","html-keyboard-response","157","128745","0.0-11.0-1.49","","211","","<div class='trialDiv'><img src='Fruit/melon.png'><br><font class='baseline'><strong>Melon Millions</strong><p>Choose number of points to bet.</font><div class='respPicDiv'><img src='img/responseButtonOffersNo0L.png' class='respPic'></div></div>","4","17","Melon Millions","Fruit/melon.png","Won","0.35,0.8","8","0.35","296","50","",""
"","","","decisionFB","","6143e0914f93b50419ba30ab","bdp_rwlrn","Tue Mar 14 2023 00:23:38 GMT-0400 (Eastern Daylight Time)","276559","Untrustworthy,Trustworthy","html-keyboard-response","158","128996","0.0-11.0-2.49","","null","","<div class='trialDiv'><img src='Fruit/melon.png'><br><font class='baseline'><strong>Melon Millions</strong><p>Choose number of points to bet.</font><div class='respPicDiv'><img src='img/responseButtonOffersNo0L4.png' class='respPic'></div></div>","null","17","Melon Millions","Fruit/melon.png","Won","0.35,0.8","8","0.35","292","50","",""
"","","","feedback","","6143e0914f93b50419ba30ab","bdp_rwlrn","Tue Mar 14 2023 00:23:38 GMT-0400 (Eastern Daylight Time)","276559","Untrustworthy,Trustworthy","html-keyboard-response","159","129998","0.0-11.0-3.49","","null","","<div class='respPicDiv'><img src='img/responseButtonOffersNo0_wht.png' class='respPic'></div><div class='trialDiv'><img src='Fruit/melon.png'><br><font class='baseline'><strong>Melon Millions</strong><p><strong><font class='posOutcome'>You WON</font><p>You bet: 4</strong></font> &nbsp; &nbsp; &nbsp; &nbsp; &nbsp; &nbsp;<font class='posOutcome'>you receive: <strong>8</strong></font></div>","null","17","Melon Millions","Fruit/melon.png","Won","0.35,0.8","8","0.35","300","50","",""
"","","","decision","","6143e0914f93b50419ba30ab","bdp_rwlrn","Tue Mar 14 2023 00:23:38 GMT-0400 (Eastern Daylight Time)","276559","Untrustworthy,Trustworthy","html-keyboard-response","160","130069","0.0-11.0-1.50","","71","","<div class='trialDiv'><img src='Fruit/mango.png'><br><font class='baseline'><strong>Mega Mangos</strong><p>Choose number of points to bet.</font><div class='respPicDiv'><img src='img/responseButtonOffersNo0L.png' class='respPic'></div></div>","1","17","Mega Mangos","Fruit/mango.png","Lost","0.8,0.35","12","0.8","305","51","",""
"","","","decisionFB","","6143e0914f93b50419ba30ab","bdp_rwlrn","Tue Mar 14 2023 00:23:38 GMT-0400 (Eastern Daylight Time)","276559","Untrustworthy,Trustworthy","html-keyboard-response","161","130321","0.0-11.0-2.50","","null","","<div class='trialDiv'><img src='Fruit/mango.png'><br><font class='baseline'><strong>Mega Mangos</strong><p>Choose number of points to bet.</font><div class='respPicDiv'><img src='img/responseButtonOffersNo0L1.png' class='respPic'></div></div>","null","17","Mega Mangos","Fruit/mango.png","Lost","0.8,0.35","12","0.8","304","51","",""
