"event","trial","time","trialtype","subject_id","task","startTime","totalTime","labels","trial_type","trial_index","time_elapsed","internal_node_id","view_history","rt","success","stimulus","key_press","ltround","name","fileID","outcome","lottotype","lottoswpt","lottocurrpshare","point_total","round","faceID","face"
"focus","0","0","focusevent","63d80b500adef5b476e289a4","bdp_rwlrn","Mon Mar 13 2023 14:29:20 GMT-0400 (Eastern Daylight Time)","349970","Trustworthy,Untrustworthy","","","","","","","","","","","","","","","","","","","",""
"","","","","63d80b500adef5b476e289a4","bdp_rwlrn","Mon Mar 13 2023 14:29:20 GMT-0400 (Eastern Daylight Time)","349970","Trustworthy,Untrustworthy","pavlovia","0","3","0.0-0.0","","","","","","","","","","","","","","","",""
"","","","","63d80b500adef5b476e289a4","bdp_rwlrn","Mon Mar 13 2023 14:29:20 GMT-0400 (Eastern Daylight Time)","349970","Trustworthy,Untrustworthy","instructions","1","5132","0.0-1.0","[{""page_index"":0,""viewing_time"":5128}]","5129","","","","","","","","","","","","","",""
"fullscreenexit","2","8567","fullscreenexit","63d80b500adef5b476e289a4","bdp_rwlrn","Mon Mar 13 2023 14:29:20 GMT-0400 (Eastern Daylight Time)","349970","Trustworthy,Untrustworthy","","","","","","","","","","","","","","","","","","","",""
"","","","","63d80b500adef5b476e289a4","bdp_rwlrn","Mon Mar 13 2023 14:29:20 GMT-0400 (Eastern Daylight Time)","349970","Trustworthy,Untrustworthy","fullscreen","2","9321","0.0-2.0","","","true","","","","","","","","","","","","",""
"","","","fullscreenfail","63d80b500adef5b476e289a4","bdp_rwlrn","Mon Mar 13 2023 14:29:20 GMT-0400 (Eastern Daylight Time)","349970","Trustworthy,Untrustworthy","image-keyboard-response","3","13044","0.0-3.0-0.0","","3719","","","32","","","","","","","","","","",""
"","","","","63d80b500adef5b476e289a4","bdp_rwlrn","Mon Mar 13 2023 14:29:20 GMT-0400 (Eastern Daylight Time)","349970","Trustworthy,Untrustworthy","instructions","4","68275","0.0-4.0","[{""page_index"":0,""viewing_time"":5894},{""page_index"":1,""viewing_time"":12750},{""page_index"":2,""viewing_time"":7487},{""page_index"":3,""viewing_time"":6188},{""page_index"":4,""viewing_time"":20390},{""page_index"":5,""viewing_time"":2269}]","54978","","","","","","","","","","","","","",""
"","","","","63d80b500adef5b476e289a4","bdp_rwlrn","Mon Mar 13 2023 14:29:20 GMT-0400 (Eastern Daylight Time)","349970","Trustworthy,Untrustworthy","html-keyboard-response","5","75218","0.0-5.0","","6941","","<div class='header' style='text-align:left; position: absolute; top: 5%; left: 5%;'><small>Task 1 of 5</small></div><div class='instruxDiv'><p><strong>1) What is the maximum number of points you can choose to bet on a lottery?</strong></p><p>a) 0</p><p>b) 1</p><p>c) 5</p>","C","","","","","","","","","","",""
"","","","","63d80b500adef5b476e289a4","bdp_rwlrn","Mon Mar 13 2023 14:29:20 GMT-0400 (Eastern Daylight Time)","349970","Trustworthy,Untrustworthy","html-keyboard-response","6","77554","0.0-6.0","","2230","","<div class='header' style='text-align:left; position: absolute; top: 5%; left: 5%;'><small>Task 1 of 5</small></div><div class='instruxDiv'><p><strong>1) What is the maximum number of points you can choose to bet on a lottery?</strong></p><p>a) 1</p><p>b) 1</p><p style='color:#00FF00'>c) 5</p><h3 style='color:#00FF00'>Correct!</h3><h3 class='center-content'>The correct response is c).</h3><h3 class='center-content'>The maximum number of points you can choose to bet on a lottery is 5 points.</h3><p><em>Press SPACEBAR to continue</em></p></div>"," ","","","","","","","","","","",""
"","","","","63d80b500adef5b476e289a4","bdp_rwlrn","Mon Mar 13 2023 14:29:20 GMT-0400 (Eastern Daylight Time)","349970","Trustworthy,Untrustworthy","html-keyboard-response","7","83646","0.0-7.0","","5989","","<div class='header' style='text-align:left; position: absolute; top: 5%; left: 5%;'><small>Task 1 of 5</small></div><div class='instruxDiv'><p><strong>2) How many points can you win each round?</strong></p><p>a) 10 points</p><p>b) Double what you bet</p><p>c) Quadruple what you bet</p>","B","","","","","","","","","","",""
"","","","","63d80b500adef5b476e289a4","bdp_rwlrn","Mon Mar 13 2023 14:29:20 GMT-0400 (Eastern Daylight Time)","349970","Trustworthy,Untrustworthy","html-keyboard-response","8","84655","0.0-8.0","","907","","<div class='header' style='text-align:left; position: absolute; top: 5%; left: 5%;'><small>Task 1 of 5</small></div><div class='instruxDiv'><p><strong>2) How many points can you win each round?</strong></p><p>a) 10 points</p><p style='color:#00FF00'>b) Double what you bet</p><p>c) Quadruple what you bet</p><h3 style='color:#00FF00'>Correct!</h3><h3 class='center-content'>The correct response is b).</h3><h3 class='center-content'>You can win double the amount of points you bet.</h3><p><em>Press SPACEBAR to continue</em></p></div>"," ","","","","","","","","","","",""
"","","","","63d80b500adef5b476e289a4","bdp_rwlrn","Mon Mar 13 2023 14:29:20 GMT-0400 (Eastern Daylight Time)","349970","Trustworthy,Untrustworthy","html-keyboard-response","9","89762","0.0-9.0","","null","","<div class='header' style='text-align:left; position: absolute; top: 5%; left: 5%;'><small>Task 1 of 5</small></div><div class='instruxDiv'><p>Thank you for completing the quiz<p>These are the actual lotteries you will be playing in the next block:<p><div class='tc' align='center'><img class='introPic' src='Fruit/apple.png'><br><strong>Awesome Apples</strong></div><div class='bl' align='center'><img class='introPic' src='Fruit/papayas.png'><br><strong>Papaya Payday</strong></div><div class='br' align='center'><img class='introPic' src='Fruit/mixed-berries2.png'><br><strong>Berry Bla$t</strong></div></div><p>Across <strong>66 rounds</strong> you will play each lottery <strong>22 times</strong> (in random order).<p style='align:center; color:white'><font <em>Press SPACEBAR to continue</em></p>","null","","","","","","","","","","",""
"","","","","63d80b500adef5b476e289a4","bdp_rwlrn","Mon Mar 13 2023 14:29:20 GMT-0400 (Eastern Daylight Time)","349970","Trustworthy,Untrustworthy","instructions","10","91918","0.0-10.0","[{""page_index"":0,""viewing_time"":1000},{""page_index"":1,""viewing_time"":1155}]","2155","","","","","","","","","","","","","",""
"","","","decision","63d80b500adef5b476e289a4","bdp_rwlrn","Mon Mar 13 2023 14:29:20 GMT-0400 (Eastern Daylight Time)","349970","Trustworthy,Untrustworthy","html-keyboard-response","11","96001","0.0-11.0-1.0","","3977","","<div class='trialDiv'><img src='Fruit/mixed-berries2.png'><br><font class='baseline'><strong>Berry Bla$t</strong><p>Choose number of points to bet.</font><div class='respPicDiv'><img src='img/responseButtonOffersNo0L.png' class='respPic'></div></div>","5","1","Berry Bla$t","Fruit/mixed-berries2.png","Lost","0.2,0.65","12","0.2","5","1","",""
"","","","decisionFB","63d80b500adef5b476e289a4","bdp_rwlrn","Mon Mar 13 2023 14:29:20 GMT-0400 (Eastern Daylight Time)","349970","Trustworthy,Untrustworthy","html-keyboard-response","12","96257","0.0-11.0-2.0","","null","","<div class='trialDiv'><img src='Fruit/mixed-berries2.png'><br><font class='baseline'><strong>Berry Bla$t</strong><p>Choose number of points to bet.</font><div class='respPicDiv'><img src='img/responseButtonOffersNo0L5.png' class='respPic'></div></div>","null","1","Berry Bla$t","Fruit/mixed-berries2.png","Lost","0.2,0.65","12","0.2","0","1","",""
"","","","feedback","63d80b500adef5b476e289a4","bdp_rwlrn","Mon Mar 13 2023 14:29:20 GMT-0400 (Eastern Daylight Time)","349970","Trustworthy,Untrustworthy","html-keyboard-response","13","97263","0.0-11.0-3.0","","null","","<div class='respPicDiv'><img src='img/responseButtonOffersNo0_wht.png' class='respPic'></div><div class='trialDiv'><img src='Fruit/mixed-berries2.png'><br><font class='baseline'><strong>Berry Bla$t</strong><p><strong><font class='negOutcome'>You LOST</font><p>You bet: 5</strong></font> &nbsp; &nbsp; &nbsp; &nbsp; &nbsp; &nbsp;<font class='negOutcome'>You receive: <strong>0</strong></font></div>","null","1","Berry Bla$t","Fruit/mixed-berries2.png","Lost","0.2,0.65","12","0.2","0","1","",""
"","","","decision","63d80b500adef5b476e289a4","bdp_rwlrn","Mon Mar 13 2023 14:29:20 GMT-0400 (Eastern Daylight Time)","349970","Trustworthy,Untrustworthy","html-keyboard-response","14","98052","0.0-11.0-1.1","","787","","<div class='trialDiv'><img src='Fruit/apple.png'><br><font class='baseline'><strong>Awesome Apples</strong><p>Choose number of points to bet.</font><div class='respPicDiv'><img src='img/responseButtonOffersNo0L.png' class='respPic'></div></div>","5","1","Awesome Apples","Fruit/apple.png","Won","0.8,0.35","9","0.8","5","2","",""
"","","","decisionFB","63d80b500adef5b476e289a4","bdp_rwlrn","Mon Mar 13 2023 14:29:20 GMT-0400 (Eastern Daylight Time)","349970","Trustworthy,Untrustworthy","html-keyboard-response","15","98308","0.0-11.0-2.1","","null","","<div class='trialDiv'><img src='Fruit/apple.png'><br><font class='baseline'><strong>Awesome Apples</strong><p>Choose number of points to bet.</font><div class='respPicDiv'><img src='img/responseButtonOffersNo0L5.png' class='respPic'></div></div>","null","1","Awesome Apples","Fruit/apple.png","Won","0.8,0.35","9","0.8","0","2","",""
"","","","feedback","63d80b500adef5b476e289a4","bdp_rwlrn","Mon Mar 13 2023 14:29:20 GMT-0400 (Eastern Daylight Time)","349970","Trustworthy,Untrustworthy","html-keyboard-response","16","99311","0.0-11.0-3.1","","null","","<div class='respPicDiv'><img src='img/responseButtonOffersNo0_wht.png' class='respPic'></div><div class='trialDiv'><img src='Fruit/apple.png'><br><font class='baseline'><strong>Awesome Apples</strong><p><strong><font class='posOutcome'>You WON</font><p>You bet: 5</strong></font> &nbsp; &nbsp; &nbsp; &nbsp; &nbsp; &nbsp;<font class='posOutcome'>you receive: <strong>10</strong></font></div>","null","1","Awesome Apples","Fruit/apple.png","Won","0.8,0.35","9","0.8","10","2","",""
"","","","decision","63d80b500adef5b476e289a4","bdp_rwlrn","Mon Mar 13 2023 14:29:20 GMT-0400 (Eastern Daylight Time)","349970","Trustworthy,Untrustworthy","html-keyboard-response","17","99723","0.0-11.0-1.2","","409","","<div class='trialDiv'><img src='Fruit/papayas.png'><br><font class='baseline'><strong>Papaya Payday</strong><p>Choose number of points to bet.</font><div class='respPicDiv'><img src='img/responseButtonOffersNo0L.png' class='respPic'></div></div>","5","1","Papaya Payday","Fruit/papayas.png","Lost","0.2,0.8","13","0.2","15","3","",""
"","","","decisionFB","63d80b500adef5b476e289a4","bdp_rwlrn","Mon Mar 13 2023 14:29:20 GMT-0400 (Eastern Daylight Time)","349970","Trustworthy,Untrustworthy","html-keyboard-response","18","99978","0.0-11.0-2.2","","null","","<div class='trialDiv'><img src='Fruit/papayas.png'><br><font class='baseline'><strong>Papaya Payday</strong><p>Choose number of points to bet.</font><div class='respPicDiv'><img src='img/responseButtonOffersNo0L5.png' class='respPic'></div></div>","null","1","Papaya Payday","Fruit/papayas.png","Lost","0.2,0.8","13","0.2","10","3","",""
"","","","feedback","63d80b500adef5b476e289a4","bdp_rwlrn","Mon Mar 13 2023 14:29:20 GMT-0400 (Eastern Daylight Time)","349970","Trustworthy,Untrustworthy","html-keyboard-response","19","100984","0.0-11.0-3.2","","null","","<div class='respPicDiv'><img src='img/responseButtonOffersNo0_wht.png' class='respPic'></div><div class='trialDiv'><img src='Fruit/papayas.png'><br><font class='baseline'><strong>Papaya Payday</strong><p><strong><font class='negOutcome'>You LOST</font><p>You bet: 5</strong></font> &nbsp; &nbsp; &nbsp; &nbsp; &nbsp; &nbsp;<font class='negOutcome'>You receive: <strong>0</strong></font></div>","null","1","Papaya Payday","Fruit/papayas.png","Lost","0.2,0.8","13","0.2","10","3","",""
"","","","decision","63d80b500adef5b476e289a4","bdp_rwlrn","Mon Mar 13 2023 14:29:20 GMT-0400 (Eastern Daylight Time)","349970","Trustworthy,Untrustworthy","html-keyboard-response","20","101382","0.0-11.0-1.3","","394","","<div class='trialDiv'><img src='Fruit/mixed-berries2.png'><br><font class='baseline'><strong>Berry Bla$t</strong><p>Choose number of points to bet.</font><div class='respPicDiv'><img src='img/responseButtonOffersNo0L.png' class='respPic'></div></div>","5","2","Berry Bla$t","Fruit/mixed-berries2.png","Lost","0.2,0.65","12","0.2","15","4","",""
"","","","decisionFB","63d80b500adef5b476e289a4","bdp_rwlrn","Mon Mar 13 2023 14:29:20 GMT-0400 (Eastern Daylight Time)","349970","Trustworthy,Untrustworthy","html-keyboard-response","21","101638","0.0-11.0-2.3","","null","","<div class='trialDiv'><img src='Fruit/mixed-berries2.png'><br><font class='baseline'><strong>Berry Bla$t</strong><p>Choose number of points to bet.</font><div class='respPicDiv'><img src='img/responseButtonOffersNo0L5.png' class='respPic'></div></div>","null","2","Berry Bla$t","Fruit/mixed-berries2.png","Lost","0.2,0.65","12","0.2","10","4","",""
"","","","feedback","63d80b500adef5b476e289a4","bdp_rwlrn","Mon Mar 13 2023 14:29:20 GMT-0400 (Eastern Daylight Time)","349970","Trustworthy,Untrustworthy","html-keyboard-response","22","102644","0.0-11.0-3.3","","null","","<div class='respPicDiv'><img src='img/responseButtonOffersNo0_wht.png' class='respPic'></div><div class='trialDiv'><img src='Fruit/mixed-berries2.png'><br><font class='baseline'><strong>Berry Bla$t</strong><p><strong><font class='negOutcome'>You LOST</font><p>You bet: 5</strong></font> &nbsp; &nbsp; &nbsp; &nbsp; &nbsp; &nbsp;<font class='negOutcome'>You receive: <strong>0</strong></font></div>","null","2","Berry Bla$t","Fruit/mixed-berries2.png","Lost","0.2,0.65","12","0.2","10","4","",""
"","","","decision","63d80b500adef5b476e289a4","bdp_rwlrn","Mon Mar 13 2023 14:29:20 GMT-0400 (Eastern Daylight Time)","349970","Trustworthy,Untrustworthy","html-keyboard-response","23","102972","0.0-11.0-1.4","","328","","<div class='trialDiv'><img src='Fruit/apple.png'><br><font class='baseline'><strong>Awesome Apples</strong><p>Choose number of points to bet.</font><div class='respPicDiv'><img src='img/responseButtonOffersNo0L.png' class='respPic'></div></div>","5","2","Awesome Apples","Fruit/apple.png","Won","0.8,0.35","9","0.8","15","5","",""
"","","","decisionFB","63d80b500adef5b476e289a4","bdp_rwlrn","Mon Mar 13 2023 14:29:20 GMT-0400 (Eastern Daylight Time)","349970","Trustworthy,Untrustworthy","html-keyboard-response","24","103225","0.0-11.0-2.4","","null","","<div class='trialDiv'><img src='Fruit/apple.png'><br><font class='baseline'><strong>Awesome Apples</strong><p>Choose number of points to bet.</font><div class='respPicDiv'><img src='img/responseButtonOffersNo0L5.png' class='respPic'></div></div>","null","2","Awesome Apples","Fruit/apple.png","Won","0.8,0.35","9","0.8","10","5","",""
"","","","feedback","63d80b500adef5b476e289a4","bdp_rwlrn","Mon Mar 13 2023 14:29:20 GMT-0400 (Eastern Daylight Time)","349970","Trustworthy,Untrustworthy","html-keyboard-response","25","104231","0.0-11.0-3.4","","null","","<div class='respPicDiv'><img src='img/responseButtonOffersNo0_wht.png' class='respPic'></div><div class='trialDiv'><img src='Fruit/apple.png'><br><font class='baseline'><strong>Awesome Apples</strong><p><strong><font class='posOutcome'>You WON</font><p>You bet: 5</strong></font> &nbsp; &nbsp; &nbsp; &nbsp; &nbsp; &nbsp;<font class='posOutcome'>you receive: <strong>10</strong></font></div>","null","2","Awesome Apples","Fruit/apple.png","Won","0.8,0.35","9","0.8","20","5","",""
"","","","decision","63d80b500adef5b476e289a4","bdp_rwlrn","Mon Mar 13 2023 14:29:20 GMT-0400 (Eastern Daylight Time)","349970","Trustworthy,Untrustworthy","html-keyboard-response","26","104609","0.0-11.0-1.5","","378","","<div class='trialDiv'><img src='Fruit/papayas.png'><br><font class='baseline'><strong>Papaya Payday</strong><p>Choose number of points to bet.</font><div class='respPicDiv'><img src='img/responseButtonOffersNo0L.png' class='respPic'></div></div>","5","2","Papaya Payday","Fruit/papayas.png","Lost","0.2,0.8","13","0.2","25","6","",""
"","","","decisionFB","63d80b500adef5b476e289a4","bdp_rwlrn","Mon Mar 13 2023 14:29:20 GMT-0400 (Eastern Daylight Time)","349970","Trustworthy,Untrustworthy","html-keyboard-response","27","104865","0.0-11.0-2.5","","null","","<div class='trialDiv'><img src='Fruit/papayas.png'><br><font class='baseline'><strong>Papaya Payday</strong><p>Choose number of points to bet.</font><div class='respPicDiv'><img src='img/responseButtonOffersNo0L5.png' class='respPic'></div></div>","null","2","Papaya Payday","Fruit/papayas.png","Lost","0.2,0.8","13","0.2","20","6","",""
"","","","feedback","63d80b500adef5b476e289a4","bdp_rwlrn","Mon Mar 13 2023 14:29:20 GMT-0400 (Eastern Daylight Time)","349970","Trustworthy,Untrustworthy","html-keyboard-response","28","105871","0.0-11.0-3.5","","null","","<div class='respPicDiv'><img src='img/responseButtonOffersNo0_wht.png' class='respPic'></div><div class='trialDiv'><img src='Fruit/papayas.png'><br><font class='baseline'><strong>Papaya Payday</strong><p><strong><font class='negOutcome'>You LOST</font><p>You bet: 5</strong></font> &nbsp; &nbsp; &nbsp; &nbsp; &nbsp; &nbsp;<font class='negOutcome'>You receive: <strong>0</strong></font></div>","null","2","Papaya Payday","Fruit/papayas.png","Lost","0.2,0.8","13","0.2","20","6","",""
"","","","decision","63d80b500adef5b476e289a4","bdp_rwlrn","Mon Mar 13 2023 14:29:20 GMT-0400 (Eastern Daylight Time)","349970","Trustworthy,Untrustworthy","html-keyboard-response","29","106223","0.0-11.0-1.6","","351","","<div class='trialDiv'><img src='Fruit/apple.png'><br><font class='baseline'><strong>Awesome Apples</strong><p>Choose number of points to bet.</font><div class='respPicDiv'><img src='img/responseButtonOffersNo0L.png' class='respPic'></div></div>","5","3","Awesome Apples","Fruit/apple.png","Won","0.8,0.35","9","0.8","25","7","",""
"","","","decisionFB","63d80b500adef5b476e289a4","bdp_rwlrn","Mon Mar 13 2023 14:29:20 GMT-0400 (Eastern Daylight Time)","349970","Trustworthy,Untrustworthy","html-keyboard-response","30","106479","0.0-11.0-2.6","","null","","<div class='trialDiv'><img src='Fruit/apple.png'><br><font class='baseline'><strong>Awesome Apples</strong><p>Choose number of points to bet.</font><div class='respPicDiv'><img src='img/responseButtonOffersNo0L5.png' class='respPic'></div></div>","null","3","Awesome Apples","Fruit/apple.png","Won","0.8,0.35","9","0.8","20","7","",""
"","","","feedback","63d80b500adef5b476e289a4","bdp_rwlrn","Mon Mar 13 2023 14:29:20 GMT-0400 (Eastern Daylight Time)","349970","Trustworthy,Untrustworthy","html-keyboard-response","31","107486","0.0-11.0-3.6","","null","","<div class='respPicDiv'><img src='img/responseButtonOffersNo0_wht.png' class='respPic'></div><div class='trialDiv'><img src='Fruit/apple.png'><br><font class='baseline'><strong>Awesome Apples</strong><p><strong><font class='posOutcome'>You WON</font><p>You bet: 5</strong></font> &nbsp; &nbsp; &nbsp; &nbsp; &nbsp; &nbsp;<font class='posOutcome'>you receive: <strong>10</strong></font></div>","null","3","Awesome Apples","Fruit/apple.png","Won","0.8,0.35","9","0.8","30","7","",""
"","","","decision","63d80b500adef5b476e289a4","bdp_rwlrn","Mon Mar 13 2023 14:29:20 GMT-0400 (Eastern Daylight Time)","349970","Trustworthy,Untrustworthy","html-keyboard-response","32","107810","0.0-11.0-1.7","","323","","<div class='trialDiv'><img src='Fruit/papayas.png'><br><font class='baseline'><strong>Papaya Payday</strong><p>Choose number of points to bet.</font><div class='respPicDiv'><img src='img/responseButtonOffersNo0L.png' class='respPic'></div></div>","5","3","Papaya Payday","Fruit/papayas.png","Lost","0.2,0.8","13","0.2","35","8","",""
"","","","decisionFB","63d80b500adef5b476e289a4","bdp_rwlrn","Mon Mar 13 2023 14:29:20 GMT-0400 (Eastern Daylight Time)","349970","Trustworthy,Untrustworthy","html-keyboard-response","33","108063","0.0-11.0-2.7","","null","","<div class='trialDiv'><img src='Fruit/papayas.png'><br><font class='baseline'><strong>Papaya Payday</strong><p>Choose number of points to bet.</font><div class='respPicDiv'><img src='img/responseButtonOffersNo0L5.png' class='respPic'></div></div>","null","3","Papaya Payday","Fruit/papayas.png","Lost","0.2,0.8","13","0.2","30","8","",""
"","","","feedback","63d80b500adef5b476e289a4","bdp_rwlrn","Mon Mar 13 2023 14:29:20 GMT-0400 (Eastern Daylight Time)","349970","Trustworthy,Untrustworthy","html-keyboard-response","34","109070","0.0-11.0-3.7","","null","","<div class='respPicDiv'><img src='img/responseButtonOffersNo0_wht.png' class='respPic'></div><div class='trialDiv'><img src='Fruit/papayas.png'><br><font class='baseline'><strong>Papaya Payday</strong><p><strong><font class='negOutcome'>You LOST</font><p>You bet: 5</strong></font> &nbsp; &nbsp; &nbsp; &nbsp; &nbsp; &nbsp;<font class='negOutcome'>You receive: <strong>0</strong></font></div>","null","3","Papaya Payday","Fruit/papayas.png","Lost","0.2,0.8","13","0.2","30","8","",""
"","","","decision","63d80b500adef5b476e289a4","bdp_rwlrn","Mon Mar 13 2023 14:29:20 GMT-0400 (Eastern Daylight Time)","349970","Trustworthy,Untrustworthy","html-keyboard-response","35","109408","0.0-11.0-1.8","","336","","<div class='trialDiv'><img src='Fruit/mixed-berries2.png'><br><font class='baseline'><strong>Berry Bla$t</strong><p>Choose number of points to bet.</font><div class='respPicDiv'><img src='img/responseButtonOffersNo0L.png' class='respPic'></div></div>","5","3","Berry Bla$t","Fruit/mixed-berries2.png","Lost","0.2,0.65","12","0.2","35","9","",""
"","","","decisionFB","63d80b500adef5b476e289a4","bdp_rwlrn","Mon Mar 13 2023 14:29:20 GMT-0400 (Eastern Daylight Time)","349970","Trustworthy,Untrustworthy","html-keyboard-response","36","109664","0.0-11.0-2.8","","null","","<div class='trialDiv'><img src='Fruit/mixed-berries2.png'><br><font class='baseline'><strong>Berry Bla$t</strong><p>Choose number of points to bet.</font><div class='respPicDiv'><img src='img/responseButtonOffersNo0L5.png' class='respPic'></div></div>","null","3","Berry Bla$t","Fruit/mixed-berries2.png","Lost","0.2,0.65","12","0.2","30","9","",""
"","","","feedback","63d80b500adef5b476e289a4","bdp_rwlrn","Mon Mar 13 2023 14:29:20 GMT-0400 (Eastern Daylight Time)","349970","Trustworthy,Untrustworthy","html-keyboard-response","37","110670","0.0-11.0-3.8","","null","","<div class='respPicDiv'><img src='img/responseButtonOffersNo0_wht.png' class='respPic'></div><div class='trialDiv'><img src='Fruit/mixed-berries2.png'><br><font class='baseline'><strong>Berry Bla$t</strong><p><strong><font class='negOutcome'>You LOST</font><p>You bet: 5</strong></font> &nbsp; &nbsp; &nbsp; &nbsp; &nbsp; &nbsp;<font class='negOutcome'>You receive: <strong>0</strong></font></div>","null","3","Berry Bla$t","Fruit/mixed-berries2.png","Lost","0.2,0.65","12","0.2","30","9","",""
"","","","decision","63d80b500adef5b476e289a4","bdp_rwlrn","Mon Mar 13 2023 14:29:20 GMT-0400 (Eastern Daylight Time)","349970","Trustworthy,Untrustworthy","html-keyboard-response","38","110915","0.0-11.0-1.9","","243","","<div class='trialDiv'><img src='Fruit/apple.png'><br><font class='baseline'><strong>Awesome Apples</strong><p>Choose number of points to bet.</font><div class='respPicDiv'><img src='img/responseButtonOffersNo0L.png' class='respPic'></div></div>","5","4","Awesome Apples","Fruit/apple.png","Won","0.8,0.35","9","0.8","35","10","",""
"","","","decisionFB","63d80b500adef5b476e289a4","bdp_rwlrn","Mon Mar 13 2023 14:29:20 GMT-0400 (Eastern Daylight Time)","349970","Trustworthy,Untrustworthy","html-keyboard-response","39","111166","0.0-11.0-2.9","","null","","<div class='trialDiv'><img src='Fruit/apple.png'><br><font class='baseline'><strong>Awesome Apples</strong><p>Choose number of points to bet.</font><div class='respPicDiv'><img src='img/responseButtonOffersNo0L5.png' class='respPic'></div></div>","null","4","Awesome Apples","Fruit/apple.png","Won","0.8,0.35","9","0.8","30","10","",""
"","","","feedback","63d80b500adef5b476e289a4","bdp_rwlrn","Mon Mar 13 2023 14:29:20 GMT-0400 (Eastern Daylight Time)","349970","Trustworthy,Untrustworthy","html-keyboard-response","40","112173","0.0-11.0-3.9","","null","","<div class='respPicDiv'><img src='img/responseButtonOffersNo0_wht.png' class='respPic'></div><div class='trialDiv'><img src='Fruit/apple.png'><br><font class='baseline'><strong>Awesome Apples</strong><p><strong><font class='posOutcome'>You WON</font><p>You bet: 5</strong></font> &nbsp; &nbsp; &nbsp; &nbsp; &nbsp; &nbsp;<font class='posOutcome'>you receive: <strong>10</strong></font></div>","null","4","Awesome Apples","Fruit/apple.png","Won","0.8,0.35","9","0.8","40","10","",""
"","","","decision","63d80b500adef5b476e289a4","bdp_rwlrn","Mon Mar 13 2023 14:29:20 GMT-0400 (Eastern Daylight Time)","349970","Trustworthy,Untrustworthy","html-keyboard-response","41","112511","0.0-11.0-1.10","","336","","<div class='trialDiv'><img src='Fruit/mixed-berries2.png'><br><font class='baseline'><strong>Berry Bla$t</strong><p>Choose number of points to bet.</font><div class='respPicDiv'><img src='img/responseButtonOffersNo0L.png' class='respPic'></div></div>","5","4","Berry Bla$t","Fruit/mixed-berries2.png","Lost","0.2,0.65","12","0.2","45","11","",""
"","","","decisionFB","63d80b500adef5b476e289a4","bdp_rwlrn","Mon Mar 13 2023 14:29:20 GMT-0400 (Eastern Daylight Time)","349970","Trustworthy,Untrustworthy","html-keyboard-response","42","112767","0.0-11.0-2.10","","null","","<div class='trialDiv'><img src='Fruit/mixed-berries2.png'><br><font class='baseline'><strong>Berry Bla$t</strong><p>Choose number of points to bet.</font><div class='respPicDiv'><img src='img/responseButtonOffersNo0L5.png' class='respPic'></div></div>","null","4","Berry Bla$t","Fruit/mixed-berries2.png","Lost","0.2,0.65","12","0.2","40","11","",""
"","","","feedback","63d80b500adef5b476e289a4","bdp_rwlrn","Mon Mar 13 2023 14:29:20 GMT-0400 (Eastern Daylight Time)","349970","Trustworthy,Untrustworthy","html-keyboard-response","43","113773","0.0-11.0-3.10","","null","","<div class='respPicDiv'><img src='img/responseButtonOffersNo0_wht.png' class='respPic'></div><div class='trialDiv'><img src='Fruit/mixed-berries2.png'><br><font class='baseline'><strong>Berry Bla$t</strong><p><strong><font class='negOutcome'>You LOST</font><p>You bet: 5</strong></font> &nbsp; &nbsp; &nbsp; &nbsp; &nbsp; &nbsp;<font class='negOutcome'>You receive: <strong>0</strong></font></div>","null","4","Berry Bla$t","Fruit/mixed-berries2.png","Lost","0.2,0.65","12","0.2","40","11","",""
"","","","decision","63d80b500adef5b476e289a4","bdp_rwlrn","Mon Mar 13 2023 14:29:20 GMT-0400 (Eastern Daylight Time)","349970","Trustworthy,Untrustworthy","html-keyboard-response","44","114103","0.0-11.0-1.11","","329","","<div class='trialDiv'><img src='Fruit/papayas.png'><br><font class='baseline'><strong>Papaya Payday</strong><p>Choose number of points to bet.</font><div class='respPicDiv'><img src='img/responseButtonOffersNo0L.png' class='respPic'></div></div>","5","4","Papaya Payday","Fruit/papayas.png","Lost","0.2,0.8","13","0.2","45","12","",""
"","","","decisionFB","63d80b500adef5b476e289a4","bdp_rwlrn","Mon Mar 13 2023 14:29:20 GMT-0400 (Eastern Daylight Time)","349970","Trustworthy,Untrustworthy","html-keyboard-response","45","114356","0.0-11.0-2.11","","null","","<div class='trialDiv'><img src='Fruit/papayas.png'><br><font class='baseline'><strong>Papaya Payday</strong><p>Choose number of points to bet.</font><div class='respPicDiv'><img src='img/responseButtonOffersNo0L5.png' class='respPic'></div></div>","null","4","Papaya Payday","Fruit/papayas.png","Lost","0.2,0.8","13","0.2","40","12","",""
"","","","feedback","63d80b500adef5b476e289a4","bdp_rwlrn","Mon Mar 13 2023 14:29:20 GMT-0400 (Eastern Daylight Time)","349970","Trustworthy,Untrustworthy","html-keyboard-response","46","115360","0.0-11.0-3.11","","null","","<div class='respPicDiv'><img src='img/responseButtonOffersNo0_wht.png' class='respPic'></div><div class='trialDiv'><img src='Fruit/papayas.png'><br><font class='baseline'><strong>Papaya Payday</strong><p><strong><font class='negOutcome'>You LOST</font><p>You bet: 5</strong></font> &nbsp; &nbsp; &nbsp; &nbsp; &nbsp; &nbsp;<font class='negOutcome'>You receive: <strong>0</strong></font></div>","null","4","Papaya Payday","Fruit/papayas.png","Lost","0.2,0.8","13","0.2","40","12","",""
"","","","decision","63d80b500adef5b476e289a4","bdp_rwlrn","Mon Mar 13 2023 14:29:20 GMT-0400 (Eastern Daylight Time)","349970","Trustworthy,Untrustworthy","html-keyboard-response","47","115570","0.0-11.0-1.12","","210","","<div class='trialDiv'><img src='Fruit/apple.png'><br><font class='baseline'><strong>Awesome Apples</strong><p>Choose number of points to bet.</font><div class='respPicDiv'><img src='img/responseButtonOffersNo0L.png' class='respPic'></div></div>","5","5","Awesome Apples","Fruit/apple.png","Won","0.8,0.35","9","0.8","45","13","",""
"","","","decisionFB","63d80b500adef5b476e289a4","bdp_rwlrn","Mon Mar 13 2023 14:29:20 GMT-0400 (Eastern Daylight Time)","349970","Trustworthy,Untrustworthy","html-keyboard-response","48","115823","0.0-11.0-2.12","","null","","<div class='trialDiv'><img src='Fruit/apple.png'><br><font class='baseline'><strong>Awesome Apples</strong><p>Choose number of points to bet.</font><div class='respPicDiv'><img src='img/responseButtonOffersNo0L5.png' class='respPic'></div></div>","null","5","Awesome Apples","Fruit/apple.png","Won","0.8,0.35","9","0.8","40","13","",""
"","","","feedback","63d80b500adef5b476e289a4","bdp_rwlrn","Mon Mar 13 2023 14:29:20 GMT-0400 (Eastern Daylight Time)","349970","Trustworthy,Untrustworthy","html-keyboard-response","49","116829","0.0-11.0-3.12","","null","","<div class='respPicDiv'><img src='img/responseButtonOffersNo0_wht.png' class='respPic'></div><div class='trialDiv'><img src='Fruit/apple.png'><br><font class='baseline'><strong>Awesome Apples</strong><p><strong><font class='posOutcome'>You WON</font><p>You bet: 5</strong></font> &nbsp; &nbsp; &nbsp; &nbsp; &nbsp; &nbsp;<font class='posOutcome'>you receive: <strong>10</strong></font></div>","null","5","Awesome Apples","Fruit/apple.png","Won","0.8,0.35","9","0.8","50","13","",""
"","","","decision","63d80b500adef5b476e289a4","bdp_rwlrn","Mon Mar 13 2023 14:29:20 GMT-0400 (Eastern Daylight Time)","349970","Trustworthy,Untrustworthy","html-keyboard-response","50","117139","0.0-11.0-1.13","","309","","<div class='trialDiv'><img src='Fruit/mixed-berries2.png'><br><font class='baseline'><strong>Berry Bla$t</strong><p>Choose number of points to bet.</font><div class='respPicDiv'><img src='img/responseButtonOffersNo0L.png' class='respPic'></div></div>","5","5","Berry Bla$t","Fruit/mixed-berries2.png","Lost","0.2,0.65","12","0.2","55","14","",""
"","","","decisionFB","63d80b500adef5b476e289a4","bdp_rwlrn","Mon Mar 13 2023 14:29:20 GMT-0400 (Eastern Daylight Time)","349970","Trustworthy,Untrustworthy","html-keyboard-response","51","117389","0.0-11.0-2.13","","null","","<div class='trialDiv'><img src='Fruit/mixed-berries2.png'><br><font class='baseline'><strong>Berry Bla$t</strong><p>Choose number of points to bet.</font><div class='respPicDiv'><img src='img/responseButtonOffersNo0L5.png' class='respPic'></div></div>","null","5","Berry Bla$t","Fruit/mixed-berries2.png","Lost","0.2,0.65","12","0.2","50","14","",""
"","","","feedback","63d80b500adef5b476e289a4","bdp_rwlrn","Mon Mar 13 2023 14:29:20 GMT-0400 (Eastern Daylight Time)","349970","Trustworthy,Untrustworthy","html-keyboard-response","52","118391","0.0-11.0-3.13","","null","","<div class='respPicDiv'><img src='img/responseButtonOffersNo0_wht.png' class='respPic'></div><div class='trialDiv'><img src='Fruit/mixed-berries2.png'><br><font class='baseline'><strong>Berry Bla$t</strong><p><strong><font class='negOutcome'>You LOST</font><p>You bet: 5</strong></font> &nbsp; &nbsp; &nbsp; &nbsp; &nbsp; &nbsp;<font class='negOutcome'>You receive: <strong>0</strong></font></div>","null","5","Berry Bla$t","Fruit/mixed-berries2.png","Lost","0.2,0.65","12","0.2","50","14","",""
"","","","decision","63d80b500adef5b476e289a4","bdp_rwlrn","Mon Mar 13 2023 14:29:20 GMT-0400 (Eastern Daylight Time)","349970","Trustworthy,Untrustworthy","html-keyboard-response","53","118585","0.0-11.0-1.14","","194","","<div class='trialDiv'><img src='Fruit/papayas.png'><br><font class='baseline'><strong>Papaya Payday</strong><p>Choose number of points to bet.</font><div class='respPicDiv'><img src='img/responseButtonOffersNo0L.png' class='respPic'></div></div>","5","5","Papaya Payday","Fruit/papayas.png","Lost","0.2,0.8","13","0.2","55","15","",""
"","","","decisionFB","63d80b500adef5b476e289a4","bdp_rwlrn","Mon Mar 13 2023 14:29:20 GMT-0400 (Eastern Daylight Time)","349970","Trustworthy,Untrustworthy","html-keyboard-response","54","118841","0.0-11.0-2.14","","null","","<div class='trialDiv'><img src='Fruit/papayas.png'><br><font class='baseline'><strong>Papaya Payday</strong><p>Choose number of points to bet.</font><div class='respPicDiv'><img src='img/responseButtonOffersNo0L5.png' class='respPic'></div></div>","null","5","Papaya Payday","Fruit/papayas.png","Lost","0.2,0.8","13","0.2","50","15","",""
"","","","feedback","63d80b500adef5b476e289a4","bdp_rwlrn","Mon Mar 13 2023 14:29:20 GMT-0400 (Eastern Daylight Time)","349970","Trustworthy,Untrustworthy","html-keyboard-response","55","119843","0.0-11.0-3.14","","null","","<div class='respPicDiv'><img src='img/responseButtonOffersNo0_wht.png' class='respPic'></div><div class='trialDiv'><img src='Fruit/papayas.png'><br><font class='baseline'><strong>Papaya Payday</strong><p><strong><font class='negOutcome'>You LOST</font><p>You bet: 5</strong></font> &nbsp; &nbsp; &nbsp; &nbsp; &nbsp; &nbsp;<font class='negOutcome'>You receive: <strong>0</strong></font></div>","null","5","Papaya Payday","Fruit/papayas.png","Lost","0.2,0.8","13","0.2","50","15","",""
"","","","decision","63d80b500adef5b476e289a4","bdp_rwlrn","Mon Mar 13 2023 14:29:20 GMT-0400 (Eastern Daylight Time)","349970","Trustworthy,Untrustworthy","html-keyboard-response","56","120163","0.0-11.0-1.15","","319","","<div class='trialDiv'><img src='Fruit/apple.png'><br><font class='baseline'><strong>Awesome Apples</strong><p>Choose number of points to bet.</font><div class='respPicDiv'><img src='img/responseButtonOffersNo0L.png' class='respPic'></div></div>","5","6","Awesome Apples","Fruit/apple.png","Won","0.8,0.35","9","0.8","55","16","",""
"","","","decisionFB","63d80b500adef5b476e289a4","bdp_rwlrn","Mon Mar 13 2023 14:29:20 GMT-0400 (Eastern Daylight Time)","349970","Trustworthy,Untrustworthy","html-keyboard-response","57","120419","0.0-11.0-2.15","","null","","<div class='trialDiv'><img src='Fruit/apple.png'><br><font class='baseline'><strong>Awesome Apples</strong><p>Choose number of points to bet.</font><div class='respPicDiv'><img src='img/responseButtonOffersNo0L5.png' class='respPic'></div></div>","null","6","Awesome Apples","Fruit/apple.png","Won","0.8,0.35","9","0.8","50","16","",""
"","","","feedback","63d80b500adef5b476e289a4","bdp_rwlrn","Mon Mar 13 2023 14:29:20 GMT-0400 (Eastern Daylight Time)","349970","Trustworthy,Untrustworthy","html-keyboard-response","58","121425","0.0-11.0-3.15","","null","","<div class='respPicDiv'><img src='img/responseButtonOffersNo0_wht.png' class='respPic'></div><div class='trialDiv'><img src='Fruit/apple.png'><br><font class='baseline'><strong>Awesome Apples</strong><p><strong><font class='posOutcome'>You WON</font><p>You bet: 5</strong></font> &nbsp; &nbsp; &nbsp; &nbsp; &nbsp; &nbsp;<font class='posOutcome'>you receive: <strong>10</strong></font></div>","null","6","Awesome Apples","Fruit/apple.png","Won","0.8,0.35","9","0.8","60","16","",""
"","","","decision","63d80b500adef5b476e289a4","bdp_rwlrn","Mon Mar 13 2023 14:29:20 GMT-0400 (Eastern Daylight Time)","349970","Trustworthy,Untrustworthy","html-keyboard-response","59","121803","0.0-11.0-1.16","","377","","<div class='trialDiv'><img src='Fruit/papayas.png'><br><font class='baseline'><strong>Papaya Payday</strong><p>Choose number of points to bet.</font><div class='respPicDiv'><img src='img/responseButtonOffersNo0L.png' class='respPic'></div></div>","5","6","Papaya Payday","Fruit/papayas.png","Lost","0.2,0.8","13","0.2","65","17","",""
"","","","decisionFB","63d80b500adef5b476e289a4","bdp_rwlrn","Mon Mar 13 2023 14:29:20 GMT-0400 (Eastern Daylight Time)","349970","Trustworthy,Untrustworthy","html-keyboard-response","60","122059","0.0-11.0-2.16","","null","","<div class='trialDiv'><img src='Fruit/papayas.png'><br><font class='baseline'><strong>Papaya Payday</strong><p>Choose number of points to bet.</font><div class='respPicDiv'><img src='img/responseButtonOffersNo0L5.png' class='respPic'></div></div>","null","6","Papaya Payday","Fruit/papayas.png","Lost","0.2,0.8","13","0.2","60","17","",""
"","","","feedback","63d80b500adef5b476e289a4","bdp_rwlrn","Mon Mar 13 2023 14:29:20 GMT-0400 (Eastern Daylight Time)","349970","Trustworthy,Untrustworthy","html-keyboard-response","61","123065","0.0-11.0-3.16","","null","","<div class='respPicDiv'><img src='img/responseButtonOffersNo0_wht.png' class='respPic'></div><div class='trialDiv'><img src='Fruit/papayas.png'><br><font class='baseline'><strong>Papaya Payday</strong><p><strong><font class='negOutcome'>You LOST</font><p>You bet: 5</strong></font> &nbsp; &nbsp; &nbsp; &nbsp; &nbsp; &nbsp;<font class='negOutcome'>You receive: <strong>0</strong></font></div>","null","6","Papaya Payday","Fruit/papayas.png","Lost","0.2,0.8","13","0.2","60","17","",""
"","","","decision","63d80b500adef5b476e289a4","bdp_rwlrn","Mon Mar 13 2023 14:29:20 GMT-0400 (Eastern Daylight Time)","349970","Trustworthy,Untrustworthy","html-keyboard-response","62","123433","0.0-11.0-1.17","","367","","<div class='trialDiv'><img src='Fruit/mixed-berries2.png'><br><font class='baseline'><strong>Berry Bla$t</strong><p>Choose number of points to bet.</font><div class='respPicDiv'><img src='img/responseButtonOffersNo0L.png' class='respPic'></div></div>","5","6","Berry Bla$t","Fruit/mixed-berries2.png","Lost","0.2,0.65","12","0.2","65","18","",""
"","","","decisionFB","63d80b500adef5b476e289a4","bdp_rwlrn","Mon Mar 13 2023 14:29:20 GMT-0400 (Eastern Daylight Time)","349970","Trustworthy,Untrustworthy","html-keyboard-response","63","123683","0.0-11.0-2.17","","null","","<div class='trialDiv'><img src='Fruit/mixed-berries2.png'><br><font class='baseline'><strong>Berry Bla$t</strong><p>Choose number of points to bet.</font><div class='respPicDiv'><img src='img/responseButtonOffersNo0L5.png' class='respPic'></div></div>","null","6","Berry Bla$t","Fruit/mixed-berries2.png","Lost","0.2,0.65","12","0.2","60","18","",""
"","","","feedback","63d80b500adef5b476e289a4","bdp_rwlrn","Mon Mar 13 2023 14:29:20 GMT-0400 (Eastern Daylight Time)","349970","Trustworthy,Untrustworthy","html-keyboard-response","64","124690","0.0-11.0-3.17","","null","","<div class='respPicDiv'><img src='img/responseButtonOffersNo0_wht.png' class='respPic'></div><div class='trialDiv'><img src='Fruit/mixed-berries2.png'><br><font class='baseline'><strong>Berry Bla$t</strong><p><strong><font class='negOutcome'>You LOST</font><p>You bet: 5</strong></font> &nbsp; &nbsp; &nbsp; &nbsp; &nbsp; &nbsp;<font class='negOutcome'>You receive: <strong>0</strong></font></div>","null","6","Berry Bla$t","Fruit/mixed-berries2.png","Lost","0.2,0.65","12","0.2","60","18","",""
"","","","decision","63d80b500adef5b476e289a4","bdp_rwlrn","Mon Mar 13 2023 14:29:20 GMT-0400 (Eastern Daylight Time)","349970","Trustworthy,Untrustworthy","html-keyboard-response","65","125052","0.0-11.0-1.18","","361","","<div class='trialDiv'><img src='Fruit/apple.png'><br><font class='baseline'><strong>Awesome Apples</strong><p>Choose number of points to bet.</font><div class='respPicDiv'><img src='img/responseButtonOffersNo0L.png' class='respPic'></div></div>","5","7","Awesome Apples","Fruit/apple.png","Won","0.8,0.35","9","0.8","65","19","",""
"","","","decisionFB","63d80b500adef5b476e289a4","bdp_rwlrn","Mon Mar 13 2023 14:29:20 GMT-0400 (Eastern Daylight Time)","349970","Trustworthy,Untrustworthy","html-keyboard-response","66","125308","0.0-11.0-2.18","","null","","<div class='trialDiv'><img src='Fruit/apple.png'><br><font class='baseline'><strong>Awesome Apples</strong><p>Choose number of points to bet.</font><div class='respPicDiv'><img src='img/responseButtonOffersNo0L5.png' class='respPic'></div></div>","null","7","Awesome Apples","Fruit/apple.png","Won","0.8,0.35","9","0.8","60","19","",""
"","","","feedback","63d80b500adef5b476e289a4","bdp_rwlrn","Mon Mar 13 2023 14:29:20 GMT-0400 (Eastern Daylight Time)","349970","Trustworthy,Untrustworthy","html-keyboard-response","67","126311","0.0-11.0-3.18","","null","","<div class='respPicDiv'><img src='img/responseButtonOffersNo0_wht.png' class='respPic'></div><div class='trialDiv'><img src='Fruit/apple.png'><br><font class='baseline'><strong>Awesome Apples</strong><p><strong><font class='posOutcome'>You WON</font><p>You bet: 5</strong></font> &nbsp; &nbsp; &nbsp; &nbsp; &nbsp; &nbsp;<font class='posOutcome'>you receive: <strong>10</strong></font></div>","null","7","Awesome Apples","Fruit/apple.png","Won","0.8,0.35","9","0.8","70","19","",""
"","","","decision","63d80b500adef5b476e289a4","bdp_rwlrn","Mon Mar 13 2023 14:29:20 GMT-0400 (Eastern Daylight Time)","349970","Trustworthy,Untrustworthy","html-keyboard-response","68","126662","0.0-11.0-1.19","","350","","<div class='trialDiv'><img src='Fruit/mixed-berries2.png'><br><font class='baseline'><strong>Berry Bla$t</strong><p>Choose number of points to bet.</font><div class='respPicDiv'><img src='img/responseButtonOffersNo0L.png' class='respPic'></div></div>","5","7","Berry Bla$t","Fruit/mixed-berries2.png","Lost","0.2,0.65","12","0.2","75","20","",""
"","","","decisionFB","63d80b500adef5b476e289a4","bdp_rwlrn","Mon Mar 13 2023 14:29:20 GMT-0400 (Eastern Daylight Time)","349970","Trustworthy,Untrustworthy","html-keyboard-response","69","126918","0.0-11.0-2.19","","null","","<div class='trialDiv'><img src='Fruit/mixed-berries2.png'><br><font class='baseline'><strong>Berry Bla$t</strong><p>Choose number of points to bet.</font><div class='respPicDiv'><img src='img/responseButtonOffersNo0L5.png' class='respPic'></div></div>","null","7","Berry Bla$t","Fruit/mixed-berries2.png","Lost","0.2,0.65","12","0.2","70","20","",""
"","","","feedback","63d80b500adef5b476e289a4","bdp_rwlrn","Mon Mar 13 2023 14:29:20 GMT-0400 (Eastern Daylight Time)","349970","Trustworthy,Untrustworthy","html-keyboard-response","70","127924","0.0-11.0-3.19","","null","","<div class='respPicDiv'><img src='img/responseButtonOffersNo0_wht.png' class='respPic'></div><div class='trialDiv'><img src='Fruit/mixed-berries2.png'><br><font class='baseline'><strong>Berry Bla$t</strong><p><strong><font class='negOutcome'>You LOST</font><p>You bet: 5</strong></font> &nbsp; &nbsp; &nbsp; &nbsp; &nbsp; &nbsp;<font class='negOutcome'>You receive: <strong>0</strong></font></div>","null","7","Berry Bla$t","Fruit/mixed-berries2.png","Lost","0.2,0.65","12","0.2","70","20","",""
"","","","decision","63d80b500adef5b476e289a4","bdp_rwlrn","Mon Mar 13 2023 14:29:20 GMT-0400 (Eastern Daylight Time)","349970","Trustworthy,Untrustworthy","html-keyboard-response","71","128182","0.0-11.0-1.20","","257","","<div class='trialDiv'><img src='Fruit/papayas.png'><br><font class='baseline'><strong>Papaya Payday</strong><p>Choose number of points to bet.</font><div class='respPicDiv'><img src='img/responseButtonOffersNo0L.png' class='respPic'></div></div>","5","7","Papaya Payday","Fruit/papayas.png","Lost","0.2,0.8","13","0.2","75","21","",""
"","","","decisionFB","63d80b500adef5b476e289a4","bdp_rwlrn","Mon Mar 13 2023 14:29:20 GMT-0400 (Eastern Daylight Time)","349970","Trustworthy,Untrustworthy","html-keyboard-response","72","128439","0.0-11.0-2.20","","null","","<div class='trialDiv'><img src='Fruit/papayas.png'><br><font class='baseline'><strong>Papaya Payday</strong><p>Choose number of points to bet.</font><div class='respPicDiv'><img src='img/responseButtonOffersNo0L5.png' class='respPic'></div></div>","null","7","Papaya Payday","Fruit/papayas.png","Lost","0.2,0.8","13","0.2","70","21","",""
"","","","feedback","63d80b500adef5b476e289a4","bdp_rwlrn","Mon Mar 13 2023 14:29:20 GMT-0400 (Eastern Daylight Time)","349970","Trustworthy,Untrustworthy","html-keyboard-response","73","129444","0.0-11.0-3.20","","null","","<div class='respPicDiv'><img src='img/responseButtonOffersNo0_wht.png' class='respPic'></div><div class='trialDiv'><img src='Fruit/papayas.png'><br><font class='baseline'><strong>Papaya Payday</strong><p><strong><font class='negOutcome'>You LOST</font><p>You bet: 5</strong></font> &nbsp; &nbsp; &nbsp; &nbsp; &nbsp; &nbsp;<font class='negOutcome'>You receive: <strong>0</strong></font></div>","null","7","Papaya Payday","Fruit/papayas.png","Lost","0.2,0.8","13","0.2","70","21","",""
"","","","decision","63d80b500adef5b476e289a4","bdp_rwlrn","Mon Mar 13 2023 14:29:20 GMT-0400 (Eastern Daylight Time)","349970","Trustworthy,Untrustworthy","html-keyboard-response","74","129676","0.0-11.0-1.21","","231","","<div class='trialDiv'><img src='Fruit/apple.png'><br><font class='baseline'><strong>Awesome Apples</strong><p>Choose number of points to bet.</font><div class='respPicDiv'><img src='img/responseButtonOffersNo0L.png' class='respPic'></div></div>","5","8","Awesome Apples","Fruit/apple.png","Won","0.8,0.35","9","0.8","75","22","",""
"","","","decisionFB","63d80b500adef5b476e289a4","bdp_rwlrn","Mon Mar 13 2023 14:29:20 GMT-0400 (Eastern Daylight Time)","349970","Trustworthy,Untrustworthy","html-keyboard-response","75","129932","0.0-11.0-2.21","","null","","<div class='trialDiv'><img src='Fruit/apple.png'><br><font class='baseline'><strong>Awesome Apples</strong><p>Choose number of points to bet.</font><div class='respPicDiv'><img src='img/responseButtonOffersNo0L5.png' class='respPic'></div></div>","null","8","Awesome Apples","Fruit/apple.png","Won","0.8,0.35","9","0.8","70","22","",""
"","","","feedback","63d80b500adef5b476e289a4","bdp_rwlrn","Mon Mar 13 2023 14:29:20 GMT-0400 (Eastern Daylight Time)","349970","Trustworthy,Untrustworthy","html-keyboard-response","76","130935","0.0-11.0-3.21","","null","","<div class='respPicDiv'><img src='img/responseButtonOffersNo0_wht.png' class='respPic'></div><div class='trialDiv'><img src='Fruit/apple.png'><br><font class='baseline'><strong>Awesome Apples</strong><p><strong><font class='posOutcome'>You WON</font><p>You bet: 5</strong></font> &nbsp; &nbsp; &nbsp; &nbsp; &nbsp; &nbsp;<font class='posOutcome'>you receive: <strong>10</strong></font></div>","null","8","Awesome Apples","Fruit/apple.png","Won","0.8,0.35","9","0.8","80","22","",""
"","","","decision","63d80b500adef5b476e289a4","bdp_rwlrn","Mon Mar 13 2023 14:29:20 GMT-0400 (Eastern Daylight Time)","349970","Trustworthy,Untrustworthy","html-keyboard-response","77","131191","0.0-11.0-1.22","","255","","<div class='trialDiv'><img src='Fruit/papayas.png'><br><font class='baseline'><strong>Papaya Payday</strong><p>Choose number of points to bet.</font><div class='respPicDiv'><img src='img/responseButtonOffersNo0L.png' class='respPic'></div></div>","5","8","Papaya Payday","Fruit/papayas.png","Won","0.2,0.8","13","0.2","85","23","",""
"","","","decisionFB","63d80b500adef5b476e289a4","bdp_rwlrn","Mon Mar 13 2023 14:29:20 GMT-0400 (Eastern Daylight Time)","349970","Trustworthy,Untrustworthy","html-keyboard-response","78","131447","0.0-11.0-2.22","","null","","<div class='trialDiv'><img src='Fruit/papayas.png'><br><font class='baseline'><strong>Papaya Payday</strong><p>Choose number of points to bet.</font><div class='respPicDiv'><img src='img/responseButtonOffersNo0L5.png' class='respPic'></div></div>","null","8","Papaya Payday","Fruit/papayas.png","Won","0.2,0.8","13","0.2","80","23","",""
"","","","feedback","63d80b500adef5b476e289a4","bdp_rwlrn","Mon Mar 13 2023 14:29:20 GMT-0400 (Eastern Daylight Time)","349970","Trustworthy,Untrustworthy","html-keyboard-response","79","132451","0.0-11.0-3.22","","null","","<div class='respPicDiv'><img src='img/responseButtonOffersNo0_wht.png' class='respPic'></div><div class='trialDiv'><img src='Fruit/papayas.png'><br><font class='baseline'><strong>Papaya Payday</strong><p><strong><font class='posOutcome'>You WON</font><p>You bet: 5</strong></font> &nbsp; &nbsp; &nbsp; &nbsp; &nbsp; &nbsp;<font class='posOutcome'>you receive: <strong>10</strong></font></div>","null","8","Papaya Payday","Fruit/papayas.png","Won","0.2,0.8","13","0.2","90","23","",""
"","","","decision","63d80b500adef5b476e289a4","bdp_rwlrn","Mon Mar 13 2023 14:29:20 GMT-0400 (Eastern Daylight Time)","349970","Trustworthy,Untrustworthy","html-keyboard-response","80","132672","0.0-11.0-1.23","","220","","<div class='trialDiv'><img src='Fruit/mixed-berries2.png'><br><font class='baseline'><strong>Berry Bla$t</strong><p>Choose number of points to bet.</font><div class='respPicDiv'><img src='img/responseButtonOffersNo0L.png' class='respPic'></div></div>","5","8","Berry Bla$t","Fruit/mixed-berries2.png","Lost","0.2,0.65","12","0.2","95","24","",""
"","","","decisionFB","63d80b500adef5b476e289a4","bdp_rwlrn","Mon Mar 13 2023 14:29:20 GMT-0400 (Eastern Daylight Time)","349970","Trustworthy,Untrustworthy","html-keyboard-response","81","132928","0.0-11.0-2.23","","null","","<div class='trialDiv'><img src='Fruit/mixed-berries2.png'><br><font class='baseline'><strong>Berry Bla$t</strong><p>Choose number of points to bet.</font><div class='respPicDiv'><img src='img/responseButtonOffersNo0L5.png' class='respPic'></div></div>","null","8","Berry Bla$t","Fruit/mixed-berries2.png","Lost","0.2,0.65","12","0.2","90","24","",""
"","","","feedback","63d80b500adef5b476e289a4","bdp_rwlrn","Mon Mar 13 2023 14:29:20 GMT-0400 (Eastern Daylight Time)","349970","Trustworthy,Untrustworthy","html-keyboard-response","82","133933","0.0-11.0-3.23","","null","","<div class='respPicDiv'><img src='img/responseButtonOffersNo0_wht.png' class='respPic'></div><div class='trialDiv'><img src='Fruit/mixed-berries2.png'><br><font class='baseline'><strong>Berry Bla$t</strong><p><strong><font class='negOutcome'>You LOST</font><p>You bet: 5</strong></font> &nbsp; &nbsp; &nbsp; &nbsp; &nbsp; &nbsp;<font class='negOutcome'>You receive: <strong>0</strong></font></div>","null","8","Berry Bla$t","Fruit/mixed-berries2.png","Lost","0.2,0.65","12","0.2","90","24","",""
"","","","decision","63d80b500adef5b476e289a4","bdp_rwlrn","Mon Mar 13 2023 14:29:20 GMT-0400 (Eastern Daylight Time)","349970","Trustworthy,Untrustworthy","html-keyboard-response","83","134204","0.0-11.0-1.24","","271","","<div class='trialDiv'><img src='Fruit/papayas.png'><br><font class='baseline'><strong>Papaya Payday</strong><p>Choose number of points to bet.</font><div class='respPicDiv'><img src='img/responseButtonOffersNo0L.png' class='respPic'></div></div>","5","9","Papaya Payday","Fruit/papayas.png","Lost","0.2,0.8","13","0.2","95","25","",""
"","","","decisionFB","63d80b500adef5b476e289a4","bdp_rwlrn","Mon Mar 13 2023 14:29:20 GMT-0400 (Eastern Daylight Time)","349970","Trustworthy,Untrustworthy","html-keyboard-response","84","134460","0.0-11.0-2.24","","null","","<div class='trialDiv'><img src='Fruit/papayas.png'><br><font class='baseline'><strong>Papaya Payday</strong><p>Choose number of points to bet.</font><div class='respPicDiv'><img src='img/responseButtonOffersNo0L5.png' class='respPic'></div></div>","null","9","Papaya Payday","Fruit/papayas.png","Lost","0.2,0.8","13","0.2","90","25","",""
"","","","feedback","63d80b500adef5b476e289a4","bdp_rwlrn","Mon Mar 13 2023 14:29:20 GMT-0400 (Eastern Daylight Time)","349970","Trustworthy,Untrustworthy","html-keyboard-response","85","135466","0.0-11.0-3.24","","null","","<div class='respPicDiv'><img src='img/responseButtonOffersNo0_wht.png' class='respPic'></div><div class='trialDiv'><img src='Fruit/papayas.png'><br><font class='baseline'><strong>Papaya Payday</strong><p><strong><font class='negOutcome'>You LOST</font><p>You bet: 5</strong></font> &nbsp; &nbsp; &nbsp; &nbsp; &nbsp; &nbsp;<font class='negOutcome'>You receive: <strong>0</strong></font></div>","null","9","Papaya Payday","Fruit/papayas.png","Lost","0.2,0.8","13","0.2","90","25","",""
"","","","decision","63d80b500adef5b476e289a4","bdp_rwlrn","Mon Mar 13 2023 14:29:20 GMT-0400 (Eastern Daylight Time)","349970","Trustworthy,Untrustworthy","html-keyboard-response","86","135690","0.0-11.0-1.25","","224","","<div class='trialDiv'><img src='Fruit/apple.png'><br><font class='baseline'><strong>Awesome Apples</strong><p>Choose number of points to bet.</font><div class='respPicDiv'><img src='img/responseButtonOffersNo0L.png' class='respPic'></div></div>","5","9","Awesome Apples","Fruit/apple.png","Won","0.8,0.35","9","0.8","95","26","",""
"","","","decisionFB","63d80b500adef5b476e289a4","bdp_rwlrn","Mon Mar 13 2023 14:29:20 GMT-0400 (Eastern Daylight Time)","349970","Trustworthy,Untrustworthy","html-keyboard-response","87","135943","0.0-11.0-2.25","","null","","<div class='trialDiv'><img src='Fruit/apple.png'><br><font class='baseline'><strong>Awesome Apples</strong><p>Choose number of points to bet.</font><div class='respPicDiv'><img src='img/responseButtonOffersNo0L5.png' class='respPic'></div></div>","null","9","Awesome Apples","Fruit/apple.png","Won","0.8,0.35","9","0.8","90","26","",""
"","","","feedback","63d80b500adef5b476e289a4","bdp_rwlrn","Mon Mar 13 2023 14:29:20 GMT-0400 (Eastern Daylight Time)","349970","Trustworthy,Untrustworthy","html-keyboard-response","88","136949","0.0-11.0-3.25","","null","","<div class='respPicDiv'><img src='img/responseButtonOffersNo0_wht.png' class='respPic'></div><div class='trialDiv'><img src='Fruit/apple.png'><br><font class='baseline'><strong>Awesome Apples</strong><p><strong><font class='posOutcome'>You WON</font><p>You bet: 5</strong></font> &nbsp; &nbsp; &nbsp; &nbsp; &nbsp; &nbsp;<font class='posOutcome'>you receive: <strong>10</strong></font></div>","null","9","Awesome Apples","Fruit/apple.png","Won","0.8,0.35","9","0.8","100","26","",""
"","","","decision","63d80b500adef5b476e289a4","bdp_rwlrn","Mon Mar 13 2023 14:29:20 GMT-0400 (Eastern Daylight Time)","349970","Trustworthy,Untrustworthy","html-keyboard-response","89","137245","0.0-11.0-1.26","","294","","<div class='trialDiv'><img src='Fruit/mixed-berries2.png'><br><font class='baseline'><strong>Berry Bla$t</strong><p>Choose number of points to bet.</font><div class='respPicDiv'><img src='img/responseButtonOffersNo0L.png' class='respPic'></div></div>","5","9","Berry Bla$t","Fruit/mixed-berries2.png","Lost","0.2,0.65","12","0.2","105","27","",""
"","","","decisionFB","63d80b500adef5b476e289a4","bdp_rwlrn","Mon Mar 13 2023 14:29:20 GMT-0400 (Eastern Daylight Time)","349970","Trustworthy,Untrustworthy","html-keyboard-response","90","137500","0.0-11.0-2.26","","null","","<div class='trialDiv'><img src='Fruit/mixed-berries2.png'><br><font class='baseline'><strong>Berry Bla$t</strong><p>Choose number of points to bet.</font><div class='respPicDiv'><img src='img/responseButtonOffersNo0L5.png' class='respPic'></div></div>","null","9","Berry Bla$t","Fruit/mixed-berries2.png","Lost","0.2,0.65","12","0.2","100","27","",""
"","","","feedback","63d80b500adef5b476e289a4","bdp_rwlrn","Mon Mar 13 2023 14:29:20 GMT-0400 (Eastern Daylight Time)","349970","Trustworthy,Untrustworthy","html-keyboard-response","91","138506","0.0-11.0-3.26","","null","","<div class='respPicDiv'><img src='img/responseButtonOffersNo0_wht.png' class='respPic'></div><div class='trialDiv'><img src='Fruit/mixed-berries2.png'><br><font class='baseline'><strong>Berry Bla$t</strong><p><strong><font class='negOutcome'>You LOST</font><p>You bet: 5</strong></font> &nbsp; &nbsp; &nbsp; &nbsp; &nbsp; &nbsp;<font class='negOutcome'>You receive: <strong>0</strong></font></div>","null","9","Berry Bla$t","Fruit/mixed-berries2.png","Lost","0.2,0.65","12","0.2","100","27","",""
"","","","decision","63d80b500adef5b476e289a4","bdp_rwlrn","Mon Mar 13 2023 14:29:20 GMT-0400 (Eastern Daylight Time)","349970","Trustworthy,Untrustworthy","html-keyboard-response","92","138800","0.0-11.0-1.27","","294","","<div class='trialDiv'><img src='Fruit/papayas.png'><br><font class='baseline'><strong>Papaya Payday</strong><p>Choose number of points to bet.</font><div class='respPicDiv'><img src='img/responseButtonOffersNo0L.png' class='respPic'></div></div>","5","10","Papaya Payday","Fruit/papayas.png","Lost","0.2,0.8","13","0.2","105","28","",""
"","","","decisionFB","63d80b500adef5b476e289a4","bdp_rwlrn","Mon Mar 13 2023 14:29:20 GMT-0400 (Eastern Daylight Time)","349970","Trustworthy,Untrustworthy","html-keyboard-response","93","139056","0.0-11.0-2.27","","null","","<div class='trialDiv'><img src='Fruit/papayas.png'><br><font class='baseline'><strong>Papaya Payday</strong><p>Choose number of points to bet.</font><div class='respPicDiv'><img src='img/responseButtonOffersNo0L5.png' class='respPic'></div></div>","null","10","Papaya Payday","Fruit/papayas.png","Lost","0.2,0.8","13","0.2","100","28","",""
"","","","feedback","63d80b500adef5b476e289a4","bdp_rwlrn","Mon Mar 13 2023 14:29:20 GMT-0400 (Eastern Daylight Time)","349970","Trustworthy,Untrustworthy","html-keyboard-response","94","140062","0.0-11.0-3.27","","null","","<div class='respPicDiv'><img src='img/responseButtonOffersNo0_wht.png' class='respPic'></div><div class='trialDiv'><img src='Fruit/papayas.png'><br><font class='baseline'><strong>Papaya Payday</strong><p><strong><font class='negOutcome'>You LOST</font><p>You bet: 5</strong></font> &nbsp; &nbsp; &nbsp; &nbsp; &nbsp; &nbsp;<font class='negOutcome'>You receive: <strong>0</strong></font></div>","null","10","Papaya Payday","Fruit/papayas.png","Lost","0.2,0.8","13","0.2","100","28","",""
"","","","decision","63d80b500adef5b476e289a4","bdp_rwlrn","Mon Mar 13 2023 14:29:20 GMT-0400 (Eastern Daylight Time)","349970","Trustworthy,Untrustworthy","html-keyboard-response","95","140433","0.0-11.0-1.28","","369","","<div class='trialDiv'><img src='Fruit/apple.png'><br><font class='baseline'><strong>Awesome Apples</strong><p>Choose number of points to bet.</font><div class='respPicDiv'><img src='img/responseButtonOffersNo0L.png' class='respPic'></div></div>","5","10","Awesome Apples","Fruit/apple.png","Won","0.8,0.35","9","0.8","105","29","",""
"","","","decisionFB","63d80b500adef5b476e289a4","bdp_rwlrn","Mon Mar 13 2023 14:29:20 GMT-0400 (Eastern Daylight Time)","349970","Trustworthy,Untrustworthy","html-keyboard-response","96","140689","0.0-11.0-2.28","","null","","<div class='trialDiv'><img src='Fruit/apple.png'><br><font class='baseline'><strong>Awesome Apples</strong><p>Choose number of points to bet.</font><div class='respPicDiv'><img src='img/responseButtonOffersNo0L5.png' class='respPic'></div></div>","null","10","Awesome Apples","Fruit/apple.png","Won","0.8,0.35","9","0.8","100","29","",""
"","","","feedback","63d80b500adef5b476e289a4","bdp_rwlrn","Mon Mar 13 2023 14:29:20 GMT-0400 (Eastern Daylight Time)","349970","Trustworthy,Untrustworthy","html-keyboard-response","97","141695","0.0-11.0-3.28","","null","","<div class='respPicDiv'><img src='img/responseButtonOffersNo0_wht.png' class='respPic'></div><div class='trialDiv'><img src='Fruit/apple.png'><br><font class='baseline'><strong>Awesome Apples</strong><p><strong><font class='posOutcome'>You WON</font><p>You bet: 5</strong></font> &nbsp; &nbsp; &nbsp; &nbsp; &nbsp; &nbsp;<font class='posOutcome'>you receive: <strong>10</strong></font></div>","null","10","Awesome Apples","Fruit/apple.png","Won","0.8,0.35","9","0.8","110","29","",""
"","","","decision","63d80b500adef5b476e289a4","bdp_rwlrn","Mon Mar 13 2023 14:29:20 GMT-0400 (Eastern Daylight Time)","349970","Trustworthy,Untrustworthy","html-keyboard-response","98","142010","0.0-11.0-1.29","","315","","<div class='trialDiv'><img src='Fruit/mixed-berries2.png'><br><font class='baseline'><strong>Berry Bla$t</strong><p>Choose number of points to bet.</font><div class='respPicDiv'><img src='img/responseButtonOffersNo0L.png' class='respPic'></div></div>","5","10","Berry Bla$t","Fruit/mixed-berries2.png","Lost","0.2,0.65","12","0.2","115","30","",""
"","","","decisionFB","63d80b500adef5b476e289a4","bdp_rwlrn","Mon Mar 13 2023 14:29:20 GMT-0400 (Eastern Daylight Time)","349970","Trustworthy,Untrustworthy","html-keyboard-response","99","142264","0.0-11.0-2.29","","null","","<div class='trialDiv'><img src='Fruit/mixed-berries2.png'><br><font class='baseline'><strong>Berry Bla$t</strong><p>Choose number of points to bet.</font><div class='respPicDiv'><img src='img/responseButtonOffersNo0L5.png' class='respPic'></div></div>","null","10","Berry Bla$t","Fruit/mixed-berries2.png","Lost","0.2,0.65","12","0.2","110","30","",""
"","","","feedback","63d80b500adef5b476e289a4","bdp_rwlrn","Mon Mar 13 2023 14:29:20 GMT-0400 (Eastern Daylight Time)","349970","Trustworthy,Untrustworthy","html-keyboard-response","100","143267","0.0-11.0-3.29","","null","","<div class='respPicDiv'><img src='img/responseButtonOffersNo0_wht.png' class='respPic'></div><div class='trialDiv'><img src='Fruit/mixed-berries2.png'><br><font class='baseline'><strong>Berry Bla$t</strong><p><strong><font class='negOutcome'>You LOST</font><p>You bet: 5</strong></font> &nbsp; &nbsp; &nbsp; &nbsp; &nbsp; &nbsp;<font class='negOutcome'>You receive: <strong>0</strong></font></div>","null","10","Berry Bla$t","Fruit/mixed-berries2.png","Lost","0.2,0.65","12","0.2","110","30","",""
"","","","decision","63d80b500adef5b476e289a4","bdp_rwlrn","Mon Mar 13 2023 14:29:20 GMT-0400 (Eastern Daylight Time)","349970","Trustworthy,Untrustworthy","html-keyboard-response","101","143559","0.0-11.0-1.30","","292","","<div class='trialDiv'><img src='Fruit/apple.png'><br><font class='baseline'><strong>Awesome Apples</strong><p>Choose number of points to bet.</font><div class='respPicDiv'><img src='img/responseButtonOffersNo0L.png' class='respPic'></div></div>","5","11","Awesome Apples","Fruit/apple.png","Lost","0.8,0.35","9","0.8","115","31","",""
"","","","decisionFB","63d80b500adef5b476e289a4","bdp_rwlrn","Mon Mar 13 2023 14:29:20 GMT-0400 (Eastern Daylight Time)","349970","Trustworthy,Untrustworthy","html-keyboard-response","102","143816","0.0-11.0-2.30","","null","","<div class='trialDiv'><img src='Fruit/apple.png'><br><font class='baseline'><strong>Awesome Apples</strong><p>Choose number of points to bet.</font><div class='respPicDiv'><img src='img/responseButtonOffersNo0L5.png' class='respPic'></div></div>","null","11","Awesome Apples","Fruit/apple.png","Lost","0.8,0.35","9","0.8","110","31","",""
"","","","feedback","63d80b500adef5b476e289a4","bdp_rwlrn","Mon Mar 13 2023 14:29:20 GMT-0400 (Eastern Daylight Time)","349970","Trustworthy,Untrustworthy","html-keyboard-response","103","144822","0.0-11.0-3.30","","null","","<div class='respPicDiv'><img src='img/responseButtonOffersNo0_wht.png' class='respPic'></div><div class='trialDiv'><img src='Fruit/apple.png'><br><font class='baseline'><strong>Awesome Apples</strong><p><strong><font class='negOutcome'>You LOST</font><p>You bet: 5</strong></font> &nbsp; &nbsp; &nbsp; &nbsp; &nbsp; &nbsp;<font class='negOutcome'>You receive: <strong>0</strong></font></div>","null","11","Awesome Apples","Fruit/apple.png","Lost","0.8,0.35","9","0.8","110","31","",""
"","","","decision","63d80b500adef5b476e289a4","bdp_rwlrn","Mon Mar 13 2023 14:29:20 GMT-0400 (Eastern Daylight Time)","349970","Trustworthy,Untrustworthy","html-keyboard-response","104","145196","0.0-11.0-1.31","","373","","<div class='trialDiv'><img src='Fruit/papayas.png'><br><font class='baseline'><strong>Papaya Payday</strong><p>Choose number of points to bet.</font><div class='respPicDiv'><img src='img/responseButtonOffersNo0L.png' class='respPic'></div></div>","5","11","Papaya Payday","Fruit/papayas.png","Lost","0.2,0.8","13","0.2","115","32","",""
"","","","decisionFB","63d80b500adef5b476e289a4","bdp_rwlrn","Mon Mar 13 2023 14:29:20 GMT-0400 (Eastern Daylight Time)","349970","Trustworthy,Untrustworthy","html-keyboard-response","105","145447","0.0-11.0-2.31","","null","","<div class='trialDiv'><img src='Fruit/papayas.png'><br><font class='baseline'><strong>Papaya Payday</strong><p>Choose number of points to bet.</font><div class='respPicDiv'><img src='img/responseButtonOffersNo0L5.png' class='respPic'></div></div>","null","11","Papaya Payday","Fruit/papayas.png","Lost","0.2,0.8","13","0.2","110","32","",""
"","","","feedback","63d80b500adef5b476e289a4","bdp_rwlrn","Mon Mar 13 2023 14:29:20 GMT-0400 (Eastern Daylight Time)","349970","Trustworthy,Untrustworthy","html-keyboard-response","106","146454","0.0-11.0-3.31","","null","","<div class='respPicDiv'><img src='img/responseButtonOffersNo0_wht.png' class='respPic'></div><div class='trialDiv'><img src='Fruit/papayas.png'><br><font class='baseline'><strong>Papaya Payday</strong><p><strong><font class='negOutcome'>You LOST</font><p>You bet: 5</strong></font> &nbsp; &nbsp; &nbsp; &nbsp; &nbsp; &nbsp;<font class='negOutcome'>You receive: <strong>0</strong></font></div>","null","11","Papaya Payday","Fruit/papayas.png","Lost","0.2,0.8","13","0.2","110","32","",""
"","","","decision","63d80b500adef5b476e289a4","bdp_rwlrn","Mon Mar 13 2023 14:29:20 GMT-0400 (Eastern Daylight Time)","349970","Trustworthy,Untrustworthy","html-keyboard-response","107","146592","0.0-11.0-1.32","","138","","<div class='trialDiv'><img src='Fruit/mixed-berries2.png'><br><font class='baseline'><strong>Berry Bla$t</strong><p>Choose number of points to bet.</font><div class='respPicDiv'><img src='img/responseButtonOffersNo0L.png' class='respPic'></div></div>","5","11","Berry Bla$t","Fruit/mixed-berries2.png","Lost","0.2,0.65","12","0.2","115","33","",""
"","","","decisionFB","63d80b500adef5b476e289a4","bdp_rwlrn","Mon Mar 13 2023 14:29:20 GMT-0400 (Eastern Daylight Time)","349970","Trustworthy,Untrustworthy","html-keyboard-response","108","146847","0.0-11.0-2.32","","null","","<div class='trialDiv'><img src='Fruit/mixed-berries2.png'><br><font class='baseline'><strong>Berry Bla$t</strong><p>Choose number of points to bet.</font><div class='respPicDiv'><img src='img/responseButtonOffersNo0L5.png' class='respPic'></div></div>","null","11","Berry Bla$t","Fruit/mixed-berries2.png","Lost","0.2,0.65","12","0.2","110","33","",""
"","","","feedback","63d80b500adef5b476e289a4","bdp_rwlrn","Mon Mar 13 2023 14:29:20 GMT-0400 (Eastern Daylight Time)","349970","Trustworthy,Untrustworthy","html-keyboard-response","109","147849","0.0-11.0-3.32","","null","","<div class='respPicDiv'><img src='img/responseButtonOffersNo0_wht.png' class='respPic'></div><div class='trialDiv'><img src='Fruit/mixed-berries2.png'><br><font class='baseline'><strong>Berry Bla$t</strong><p><strong><font class='negOutcome'>You LOST</font><p>You bet: 5</strong></font> &nbsp; &nbsp; &nbsp; &nbsp; &nbsp; &nbsp;<font class='negOutcome'>You receive: <strong>0</strong></font></div>","null","11","Berry Bla$t","Fruit/mixed-berries2.png","Lost","0.2,0.65","12","0.2","110","33","",""
"","","","decision","63d80b500adef5b476e289a4","bdp_rwlrn","Mon Mar 13 2023 14:29:20 GMT-0400 (Eastern Daylight Time)","349970","Trustworthy,Untrustworthy","html-keyboard-response","110","148173","0.0-11.0-1.33","","323","","<div class='trialDiv'><img src='Fruit/papayas.png'><br><font class='baseline'><strong>Papaya Payday</strong><p>Choose number of points to bet.</font><div class='respPicDiv'><img src='img/responseButtonOffersNo0L.png' class='respPic'></div></div>","5","12","Papaya Payday","Fruit/papayas.png","Lost","0.2,0.8","13","0.2","115","34","",""
"","","","decisionFB","63d80b500adef5b476e289a4","bdp_rwlrn","Mon Mar 13 2023 14:29:20 GMT-0400 (Eastern Daylight Time)","349970","Trustworthy,Untrustworthy","html-keyboard-response","111","148429","0.0-11.0-2.33","","null","","<div class='trialDiv'><img src='Fruit/papayas.png'><br><font class='baseline'><strong>Papaya Payday</strong><p>Choose number of points to bet.</font><div class='respPicDiv'><img src='img/responseButtonOffersNo0L5.png' class='respPic'></div></div>","null","12","Papaya Payday","Fruit/papayas.png","Lost","0.2,0.8","13","0.2","110","34","",""
"","","","feedback","63d80b500adef5b476e289a4","bdp_rwlrn","Mon Mar 13 2023 14:29:20 GMT-0400 (Eastern Daylight Time)","349970","Trustworthy,Untrustworthy","html-keyboard-response","112","149436","0.0-11.0-3.33","","null","","<div class='respPicDiv'><img src='img/responseButtonOffersNo0_wht.png' class='respPic'></div><div class='trialDiv'><img src='Fruit/papayas.png'><br><font class='baseline'><strong>Papaya Payday</strong><p><strong><font class='negOutcome'>You LOST</font><p>You bet: 5</strong></font> &nbsp; &nbsp; &nbsp; &nbsp; &nbsp; &nbsp;<font class='negOutcome'>You receive: <strong>0</strong></font></div>","null","12","Papaya Payday","Fruit/papayas.png","Lost","0.2,0.8","13","0.2","110","34","",""
"","","","decision","63d80b500adef5b476e289a4","bdp_rwlrn","Mon Mar 13 2023 14:29:20 GMT-0400 (Eastern Daylight Time)","349970","Trustworthy,Untrustworthy","html-keyboard-response","113","149757","0.0-11.0-1.34","","320","","<div class='trialDiv'><img src='Fruit/apple.png'><br><font class='baseline'><strong>Awesome Apples</strong><p>Choose number of points to bet.</font><div class='respPicDiv'><img src='img/responseButtonOffersNo0L.png' class='respPic'></div></div>","5","12","Awesome Apples","Fruit/apple.png","Lost","0.8,0.35","9","0.8","115","35","",""
"","","","decisionFB","63d80b500adef5b476e289a4","bdp_rwlrn","Mon Mar 13 2023 14:29:20 GMT-0400 (Eastern Daylight Time)","349970","Trustworthy,Untrustworthy","html-keyboard-response","114","150013","0.0-11.0-2.34","","null","","<div class='trialDiv'><img src='Fruit/apple.png'><br><font class='baseline'><strong>Awesome Apples</strong><p>Choose number of points to bet.</font><div class='respPicDiv'><img src='img/responseButtonOffersNo0L5.png' class='respPic'></div></div>","null","12","Awesome Apples","Fruit/apple.png","Lost","0.8,0.35","9","0.8","110","35","",""
"","","","feedback","63d80b500adef5b476e289a4","bdp_rwlrn","Mon Mar 13 2023 14:29:20 GMT-0400 (Eastern Daylight Time)","349970","Trustworthy,Untrustworthy","html-keyboard-response","115","151018","0.0-11.0-3.34","","null","","<div class='respPicDiv'><img src='img/responseButtonOffersNo0_wht.png' class='respPic'></div><div class='trialDiv'><img src='Fruit/apple.png'><br><font class='baseline'><strong>Awesome Apples</strong><p><strong><font class='negOutcome'>You LOST</font><p>You bet: 5</strong></font> &nbsp; &nbsp; &nbsp; &nbsp; &nbsp; &nbsp;<font class='negOutcome'>You receive: <strong>0</strong></font></div>","null","12","Awesome Apples","Fruit/apple.png","Lost","0.8,0.35","9","0.8","110","35","",""
"","","","decision","63d80b500adef5b476e289a4","bdp_rwlrn","Mon Mar 13 2023 14:29:20 GMT-0400 (Eastern Daylight Time)","349970","Trustworthy,Untrustworthy","html-keyboard-response","116","151352","0.0-11.0-1.35","","333","","<div class='trialDiv'><img src='Fruit/mixed-berries2.png'><br><font class='baseline'><strong>Berry Bla$t</strong><p>Choose number of points to bet.</font><div class='respPicDiv'><img src='img/responseButtonOffersNo0L.png' class='respPic'></div></div>","5","12","Berry Bla$t","Fruit/mixed-berries2.png","Won","0.2,0.65","12","0.2","115","36","",""
"","","","decisionFB","63d80b500adef5b476e289a4","bdp_rwlrn","Mon Mar 13 2023 14:29:20 GMT-0400 (Eastern Daylight Time)","349970","Trustworthy,Untrustworthy","html-keyboard-response","117","151608","0.0-11.0-2.35","","null","","<div class='trialDiv'><img src='Fruit/mixed-berries2.png'><br><font class='baseline'><strong>Berry Bla$t</strong><p>Choose number of points to bet.</font><div class='respPicDiv'><img src='img/responseButtonOffersNo0L5.png' class='respPic'></div></div>","null","12","Berry Bla$t","Fruit/mixed-berries2.png","Won","0.2,0.65","12","0.2","110","36","",""
"","","","feedback","63d80b500adef5b476e289a4","bdp_rwlrn","Mon Mar 13 2023 14:29:20 GMT-0400 (Eastern Daylight Time)","349970","Trustworthy,Untrustworthy","html-keyboard-response","118","152614","0.0-11.0-3.35","","null","","<div class='respPicDiv'><img src='img/responseButtonOffersNo0_wht.png' class='respPic'></div><div class='trialDiv'><img src='Fruit/mixed-berries2.png'><br><font class='baseline'><strong>Berry Bla$t</strong><p><strong><font class='posOutcome'>You WON</font><p>You bet: 5</strong></font> &nbsp; &nbsp; &nbsp; &nbsp; &nbsp; &nbsp;<font class='posOutcome'>you receive: <strong>10</strong></font></div>","null","12","Berry Bla$t","Fruit/mixed-berries2.png","Won","0.2,0.65","12","0.2","120","36","",""
"","","","decision","63d80b500adef5b476e289a4","bdp_rwlrn","Mon Mar 13 2023 14:29:20 GMT-0400 (Eastern Daylight Time)","349970","Trustworthy,Untrustworthy","html-keyboard-response","119","152930","0.0-11.0-1.36","","315","","<div class='trialDiv'><img src='Fruit/papayas.png'><br><font class='baseline'><strong>Papaya Payday</strong><p>Choose number of points to bet.</font><div class='respPicDiv'><img src='img/responseButtonOffersNo0L.png' class='respPic'></div></div>","5","13","Papaya Payday","Fruit/papayas.png","Won","0.2,0.8","13","0.2","125","37","",""
"","","","decisionFB","63d80b500adef5b476e289a4","bdp_rwlrn","Mon Mar 13 2023 14:29:20 GMT-0400 (Eastern Daylight Time)","349970","Trustworthy,Untrustworthy","html-keyboard-response","120","153184","0.0-11.0-2.36","","null","","<div class='trialDiv'><img src='Fruit/papayas.png'><br><font class='baseline'><strong>Papaya Payday</strong><p>Choose number of points to bet.</font><div class='respPicDiv'><img src='img/responseButtonOffersNo0L5.png' class='respPic'></div></div>","null","13","Papaya Payday","Fruit/papayas.png","Won","0.2,0.8","13","0.2","120","37","",""
"","","","feedback","63d80b500adef5b476e289a4","bdp_rwlrn","Mon Mar 13 2023 14:29:20 GMT-0400 (Eastern Daylight Time)","349970","Trustworthy,Untrustworthy","html-keyboard-response","121","154185","0.0-11.0-3.36","","null","","<div class='respPicDiv'><img src='img/responseButtonOffersNo0_wht.png' class='respPic'></div><div class='trialDiv'><img src='Fruit/papayas.png'><br><font class='baseline'><strong>Papaya Payday</strong><p><strong><font class='posOutcome'>You WON</font><p>You bet: 5</strong></font> &nbsp; &nbsp; &nbsp; &nbsp; &nbsp; &nbsp;<font class='posOutcome'>you receive: <strong>10</strong></font></div>","null","13","Papaya Payday","Fruit/papayas.png","Won","0.2,0.8","13","0.2","130","37","",""
"","","","decision","63d80b500adef5b476e289a4","bdp_rwlrn","Mon Mar 13 2023 14:29:20 GMT-0400 (Eastern Daylight Time)","349970","Trustworthy,Untrustworthy","html-keyboard-response","122","154709","0.0-11.0-1.37","","522","","<div class='trialDiv'><img src='Fruit/mixed-berries2.png'><br><font class='baseline'><strong>Berry Bla$t</strong><p>Choose number of points to bet.</font><div class='respPicDiv'><img src='img/responseButtonOffersNo0L.png' class='respPic'></div></div>","5","13","Berry Bla$t","Fruit/mixed-berries2.png","Won","0.2,0.65","12","0.2","135","38","",""
"","","","decisionFB","63d80b500adef5b476e289a4","bdp_rwlrn","Mon Mar 13 2023 14:29:20 GMT-0400 (Eastern Daylight Time)","349970","Trustworthy,Untrustworthy","html-keyboard-response","123","154960","0.0-11.0-2.37","","null","","<div class='trialDiv'><img src='Fruit/mixed-berries2.png'><br><font class='baseline'><strong>Berry Bla$t</strong><p>Choose number of points to bet.</font><div class='respPicDiv'><img src='img/responseButtonOffersNo0L5.png' class='respPic'></div></div>","null","13","Berry Bla$t","Fruit/mixed-berries2.png","Won","0.2,0.65","12","0.2","130","38","",""
"","","","feedback","63d80b500adef5b476e289a4","bdp_rwlrn","Mon Mar 13 2023 14:29:20 GMT-0400 (Eastern Daylight Time)","349970","Trustworthy,Untrustworthy","html-keyboard-response","124","155961","0.0-11.0-3.37","","null","","<div class='respPicDiv'><img src='img/responseButtonOffersNo0_wht.png' class='respPic'></div><div class='trialDiv'><img src='Fruit/mixed-berries2.png'><br><font class='baseline'><strong>Berry Bla$t</strong><p><strong><font class='posOutcome'>You WON</font><p>You bet: 5</strong></font> &nbsp; &nbsp; &nbsp; &nbsp; &nbsp; &nbsp;<font class='posOutcome'>you receive: <strong>10</strong></font></div>","null","13","Berry Bla$t","Fruit/mixed-berries2.png","Won","0.2,0.65","12","0.2","140","38","",""
"","","","decision","63d80b500adef5b476e289a4","bdp_rwlrn","Mon Mar 13 2023 14:29:20 GMT-0400 (Eastern Daylight Time)","349970","Trustworthy,Untrustworthy","html-keyboard-response","125","156336","0.0-11.0-1.38","","375","","<div class='trialDiv'><img src='Fruit/apple.png'><br><font class='baseline'><strong>Awesome Apples</strong><p>Choose number of points to bet.</font><div class='respPicDiv'><img src='img/responseButtonOffersNo0L.png' class='respPic'></div></div>","5","13","Awesome Apples","Fruit/apple.png","Won","0.8,0.35","9","0.8","145","39","",""
"","","","decisionFB","63d80b500adef5b476e289a4","bdp_rwlrn","Mon Mar 13 2023 14:29:20 GMT-0400 (Eastern Daylight Time)","349970","Trustworthy,Untrustworthy","html-keyboard-response","126","156592","0.0-11.0-2.38","","null","","<div class='trialDiv'><img src='Fruit/apple.png'><br><font class='baseline'><strong>Awesome Apples</strong><p>Choose number of points to bet.</font><div class='respPicDiv'><img src='img/responseButtonOffersNo0L5.png' class='respPic'></div></div>","null","13","Awesome Apples","Fruit/apple.png","Won","0.8,0.35","9","0.8","140","39","",""
"","","","feedback","63d80b500adef5b476e289a4","bdp_rwlrn","Mon Mar 13 2023 14:29:20 GMT-0400 (Eastern Daylight Time)","349970","Trustworthy,Untrustworthy","html-keyboard-response","127","157598","0.0-11.0-3.38","","null","","<div class='respPicDiv'><img src='img/responseButtonOffersNo0_wht.png' class='respPic'></div><div class='trialDiv'><img src='Fruit/apple.png'><br><font class='baseline'><strong>Awesome Apples</strong><p><strong><font class='posOutcome'>You WON</font><p>You bet: 5</strong></font> &nbsp; &nbsp; &nbsp; &nbsp; &nbsp; &nbsp;<font class='posOutcome'>you receive: <strong>10</strong></font></div>","null","13","Awesome Apples","Fruit/apple.png","Won","0.8,0.35","9","0.8","150","39","",""
"","","","decision","63d80b500adef5b476e289a4","bdp_rwlrn","Mon Mar 13 2023 14:29:20 GMT-0400 (Eastern Daylight Time)","349970","Trustworthy,Untrustworthy","html-keyboard-response","128","157922","0.0-11.0-1.39","","323","","<div class='trialDiv'><img src='Fruit/papayas.png'><br><font class='baseline'><strong>Papaya Payday</strong><p>Choose number of points to bet.</font><div class='respPicDiv'><img src='img/responseButtonOffersNo0L.png' class='respPic'></div></div>","5","14","Papaya Payday","Fruit/papayas.png","Won","0.2,0.8","13","0.2","155","40","",""
"","","","decisionFB","63d80b500adef5b476e289a4","bdp_rwlrn","Mon Mar 13 2023 14:29:20 GMT-0400 (Eastern Daylight Time)","349970","Trustworthy,Untrustworthy","html-keyboard-response","129","158178","0.0-11.0-2.39","","null","","<div class='trialDiv'><img src='Fruit/papayas.png'><br><font class='baseline'><strong>Papaya Payday</strong><p>Choose number of points to bet.</font><div class='respPicDiv'><img src='img/responseButtonOffersNo0L5.png' class='respPic'></div></div>","null","14","Papaya Payday","Fruit/papayas.png","Won","0.2,0.8","13","0.2","150","40","",""
"","","","feedback","63d80b500adef5b476e289a4","bdp_rwlrn","Mon Mar 13 2023 14:29:20 GMT-0400 (Eastern Daylight Time)","349970","Trustworthy,Untrustworthy","html-keyboard-response","130","159184","0.0-11.0-3.39","","null","","<div class='respPicDiv'><img src='img/responseButtonOffersNo0_wht.png' class='respPic'></div><div class='trialDiv'><img src='Fruit/papayas.png'><br><font class='baseline'><strong>Papaya Payday</strong><p><strong><font class='posOutcome'>You WON</font><p>You bet: 5</strong></font> &nbsp; &nbsp; &nbsp; &nbsp; &nbsp; &nbsp;<font class='posOutcome'>you receive: <strong>10</strong></font></div>","null","14","Papaya Payday","Fruit/papayas.png","Won","0.2,0.8","13","0.2","160","40","",""
"","","","decision","63d80b500adef5b476e289a4","bdp_rwlrn","Mon Mar 13 2023 14:29:20 GMT-0400 (Eastern Daylight Time)","349970","Trustworthy,Untrustworthy","html-keyboard-response","131","159443","0.0-11.0-1.40","","258","","<div class='trialDiv'><img src='Fruit/mixed-berries2.png'><br><font class='baseline'><strong>Berry Bla$t</strong><p>Choose number of points to bet.</font><div class='respPicDiv'><img src='img/responseButtonOffersNo0L.png' class='respPic'></div></div>","5","14","Berry Bla$t","Fruit/mixed-berries2.png","Won","0.2,0.65","12","0.2","165","41","",""
"","","","decisionFB","63d80b500adef5b476e289a4","bdp_rwlrn","Mon Mar 13 2023 14:29:20 GMT-0400 (Eastern Daylight Time)","349970","Trustworthy,Untrustworthy","html-keyboard-response","132","159699","0.0-11.0-2.40","","null","","<div class='trialDiv'><img src='Fruit/mixed-berries2.png'><br><font class='baseline'><strong>Berry Bla$t</strong><p>Choose number of points to bet.</font><div class='respPicDiv'><img src='img/responseButtonOffersNo0L5.png' class='respPic'></div></div>","null","14","Berry Bla$t","Fruit/mixed-berries2.png","Won","0.2,0.65","12","0.2","160","41","",""
"","","","feedback","63d80b500adef5b476e289a4","bdp_rwlrn","Mon Mar 13 2023 14:29:20 GMT-0400 (Eastern Daylight Time)","349970","Trustworthy,Untrustworthy","html-keyboard-response","133","160706","0.0-11.0-3.40","","null","","<div class='respPicDiv'><img src='img/responseButtonOffersNo0_wht.png' class='respPic'></div><div class='trialDiv'><img src='Fruit/mixed-berries2.png'><br><font class='baseline'><strong>Berry Bla$t</strong><p><strong><font class='posOutcome'>You WON</font><p>You bet: 5</strong></font> &nbsp; &nbsp; &nbsp; &nbsp; &nbsp; &nbsp;<font class='posOutcome'>you receive: <strong>10</strong></font></div>","null","14","Berry Bla$t","Fruit/mixed-berries2.png","Won","0.2,0.65","12","0.2","170","41","",""
"","","","decision","63d80b500adef5b476e289a4","bdp_rwlrn","Mon Mar 13 2023 14:29:20 GMT-0400 (Eastern Daylight Time)","349970","Trustworthy,Untrustworthy","html-keyboard-response","134","161084","0.0-11.0-1.41","","378","","<div class='trialDiv'><img src='Fruit/apple.png'><br><font class='baseline'><strong>Awesome Apples</strong><p>Choose number of points to bet.</font><div class='respPicDiv'><img src='img/responseButtonOffersNo0L.png' class='respPic'></div></div>","5","14","Awesome Apples","Fruit/apple.png","Won","0.8,0.35","9","0.8","175","42","",""
"","","","decisionFB","63d80b500adef5b476e289a4","bdp_rwlrn","Mon Mar 13 2023 14:29:20 GMT-0400 (Eastern Daylight Time)","349970","Trustworthy,Untrustworthy","html-keyboard-response","135","161336","0.0-11.0-2.41","","null","","<div class='trialDiv'><img src='Fruit/apple.png'><br><font class='baseline'><strong>Awesome Apples</strong><p>Choose number of points to bet.</font><div class='respPicDiv'><img src='img/responseButtonOffersNo0L5.png' class='respPic'></div></div>","null","14","Awesome Apples","Fruit/apple.png","Won","0.8,0.35","9","0.8","170","42","",""
"","","","feedback","63d80b500adef5b476e289a4","bdp_rwlrn","Mon Mar 13 2023 14:29:20 GMT-0400 (Eastern Daylight Time)","349970","Trustworthy,Untrustworthy","html-keyboard-response","136","162343","0.0-11.0-3.41","","null","","<div class='respPicDiv'><img src='img/responseButtonOffersNo0_wht.png' class='respPic'></div><div class='trialDiv'><img src='Fruit/apple.png'><br><font class='baseline'><strong>Awesome Apples</strong><p><strong><font class='posOutcome'>You WON</font><p>You bet: 5</strong></font> &nbsp; &nbsp; &nbsp; &nbsp; &nbsp; &nbsp;<font class='posOutcome'>you receive: <strong>10</strong></font></div>","null","14","Awesome Apples","Fruit/apple.png","Won","0.8,0.35","9","0.8","180","42","",""
"","","","decision","63d80b500adef5b476e289a4","bdp_rwlrn","Mon Mar 13 2023 14:29:20 GMT-0400 (Eastern Daylight Time)","349970","Trustworthy,Untrustworthy","html-keyboard-response","137","162700","0.0-11.0-1.42","","357","","<div class='trialDiv'><img src='Fruit/mixed-berries2.png'><br><font class='baseline'><strong>Berry Bla$t</strong><p>Choose number of points to bet.</font><div class='respPicDiv'><img src='img/responseButtonOffersNo0L.png' class='respPic'></div></div>","5","15","Berry Bla$t","Fruit/mixed-berries2.png","Lost","0.2,0.65","12","0.2","185","43","",""
"","","","decisionFB","63d80b500adef5b476e289a4","bdp_rwlrn","Mon Mar 13 2023 14:29:20 GMT-0400 (Eastern Daylight Time)","349970","Trustworthy,Untrustworthy","html-keyboard-response","138","162957","0.0-11.0-2.42","","null","","<div class='trialDiv'><img src='Fruit/mixed-berries2.png'><br><font class='baseline'><strong>Berry Bla$t</strong><p>Choose number of points to bet.</font><div class='respPicDiv'><img src='img/responseButtonOffersNo0L5.png' class='respPic'></div></div>","null","15","Berry Bla$t","Fruit/mixed-berries2.png","Lost","0.2,0.65","12","0.2","180","43","",""
"","","","feedback","63d80b500adef5b476e289a4","bdp_rwlrn","Mon Mar 13 2023 14:29:20 GMT-0400 (Eastern Daylight Time)","349970","Trustworthy,Untrustworthy","html-keyboard-response","139","163963","0.0-11.0-3.42","","null","","<div class='respPicDiv'><img src='img/responseButtonOffersNo0_wht.png' class='respPic'></div><div class='trialDiv'><img src='Fruit/mixed-berries2.png'><br><font class='baseline'><strong>Berry Bla$t</strong><p><strong><font class='negOutcome'>You LOST</font><p>You bet: 5</strong></font> &nbsp; &nbsp; &nbsp; &nbsp; &nbsp; &nbsp;<font class='negOutcome'>You receive: <strong>0</strong></font></div>","null","15","Berry Bla$t","Fruit/mixed-berries2.png","Lost","0.2,0.65","12","0.2","180","43","",""
"","","","decision","63d80b500adef5b476e289a4","bdp_rwlrn","Mon Mar 13 2023 14:29:20 GMT-0400 (Eastern Daylight Time)","349970","Trustworthy,Untrustworthy","html-keyboard-response","140","164409","0.0-11.0-1.43","","446","","<div class='trialDiv'><img src='Fruit/apple.png'><br><font class='baseline'><strong>Awesome Apples</strong><p>Choose number of points to bet.</font><div class='respPicDiv'><img src='img/responseButtonOffersNo0L.png' class='respPic'></div></div>","5","15","Awesome Apples","Fruit/apple.png","Won","0.8,0.35","9","0.8","185","44","",""
"","","","decisionFB","63d80b500adef5b476e289a4","bdp_rwlrn","Mon Mar 13 2023 14:29:20 GMT-0400 (Eastern Daylight Time)","349970","Trustworthy,Untrustworthy","html-keyboard-response","141","164664","0.0-11.0-2.43","","null","","<div class='trialDiv'><img src='Fruit/apple.png'><br><font class='baseline'><strong>Awesome Apples</strong><p>Choose number of points to bet.</font><div class='respPicDiv'><img src='img/responseButtonOffersNo0L5.png' class='respPic'></div></div>","null","15","Awesome Apples","Fruit/apple.png","Won","0.8,0.35","9","0.8","180","44","",""
"","","","feedback","63d80b500adef5b476e289a4","bdp_rwlrn","Mon Mar 13 2023 14:29:20 GMT-0400 (Eastern Daylight Time)","349970","Trustworthy,Untrustworthy","html-keyboard-response","142","165669","0.0-11.0-3.43","","null","","<div class='respPicDiv'><img src='img/responseButtonOffersNo0_wht.png' class='respPic'></div><div class='trialDiv'><img src='Fruit/apple.png'><br><font class='baseline'><strong>Awesome Apples</strong><p><strong><font class='posOutcome'>You WON</font><p>You bet: 5</strong></font> &nbsp; &nbsp; &nbsp; &nbsp; &nbsp; &nbsp;<font class='posOutcome'>you receive: <strong>10</strong></font></div>","null","15","Awesome Apples","Fruit/apple.png","Won","0.8,0.35","9","0.8","190","44","",""
"","","","decision","63d80b500adef5b476e289a4","bdp_rwlrn","Mon Mar 13 2023 14:29:20 GMT-0400 (Eastern Daylight Time)","349970","Trustworthy,Untrustworthy","html-keyboard-response","143","166495","0.0-11.0-1.44","","825","","<div class='trialDiv'><img src='Fruit/papayas.png'><br><font class='baseline'><strong>Papaya Payday</strong><p>Choose number of points to bet.</font><div class='respPicDiv'><img src='img/responseButtonOffersNo0L.png' class='respPic'></div></div>","5","15","Papaya Payday","Fruit/papayas.png","Won","0.2,0.8","13","0.2","195","45","",""
"","","","decisionFB","63d80b500adef5b476e289a4","bdp_rwlrn","Mon Mar 13 2023 14:29:20 GMT-0400 (Eastern Daylight Time)","349970","Trustworthy,Untrustworthy","html-keyboard-response","144","166751","0.0-11.0-2.44","","null","","<div class='trialDiv'><img src='Fruit/papayas.png'><br><font class='baseline'><strong>Papaya Payday</strong><p>Choose number of points to bet.</font><div class='respPicDiv'><img src='img/responseButtonOffersNo0L5.png' class='respPic'></div></div>","null","15","Papaya Payday","Fruit/papayas.png","Won","0.2,0.8","13","0.2","190","45","",""
"","","","feedback","63d80b500adef5b476e289a4","bdp_rwlrn","Mon Mar 13 2023 14:29:20 GMT-0400 (Eastern Daylight Time)","349970","Trustworthy,Untrustworthy","html-keyboard-response","145","167755","0.0-11.0-3.44","","null","","<div class='respPicDiv'><img src='img/responseButtonOffersNo0_wht.png' class='respPic'></div><div class='trialDiv'><img src='Fruit/papayas.png'><br><font class='baseline'><strong>Papaya Payday</strong><p><strong><font class='posOutcome'>You WON</font><p>You bet: 5</strong></font> &nbsp; &nbsp; &nbsp; &nbsp; &nbsp; &nbsp;<font class='posOutcome'>you receive: <strong>10</strong></font></div>","null","15","Papaya Payday","Fruit/papayas.png","Won","0.2,0.8","13","0.2","200","45","",""
"","","","decision","63d80b500adef5b476e289a4","bdp_rwlrn","Mon Mar 13 2023 14:29:20 GMT-0400 (Eastern Daylight Time)","349970","Trustworthy,Untrustworthy","html-keyboard-response","146","168367","0.0-11.0-1.45","","611","","<div class='trialDiv'><img src='Fruit/mixed-berries2.png'><br><font class='baseline'><strong>Berry Bla$t</strong><p>Choose number of points to bet.</font><div class='respPicDiv'><img src='img/responseButtonOffersNo0L.png' class='respPic'></div></div>","5","16","Berry Bla$t","Fruit/mixed-berries2.png","Lost","0.2,0.65","12","0.2","205","46","",""
"","","","decisionFB","63d80b500adef5b476e289a4","bdp_rwlrn","Mon Mar 13 2023 14:29:20 GMT-0400 (Eastern Daylight Time)","349970","Trustworthy,Untrustworthy","html-keyboard-response","147","168622","0.0-11.0-2.45","","null","","<div class='trialDiv'><img src='Fruit/mixed-berries2.png'><br><font class='baseline'><strong>Berry Bla$t</strong><p>Choose number of points to bet.</font><div class='respPicDiv'><img src='img/responseButtonOffersNo0L5.png' class='respPic'></div></div>","null","16","Berry Bla$t","Fruit/mixed-berries2.png","Lost","0.2,0.65","12","0.2","200","46","",""
"","","","feedback","63d80b500adef5b476e289a4","bdp_rwlrn","Mon Mar 13 2023 14:29:20 GMT-0400 (Eastern Daylight Time)","349970","Trustworthy,Untrustworthy","html-keyboard-response","148","169628","0.0-11.0-3.45","","null","","<div class='respPicDiv'><img src='img/responseButtonOffersNo0_wht.png' class='respPic'></div><div class='trialDiv'><img src='Fruit/mixed-berries2.png'><br><font class='baseline'><strong>Berry Bla$t</strong><p><strong><font class='negOutcome'>You LOST</font><p>You bet: 5</strong></font> &nbsp; &nbsp; &nbsp; &nbsp; &nbsp; &nbsp;<font class='negOutcome'>You receive: <strong>0</strong></font></div>","null","16","Berry Bla$t","Fruit/mixed-berries2.png","Lost","0.2,0.65","12","0.2","200","46","",""
"","","","decision","63d80b500adef5b476e289a4","bdp_rwlrn","Mon Mar 13 2023 14:29:20 GMT-0400 (Eastern Daylight Time)","349970","Trustworthy,Untrustworthy","html-keyboard-response","149","169718","0.0-11.0-1.46","","89","","<div class='trialDiv'><img src='Fruit/apple.png'><br><font class='baseline'><strong>Awesome Apples</strong><p>Choose number of points to bet.</font><div class='respPicDiv'><img src='img/responseButtonOffersNo0L.png' class='respPic'></div></div>","5","16","Awesome Apples","Fruit/apple.png","Lost","0.8,0.35","9","0.8","205","47","",""
"","","","decisionFB","63d80b500adef5b476e289a4","bdp_rwlrn","Mon Mar 13 2023 14:29:20 GMT-0400 (Eastern Daylight Time)","349970","Trustworthy,Untrustworthy","html-keyboard-response","150","169969","0.0-11.0-2.46","","null","","<div class='trialDiv'><img src='Fruit/apple.png'><br><font class='baseline'><strong>Awesome Apples</strong><p>Choose number of points to bet.</font><div class='respPicDiv'><img src='img/responseButtonOffersNo0L5.png' class='respPic'></div></div>","null","16","Awesome Apples","Fruit/apple.png","Lost","0.8,0.35","9","0.8","200","47","",""
"","","","feedback","63d80b500adef5b476e289a4","bdp_rwlrn","Mon Mar 13 2023 14:29:20 GMT-0400 (Eastern Daylight Time)","349970","Trustworthy,Untrustworthy","html-keyboard-response","151","170975","0.0-11.0-3.46","","null","","<div class='respPicDiv'><img src='img/responseButtonOffersNo0_wht.png' class='respPic'></div><div class='trialDiv'><img src='Fruit/apple.png'><br><font class='baseline'><strong>Awesome Apples</strong><p><strong><font class='negOutcome'>You LOST</font><p>You bet: 5</strong></font> &nbsp; &nbsp; &nbsp; &nbsp; &nbsp; &nbsp;<font class='negOutcome'>You receive: <strong>0</strong></font></div>","null","16","Awesome Apples","Fruit/apple.png","Lost","0.8,0.35","9","0.8","200","47","",""
"","","","decision","63d80b500adef5b476e289a4","bdp_rwlrn","Mon Mar 13 2023 14:29:20 GMT-0400 (Eastern Daylight Time)","349970","Trustworthy,Untrustworthy","html-keyboard-response","152","171333","0.0-11.0-1.47","","358","","<div class='trialDiv'><img src='Fruit/papayas.png'><br><font class='baseline'><strong>Papaya Payday</strong><p>Choose number of points to bet.</font><div class='respPicDiv'><img src='img/responseButtonOffersNo0L.png' class='respPic'></div></div>","5","16","Papaya Payday","Fruit/papayas.png","Won","0.2,0.8","13","0.2","205","48","",""
"","","","decisionFB","63d80b500adef5b476e289a4","bdp_rwlrn","Mon Mar 13 2023 14:29:20 GMT-0400 (Eastern Daylight Time)","349970","Trustworthy,Untrustworthy","html-keyboard-response","153","171585","0.0-11.0-2.47","","null","","<div class='trialDiv'><img src='Fruit/papayas.png'><br><font class='baseline'><strong>Papaya Payday</strong><p>Choose number of points to bet.</font><div class='respPicDiv'><img src='img/responseButtonOffersNo0L5.png' class='respPic'></div></div>","null","16","Papaya Payday","Fruit/papayas.png","Won","0.2,0.8","13","0.2","200","48","",""
"","","","feedback","63d80b500adef5b476e289a4","bdp_rwlrn","Mon Mar 13 2023 14:29:20 GMT-0400 (Eastern Daylight Time)","349970","Trustworthy,Untrustworthy","html-keyboard-response","154","172591","0.0-11.0-3.47","","null","","<div class='respPicDiv'><img src='img/responseButtonOffersNo0_wht.png' class='respPic'></div><div class='trialDiv'><img src='Fruit/papayas.png'><br><font class='baseline'><strong>Papaya Payday</strong><p><strong><font class='posOutcome'>You WON</font><p>You bet: 5</strong></font> &nbsp; &nbsp; &nbsp; &nbsp; &nbsp; &nbsp;<font class='posOutcome'>you receive: <strong>10</strong></font></div>","null","16","Papaya Payday","Fruit/papayas.png","Won","0.2,0.8","13","0.2","210","48","",""
"","","","decision","63d80b500adef5b476e289a4","bdp_rwlrn","Mon Mar 13 2023 14:29:20 GMT-0400 (Eastern Daylight Time)","349970","Trustworthy,Untrustworthy","html-keyboard-response","155","172955","0.0-11.0-1.48","","364","","<div class='trialDiv'><img src='Fruit/apple.png'><br><font class='baseline'><strong>Awesome Apples</strong><p>Choose number of points to bet.</font><div class='respPicDiv'><img src='img/responseButtonOffersNo0L.png' class='respPic'></div></div>","5","17","Awesome Apples","Fruit/apple.png","Won","0.8,0.35","9","0.8","215","49","",""
"","","","decisionFB","63d80b500adef5b476e289a4","bdp_rwlrn","Mon Mar 13 2023 14:29:20 GMT-0400 (Eastern Daylight Time)","349970","Trustworthy,Untrustworthy","html-keyboard-response","156","173211","0.0-11.0-2.48","","null","","<div class='trialDiv'><img src='Fruit/apple.png'><br><font class='baseline'><strong>Awesome Apples</strong><p>Choose number of points to bet.</font><div class='respPicDiv'><img src='img/responseButtonOffersNo0L5.png' class='respPic'></div></div>","null","17","Awesome Apples","Fruit/apple.png","Won","0.8,0.35","9","0.8","210","49","",""
"","","","feedback","63d80b500adef5b476e289a4","bdp_rwlrn","Mon Mar 13 2023 14:29:20 GMT-0400 (Eastern Daylight Time)","349970","Trustworthy,Untrustworthy","html-keyboard-response","157","174217","0.0-11.0-3.48","","null","","<div class='respPicDiv'><img src='img/responseButtonOffersNo0_wht.png' class='respPic'></div><div class='trialDiv'><img src='Fruit/apple.png'><br><font class='baseline'><strong>Awesome Apples</strong><p><strong><font class='posOutcome'>You WON</font><p>You bet: 5</strong></font> &nbsp; &nbsp; &nbsp; &nbsp; &nbsp; &nbsp;<font class='posOutcome'>you receive: <strong>10</strong></font></div>","null","17","Awesome Apples","Fruit/apple.png","Won","0.8,0.35","9","0.8","220","49","",""
"","","","decision","63d80b500adef5b476e289a4","bdp_rwlrn","Mon Mar 13 2023 14:29:20 GMT-0400 (Eastern Daylight Time)","349970","Trustworthy,Untrustworthy","html-keyboard-response","158","174276","0.0-11.0-1.49","","58","","<div class='trialDiv'><img src='Fruit/papayas.png'><br><font class='baseline'><strong>Papaya Payday</strong><p>Choose number of points to bet.</font><div class='respPicDiv'><img src='img/responseButtonOffersNo0L.png' class='respPic'></div></div>","5","17","Papaya Payday","Fruit/papayas.png","Won","0.2,0.8","13","0.2","225","50","",""
"","","","decisionFB","63d80b500adef5b476e289a4","bdp_rwlrn","Mon Mar 13 2023 14:29:20 GMT-0400 (Eastern Daylight Time)","349970","Trustworthy,Untrustworthy","html-keyboard-response","159","174528","0.0-11.0-2.49","","null","","<div class='trialDiv'><img src='Fruit/papayas.png'><br><font class='baseline'><strong>Papaya Payday</strong><p>Choose number of points to bet.</font><div class='respPicDiv'><img src='img/responseButtonOffersNo0L5.png' class='respPic'></div></div>","null","17","Papaya Payday","Fruit/papayas.png","Won","0.2,0.8","13","0.2","220","50","",""
"","","","feedback","63d80b500adef5b476e289a4","bdp_rwlrn","Mon Mar 13 2023 14:29:20 GMT-0400 (Eastern Daylight Time)","349970","Trustworthy,Untrustworthy","html-keyboard-response","160","175534","0.0-11.0-3.49","","null","","<div class='respPicDiv'><img src='img/responseButtonOffersNo0_wht.png' class='respPic'></div><div class='trialDiv'><img src='Fruit/papayas.png'><br><font class='baseline'><strong>Papaya Payday</strong><p><strong><font class='posOutcome'>You WON</font><p>You bet: 5</strong></font> &nbsp; &nbsp; &nbsp; &nbsp; &nbsp; &nbsp;<font class='posOutcome'>you receive: <strong>10</strong></font></div>","null","17","Papaya Payday","Fruit/papayas.png","Won","0.2,0.8","13","0.2","230","50","",""
"","","","decision","63d80b500adef5b476e289a4","bdp_rwlrn","Mon Mar 13 2023 14:29:20 GMT-0400 (Eastern Daylight Time)","349970","Trustworthy,Untrustworthy","html-keyboard-response","161","175852","0.0-11.0-1.50","","317","","<div class='trialDiv'><img src='Fruit/mixed-berries2.png'><br><font class='baseline'><strong>Berry Bla$t</strong><p>Choose number of points to bet.</font><div class='respPicDiv'><img src='img/responseButtonOffersNo0L.png' class='respPic'></div></div>","5","17","Berry Bla$t","Fruit/mixed-berries2.png","Lost","0.2,0.65","12","0.2","235","51","",""
"","","","decisionFB","63d80b500adef5b476e289a4","bdp_rwlrn","Mon Mar 13 2023 14:29:20 GMT-0400 (Eastern Daylight Time)","349970","Trustworthy,Untrustworthy","html-keyboard-response","162","176108","0.0-11.0-2.50","","null","","<div class='trialDiv'><img src='Fruit/mixed-berries2.png'><br><font class='baseline'><strong>Berry Bla$t</strong><p>Choose number of points to bet.</font><div class='respPicDiv'><img src='img/responseButtonOffersNo0L5.png' class='respPic'></div></div>","null","17","Berry Bla$t","Fruit/mixed-berries2.png","Lost","0.2,0.65","12","0.2","230","51","",""
