"trial_type","trial_index","time_elapsed","internal_node_id","subject_id","task","startTime","totalTime","labels","view_history","rt","event","trial","time","trialtype","success","stimulus","key_press","ltround","name","fileID","outcome","lottotype","lottoswpt","lottocurrpshare","point_total","round","faceID","face"
"pavlovia","0","9","0.0-0.0","6405feae7d6321bfaaf793e8","bdp_rwlrn","Mon Mar 13 2023 13:42:35 GMT-0500 (Central Daylight Time)","401135","Trustworthy,Untrustworthy","","","","","","","","","","","","","","","","","","","",""
"instructions","1","6663","0.0-1.0","6405feae7d6321bfaaf793e8","bdp_rwlrn","Mon Mar 13 2023 13:42:35 GMT-0500 (Central Daylight Time)","401135","Trustworthy,Untrustworthy","[{""page_index"":0,""viewing_time"":6651}]","6651","","","","","","","","","","","","","","","","","",""
"","","","","6405feae7d6321bfaaf793e8","bdp_rwlrn","Mon Mar 13 2023 13:42:35 GMT-0500 (Central Daylight Time)","401135","Trustworthy,Untrustworthy","","","fullscreenenter","2","10700","fullscreenenter","","","","","","","","","","","","","",""
"fullscreen","2","11710","0.0-2.0","6405feae7d6321bfaaf793e8","bdp_rwlrn","Mon Mar 13 2023 13:42:35 GMT-0500 (Central Daylight Time)","401135","Trustworthy,Untrustworthy","","","","","","","true","","","","","","","","","","","","",""
"instructions","3","81171","0.0-4.0","6405feae7d6321bfaaf793e8","bdp_rwlrn","Mon Mar 13 2023 13:42:35 GMT-0500 (Central Daylight Time)","401135","Trustworthy,Untrustworthy","[{""page_index"":0,""viewing_time"":10712},{""page_index"":1,""viewing_time"":9270},{""page_index"":2,""viewing_time"":8008},{""page_index"":3,""viewing_time"":11770},{""page_index"":4,""viewing_time"":17003},{""page_index"":5,""viewing_time"":12696}]","69459","","","","","","","","","","","","","","","","","",""
"html-keyboard-response","4","84495","0.0-5.0","6405feae7d6321bfaaf793e8","bdp_rwlrn","Mon Mar 13 2023 13:42:35 GMT-0500 (Central Daylight Time)","401135","Trustworthy,Untrustworthy","","3320","","","","","","<div class='header' style='text-align:left; position: absolute; top: 5%; left: 5%;'><small>Task 1 of 5</small></div><div class='instruxDiv'><p><strong>1) What is the maximum number of points you can choose to bet on a lottery?</strong></p><p>a) 0</p><p>b) 1</p><p>c) 5</p>","C","","","","","","","","","","",""
"html-keyboard-response","5","88878","0.0-6.0","6405feae7d6321bfaaf793e8","bdp_rwlrn","Mon Mar 13 2023 13:42:35 GMT-0500 (Central Daylight Time)","401135","Trustworthy,Untrustworthy","","4270","","","","","","<div class='header' style='text-align:left; position: absolute; top: 5%; left: 5%;'><small>Task 1 of 5</small></div><div class='instruxDiv'><p><strong>1) What is the maximum number of points you can choose to bet on a lottery?</strong></p><p>a) 1</p><p>b) 1</p><p style='color:#00FF00'>c) 5</p><h3 style='color:#00FF00'>Correct!</h3><h3 class='center-content'>The correct response is c).</h3><h3 class='center-content'>The maximum number of points you can choose to bet on a lottery is 5 points.</h3><p><em>Press SPACEBAR to continue</em></p></div>"," ","","","","","","","","","","",""
"html-keyboard-response","6","91872","0.0-7.0","6405feae7d6321bfaaf793e8","bdp_rwlrn","Mon Mar 13 2023 13:42:35 GMT-0500 (Central Daylight Time)","401135","Trustworthy,Untrustworthy","","2885","","","","","","<div class='header' style='text-align:left; position: absolute; top: 5%; left: 5%;'><small>Task 1 of 5</small></div><div class='instruxDiv'><p><strong>2) How many points can you win each round?</strong></p><p>a) 10 points</p><p>b) Double what you bet</p><p>c) Quadruple what you bet</p>","B","","","","","","","","","","",""
"html-keyboard-response","7","93365","0.0-8.0","6405feae7d6321bfaaf793e8","bdp_rwlrn","Mon Mar 13 2023 13:42:35 GMT-0500 (Central Daylight Time)","401135","Trustworthy,Untrustworthy","","1372","","","","","","<div class='header' style='text-align:left; position: absolute; top: 5%; left: 5%;'><small>Task 1 of 5</small></div><div class='instruxDiv'><p><strong>2) How many points can you win each round?</strong></p><p>a) 10 points</p><p style='color:#00FF00'>b) Double what you bet</p><p>c) Quadruple what you bet</p><h3 style='color:#00FF00'>Correct!</h3><h3 class='center-content'>The correct response is b).</h3><h3 class='center-content'>You can win double the amount of points you bet.</h3><p><em>Press SPACEBAR to continue</em></p></div>"," ","","","","","","","","","","",""
"html-keyboard-response","8","98486","0.0-9.0","6405feae7d6321bfaaf793e8","bdp_rwlrn","Mon Mar 13 2023 13:42:35 GMT-0500 (Central Daylight Time)","401135","Trustworthy,Untrustworthy","","null","","","","","","<div class='header' style='text-align:left; position: absolute; top: 5%; left: 5%;'><small>Task 1 of 5</small></div><div class='instruxDiv'><p>Thank you for completing the quiz<p>These are the actual lotteries you will be playing in the next block:<p><div class='tc' align='center'><img class='introPic' src='Fruit/plums1.png'><br><strong>Plum Powerball</strong></div><div class='bl' align='center'><img class='introPic' src='Fruit/pears.png'><br><strong>Pears Aplenty</strong></div><div class='br' align='center'><img class='introPic' src='Fruit/lime.png'><br><strong>Limin' Large</strong></div></div><p>Across <strong>66 rounds</strong> you will play each lottery <strong>22 times</strong> (in random order).<p style='align:center; color:white'><font <em>Press SPACEBAR to continue</em></p>","null","","","","","","","","","","",""
"instructions","9","113837","0.0-10.0","6405feae7d6321bfaaf793e8","bdp_rwlrn","Mon Mar 13 2023 13:42:35 GMT-0500 (Central Daylight Time)","401135","Trustworthy,Untrustworthy","[{""page_index"":0,""viewing_time"":10835},{""page_index"":1,""viewing_time"":4514}]","15350","","","","","","","","","","","","","","","","","",""
"html-keyboard-response","10","118201","0.0-11.0-1.0","6405feae7d6321bfaaf793e8","bdp_rwlrn","Mon Mar 13 2023 13:42:35 GMT-0500 (Central Daylight Time)","401135","Trustworthy,Untrustworthy","","4248","","","","decision","","<div class='trialDiv'><img src='Fruit/pears.png'><br><font class='baseline'><strong>Pears Aplenty</strong><p>Choose number of points to bet.</font><div class='respPicDiv'><img src='img/responseButtonOffersNo0L.png' class='respPic'></div></div>","5","1","Pears Aplenty","Fruit/pears.png","Won","0.65,0.35","12","0.65","5","1","",""
"html-keyboard-response","11","118474","0.0-11.0-2.0","6405feae7d6321bfaaf793e8","bdp_rwlrn","Mon Mar 13 2023 13:42:35 GMT-0500 (Central Daylight Time)","401135","Trustworthy,Untrustworthy","","null","","","","decisionFB","","<div class='trialDiv'><img src='Fruit/pears.png'><br><font class='baseline'><strong>Pears Aplenty</strong><p>Choose number of points to bet.</font><div class='respPicDiv'><img src='img/responseButtonOffersNo0L5.png' class='respPic'></div></div>","null","1","Pears Aplenty","Fruit/pears.png","Won","0.65,0.35","12","0.65","0","1","",""
"html-keyboard-response","12","119487","0.0-11.0-3.0","6405feae7d6321bfaaf793e8","bdp_rwlrn","Mon Mar 13 2023 13:42:35 GMT-0500 (Central Daylight Time)","401135","Trustworthy,Untrustworthy","","null","","","","feedback","","<div class='respPicDiv'><img src='img/responseButtonOffersNo0_wht.png' class='respPic'></div><div class='trialDiv'><img src='Fruit/pears.png'><br><font class='baseline'><strong>Pears Aplenty</strong><p><strong><font class='posOutcome'>You WON</font><p>You bet: 5</strong></font> &nbsp; &nbsp; &nbsp; &nbsp; &nbsp; &nbsp;<font class='posOutcome'>you receive: <strong>10</strong></font></div>","null","1","Pears Aplenty","Fruit/pears.png","Won","0.65,0.35","12","0.65","10","1","",""
"html-keyboard-response","13","121042","0.0-11.0-1.1","6405feae7d6321bfaaf793e8","bdp_rwlrn","Mon Mar 13 2023 13:42:35 GMT-0500 (Central Daylight Time)","401135","Trustworthy,Untrustworthy","","1553","","","","decision","","<div class='trialDiv'><img src='Fruit/plums1.png'><br><font class='baseline'><strong>Plum Powerball</strong><p>Choose number of points to bet.</font><div class='respPicDiv'><img src='img/responseButtonOffersNo0L.png' class='respPic'></div></div>","2","1","Plum Powerball","Fruit/plums1.png","Lost","0.2,0.65","10","0.2","15","2","",""
"html-keyboard-response","14","121307","0.0-11.0-2.1","6405feae7d6321bfaaf793e8","bdp_rwlrn","Mon Mar 13 2023 13:42:35 GMT-0500 (Central Daylight Time)","401135","Trustworthy,Untrustworthy","","null","","","","decisionFB","","<div class='trialDiv'><img src='Fruit/plums1.png'><br><font class='baseline'><strong>Plum Powerball</strong><p>Choose number of points to bet.</font><div class='respPicDiv'><img src='img/responseButtonOffersNo0L2.png' class='respPic'></div></div>","null","1","Plum Powerball","Fruit/plums1.png","Lost","0.2,0.65","10","0.2","13","2","",""
"html-keyboard-response","15","122323","0.0-11.0-3.1","6405feae7d6321bfaaf793e8","bdp_rwlrn","Mon Mar 13 2023 13:42:35 GMT-0500 (Central Daylight Time)","401135","Trustworthy,Untrustworthy","","null","","","","feedback","","<div class='respPicDiv'><img src='img/responseButtonOffersNo0_wht.png' class='respPic'></div><div class='trialDiv'><img src='Fruit/plums1.png'><br><font class='baseline'><strong>Plum Powerball</strong><p><strong><font class='negOutcome'>You LOST</font><p>You bet: 2</strong></font> &nbsp; &nbsp; &nbsp; &nbsp; &nbsp; &nbsp;<font class='negOutcome'>You receive: <strong>0</strong></font></div>","null","1","Plum Powerball","Fruit/plums1.png","Lost","0.2,0.65","10","0.2","13","2","",""
"html-keyboard-response","16","124096","0.0-11.0-1.2","6405feae7d6321bfaaf793e8","bdp_rwlrn","Mon Mar 13 2023 13:42:35 GMT-0500 (Central Daylight Time)","401135","Trustworthy,Untrustworthy","","1772","","","","decision","","<div class='trialDiv'><img src='Fruit/lime.png'><br><font class='baseline'><strong>Limin' Large</strong><p>Choose number of points to bet.</font><div class='respPicDiv'><img src='img/responseButtonOffersNo0L.png' class='respPic'></div></div>","3","1","Limin' Large","Fruit/lime.png","Won","0.65,0.2","9","0.65","18","3","",""
"html-keyboard-response","17","124357","0.0-11.0-2.2","6405feae7d6321bfaaf793e8","bdp_rwlrn","Mon Mar 13 2023 13:42:35 GMT-0500 (Central Daylight Time)","401135","Trustworthy,Untrustworthy","","null","","","","decisionFB","","<div class='trialDiv'><img src='Fruit/lime.png'><br><font class='baseline'><strong>Limin' Large</strong><p>Choose number of points to bet.</font><div class='respPicDiv'><img src='img/responseButtonOffersNo0L3.png' class='respPic'></div></div>","null","1","Limin' Large","Fruit/lime.png","Won","0.65,0.2","9","0.65","15","3","",""
"html-keyboard-response","18","125372","0.0-11.0-3.2","6405feae7d6321bfaaf793e8","bdp_rwlrn","Mon Mar 13 2023 13:42:35 GMT-0500 (Central Daylight Time)","401135","Trustworthy,Untrustworthy","","null","","","","feedback","","<div class='respPicDiv'><img src='img/responseButtonOffersNo0_wht.png' class='respPic'></div><div class='trialDiv'><img src='Fruit/lime.png'><br><font class='baseline'><strong>Limin' Large</strong><p><strong><font class='posOutcome'>You WON</font><p>You bet: 3</strong></font> &nbsp; &nbsp; &nbsp; &nbsp; &nbsp; &nbsp;<font class='posOutcome'>you receive: <strong>6</strong></font></div>","null","1","Limin' Large","Fruit/lime.png","Won","0.65,0.2","9","0.65","21","3","",""
"html-keyboard-response","19","126260","0.0-11.0-1.3","6405feae7d6321bfaaf793e8","bdp_rwlrn","Mon Mar 13 2023 13:42:35 GMT-0500 (Central Daylight Time)","401135","Trustworthy,Untrustworthy","","885","","","","decision","","<div class='trialDiv'><img src='Fruit/pears.png'><br><font class='baseline'><strong>Pears Aplenty</strong><p>Choose number of points to bet.</font><div class='respPicDiv'><img src='img/responseButtonOffersNo0L.png' class='respPic'></div></div>","4","2","Pears Aplenty","Fruit/pears.png","Won","0.65,0.35","12","0.65","26","4","",""
"html-keyboard-response","20","126523","0.0-11.0-2.3","6405feae7d6321bfaaf793e8","bdp_rwlrn","Mon Mar 13 2023 13:42:35 GMT-0500 (Central Daylight Time)","401135","Trustworthy,Untrustworthy","","null","","","","decisionFB","","<div class='trialDiv'><img src='Fruit/pears.png'><br><font class='baseline'><strong>Pears Aplenty</strong><p>Choose number of points to bet.</font><div class='respPicDiv'><img src='img/responseButtonOffersNo0L4.png' class='respPic'></div></div>","null","2","Pears Aplenty","Fruit/pears.png","Won","0.65,0.35","12","0.65","22","4","",""
"html-keyboard-response","21","127539","0.0-11.0-3.3","6405feae7d6321bfaaf793e8","bdp_rwlrn","Mon Mar 13 2023 13:42:35 GMT-0500 (Central Daylight Time)","401135","Trustworthy,Untrustworthy","","null","","","","feedback","","<div class='respPicDiv'><img src='img/responseButtonOffersNo0_wht.png' class='respPic'></div><div class='trialDiv'><img src='Fruit/pears.png'><br><font class='baseline'><strong>Pears Aplenty</strong><p><strong><font class='posOutcome'>You WON</font><p>You bet: 4</strong></font> &nbsp; &nbsp; &nbsp; &nbsp; &nbsp; &nbsp;<font class='posOutcome'>you receive: <strong>8</strong></font></div>","null","2","Pears Aplenty","Fruit/pears.png","Won","0.65,0.35","12","0.65","30","4","",""
"html-keyboard-response","22","130130","0.0-11.0-1.4","6405feae7d6321bfaaf793e8","bdp_rwlrn","Mon Mar 13 2023 13:42:35 GMT-0500 (Central Daylight Time)","401135","Trustworthy,Untrustworthy","","2590","","","","decision","","<div class='trialDiv'><img src='Fruit/lime.png'><br><font class='baseline'><strong>Limin' Large</strong><p>Choose number of points to bet.</font><div class='respPicDiv'><img src='img/responseButtonOffersNo0L.png' class='respPic'></div></div>","4","2","Limin' Large","Fruit/lime.png","Won","0.65,0.2","9","0.65","35","5","",""
"html-keyboard-response","23","130405","0.0-11.0-2.4","6405feae7d6321bfaaf793e8","bdp_rwlrn","Mon Mar 13 2023 13:42:35 GMT-0500 (Central Daylight Time)","401135","Trustworthy,Untrustworthy","","null","","","","decisionFB","","<div class='trialDiv'><img src='Fruit/lime.png'><br><font class='baseline'><strong>Limin' Large</strong><p>Choose number of points to bet.</font><div class='respPicDiv'><img src='img/responseButtonOffersNo0L4.png' class='respPic'></div></div>","null","2","Limin' Large","Fruit/lime.png","Won","0.65,0.2","9","0.65","31","5","",""
"html-keyboard-response","24","131423","0.0-11.0-3.4","6405feae7d6321bfaaf793e8","bdp_rwlrn","Mon Mar 13 2023 13:42:35 GMT-0500 (Central Daylight Time)","401135","Trustworthy,Untrustworthy","","null","","","","feedback","","<div class='respPicDiv'><img src='img/responseButtonOffersNo0_wht.png' class='respPic'></div><div class='trialDiv'><img src='Fruit/lime.png'><br><font class='baseline'><strong>Limin' Large</strong><p><strong><font class='posOutcome'>You WON</font><p>You bet: 4</strong></font> &nbsp; &nbsp; &nbsp; &nbsp; &nbsp; &nbsp;<font class='posOutcome'>you receive: <strong>8</strong></font></div>","null","2","Limin' Large","Fruit/lime.png","Won","0.65,0.2","9","0.65","39","5","",""
"html-keyboard-response","25","133370","0.0-11.0-1.5","6405feae7d6321bfaaf793e8","bdp_rwlrn","Mon Mar 13 2023 13:42:35 GMT-0500 (Central Daylight Time)","401135","Trustworthy,Untrustworthy","","1944","","","","decision","","<div class='trialDiv'><img src='Fruit/plums1.png'><br><font class='baseline'><strong>Plum Powerball</strong><p>Choose number of points to bet.</font><div class='respPicDiv'><img src='img/responseButtonOffersNo0L.png' class='respPic'></div></div>","1","2","Plum Powerball","Fruit/plums1.png","Lost","0.2,0.65","10","0.2","44","6","",""
"html-keyboard-response","26","133628","0.0-11.0-2.5","6405feae7d6321bfaaf793e8","bdp_rwlrn","Mon Mar 13 2023 13:42:35 GMT-0500 (Central Daylight Time)","401135","Trustworthy,Untrustworthy","","null","","","","decisionFB","","<div class='trialDiv'><img src='Fruit/plums1.png'><br><font class='baseline'><strong>Plum Powerball</strong><p>Choose number of points to bet.</font><div class='respPicDiv'><img src='img/responseButtonOffersNo0L1.png' class='respPic'></div></div>","null","2","Plum Powerball","Fruit/plums1.png","Lost","0.2,0.65","10","0.2","43","6","",""
"html-keyboard-response","27","134639","0.0-11.0-3.5","6405feae7d6321bfaaf793e8","bdp_rwlrn","Mon Mar 13 2023 13:42:35 GMT-0500 (Central Daylight Time)","401135","Trustworthy,Untrustworthy","","null","","","","feedback","","<div class='respPicDiv'><img src='img/responseButtonOffersNo0_wht.png' class='respPic'></div><div class='trialDiv'><img src='Fruit/plums1.png'><br><font class='baseline'><strong>Plum Powerball</strong><p><strong><font class='negOutcome'>You LOST</font><p>You bet: 1</strong></font> &nbsp; &nbsp; &nbsp; &nbsp; &nbsp; &nbsp;<font class='negOutcome'>You receive: <strong>0</strong></font></div>","null","2","Plum Powerball","Fruit/plums1.png","Lost","0.2,0.65","10","0.2","43","6","",""
"html-keyboard-response","28","135596","0.0-11.0-1.6","6405feae7d6321bfaaf793e8","bdp_rwlrn","Mon Mar 13 2023 13:42:35 GMT-0500 (Central Daylight Time)","401135","Trustworthy,Untrustworthy","","956","","","","decision","","<div class='trialDiv'><img src='Fruit/lime.png'><br><font class='baseline'><strong>Limin' Large</strong><p>Choose number of points to bet.</font><div class='respPicDiv'><img src='img/responseButtonOffersNo0L.png' class='respPic'></div></div>","3","3","Limin' Large","Fruit/lime.png","Lost","0.65,0.2","9","0.65","48","7","",""
"html-keyboard-response","29","135857","0.0-11.0-2.6","6405feae7d6321bfaaf793e8","bdp_rwlrn","Mon Mar 13 2023 13:42:35 GMT-0500 (Central Daylight Time)","401135","Trustworthy,Untrustworthy","","null","","","","decisionFB","","<div class='trialDiv'><img src='Fruit/lime.png'><br><font class='baseline'><strong>Limin' Large</strong><p>Choose number of points to bet.</font><div class='respPicDiv'><img src='img/responseButtonOffersNo0L3.png' class='respPic'></div></div>","null","3","Limin' Large","Fruit/lime.png","Lost","0.65,0.2","9","0.65","45","7","",""
"html-keyboard-response","30","136872","0.0-11.0-3.6","6405feae7d6321bfaaf793e8","bdp_rwlrn","Mon Mar 13 2023 13:42:35 GMT-0500 (Central Daylight Time)","401135","Trustworthy,Untrustworthy","","null","","","","feedback","","<div class='respPicDiv'><img src='img/responseButtonOffersNo0_wht.png' class='respPic'></div><div class='trialDiv'><img src='Fruit/lime.png'><br><font class='baseline'><strong>Limin' Large</strong><p><strong><font class='negOutcome'>You LOST</font><p>You bet: 3</strong></font> &nbsp; &nbsp; &nbsp; &nbsp; &nbsp; &nbsp;<font class='negOutcome'>You receive: <strong>0</strong></font></div>","null","3","Limin' Large","Fruit/lime.png","Lost","0.65,0.2","9","0.65","45","7","",""
"html-keyboard-response","31","138110","0.0-11.0-1.7","6405feae7d6321bfaaf793e8","bdp_rwlrn","Mon Mar 13 2023 13:42:35 GMT-0500 (Central Daylight Time)","401135","Trustworthy,Untrustworthy","","1236","","","","decision","","<div class='trialDiv'><img src='Fruit/pears.png'><br><font class='baseline'><strong>Pears Aplenty</strong><p>Choose number of points to bet.</font><div class='respPicDiv'><img src='img/responseButtonOffersNo0L.png' class='respPic'></div></div>","5","3","Pears Aplenty","Fruit/pears.png","Won","0.65,0.35","12","0.65","50","8","",""
"html-keyboard-response","32","138373","0.0-11.0-2.7","6405feae7d6321bfaaf793e8","bdp_rwlrn","Mon Mar 13 2023 13:42:35 GMT-0500 (Central Daylight Time)","401135","Trustworthy,Untrustworthy","","null","","","","decisionFB","","<div class='trialDiv'><img src='Fruit/pears.png'><br><font class='baseline'><strong>Pears Aplenty</strong><p>Choose number of points to bet.</font><div class='respPicDiv'><img src='img/responseButtonOffersNo0L5.png' class='respPic'></div></div>","null","3","Pears Aplenty","Fruit/pears.png","Won","0.65,0.35","12","0.65","45","8","",""
"html-keyboard-response","33","139390","0.0-11.0-3.7","6405feae7d6321bfaaf793e8","bdp_rwlrn","Mon Mar 13 2023 13:42:35 GMT-0500 (Central Daylight Time)","401135","Trustworthy,Untrustworthy","","null","","","","feedback","","<div class='respPicDiv'><img src='img/responseButtonOffersNo0_wht.png' class='respPic'></div><div class='trialDiv'><img src='Fruit/pears.png'><br><font class='baseline'><strong>Pears Aplenty</strong><p><strong><font class='posOutcome'>You WON</font><p>You bet: 5</strong></font> &nbsp; &nbsp; &nbsp; &nbsp; &nbsp; &nbsp;<font class='posOutcome'>you receive: <strong>10</strong></font></div>","null","3","Pears Aplenty","Fruit/pears.png","Won","0.65,0.35","12","0.65","55","8","",""
"html-keyboard-response","34","140040","0.0-11.0-1.8","6405feae7d6321bfaaf793e8","bdp_rwlrn","Mon Mar 13 2023 13:42:35 GMT-0500 (Central Daylight Time)","401135","Trustworthy,Untrustworthy","","648","","","","decision","","<div class='trialDiv'><img src='Fruit/plums1.png'><br><font class='baseline'><strong>Plum Powerball</strong><p>Choose number of points to bet.</font><div class='respPicDiv'><img src='img/responseButtonOffersNo0L.png' class='respPic'></div></div>","5","3","Plum Powerball","Fruit/plums1.png","Lost","0.2,0.65","10","0.2","60","9","",""
"html-keyboard-response","35","140307","0.0-11.0-2.8","6405feae7d6321bfaaf793e8","bdp_rwlrn","Mon Mar 13 2023 13:42:35 GMT-0500 (Central Daylight Time)","401135","Trustworthy,Untrustworthy","","null","","","","decisionFB","","<div class='trialDiv'><img src='Fruit/plums1.png'><br><font class='baseline'><strong>Plum Powerball</strong><p>Choose number of points to bet.</font><div class='respPicDiv'><img src='img/responseButtonOffersNo0L5.png' class='respPic'></div></div>","null","3","Plum Powerball","Fruit/plums1.png","Lost","0.2,0.65","10","0.2","55","9","",""
"html-keyboard-response","36","141324","0.0-11.0-3.8","6405feae7d6321bfaaf793e8","bdp_rwlrn","Mon Mar 13 2023 13:42:35 GMT-0500 (Central Daylight Time)","401135","Trustworthy,Untrustworthy","","null","","","","feedback","","<div class='respPicDiv'><img src='img/responseButtonOffersNo0_wht.png' class='respPic'></div><div class='trialDiv'><img src='Fruit/plums1.png'><br><font class='baseline'><strong>Plum Powerball</strong><p><strong><font class='negOutcome'>You LOST</font><p>You bet: 5</strong></font> &nbsp; &nbsp; &nbsp; &nbsp; &nbsp; &nbsp;<font class='negOutcome'>You receive: <strong>0</strong></font></div>","null","3","Plum Powerball","Fruit/plums1.png","Lost","0.2,0.65","10","0.2","55","9","",""
"html-keyboard-response","37","143833","0.0-11.0-1.9","6405feae7d6321bfaaf793e8","bdp_rwlrn","Mon Mar 13 2023 13:42:35 GMT-0500 (Central Daylight Time)","401135","Trustworthy,Untrustworthy","","2507","","","","decision","","<div class='trialDiv'><img src='Fruit/lime.png'><br><font class='baseline'><strong>Limin' Large</strong><p>Choose number of points to bet.</font><div class='respPicDiv'><img src='img/responseButtonOffersNo0L.png' class='respPic'></div></div>","4","4","Limin' Large","Fruit/lime.png","Won","0.65,0.2","9","0.65","60","10","",""
"html-keyboard-response","38","144091","0.0-11.0-2.9","6405feae7d6321bfaaf793e8","bdp_rwlrn","Mon Mar 13 2023 13:42:35 GMT-0500 (Central Daylight Time)","401135","Trustworthy,Untrustworthy","","null","","","","decisionFB","","<div class='trialDiv'><img src='Fruit/lime.png'><br><font class='baseline'><strong>Limin' Large</strong><p>Choose number of points to bet.</font><div class='respPicDiv'><img src='img/responseButtonOffersNo0L4.png' class='respPic'></div></div>","null","4","Limin' Large","Fruit/lime.png","Won","0.65,0.2","9","0.65","56","10","",""
"html-keyboard-response","39","145098","0.0-11.0-3.9","6405feae7d6321bfaaf793e8","bdp_rwlrn","Mon Mar 13 2023 13:42:35 GMT-0500 (Central Daylight Time)","401135","Trustworthy,Untrustworthy","","null","","","","feedback","","<div class='respPicDiv'><img src='img/responseButtonOffersNo0_wht.png' class='respPic'></div><div class='trialDiv'><img src='Fruit/lime.png'><br><font class='baseline'><strong>Limin' Large</strong><p><strong><font class='posOutcome'>You WON</font><p>You bet: 4</strong></font> &nbsp; &nbsp; &nbsp; &nbsp; &nbsp; &nbsp;<font class='posOutcome'>you receive: <strong>8</strong></font></div>","null","4","Limin' Large","Fruit/lime.png","Won","0.65,0.2","9","0.65","64","10","",""
"html-keyboard-response","40","146277","0.0-11.0-1.10","6405feae7d6321bfaaf793e8","bdp_rwlrn","Mon Mar 13 2023 13:42:35 GMT-0500 (Central Daylight Time)","401135","Trustworthy,Untrustworthy","","1177","","","","decision","","<div class='trialDiv'><img src='Fruit/plums1.png'><br><font class='baseline'><strong>Plum Powerball</strong><p>Choose number of points to bet.</font><div class='respPicDiv'><img src='img/responseButtonOffersNo0L.png' class='respPic'></div></div>","3","4","Plum Powerball","Fruit/plums1.png","Lost","0.2,0.65","10","0.2","69","11","",""
"html-keyboard-response","41","146540","0.0-11.0-2.10","6405feae7d6321bfaaf793e8","bdp_rwlrn","Mon Mar 13 2023 13:42:35 GMT-0500 (Central Daylight Time)","401135","Trustworthy,Untrustworthy","","null","","","","decisionFB","","<div class='trialDiv'><img src='Fruit/plums1.png'><br><font class='baseline'><strong>Plum Powerball</strong><p>Choose number of points to bet.</font><div class='respPicDiv'><img src='img/responseButtonOffersNo0L3.png' class='respPic'></div></div>","null","4","Plum Powerball","Fruit/plums1.png","Lost","0.2,0.65","10","0.2","66","11","",""
"html-keyboard-response","42","147557","0.0-11.0-3.10","6405feae7d6321bfaaf793e8","bdp_rwlrn","Mon Mar 13 2023 13:42:35 GMT-0500 (Central Daylight Time)","401135","Trustworthy,Untrustworthy","","null","","","","feedback","","<div class='respPicDiv'><img src='img/responseButtonOffersNo0_wht.png' class='respPic'></div><div class='trialDiv'><img src='Fruit/plums1.png'><br><font class='baseline'><strong>Plum Powerball</strong><p><strong><font class='negOutcome'>You LOST</font><p>You bet: 3</strong></font> &nbsp; &nbsp; &nbsp; &nbsp; &nbsp; &nbsp;<font class='negOutcome'>You receive: <strong>0</strong></font></div>","null","4","Plum Powerball","Fruit/plums1.png","Lost","0.2,0.65","10","0.2","66","11","",""
"html-keyboard-response","43","148468","0.0-11.0-1.11","6405feae7d6321bfaaf793e8","bdp_rwlrn","Mon Mar 13 2023 13:42:35 GMT-0500 (Central Daylight Time)","401135","Trustworthy,Untrustworthy","","910","","","","decision","","<div class='trialDiv'><img src='Fruit/pears.png'><br><font class='baseline'><strong>Pears Aplenty</strong><p>Choose number of points to bet.</font><div class='respPicDiv'><img src='img/responseButtonOffersNo0L.png' class='respPic'></div></div>","5","4","Pears Aplenty","Fruit/pears.png","Lost","0.65,0.35","12","0.65","71","12","",""
"html-keyboard-response","44","148732","0.0-11.0-2.11","6405feae7d6321bfaaf793e8","bdp_rwlrn","Mon Mar 13 2023 13:42:35 GMT-0500 (Central Daylight Time)","401135","Trustworthy,Untrustworthy","","null","","","","decisionFB","","<div class='trialDiv'><img src='Fruit/pears.png'><br><font class='baseline'><strong>Pears Aplenty</strong><p>Choose number of points to bet.</font><div class='respPicDiv'><img src='img/responseButtonOffersNo0L5.png' class='respPic'></div></div>","null","4","Pears Aplenty","Fruit/pears.png","Lost","0.65,0.35","12","0.65","66","12","",""
"html-keyboard-response","45","149747","0.0-11.0-3.11","6405feae7d6321bfaaf793e8","bdp_rwlrn","Mon Mar 13 2023 13:42:35 GMT-0500 (Central Daylight Time)","401135","Trustworthy,Untrustworthy","","null","","","","feedback","","<div class='respPicDiv'><img src='img/responseButtonOffersNo0_wht.png' class='respPic'></div><div class='trialDiv'><img src='Fruit/pears.png'><br><font class='baseline'><strong>Pears Aplenty</strong><p><strong><font class='negOutcome'>You LOST</font><p>You bet: 5</strong></font> &nbsp; &nbsp; &nbsp; &nbsp; &nbsp; &nbsp;<font class='negOutcome'>You receive: <strong>0</strong></font></div>","null","4","Pears Aplenty","Fruit/pears.png","Lost","0.65,0.35","12","0.65","66","12","",""
"html-keyboard-response","46","150636","0.0-11.0-1.12","6405feae7d6321bfaaf793e8","bdp_rwlrn","Mon Mar 13 2023 13:42:35 GMT-0500 (Central Daylight Time)","401135","Trustworthy,Untrustworthy","","887","","","","decision","","<div class='trialDiv'><img src='Fruit/lime.png'><br><font class='baseline'><strong>Limin' Large</strong><p>Choose number of points to bet.</font><div class='respPicDiv'><img src='img/responseButtonOffersNo0L.png' class='respPic'></div></div>","5","5","Limin' Large","Fruit/lime.png","Won","0.65,0.2","9","0.65","71","13","",""
"html-keyboard-response","47","150907","0.0-11.0-2.12","6405feae7d6321bfaaf793e8","bdp_rwlrn","Mon Mar 13 2023 13:42:35 GMT-0500 (Central Daylight Time)","401135","Trustworthy,Untrustworthy","","null","","","","decisionFB","","<div class='trialDiv'><img src='Fruit/lime.png'><br><font class='baseline'><strong>Limin' Large</strong><p>Choose number of points to bet.</font><div class='respPicDiv'><img src='img/responseButtonOffersNo0L5.png' class='respPic'></div></div>","null","5","Limin' Large","Fruit/lime.png","Won","0.65,0.2","9","0.65","66","13","",""
"html-keyboard-response","48","151923","0.0-11.0-3.12","6405feae7d6321bfaaf793e8","bdp_rwlrn","Mon Mar 13 2023 13:42:35 GMT-0500 (Central Daylight Time)","401135","Trustworthy,Untrustworthy","","null","","","","feedback","","<div class='respPicDiv'><img src='img/responseButtonOffersNo0_wht.png' class='respPic'></div><div class='trialDiv'><img src='Fruit/lime.png'><br><font class='baseline'><strong>Limin' Large</strong><p><strong><font class='posOutcome'>You WON</font><p>You bet: 5</strong></font> &nbsp; &nbsp; &nbsp; &nbsp; &nbsp; &nbsp;<font class='posOutcome'>you receive: <strong>10</strong></font></div>","null","5","Limin' Large","Fruit/lime.png","Won","0.65,0.2","9","0.65","76","13","",""
"html-keyboard-response","49","153469","0.0-11.0-1.13","6405feae7d6321bfaaf793e8","bdp_rwlrn","Mon Mar 13 2023 13:42:35 GMT-0500 (Central Daylight Time)","401135","Trustworthy,Untrustworthy","","1543","","","","decision","","<div class='trialDiv'><img src='Fruit/pears.png'><br><font class='baseline'><strong>Pears Aplenty</strong><p>Choose number of points to bet.</font><div class='respPicDiv'><img src='img/responseButtonOffersNo0L.png' class='respPic'></div></div>","2","5","Pears Aplenty","Fruit/pears.png","Lost","0.65,0.35","12","0.65","81","14","",""
"html-keyboard-response","50","153726","0.0-11.0-2.13","6405feae7d6321bfaaf793e8","bdp_rwlrn","Mon Mar 13 2023 13:42:35 GMT-0500 (Central Daylight Time)","401135","Trustworthy,Untrustworthy","","null","","","","decisionFB","","<div class='trialDiv'><img src='Fruit/pears.png'><br><font class='baseline'><strong>Pears Aplenty</strong><p>Choose number of points to bet.</font><div class='respPicDiv'><img src='img/responseButtonOffersNo0L2.png' class='respPic'></div></div>","null","5","Pears Aplenty","Fruit/pears.png","Lost","0.65,0.35","12","0.65","79","14","",""
"html-keyboard-response","51","154740","0.0-11.0-3.13","6405feae7d6321bfaaf793e8","bdp_rwlrn","Mon Mar 13 2023 13:42:35 GMT-0500 (Central Daylight Time)","401135","Trustworthy,Untrustworthy","","null","","","","feedback","","<div class='respPicDiv'><img src='img/responseButtonOffersNo0_wht.png' class='respPic'></div><div class='trialDiv'><img src='Fruit/pears.png'><br><font class='baseline'><strong>Pears Aplenty</strong><p><strong><font class='negOutcome'>You LOST</font><p>You bet: 2</strong></font> &nbsp; &nbsp; &nbsp; &nbsp; &nbsp; &nbsp;<font class='negOutcome'>You receive: <strong>0</strong></font></div>","null","5","Pears Aplenty","Fruit/pears.png","Lost","0.65,0.35","12","0.65","79","14","",""
"html-keyboard-response","52","155712","0.0-11.0-1.14","6405feae7d6321bfaaf793e8","bdp_rwlrn","Mon Mar 13 2023 13:42:35 GMT-0500 (Central Daylight Time)","401135","Trustworthy,Untrustworthy","","971","","","","decision","","<div class='trialDiv'><img src='Fruit/plums1.png'><br><font class='baseline'><strong>Plum Powerball</strong><p>Choose number of points to bet.</font><div class='respPicDiv'><img src='img/responseButtonOffersNo0L.png' class='respPic'></div></div>","5","5","Plum Powerball","Fruit/plums1.png","Lost","0.2,0.65","10","0.2","84","15","",""
"html-keyboard-response","53","155974","0.0-11.0-2.14","6405feae7d6321bfaaf793e8","bdp_rwlrn","Mon Mar 13 2023 13:42:35 GMT-0500 (Central Daylight Time)","401135","Trustworthy,Untrustworthy","","null","","","","decisionFB","","<div class='trialDiv'><img src='Fruit/plums1.png'><br><font class='baseline'><strong>Plum Powerball</strong><p>Choose number of points to bet.</font><div class='respPicDiv'><img src='img/responseButtonOffersNo0L5.png' class='respPic'></div></div>","null","5","Plum Powerball","Fruit/plums1.png","Lost","0.2,0.65","10","0.2","79","15","",""
"html-keyboard-response","54","156991","0.0-11.0-3.14","6405feae7d6321bfaaf793e8","bdp_rwlrn","Mon Mar 13 2023 13:42:35 GMT-0500 (Central Daylight Time)","401135","Trustworthy,Untrustworthy","","null","","","","feedback","","<div class='respPicDiv'><img src='img/responseButtonOffersNo0_wht.png' class='respPic'></div><div class='trialDiv'><img src='Fruit/plums1.png'><br><font class='baseline'><strong>Plum Powerball</strong><p><strong><font class='negOutcome'>You LOST</font><p>You bet: 5</strong></font> &nbsp; &nbsp; &nbsp; &nbsp; &nbsp; &nbsp;<font class='negOutcome'>You receive: <strong>0</strong></font></div>","null","5","Plum Powerball","Fruit/plums1.png","Lost","0.2,0.65","10","0.2","79","15","",""
"html-keyboard-response","55","157621","0.0-11.0-1.15","6405feae7d6321bfaaf793e8","bdp_rwlrn","Mon Mar 13 2023 13:42:35 GMT-0500 (Central Daylight Time)","401135","Trustworthy,Untrustworthy","","629","","","","decision","","<div class='trialDiv'><img src='Fruit/lime.png'><br><font class='baseline'><strong>Limin' Large</strong><p>Choose number of points to bet.</font><div class='respPicDiv'><img src='img/responseButtonOffersNo0L.png' class='respPic'></div></div>","5","6","Limin' Large","Fruit/lime.png","Won","0.65,0.2","9","0.65","84","16","",""
"html-keyboard-response","56","157891","0.0-11.0-2.15","6405feae7d6321bfaaf793e8","bdp_rwlrn","Mon Mar 13 2023 13:42:35 GMT-0500 (Central Daylight Time)","401135","Trustworthy,Untrustworthy","","null","","","","decisionFB","","<div class='trialDiv'><img src='Fruit/lime.png'><br><font class='baseline'><strong>Limin' Large</strong><p>Choose number of points to bet.</font><div class='respPicDiv'><img src='img/responseButtonOffersNo0L5.png' class='respPic'></div></div>","null","6","Limin' Large","Fruit/lime.png","Won","0.65,0.2","9","0.65","79","16","",""
"html-keyboard-response","57","158907","0.0-11.0-3.15","6405feae7d6321bfaaf793e8","bdp_rwlrn","Mon Mar 13 2023 13:42:35 GMT-0500 (Central Daylight Time)","401135","Trustworthy,Untrustworthy","","null","","","","feedback","","<div class='respPicDiv'><img src='img/responseButtonOffersNo0_wht.png' class='respPic'></div><div class='trialDiv'><img src='Fruit/lime.png'><br><font class='baseline'><strong>Limin' Large</strong><p><strong><font class='posOutcome'>You WON</font><p>You bet: 5</strong></font> &nbsp; &nbsp; &nbsp; &nbsp; &nbsp; &nbsp;<font class='posOutcome'>you receive: <strong>10</strong></font></div>","null","6","Limin' Large","Fruit/lime.png","Won","0.65,0.2","9","0.65","89","16","",""
"html-keyboard-response","58","159531","0.0-11.0-1.16","6405feae7d6321bfaaf793e8","bdp_rwlrn","Mon Mar 13 2023 13:42:35 GMT-0500 (Central Daylight Time)","401135","Trustworthy,Untrustworthy","","623","","","","decision","","<div class='trialDiv'><img src='Fruit/plums1.png'><br><font class='baseline'><strong>Plum Powerball</strong><p>Choose number of points to bet.</font><div class='respPicDiv'><img src='img/responseButtonOffersNo0L.png' class='respPic'></div></div>","5","6","Plum Powerball","Fruit/plums1.png","Won","0.2,0.65","10","0.2","94","17","",""
"html-keyboard-response","59","159791","0.0-11.0-2.16","6405feae7d6321bfaaf793e8","bdp_rwlrn","Mon Mar 13 2023 13:42:35 GMT-0500 (Central Daylight Time)","401135","Trustworthy,Untrustworthy","","null","","","","decisionFB","","<div class='trialDiv'><img src='Fruit/plums1.png'><br><font class='baseline'><strong>Plum Powerball</strong><p>Choose number of points to bet.</font><div class='respPicDiv'><img src='img/responseButtonOffersNo0L5.png' class='respPic'></div></div>","null","6","Plum Powerball","Fruit/plums1.png","Won","0.2,0.65","10","0.2","89","17","",""
"html-keyboard-response","60","160807","0.0-11.0-3.16","6405feae7d6321bfaaf793e8","bdp_rwlrn","Mon Mar 13 2023 13:42:35 GMT-0500 (Central Daylight Time)","401135","Trustworthy,Untrustworthy","","null","","","","feedback","","<div class='respPicDiv'><img src='img/responseButtonOffersNo0_wht.png' class='respPic'></div><div class='trialDiv'><img src='Fruit/plums1.png'><br><font class='baseline'><strong>Plum Powerball</strong><p><strong><font class='posOutcome'>You WON</font><p>You bet: 5</strong></font> &nbsp; &nbsp; &nbsp; &nbsp; &nbsp; &nbsp;<font class='posOutcome'>you receive: <strong>10</strong></font></div>","null","6","Plum Powerball","Fruit/plums1.png","Won","0.2,0.65","10","0.2","99","17","",""
"html-keyboard-response","61","161364","0.0-11.0-1.17","6405feae7d6321bfaaf793e8","bdp_rwlrn","Mon Mar 13 2023 13:42:35 GMT-0500 (Central Daylight Time)","401135","Trustworthy,Untrustworthy","","554","","","","decision","","<div class='trialDiv'><img src='Fruit/pears.png'><br><font class='baseline'><strong>Pears Aplenty</strong><p>Choose number of points to bet.</font><div class='respPicDiv'><img src='img/responseButtonOffersNo0L.png' class='respPic'></div></div>","5","6","Pears Aplenty","Fruit/pears.png","Won","0.65,0.35","12","0.65","104","18","",""
"html-keyboard-response","62","161625","0.0-11.0-2.17","6405feae7d6321bfaaf793e8","bdp_rwlrn","Mon Mar 13 2023 13:42:35 GMT-0500 (Central Daylight Time)","401135","Trustworthy,Untrustworthy","","null","","","","decisionFB","","<div class='trialDiv'><img src='Fruit/pears.png'><br><font class='baseline'><strong>Pears Aplenty</strong><p>Choose number of points to bet.</font><div class='respPicDiv'><img src='img/responseButtonOffersNo0L5.png' class='respPic'></div></div>","null","6","Pears Aplenty","Fruit/pears.png","Won","0.65,0.35","12","0.65","99","18","",""
"html-keyboard-response","63","162641","0.0-11.0-3.17","6405feae7d6321bfaaf793e8","bdp_rwlrn","Mon Mar 13 2023 13:42:35 GMT-0500 (Central Daylight Time)","401135","Trustworthy,Untrustworthy","","null","","","","feedback","","<div class='respPicDiv'><img src='img/responseButtonOffersNo0_wht.png' class='respPic'></div><div class='trialDiv'><img src='Fruit/pears.png'><br><font class='baseline'><strong>Pears Aplenty</strong><p><strong><font class='posOutcome'>You WON</font><p>You bet: 5</strong></font> &nbsp; &nbsp; &nbsp; &nbsp; &nbsp; &nbsp;<font class='posOutcome'>you receive: <strong>10</strong></font></div>","null","6","Pears Aplenty","Fruit/pears.png","Won","0.65,0.35","12","0.65","109","18","",""
"html-keyboard-response","64","163170","0.0-11.0-1.18","6405feae7d6321bfaaf793e8","bdp_rwlrn","Mon Mar 13 2023 13:42:35 GMT-0500 (Central Daylight Time)","401135","Trustworthy,Untrustworthy","","527","","","","decision","","<div class='trialDiv'><img src='Fruit/plums1.png'><br><font class='baseline'><strong>Plum Powerball</strong><p>Choose number of points to bet.</font><div class='respPicDiv'><img src='img/responseButtonOffersNo0L.png' class='respPic'></div></div>","5","7","Plum Powerball","Fruit/plums1.png","Lost","0.2,0.65","10","0.2","114","19","",""
"html-keyboard-response","65","163441","0.0-11.0-2.18","6405feae7d6321bfaaf793e8","bdp_rwlrn","Mon Mar 13 2023 13:42:35 GMT-0500 (Central Daylight Time)","401135","Trustworthy,Untrustworthy","","null","","","","decisionFB","","<div class='trialDiv'><img src='Fruit/plums1.png'><br><font class='baseline'><strong>Plum Powerball</strong><p>Choose number of points to bet.</font><div class='respPicDiv'><img src='img/responseButtonOffersNo0L5.png' class='respPic'></div></div>","null","7","Plum Powerball","Fruit/plums1.png","Lost","0.2,0.65","10","0.2","109","19","",""
"html-keyboard-response","66","164456","0.0-11.0-3.18","6405feae7d6321bfaaf793e8","bdp_rwlrn","Mon Mar 13 2023 13:42:35 GMT-0500 (Central Daylight Time)","401135","Trustworthy,Untrustworthy","","null","","","","feedback","","<div class='respPicDiv'><img src='img/responseButtonOffersNo0_wht.png' class='respPic'></div><div class='trialDiv'><img src='Fruit/plums1.png'><br><font class='baseline'><strong>Plum Powerball</strong><p><strong><font class='negOutcome'>You LOST</font><p>You bet: 5</strong></font> &nbsp; &nbsp; &nbsp; &nbsp; &nbsp; &nbsp;<font class='negOutcome'>You receive: <strong>0</strong></font></div>","null","7","Plum Powerball","Fruit/plums1.png","Lost","0.2,0.65","10","0.2","109","19","",""
"html-keyboard-response","67","164776","0.0-11.0-1.19","6405feae7d6321bfaaf793e8","bdp_rwlrn","Mon Mar 13 2023 13:42:35 GMT-0500 (Central Daylight Time)","401135","Trustworthy,Untrustworthy","","318","","","","decision","","<div class='trialDiv'><img src='Fruit/pears.png'><br><font class='baseline'><strong>Pears Aplenty</strong><p>Choose number of points to bet.</font><div class='respPicDiv'><img src='img/responseButtonOffersNo0L.png' class='respPic'></div></div>","5","7","Pears Aplenty","Fruit/pears.png","Lost","0.65,0.35","12","0.65","114","20","",""
"html-keyboard-response","68","165041","0.0-11.0-2.19","6405feae7d6321bfaaf793e8","bdp_rwlrn","Mon Mar 13 2023 13:42:35 GMT-0500 (Central Daylight Time)","401135","Trustworthy,Untrustworthy","","null","","","","decisionFB","","<div class='trialDiv'><img src='Fruit/pears.png'><br><font class='baseline'><strong>Pears Aplenty</strong><p>Choose number of points to bet.</font><div class='respPicDiv'><img src='img/responseButtonOffersNo0L5.png' class='respPic'></div></div>","null","7","Pears Aplenty","Fruit/pears.png","Lost","0.65,0.35","12","0.65","109","20","",""
"html-keyboard-response","69","166058","0.0-11.0-3.19","6405feae7d6321bfaaf793e8","bdp_rwlrn","Mon Mar 13 2023 13:42:35 GMT-0500 (Central Daylight Time)","401135","Trustworthy,Untrustworthy","","null","","","","feedback","","<div class='respPicDiv'><img src='img/responseButtonOffersNo0_wht.png' class='respPic'></div><div class='trialDiv'><img src='Fruit/pears.png'><br><font class='baseline'><strong>Pears Aplenty</strong><p><strong><font class='negOutcome'>You LOST</font><p>You bet: 5</strong></font> &nbsp; &nbsp; &nbsp; &nbsp; &nbsp; &nbsp;<font class='negOutcome'>You receive: <strong>0</strong></font></div>","null","7","Pears Aplenty","Fruit/pears.png","Lost","0.65,0.35","12","0.65","109","20","",""
"html-keyboard-response","70","166570","0.0-11.0-1.20","6405feae7d6321bfaaf793e8","bdp_rwlrn","Mon Mar 13 2023 13:42:35 GMT-0500 (Central Daylight Time)","401135","Trustworthy,Untrustworthy","","511","","","","decision","","<div class='trialDiv'><img src='Fruit/lime.png'><br><font class='baseline'><strong>Limin' Large</strong><p>Choose number of points to bet.</font><div class='respPicDiv'><img src='img/responseButtonOffersNo0L.png' class='respPic'></div></div>","5","7","Limin' Large","Fruit/lime.png","Lost","0.65,0.2","9","0.65","114","21","",""
"html-keyboard-response","71","166841","0.0-11.0-2.20","6405feae7d6321bfaaf793e8","bdp_rwlrn","Mon Mar 13 2023 13:42:35 GMT-0500 (Central Daylight Time)","401135","Trustworthy,Untrustworthy","","null","","","","decisionFB","","<div class='trialDiv'><img src='Fruit/lime.png'><br><font class='baseline'><strong>Limin' Large</strong><p>Choose number of points to bet.</font><div class='respPicDiv'><img src='img/responseButtonOffersNo0L5.png' class='respPic'></div></div>","null","7","Limin' Large","Fruit/lime.png","Lost","0.65,0.2","9","0.65","109","21","",""
"html-keyboard-response","72","167858","0.0-11.0-3.20","6405feae7d6321bfaaf793e8","bdp_rwlrn","Mon Mar 13 2023 13:42:35 GMT-0500 (Central Daylight Time)","401135","Trustworthy,Untrustworthy","","null","","","","feedback","","<div class='respPicDiv'><img src='img/responseButtonOffersNo0_wht.png' class='respPic'></div><div class='trialDiv'><img src='Fruit/lime.png'><br><font class='baseline'><strong>Limin' Large</strong><p><strong><font class='negOutcome'>You LOST</font><p>You bet: 5</strong></font> &nbsp; &nbsp; &nbsp; &nbsp; &nbsp; &nbsp;<font class='negOutcome'>You receive: <strong>0</strong></font></div>","null","7","Limin' Large","Fruit/lime.png","Lost","0.65,0.2","9","0.65","109","21","",""
"html-keyboard-response","73","168477","0.0-11.0-1.21","6405feae7d6321bfaaf793e8","bdp_rwlrn","Mon Mar 13 2023 13:42:35 GMT-0500 (Central Daylight Time)","401135","Trustworthy,Untrustworthy","","618","","","","decision","","<div class='trialDiv'><img src='Fruit/pears.png'><br><font class='baseline'><strong>Pears Aplenty</strong><p>Choose number of points to bet.</font><div class='respPicDiv'><img src='img/responseButtonOffersNo0L.png' class='respPic'></div></div>","1","8","Pears Aplenty","Fruit/pears.png","Won","0.65,0.35","12","0.65","114","22","",""
"html-keyboard-response","74","168741","0.0-11.0-2.21","6405feae7d6321bfaaf793e8","bdp_rwlrn","Mon Mar 13 2023 13:42:35 GMT-0500 (Central Daylight Time)","401135","Trustworthy,Untrustworthy","","null","","","","decisionFB","","<div class='trialDiv'><img src='Fruit/pears.png'><br><font class='baseline'><strong>Pears Aplenty</strong><p>Choose number of points to bet.</font><div class='respPicDiv'><img src='img/responseButtonOffersNo0L1.png' class='respPic'></div></div>","null","8","Pears Aplenty","Fruit/pears.png","Won","0.65,0.35","12","0.65","113","22","",""
"html-keyboard-response","75","169757","0.0-11.0-3.21","6405feae7d6321bfaaf793e8","bdp_rwlrn","Mon Mar 13 2023 13:42:35 GMT-0500 (Central Daylight Time)","401135","Trustworthy,Untrustworthy","","null","","","","feedback","","<div class='respPicDiv'><img src='img/responseButtonOffersNo0_wht.png' class='respPic'></div><div class='trialDiv'><img src='Fruit/pears.png'><br><font class='baseline'><strong>Pears Aplenty</strong><p><strong><font class='posOutcome'>You WON</font><p>You bet: 1</strong></font> &nbsp; &nbsp; &nbsp; &nbsp; &nbsp; &nbsp;<font class='posOutcome'>you receive: <strong>2</strong></font></div>","null","8","Pears Aplenty","Fruit/pears.png","Won","0.65,0.35","12","0.65","115","22","",""
"html-keyboard-response","76","170356","0.0-11.0-1.22","6405feae7d6321bfaaf793e8","bdp_rwlrn","Mon Mar 13 2023 13:42:35 GMT-0500 (Central Daylight Time)","401135","Trustworthy,Untrustworthy","","596","","","","decision","","<div class='trialDiv'><img src='Fruit/plums1.png'><br><font class='baseline'><strong>Plum Powerball</strong><p>Choose number of points to bet.</font><div class='respPicDiv'><img src='img/responseButtonOffersNo0L.png' class='respPic'></div></div>","3","8","Plum Powerball","Fruit/plums1.png","Lost","0.2,0.65","10","0.2","120","23","",""
"html-keyboard-response","77","170625","0.0-11.0-2.22","6405feae7d6321bfaaf793e8","bdp_rwlrn","Mon Mar 13 2023 13:42:35 GMT-0500 (Central Daylight Time)","401135","Trustworthy,Untrustworthy","","null","","","","decisionFB","","<div class='trialDiv'><img src='Fruit/plums1.png'><br><font class='baseline'><strong>Plum Powerball</strong><p>Choose number of points to bet.</font><div class='respPicDiv'><img src='img/responseButtonOffersNo0L3.png' class='respPic'></div></div>","null","8","Plum Powerball","Fruit/plums1.png","Lost","0.2,0.65","10","0.2","117","23","",""
"html-keyboard-response","78","171641","0.0-11.0-3.22","6405feae7d6321bfaaf793e8","bdp_rwlrn","Mon Mar 13 2023 13:42:35 GMT-0500 (Central Daylight Time)","401135","Trustworthy,Untrustworthy","","null","","","","feedback","","<div class='respPicDiv'><img src='img/responseButtonOffersNo0_wht.png' class='respPic'></div><div class='trialDiv'><img src='Fruit/plums1.png'><br><font class='baseline'><strong>Plum Powerball</strong><p><strong><font class='negOutcome'>You LOST</font><p>You bet: 3</strong></font> &nbsp; &nbsp; &nbsp; &nbsp; &nbsp; &nbsp;<font class='negOutcome'>You receive: <strong>0</strong></font></div>","null","8","Plum Powerball","Fruit/plums1.png","Lost","0.2,0.65","10","0.2","117","23","",""
"html-keyboard-response","79","172170","0.0-11.0-1.23","6405feae7d6321bfaaf793e8","bdp_rwlrn","Mon Mar 13 2023 13:42:35 GMT-0500 (Central Daylight Time)","401135","Trustworthy,Untrustworthy","","528","","","","decision","","<div class='trialDiv'><img src='Fruit/lime.png'><br><font class='baseline'><strong>Limin' Large</strong><p>Choose number of points to bet.</font><div class='respPicDiv'><img src='img/responseButtonOffersNo0L.png' class='respPic'></div></div>","2","8","Limin' Large","Fruit/lime.png","Won","0.65,0.2","9","0.65","122","24","",""
"html-keyboard-response","80","172442","0.0-11.0-2.23","6405feae7d6321bfaaf793e8","bdp_rwlrn","Mon Mar 13 2023 13:42:35 GMT-0500 (Central Daylight Time)","401135","Trustworthy,Untrustworthy","","null","","","","decisionFB","","<div class='trialDiv'><img src='Fruit/lime.png'><br><font class='baseline'><strong>Limin' Large</strong><p>Choose number of points to bet.</font><div class='respPicDiv'><img src='img/responseButtonOffersNo0L2.png' class='respPic'></div></div>","null","8","Limin' Large","Fruit/lime.png","Won","0.65,0.2","9","0.65","120","24","",""
"html-keyboard-response","81","173458","0.0-11.0-3.23","6405feae7d6321bfaaf793e8","bdp_rwlrn","Mon Mar 13 2023 13:42:35 GMT-0500 (Central Daylight Time)","401135","Trustworthy,Untrustworthy","","null","","","","feedback","","<div class='respPicDiv'><img src='img/responseButtonOffersNo0_wht.png' class='respPic'></div><div class='trialDiv'><img src='Fruit/lime.png'><br><font class='baseline'><strong>Limin' Large</strong><p><strong><font class='posOutcome'>You WON</font><p>You bet: 2</strong></font> &nbsp; &nbsp; &nbsp; &nbsp; &nbsp; &nbsp;<font class='posOutcome'>you receive: <strong>4</strong></font></div>","null","8","Limin' Large","Fruit/lime.png","Won","0.65,0.2","9","0.65","124","24","",""
"html-keyboard-response","82","174270","0.0-11.0-1.24","6405feae7d6321bfaaf793e8","bdp_rwlrn","Mon Mar 13 2023 13:42:35 GMT-0500 (Central Daylight Time)","401135","Trustworthy,Untrustworthy","","810","","","","decision","","<div class='trialDiv'><img src='Fruit/plums1.png'><br><font class='baseline'><strong>Plum Powerball</strong><p>Choose number of points to bet.</font><div class='respPicDiv'><img src='img/responseButtonOffersNo0L.png' class='respPic'></div></div>","2","9","Plum Powerball","Fruit/plums1.png","Lost","0.2,0.65","10","0.2","129","25","",""
"html-keyboard-response","83","174527","0.0-11.0-2.24","6405feae7d6321bfaaf793e8","bdp_rwlrn","Mon Mar 13 2023 13:42:35 GMT-0500 (Central Daylight Time)","401135","Trustworthy,Untrustworthy","","null","","","","decisionFB","","<div class='trialDiv'><img src='Fruit/plums1.png'><br><font class='baseline'><strong>Plum Powerball</strong><p>Choose number of points to bet.</font><div class='respPicDiv'><img src='img/responseButtonOffersNo0L2.png' class='respPic'></div></div>","null","9","Plum Powerball","Fruit/plums1.png","Lost","0.2,0.65","10","0.2","127","25","",""
"html-keyboard-response","84","175542","0.0-11.0-3.24","6405feae7d6321bfaaf793e8","bdp_rwlrn","Mon Mar 13 2023 13:42:35 GMT-0500 (Central Daylight Time)","401135","Trustworthy,Untrustworthy","","null","","","","feedback","","<div class='respPicDiv'><img src='img/responseButtonOffersNo0_wht.png' class='respPic'></div><div class='trialDiv'><img src='Fruit/plums1.png'><br><font class='baseline'><strong>Plum Powerball</strong><p><strong><font class='negOutcome'>You LOST</font><p>You bet: 2</strong></font> &nbsp; &nbsp; &nbsp; &nbsp; &nbsp; &nbsp;<font class='negOutcome'>You receive: <strong>0</strong></font></div>","null","9","Plum Powerball","Fruit/plums1.png","Lost","0.2,0.65","10","0.2","127","25","",""
"html-keyboard-response","85","175857","0.0-11.0-1.25","6405feae7d6321bfaaf793e8","bdp_rwlrn","Mon Mar 13 2023 13:42:35 GMT-0500 (Central Daylight Time)","401135","Trustworthy,Untrustworthy","","314","","","","decision","","<div class='trialDiv'><img src='Fruit/lime.png'><br><font class='baseline'><strong>Limin' Large</strong><p>Choose number of points to bet.</font><div class='respPicDiv'><img src='img/responseButtonOffersNo0L.png' class='respPic'></div></div>","4","9","Limin' Large","Fruit/lime.png","Lost","0.65,0.2","9","0.65","132","26","",""
"html-keyboard-response","86","176125","0.0-11.0-2.25","6405feae7d6321bfaaf793e8","bdp_rwlrn","Mon Mar 13 2023 13:42:35 GMT-0500 (Central Daylight Time)","401135","Trustworthy,Untrustworthy","","null","","","","decisionFB","","<div class='trialDiv'><img src='Fruit/lime.png'><br><font class='baseline'><strong>Limin' Large</strong><p>Choose number of points to bet.</font><div class='respPicDiv'><img src='img/responseButtonOffersNo0L4.png' class='respPic'></div></div>","null","9","Limin' Large","Fruit/lime.png","Lost","0.65,0.2","9","0.65","128","26","",""
"html-keyboard-response","87","177141","0.0-11.0-3.25","6405feae7d6321bfaaf793e8","bdp_rwlrn","Mon Mar 13 2023 13:42:35 GMT-0500 (Central Daylight Time)","401135","Trustworthy,Untrustworthy","","null","","","","feedback","","<div class='respPicDiv'><img src='img/responseButtonOffersNo0_wht.png' class='respPic'></div><div class='trialDiv'><img src='Fruit/lime.png'><br><font class='baseline'><strong>Limin' Large</strong><p><strong><font class='negOutcome'>You LOST</font><p>You bet: 4</strong></font> &nbsp; &nbsp; &nbsp; &nbsp; &nbsp; &nbsp;<font class='negOutcome'>You receive: <strong>0</strong></font></div>","null","9","Limin' Large","Fruit/lime.png","Lost","0.65,0.2","9","0.65","128","26","",""
"html-keyboard-response","88","177388","0.0-11.0-1.26","6405feae7d6321bfaaf793e8","bdp_rwlrn","Mon Mar 13 2023 13:42:35 GMT-0500 (Central Daylight Time)","401135","Trustworthy,Untrustworthy","","245","","","","decision","","<div class='trialDiv'><img src='Fruit/pears.png'><br><font class='baseline'><strong>Pears Aplenty</strong><p>Choose number of points to bet.</font><div class='respPicDiv'><img src='img/responseButtonOffersNo0L.png' class='respPic'></div></div>","5","9","Pears Aplenty","Fruit/pears.png","Lost","0.65,0.35","12","0.65","133","27","",""
"html-keyboard-response","89","177659","0.0-11.0-2.26","6405feae7d6321bfaaf793e8","bdp_rwlrn","Mon Mar 13 2023 13:42:35 GMT-0500 (Central Daylight Time)","401135","Trustworthy,Untrustworthy","","null","","","","decisionFB","","<div class='trialDiv'><img src='Fruit/pears.png'><br><font class='baseline'><strong>Pears Aplenty</strong><p>Choose number of points to bet.</font><div class='respPicDiv'><img src='img/responseButtonOffersNo0L5.png' class='respPic'></div></div>","null","9","Pears Aplenty","Fruit/pears.png","Lost","0.65,0.35","12","0.65","128","27","",""
"html-keyboard-response","90","178675","0.0-11.0-3.26","6405feae7d6321bfaaf793e8","bdp_rwlrn","Mon Mar 13 2023 13:42:35 GMT-0500 (Central Daylight Time)","401135","Trustworthy,Untrustworthy","","null","","","","feedback","","<div class='respPicDiv'><img src='img/responseButtonOffersNo0_wht.png' class='respPic'></div><div class='trialDiv'><img src='Fruit/pears.png'><br><font class='baseline'><strong>Pears Aplenty</strong><p><strong><font class='negOutcome'>You LOST</font><p>You bet: 5</strong></font> &nbsp; &nbsp; &nbsp; &nbsp; &nbsp; &nbsp;<font class='negOutcome'>You receive: <strong>0</strong></font></div>","null","9","Pears Aplenty","Fruit/pears.png","Lost","0.65,0.35","12","0.65","128","27","",""
"html-keyboard-response","91","179055","0.0-11.0-1.27","6405feae7d6321bfaaf793e8","bdp_rwlrn","Mon Mar 13 2023 13:42:35 GMT-0500 (Central Daylight Time)","401135","Trustworthy,Untrustworthy","","378","","","","decision","","<div class='trialDiv'><img src='Fruit/lime.png'><br><font class='baseline'><strong>Limin' Large</strong><p>Choose number of points to bet.</font><div class='respPicDiv'><img src='img/responseButtonOffersNo0L.png' class='respPic'></div></div>","3","10","Limin' Large","Fruit/lime.png","Lost","0.65,0.2","9","0.65","133","28","",""
"html-keyboard-response","92","179310","0.0-11.0-2.27","6405feae7d6321bfaaf793e8","bdp_rwlrn","Mon Mar 13 2023 13:42:35 GMT-0500 (Central Daylight Time)","401135","Trustworthy,Untrustworthy","","null","","","","decisionFB","","<div class='trialDiv'><img src='Fruit/lime.png'><br><font class='baseline'><strong>Limin' Large</strong><p>Choose number of points to bet.</font><div class='respPicDiv'><img src='img/responseButtonOffersNo0L3.png' class='respPic'></div></div>","null","10","Limin' Large","Fruit/lime.png","Lost","0.65,0.2","9","0.65","130","28","",""
"html-keyboard-response","93","180325","0.0-11.0-3.27","6405feae7d6321bfaaf793e8","bdp_rwlrn","Mon Mar 13 2023 13:42:35 GMT-0500 (Central Daylight Time)","401135","Trustworthy,Untrustworthy","","null","","","","feedback","","<div class='respPicDiv'><img src='img/responseButtonOffersNo0_wht.png' class='respPic'></div><div class='trialDiv'><img src='Fruit/lime.png'><br><font class='baseline'><strong>Limin' Large</strong><p><strong><font class='negOutcome'>You LOST</font><p>You bet: 3</strong></font> &nbsp; &nbsp; &nbsp; &nbsp; &nbsp; &nbsp;<font class='negOutcome'>You receive: <strong>0</strong></font></div>","null","10","Limin' Large","Fruit/lime.png","Lost","0.65,0.2","9","0.65","130","28","",""
"html-keyboard-response","94","180726","0.0-11.0-1.28","6405feae7d6321bfaaf793e8","bdp_rwlrn","Mon Mar 13 2023 13:42:35 GMT-0500 (Central Daylight Time)","401135","Trustworthy,Untrustworthy","","398","","","","decision","","<div class='trialDiv'><img src='Fruit/pears.png'><br><font class='baseline'><strong>Pears Aplenty</strong><p>Choose number of points to bet.</font><div class='respPicDiv'><img src='img/responseButtonOffersNo0L.png' class='respPic'></div></div>","5","10","Pears Aplenty","Fruit/pears.png","Won","0.65,0.35","12","0.65","135","29","",""
"html-keyboard-response","95","180992","0.0-11.0-2.28","6405feae7d6321bfaaf793e8","bdp_rwlrn","Mon Mar 13 2023 13:42:35 GMT-0500 (Central Daylight Time)","401135","Trustworthy,Untrustworthy","","null","","","","decisionFB","","<div class='trialDiv'><img src='Fruit/pears.png'><br><font class='baseline'><strong>Pears Aplenty</strong><p>Choose number of points to bet.</font><div class='respPicDiv'><img src='img/responseButtonOffersNo0L5.png' class='respPic'></div></div>","null","10","Pears Aplenty","Fruit/pears.png","Won","0.65,0.35","12","0.65","130","29","",""
"html-keyboard-response","96","182009","0.0-11.0-3.28","6405feae7d6321bfaaf793e8","bdp_rwlrn","Mon Mar 13 2023 13:42:35 GMT-0500 (Central Daylight Time)","401135","Trustworthy,Untrustworthy","","null","","","","feedback","","<div class='respPicDiv'><img src='img/responseButtonOffersNo0_wht.png' class='respPic'></div><div class='trialDiv'><img src='Fruit/pears.png'><br><font class='baseline'><strong>Pears Aplenty</strong><p><strong><font class='posOutcome'>You WON</font><p>You bet: 5</strong></font> &nbsp; &nbsp; &nbsp; &nbsp; &nbsp; &nbsp;<font class='posOutcome'>you receive: <strong>10</strong></font></div>","null","10","Pears Aplenty","Fruit/pears.png","Won","0.65,0.35","12","0.65","140","29","",""
"html-keyboard-response","97","182419","0.0-11.0-1.29","6405feae7d6321bfaaf793e8","bdp_rwlrn","Mon Mar 13 2023 13:42:35 GMT-0500 (Central Daylight Time)","401135","Trustworthy,Untrustworthy","","408","","","","decision","","<div class='trialDiv'><img src='Fruit/plums1.png'><br><font class='baseline'><strong>Plum Powerball</strong><p>Choose number of points to bet.</font><div class='respPicDiv'><img src='img/responseButtonOffersNo0L.png' class='respPic'></div></div>","5","10","Plum Powerball","Fruit/plums1.png","Lost","0.2,0.65","10","0.2","145","30","",""
"html-keyboard-response","98","182692","0.0-11.0-2.29","6405feae7d6321bfaaf793e8","bdp_rwlrn","Mon Mar 13 2023 13:42:35 GMT-0500 (Central Daylight Time)","401135","Trustworthy,Untrustworthy","","null","","","","decisionFB","","<div class='trialDiv'><img src='Fruit/plums1.png'><br><font class='baseline'><strong>Plum Powerball</strong><p>Choose number of points to bet.</font><div class='respPicDiv'><img src='img/responseButtonOffersNo0L5.png' class='respPic'></div></div>","null","10","Plum Powerball","Fruit/plums1.png","Lost","0.2,0.65","10","0.2","140","30","",""
"html-keyboard-response","99","183701","0.0-11.0-3.29","6405feae7d6321bfaaf793e8","bdp_rwlrn","Mon Mar 13 2023 13:42:35 GMT-0500 (Central Daylight Time)","401135","Trustworthy,Untrustworthy","","null","","","","feedback","","<div class='respPicDiv'><img src='img/responseButtonOffersNo0_wht.png' class='respPic'></div><div class='trialDiv'><img src='Fruit/plums1.png'><br><font class='baseline'><strong>Plum Powerball</strong><p><strong><font class='negOutcome'>You LOST</font><p>You bet: 5</strong></font> &nbsp; &nbsp; &nbsp; &nbsp; &nbsp; &nbsp;<font class='negOutcome'>You receive: <strong>0</strong></font></div>","null","10","Plum Powerball","Fruit/plums1.png","Lost","0.2,0.65","10","0.2","140","30","",""
"html-keyboard-response","100","184005","0.0-11.0-1.30","6405feae7d6321bfaaf793e8","bdp_rwlrn","Mon Mar 13 2023 13:42:35 GMT-0500 (Central Daylight Time)","401135","Trustworthy,Untrustworthy","","302","","","","decision","","<div class='trialDiv'><img src='Fruit/pears.png'><br><font class='baseline'><strong>Pears Aplenty</strong><p>Choose number of points to bet.</font><div class='respPicDiv'><img src='img/responseButtonOffersNo0L.png' class='respPic'></div></div>","2","11","Pears Aplenty","Fruit/pears.png","Won","0.65,0.35","12","0.65","145","31","",""
"html-keyboard-response","101","184260","0.0-11.0-2.30","6405feae7d6321bfaaf793e8","bdp_rwlrn","Mon Mar 13 2023 13:42:35 GMT-0500 (Central Daylight Time)","401135","Trustworthy,Untrustworthy","","null","","","","decisionFB","","<div class='trialDiv'><img src='Fruit/pears.png'><br><font class='baseline'><strong>Pears Aplenty</strong><p>Choose number of points to bet.</font><div class='respPicDiv'><img src='img/responseButtonOffersNo0L2.png' class='respPic'></div></div>","null","11","Pears Aplenty","Fruit/pears.png","Won","0.65,0.35","12","0.65","143","31","",""
"html-keyboard-response","102","185275","0.0-11.0-3.30","6405feae7d6321bfaaf793e8","bdp_rwlrn","Mon Mar 13 2023 13:42:35 GMT-0500 (Central Daylight Time)","401135","Trustworthy,Untrustworthy","","null","","","","feedback","","<div class='respPicDiv'><img src='img/responseButtonOffersNo0_wht.png' class='respPic'></div><div class='trialDiv'><img src='Fruit/pears.png'><br><font class='baseline'><strong>Pears Aplenty</strong><p><strong><font class='posOutcome'>You WON</font><p>You bet: 2</strong></font> &nbsp; &nbsp; &nbsp; &nbsp; &nbsp; &nbsp;<font class='posOutcome'>you receive: <strong>4</strong></font></div>","null","11","Pears Aplenty","Fruit/pears.png","Won","0.65,0.35","12","0.65","147","31","",""
"html-keyboard-response","103","185839","0.0-11.0-1.31","6405feae7d6321bfaaf793e8","bdp_rwlrn","Mon Mar 13 2023 13:42:35 GMT-0500 (Central Daylight Time)","401135","Trustworthy,Untrustworthy","","562","","","","decision","","<div class='trialDiv'><img src='Fruit/plums1.png'><br><font class='baseline'><strong>Plum Powerball</strong><p>Choose number of points to bet.</font><div class='respPicDiv'><img src='img/responseButtonOffersNo0L.png' class='respPic'></div></div>","2","11","Plum Powerball","Fruit/plums1.png","Won","0.2,0.65","10","0.2","152","32","",""
"html-keyboard-response","104","186108","0.0-11.0-2.31","6405feae7d6321bfaaf793e8","bdp_rwlrn","Mon Mar 13 2023 13:42:35 GMT-0500 (Central Daylight Time)","401135","Trustworthy,Untrustworthy","","null","","","","decisionFB","","<div class='trialDiv'><img src='Fruit/plums1.png'><br><font class='baseline'><strong>Plum Powerball</strong><p>Choose number of points to bet.</font><div class='respPicDiv'><img src='img/responseButtonOffersNo0L2.png' class='respPic'></div></div>","null","11","Plum Powerball","Fruit/plums1.png","Won","0.2,0.65","10","0.2","150","32","",""
"html-keyboard-response","105","187133","0.0-11.0-3.31","6405feae7d6321bfaaf793e8","bdp_rwlrn","Mon Mar 13 2023 13:42:35 GMT-0500 (Central Daylight Time)","401135","Trustworthy,Untrustworthy","","null","","","","feedback","","<div class='respPicDiv'><img src='img/responseButtonOffersNo0_wht.png' class='respPic'></div><div class='trialDiv'><img src='Fruit/plums1.png'><br><font class='baseline'><strong>Plum Powerball</strong><p><strong><font class='posOutcome'>You WON</font><p>You bet: 2</strong></font> &nbsp; &nbsp; &nbsp; &nbsp; &nbsp; &nbsp;<font class='posOutcome'>you receive: <strong>4</strong></font></div>","null","11","Plum Powerball","Fruit/plums1.png","Won","0.2,0.65","10","0.2","154","32","",""
"html-keyboard-response","106","187617","0.0-11.0-1.32","6405feae7d6321bfaaf793e8","bdp_rwlrn","Mon Mar 13 2023 13:42:35 GMT-0500 (Central Daylight Time)","401135","Trustworthy,Untrustworthy","","483","","","","decision","","<div class='trialDiv'><img src='Fruit/lime.png'><br><font class='baseline'><strong>Limin' Large</strong><p>Choose number of points to bet.</font><div class='respPicDiv'><img src='img/responseButtonOffersNo0L.png' class='respPic'></div></div>","3","11","Limin' Large","Fruit/lime.png","Won","0.65,0.2","9","0.65","159","33","",""
"html-keyboard-response","107","187875","0.0-11.0-2.32","6405feae7d6321bfaaf793e8","bdp_rwlrn","Mon Mar 13 2023 13:42:35 GMT-0500 (Central Daylight Time)","401135","Trustworthy,Untrustworthy","","null","","","","decisionFB","","<div class='trialDiv'><img src='Fruit/lime.png'><br><font class='baseline'><strong>Limin' Large</strong><p>Choose number of points to bet.</font><div class='respPicDiv'><img src='img/responseButtonOffersNo0L3.png' class='respPic'></div></div>","null","11","Limin' Large","Fruit/lime.png","Won","0.65,0.2","9","0.65","156","33","",""
"html-keyboard-response","108","188884","0.0-11.0-3.32","6405feae7d6321bfaaf793e8","bdp_rwlrn","Mon Mar 13 2023 13:42:35 GMT-0500 (Central Daylight Time)","401135","Trustworthy,Untrustworthy","","null","","","","feedback","","<div class='respPicDiv'><img src='img/responseButtonOffersNo0_wht.png' class='respPic'></div><div class='trialDiv'><img src='Fruit/lime.png'><br><font class='baseline'><strong>Limin' Large</strong><p><strong><font class='posOutcome'>You WON</font><p>You bet: 3</strong></font> &nbsp; &nbsp; &nbsp; &nbsp; &nbsp; &nbsp;<font class='posOutcome'>you receive: <strong>6</strong></font></div>","null","11","Limin' Large","Fruit/lime.png","Won","0.65,0.2","9","0.65","162","33","",""
"html-keyboard-response","109","189564","0.0-11.0-1.33","6405feae7d6321bfaaf793e8","bdp_rwlrn","Mon Mar 13 2023 13:42:35 GMT-0500 (Central Daylight Time)","401135","Trustworthy,Untrustworthy","","678","","","","decision","","<div class='trialDiv'><img src='Fruit/plums1.png'><br><font class='baseline'><strong>Plum Powerball</strong><p>Choose number of points to bet.</font><div class='respPicDiv'><img src='img/responseButtonOffersNo0L.png' class='respPic'></div></div>","3","12","Plum Powerball","Fruit/plums1.png","Lost","0.2,0.65","10","0.2","167","34","",""
"html-keyboard-response","110","189826","0.0-11.0-2.33","6405feae7d6321bfaaf793e8","bdp_rwlrn","Mon Mar 13 2023 13:42:35 GMT-0500 (Central Daylight Time)","401135","Trustworthy,Untrustworthy","","null","","","","decisionFB","","<div class='trialDiv'><img src='Fruit/plums1.png'><br><font class='baseline'><strong>Plum Powerball</strong><p>Choose number of points to bet.</font><div class='respPicDiv'><img src='img/responseButtonOffersNo0L3.png' class='respPic'></div></div>","null","12","Plum Powerball","Fruit/plums1.png","Lost","0.2,0.65","10","0.2","164","34","",""
"html-keyboard-response","111","190838","0.0-11.0-3.33","6405feae7d6321bfaaf793e8","bdp_rwlrn","Mon Mar 13 2023 13:42:35 GMT-0500 (Central Daylight Time)","401135","Trustworthy,Untrustworthy","","null","","","","feedback","","<div class='respPicDiv'><img src='img/responseButtonOffersNo0_wht.png' class='respPic'></div><div class='trialDiv'><img src='Fruit/plums1.png'><br><font class='baseline'><strong>Plum Powerball</strong><p><strong><font class='negOutcome'>You LOST</font><p>You bet: 3</strong></font> &nbsp; &nbsp; &nbsp; &nbsp; &nbsp; &nbsp;<font class='negOutcome'>You receive: <strong>0</strong></font></div>","null","12","Plum Powerball","Fruit/plums1.png","Lost","0.2,0.65","10","0.2","164","34","",""
"html-keyboard-response","112","191481","0.0-11.0-1.34","6405feae7d6321bfaaf793e8","bdp_rwlrn","Mon Mar 13 2023 13:42:35 GMT-0500 (Central Daylight Time)","401135","Trustworthy,Untrustworthy","","642","","","","decision","","<div class='trialDiv'><img src='Fruit/pears.png'><br><font class='baseline'><strong>Pears Aplenty</strong><p>Choose number of points to bet.</font><div class='respPicDiv'><img src='img/responseButtonOffersNo0L.png' class='respPic'></div></div>","1","12","Pears Aplenty","Fruit/pears.png","Lost","0.65,0.35","12","0.65","169","35","",""
"html-keyboard-response","113","191743","0.0-11.0-2.34","6405feae7d6321bfaaf793e8","bdp_rwlrn","Mon Mar 13 2023 13:42:35 GMT-0500 (Central Daylight Time)","401135","Trustworthy,Untrustworthy","","null","","","","decisionFB","","<div class='trialDiv'><img src='Fruit/pears.png'><br><font class='baseline'><strong>Pears Aplenty</strong><p>Choose number of points to bet.</font><div class='respPicDiv'><img src='img/responseButtonOffersNo0L1.png' class='respPic'></div></div>","null","12","Pears Aplenty","Fruit/pears.png","Lost","0.65,0.35","12","0.65","168","35","",""
"html-keyboard-response","114","192761","0.0-11.0-3.34","6405feae7d6321bfaaf793e8","bdp_rwlrn","Mon Mar 13 2023 13:42:35 GMT-0500 (Central Daylight Time)","401135","Trustworthy,Untrustworthy","","null","","","","feedback","","<div class='respPicDiv'><img src='img/responseButtonOffersNo0_wht.png' class='respPic'></div><div class='trialDiv'><img src='Fruit/pears.png'><br><font class='baseline'><strong>Pears Aplenty</strong><p><strong><font class='negOutcome'>You LOST</font><p>You bet: 1</strong></font> &nbsp; &nbsp; &nbsp; &nbsp; &nbsp; &nbsp;<font class='negOutcome'>You receive: <strong>0</strong></font></div>","null","12","Pears Aplenty","Fruit/pears.png","Lost","0.65,0.35","12","0.65","168","35","",""
"html-keyboard-response","115","193017","0.0-11.0-1.35","6405feae7d6321bfaaf793e8","bdp_rwlrn","Mon Mar 13 2023 13:42:35 GMT-0500 (Central Daylight Time)","401135","Trustworthy,Untrustworthy","","254","","","","decision","","<div class='trialDiv'><img src='Fruit/lime.png'><br><font class='baseline'><strong>Limin' Large</strong><p>Choose number of points to bet.</font><div class='respPicDiv'><img src='img/responseButtonOffersNo0L.png' class='respPic'></div></div>","5","12","Limin' Large","Fruit/lime.png","Lost","0.65,0.2","9","0.65","173","36","",""
"html-keyboard-response","116","193285","0.0-11.0-2.35","6405feae7d6321bfaaf793e8","bdp_rwlrn","Mon Mar 13 2023 13:42:35 GMT-0500 (Central Daylight Time)","401135","Trustworthy,Untrustworthy","","null","","","","decisionFB","","<div class='trialDiv'><img src='Fruit/lime.png'><br><font class='baseline'><strong>Limin' Large</strong><p>Choose number of points to bet.</font><div class='respPicDiv'><img src='img/responseButtonOffersNo0L5.png' class='respPic'></div></div>","null","12","Limin' Large","Fruit/lime.png","Lost","0.65,0.2","9","0.65","168","36","",""
"html-keyboard-response","117","194295","0.0-11.0-3.35","6405feae7d6321bfaaf793e8","bdp_rwlrn","Mon Mar 13 2023 13:42:35 GMT-0500 (Central Daylight Time)","401135","Trustworthy,Untrustworthy","","null","","","","feedback","","<div class='respPicDiv'><img src='img/responseButtonOffersNo0_wht.png' class='respPic'></div><div class='trialDiv'><img src='Fruit/lime.png'><br><font class='baseline'><strong>Limin' Large</strong><p><strong><font class='negOutcome'>You LOST</font><p>You bet: 5</strong></font> &nbsp; &nbsp; &nbsp; &nbsp; &nbsp; &nbsp;<font class='negOutcome'>You receive: <strong>0</strong></font></div>","null","12","Limin' Large","Fruit/lime.png","Lost","0.65,0.2","9","0.65","168","36","",""
"html-keyboard-response","118","194784","0.0-11.0-1.36","6405feae7d6321bfaaf793e8","bdp_rwlrn","Mon Mar 13 2023 13:42:35 GMT-0500 (Central Daylight Time)","401135","Trustworthy,Untrustworthy","","488","","","","decision","","<div class='trialDiv'><img src='Fruit/pears.png'><br><font class='baseline'><strong>Pears Aplenty</strong><p>Choose number of points to bet.</font><div class='respPicDiv'><img src='img/responseButtonOffersNo0L.png' class='respPic'></div></div>","4","13","Pears Aplenty","Fruit/pears.png","Lost","0.65,0.35","12","0.65","173","37","",""
"html-keyboard-response","119","195043","0.0-11.0-2.36","6405feae7d6321bfaaf793e8","bdp_rwlrn","Mon Mar 13 2023 13:42:35 GMT-0500 (Central Daylight Time)","401135","Trustworthy,Untrustworthy","","null","","","","decisionFB","","<div class='trialDiv'><img src='Fruit/pears.png'><br><font class='baseline'><strong>Pears Aplenty</strong><p>Choose number of points to bet.</font><div class='respPicDiv'><img src='img/responseButtonOffersNo0L4.png' class='respPic'></div></div>","null","13","Pears Aplenty","Fruit/pears.png","Lost","0.65,0.35","12","0.65","169","37","",""
"html-keyboard-response","120","196051","0.0-11.0-3.36","6405feae7d6321bfaaf793e8","bdp_rwlrn","Mon Mar 13 2023 13:42:35 GMT-0500 (Central Daylight Time)","401135","Trustworthy,Untrustworthy","","null","","","","feedback","","<div class='respPicDiv'><img src='img/responseButtonOffersNo0_wht.png' class='respPic'></div><div class='trialDiv'><img src='Fruit/pears.png'><br><font class='baseline'><strong>Pears Aplenty</strong><p><strong><font class='negOutcome'>You LOST</font><p>You bet: 4</strong></font> &nbsp; &nbsp; &nbsp; &nbsp; &nbsp; &nbsp;<font class='negOutcome'>You receive: <strong>0</strong></font></div>","null","13","Pears Aplenty","Fruit/pears.png","Lost","0.65,0.35","12","0.65","169","37","",""
"html-keyboard-response","121","196405","0.0-11.0-1.37","6405feae7d6321bfaaf793e8","bdp_rwlrn","Mon Mar 13 2023 13:42:35 GMT-0500 (Central Daylight Time)","401135","Trustworthy,Untrustworthy","","352","","","","decision","","<div class='trialDiv'><img src='Fruit/lime.png'><br><font class='baseline'><strong>Limin' Large</strong><p>Choose number of points to bet.</font><div class='respPicDiv'><img src='img/responseButtonOffersNo0L.png' class='respPic'></div></div>","1","13","Limin' Large","Fruit/lime.png","Lost","0.65,0.2","9","0.65","174","38","",""
"html-keyboard-response","122","196660","0.0-11.0-2.37","6405feae7d6321bfaaf793e8","bdp_rwlrn","Mon Mar 13 2023 13:42:35 GMT-0500 (Central Daylight Time)","401135","Trustworthy,Untrustworthy","","null","","","","decisionFB","","<div class='trialDiv'><img src='Fruit/lime.png'><br><font class='baseline'><strong>Limin' Large</strong><p>Choose number of points to bet.</font><div class='respPicDiv'><img src='img/responseButtonOffersNo0L1.png' class='respPic'></div></div>","null","13","Limin' Large","Fruit/lime.png","Lost","0.65,0.2","9","0.65","173","38","",""
"html-keyboard-response","123","197676","0.0-11.0-3.37","6405feae7d6321bfaaf793e8","bdp_rwlrn","Mon Mar 13 2023 13:42:35 GMT-0500 (Central Daylight Time)","401135","Trustworthy,Untrustworthy","","null","","","","feedback","","<div class='respPicDiv'><img src='img/responseButtonOffersNo0_wht.png' class='respPic'></div><div class='trialDiv'><img src='Fruit/lime.png'><br><font class='baseline'><strong>Limin' Large</strong><p><strong><font class='negOutcome'>You LOST</font><p>You bet: 1</strong></font> &nbsp; &nbsp; &nbsp; &nbsp; &nbsp; &nbsp;<font class='negOutcome'>You receive: <strong>0</strong></font></div>","null","13","Limin' Large","Fruit/lime.png","Lost","0.65,0.2","9","0.65","173","38","",""
"html-keyboard-response","124","197876","0.0-11.0-1.38","6405feae7d6321bfaaf793e8","bdp_rwlrn","Mon Mar 13 2023 13:42:35 GMT-0500 (Central Daylight Time)","401135","Trustworthy,Untrustworthy","","199","","","","decision","","<div class='trialDiv'><img src='Fruit/plums1.png'><br><font class='baseline'><strong>Plum Powerball</strong><p>Choose number of points to bet.</font><div class='respPicDiv'><img src='img/responseButtonOffersNo0L.png' class='respPic'></div></div>","3","13","Plum Powerball","Fruit/plums1.png","Lost","0.2,0.65","10","0.2","178","39","",""
"html-keyboard-response","125","198142","0.0-11.0-2.38","6405feae7d6321bfaaf793e8","bdp_rwlrn","Mon Mar 13 2023 13:42:35 GMT-0500 (Central Daylight Time)","401135","Trustworthy,Untrustworthy","","null","","","","decisionFB","","<div class='trialDiv'><img src='Fruit/plums1.png'><br><font class='baseline'><strong>Plum Powerball</strong><p>Choose number of points to bet.</font><div class='respPicDiv'><img src='img/responseButtonOffersNo0L3.png' class='respPic'></div></div>","null","13","Plum Powerball","Fruit/plums1.png","Lost","0.2,0.65","10","0.2","175","39","",""
"html-keyboard-response","126","199159","0.0-11.0-3.38","6405feae7d6321bfaaf793e8","bdp_rwlrn","Mon Mar 13 2023 13:42:35 GMT-0500 (Central Daylight Time)","401135","Trustworthy,Untrustworthy","","null","","","","feedback","","<div class='respPicDiv'><img src='img/responseButtonOffersNo0_wht.png' class='respPic'></div><div class='trialDiv'><img src='Fruit/plums1.png'><br><font class='baseline'><strong>Plum Powerball</strong><p><strong><font class='negOutcome'>You LOST</font><p>You bet: 3</strong></font> &nbsp; &nbsp; &nbsp; &nbsp; &nbsp; &nbsp;<font class='negOutcome'>You receive: <strong>0</strong></font></div>","null","13","Plum Powerball","Fruit/plums1.png","Lost","0.2,0.65","10","0.2","175","39","",""
"html-keyboard-response","127","199429","0.0-11.0-1.39","6405feae7d6321bfaaf793e8","bdp_rwlrn","Mon Mar 13 2023 13:42:35 GMT-0500 (Central Daylight Time)","401135","Trustworthy,Untrustworthy","","269","","","","decision","","<div class='trialDiv'><img src='Fruit/lime.png'><br><font class='baseline'><strong>Limin' Large</strong><p>Choose number of points to bet.</font><div class='respPicDiv'><img src='img/responseButtonOffersNo0L.png' class='respPic'></div></div>","2","14","Limin' Large","Fruit/lime.png","Lost","0.65,0.2","9","0.65","180","40","",""
"html-keyboard-response","128","199693","0.0-11.0-2.39","6405feae7d6321bfaaf793e8","bdp_rwlrn","Mon Mar 13 2023 13:42:35 GMT-0500 (Central Daylight Time)","401135","Trustworthy,Untrustworthy","","null","","","","decisionFB","","<div class='trialDiv'><img src='Fruit/lime.png'><br><font class='baseline'><strong>Limin' Large</strong><p>Choose number of points to bet.</font><div class='respPicDiv'><img src='img/responseButtonOffersNo0L2.png' class='respPic'></div></div>","null","14","Limin' Large","Fruit/lime.png","Lost","0.65,0.2","9","0.65","178","40","",""
"html-keyboard-response","129","200709","0.0-11.0-3.39","6405feae7d6321bfaaf793e8","bdp_rwlrn","Mon Mar 13 2023 13:42:35 GMT-0500 (Central Daylight Time)","401135","Trustworthy,Untrustworthy","","null","","","","feedback","","<div class='respPicDiv'><img src='img/responseButtonOffersNo0_wht.png' class='respPic'></div><div class='trialDiv'><img src='Fruit/lime.png'><br><font class='baseline'><strong>Limin' Large</strong><p><strong><font class='negOutcome'>You LOST</font><p>You bet: 2</strong></font> &nbsp; &nbsp; &nbsp; &nbsp; &nbsp; &nbsp;<font class='negOutcome'>You receive: <strong>0</strong></font></div>","null","14","Limin' Large","Fruit/lime.png","Lost","0.65,0.2","9","0.65","178","40","",""
"html-keyboard-response","130","201171","0.0-11.0-1.40","6405feae7d6321bfaaf793e8","bdp_rwlrn","Mon Mar 13 2023 13:42:35 GMT-0500 (Central Daylight Time)","401135","Trustworthy,Untrustworthy","","460","","","","decision","","<div class='trialDiv'><img src='Fruit/pears.png'><br><font class='baseline'><strong>Pears Aplenty</strong><p>Choose number of points to bet.</font><div class='respPicDiv'><img src='img/responseButtonOffersNo0L.png' class='respPic'></div></div>","5","14","Pears Aplenty","Fruit/pears.png","Lost","0.65,0.35","12","0.65","183","41","",""
"html-keyboard-response","131","201442","0.0-11.0-2.40","6405feae7d6321bfaaf793e8","bdp_rwlrn","Mon Mar 13 2023 13:42:35 GMT-0500 (Central Daylight Time)","401135","Trustworthy,Untrustworthy","","null","","","","decisionFB","","<div class='trialDiv'><img src='Fruit/pears.png'><br><font class='baseline'><strong>Pears Aplenty</strong><p>Choose number of points to bet.</font><div class='respPicDiv'><img src='img/responseButtonOffersNo0L5.png' class='respPic'></div></div>","null","14","Pears Aplenty","Fruit/pears.png","Lost","0.65,0.35","12","0.65","178","41","",""
"html-keyboard-response","132","202460","0.0-11.0-3.40","6405feae7d6321bfaaf793e8","bdp_rwlrn","Mon Mar 13 2023 13:42:35 GMT-0500 (Central Daylight Time)","401135","Trustworthy,Untrustworthy","","null","","","","feedback","","<div class='respPicDiv'><img src='img/responseButtonOffersNo0_wht.png' class='respPic'></div><div class='trialDiv'><img src='Fruit/pears.png'><br><font class='baseline'><strong>Pears Aplenty</strong><p><strong><font class='negOutcome'>You LOST</font><p>You bet: 5</strong></font> &nbsp; &nbsp; &nbsp; &nbsp; &nbsp; &nbsp;<font class='negOutcome'>You receive: <strong>0</strong></font></div>","null","14","Pears Aplenty","Fruit/pears.png","Lost","0.65,0.35","12","0.65","178","41","",""
"html-keyboard-response","133","202730","0.0-11.0-1.41","6405feae7d6321bfaaf793e8","bdp_rwlrn","Mon Mar 13 2023 13:42:35 GMT-0500 (Central Daylight Time)","401135","Trustworthy,Untrustworthy","","269","","","","decision","","<div class='trialDiv'><img src='Fruit/plums1.png'><br><font class='baseline'><strong>Plum Powerball</strong><p>Choose number of points to bet.</font><div class='respPicDiv'><img src='img/responseButtonOffersNo0L.png' class='respPic'></div></div>","5","14","Plum Powerball","Fruit/plums1.png","Won","0.2,0.65","10","0.2","183","42","",""
"html-keyboard-response","134","202992","0.0-11.0-2.41","6405feae7d6321bfaaf793e8","bdp_rwlrn","Mon Mar 13 2023 13:42:35 GMT-0500 (Central Daylight Time)","401135","Trustworthy,Untrustworthy","","null","","","","decisionFB","","<div class='trialDiv'><img src='Fruit/plums1.png'><br><font class='baseline'><strong>Plum Powerball</strong><p>Choose number of points to bet.</font><div class='respPicDiv'><img src='img/responseButtonOffersNo0L5.png' class='respPic'></div></div>","null","14","Plum Powerball","Fruit/plums1.png","Won","0.2,0.65","10","0.2","178","42","",""
"html-keyboard-response","135","204009","0.0-11.0-3.41","6405feae7d6321bfaaf793e8","bdp_rwlrn","Mon Mar 13 2023 13:42:35 GMT-0500 (Central Daylight Time)","401135","Trustworthy,Untrustworthy","","null","","","","feedback","","<div class='respPicDiv'><img src='img/responseButtonOffersNo0_wht.png' class='respPic'></div><div class='trialDiv'><img src='Fruit/plums1.png'><br><font class='baseline'><strong>Plum Powerball</strong><p><strong><font class='posOutcome'>You WON</font><p>You bet: 5</strong></font> &nbsp; &nbsp; &nbsp; &nbsp; &nbsp; &nbsp;<font class='posOutcome'>you receive: <strong>10</strong></font></div>","null","14","Plum Powerball","Fruit/plums1.png","Won","0.2,0.65","10","0.2","188","42","",""
"html-keyboard-response","136","204460","0.0-11.0-1.42","6405feae7d6321bfaaf793e8","bdp_rwlrn","Mon Mar 13 2023 13:42:35 GMT-0500 (Central Daylight Time)","401135","Trustworthy,Untrustworthy","","449","","","","decision","","<div class='trialDiv'><img src='Fruit/pears.png'><br><font class='baseline'><strong>Pears Aplenty</strong><p>Choose number of points to bet.</font><div class='respPicDiv'><img src='img/responseButtonOffersNo0L.png' class='respPic'></div></div>","5","15","Pears Aplenty","Fruit/pears.png","Lost","0.65,0.35","12","0.65","193","43","",""
"html-keyboard-response","137","204726","0.0-11.0-2.42","6405feae7d6321bfaaf793e8","bdp_rwlrn","Mon Mar 13 2023 13:42:35 GMT-0500 (Central Daylight Time)","401135","Trustworthy,Untrustworthy","","null","","","","decisionFB","","<div class='trialDiv'><img src='Fruit/pears.png'><br><font class='baseline'><strong>Pears Aplenty</strong><p>Choose number of points to bet.</font><div class='respPicDiv'><img src='img/responseButtonOffersNo0L5.png' class='respPic'></div></div>","null","15","Pears Aplenty","Fruit/pears.png","Lost","0.65,0.35","12","0.65","188","43","",""
"html-keyboard-response","138","205744","0.0-11.0-3.42","6405feae7d6321bfaaf793e8","bdp_rwlrn","Mon Mar 13 2023 13:42:35 GMT-0500 (Central Daylight Time)","401135","Trustworthy,Untrustworthy","","null","","","","feedback","","<div class='respPicDiv'><img src='img/responseButtonOffersNo0_wht.png' class='respPic'></div><div class='trialDiv'><img src='Fruit/pears.png'><br><font class='baseline'><strong>Pears Aplenty</strong><p><strong><font class='negOutcome'>You LOST</font><p>You bet: 5</strong></font> &nbsp; &nbsp; &nbsp; &nbsp; &nbsp; &nbsp;<font class='negOutcome'>You receive: <strong>0</strong></font></div>","null","15","Pears Aplenty","Fruit/pears.png","Lost","0.65,0.35","12","0.65","188","43","",""
"html-keyboard-response","139","206244","0.0-11.0-1.43","6405feae7d6321bfaaf793e8","bdp_rwlrn","Mon Mar 13 2023 13:42:35 GMT-0500 (Central Daylight Time)","401135","Trustworthy,Untrustworthy","","499","","","","decision","","<div class='trialDiv'><img src='Fruit/plums1.png'><br><font class='baseline'><strong>Plum Powerball</strong><p>Choose number of points to bet.</font><div class='respPicDiv'><img src='img/responseButtonOffersNo0L.png' class='respPic'></div></div>","2","15","Plum Powerball","Fruit/plums1.png","Won","0.2,0.65","10","0.2","193","44","",""
"html-keyboard-response","140","206510","0.0-11.0-2.43","6405feae7d6321bfaaf793e8","bdp_rwlrn","Mon Mar 13 2023 13:42:35 GMT-0500 (Central Daylight Time)","401135","Trustworthy,Untrustworthy","","null","","","","decisionFB","","<div class='trialDiv'><img src='Fruit/plums1.png'><br><font class='baseline'><strong>Plum Powerball</strong><p>Choose number of points to bet.</font><div class='respPicDiv'><img src='img/responseButtonOffersNo0L2.png' class='respPic'></div></div>","null","15","Plum Powerball","Fruit/plums1.png","Won","0.2,0.65","10","0.2","191","44","",""
"html-keyboard-response","141","207526","0.0-11.0-3.43","6405feae7d6321bfaaf793e8","bdp_rwlrn","Mon Mar 13 2023 13:42:35 GMT-0500 (Central Daylight Time)","401135","Trustworthy,Untrustworthy","","null","","","","feedback","","<div class='respPicDiv'><img src='img/responseButtonOffersNo0_wht.png' class='respPic'></div><div class='trialDiv'><img src='Fruit/plums1.png'><br><font class='baseline'><strong>Plum Powerball</strong><p><strong><font class='posOutcome'>You WON</font><p>You bet: 2</strong></font> &nbsp; &nbsp; &nbsp; &nbsp; &nbsp; &nbsp;<font class='posOutcome'>you receive: <strong>4</strong></font></div>","null","15","Plum Powerball","Fruit/plums1.png","Won","0.2,0.65","10","0.2","195","44","",""
"html-keyboard-response","142","208030","0.0-11.0-1.44","6405feae7d6321bfaaf793e8","bdp_rwlrn","Mon Mar 13 2023 13:42:35 GMT-0500 (Central Daylight Time)","401135","Trustworthy,Untrustworthy","","503","","","","decision","","<div class='trialDiv'><img src='Fruit/lime.png'><br><font class='baseline'><strong>Limin' Large</strong><p>Choose number of points to bet.</font><div class='respPicDiv'><img src='img/responseButtonOffersNo0L.png' class='respPic'></div></div>","2","15","Limin' Large","Fruit/lime.png","Lost","0.65,0.2","9","0.65","200","45","",""
"html-keyboard-response","143","208293","0.0-11.0-2.44","6405feae7d6321bfaaf793e8","bdp_rwlrn","Mon Mar 13 2023 13:42:35 GMT-0500 (Central Daylight Time)","401135","Trustworthy,Untrustworthy","","null","","","","decisionFB","","<div class='trialDiv'><img src='Fruit/lime.png'><br><font class='baseline'><strong>Limin' Large</strong><p>Choose number of points to bet.</font><div class='respPicDiv'><img src='img/responseButtonOffersNo0L2.png' class='respPic'></div></div>","null","15","Limin' Large","Fruit/lime.png","Lost","0.65,0.2","9","0.65","198","45","",""
"html-keyboard-response","144","209308","0.0-11.0-3.44","6405feae7d6321bfaaf793e8","bdp_rwlrn","Mon Mar 13 2023 13:42:35 GMT-0500 (Central Daylight Time)","401135","Trustworthy,Untrustworthy","","null","","","","feedback","","<div class='respPicDiv'><img src='img/responseButtonOffersNo0_wht.png' class='respPic'></div><div class='trialDiv'><img src='Fruit/lime.png'><br><font class='baseline'><strong>Limin' Large</strong><p><strong><font class='negOutcome'>You LOST</font><p>You bet: 2</strong></font> &nbsp; &nbsp; &nbsp; &nbsp; &nbsp; &nbsp;<font class='negOutcome'>You receive: <strong>0</strong></font></div>","null","15","Limin' Large","Fruit/lime.png","Lost","0.65,0.2","9","0.65","198","45","",""
"html-keyboard-response","145","210080","0.0-11.0-1.45","6405feae7d6321bfaaf793e8","bdp_rwlrn","Mon Mar 13 2023 13:42:35 GMT-0500 (Central Daylight Time)","401135","Trustworthy,Untrustworthy","","771","","","","decision","","<div class='trialDiv'><img src='Fruit/plums1.png'><br><font class='baseline'><strong>Plum Powerball</strong><p>Choose number of points to bet.</font><div class='respPicDiv'><img src='img/responseButtonOffersNo0L.png' class='respPic'></div></div>","1","16","Plum Powerball","Fruit/plums1.png","Won","0.2,0.65","10","0.2","203","46","",""
"html-keyboard-response","146","210343","0.0-11.0-2.45","6405feae7d6321bfaaf793e8","bdp_rwlrn","Mon Mar 13 2023 13:42:35 GMT-0500 (Central Daylight Time)","401135","Trustworthy,Untrustworthy","","null","","","","decisionFB","","<div class='trialDiv'><img src='Fruit/plums1.png'><br><font class='baseline'><strong>Plum Powerball</strong><p>Choose number of points to bet.</font><div class='respPicDiv'><img src='img/responseButtonOffersNo0L1.png' class='respPic'></div></div>","null","16","Plum Powerball","Fruit/plums1.png","Won","0.2,0.65","10","0.2","202","46","",""
"html-keyboard-response","147","211360","0.0-11.0-3.45","6405feae7d6321bfaaf793e8","bdp_rwlrn","Mon Mar 13 2023 13:42:35 GMT-0500 (Central Daylight Time)","401135","Trustworthy,Untrustworthy","","null","","","","feedback","","<div class='respPicDiv'><img src='img/responseButtonOffersNo0_wht.png' class='respPic'></div><div class='trialDiv'><img src='Fruit/plums1.png'><br><font class='baseline'><strong>Plum Powerball</strong><p><strong><font class='posOutcome'>You WON</font><p>You bet: 1</strong></font> &nbsp; &nbsp; &nbsp; &nbsp; &nbsp; &nbsp;<font class='posOutcome'>you receive: <strong>2</strong></font></div>","null","16","Plum Powerball","Fruit/plums1.png","Won","0.2,0.65","10","0.2","204","46","",""
"html-keyboard-response","148","211822","0.0-11.0-1.46","6405feae7d6321bfaaf793e8","bdp_rwlrn","Mon Mar 13 2023 13:42:35 GMT-0500 (Central Daylight Time)","401135","Trustworthy,Untrustworthy","","461","","","","decision","","<div class='trialDiv'><img src='Fruit/lime.png'><br><font class='baseline'><strong>Limin' Large</strong><p>Choose number of points to bet.</font><div class='respPicDiv'><img src='img/responseButtonOffersNo0L.png' class='respPic'></div></div>","1","16","Limin' Large","Fruit/lime.png","Won","0.65,0.2","9","0.65","209","47","",""
"html-keyboard-response","149","212094","0.0-11.0-2.46","6405feae7d6321bfaaf793e8","bdp_rwlrn","Mon Mar 13 2023 13:42:35 GMT-0500 (Central Daylight Time)","401135","Trustworthy,Untrustworthy","","null","","","","decisionFB","","<div class='trialDiv'><img src='Fruit/lime.png'><br><font class='baseline'><strong>Limin' Large</strong><p>Choose number of points to bet.</font><div class='respPicDiv'><img src='img/responseButtonOffersNo0L1.png' class='respPic'></div></div>","null","16","Limin' Large","Fruit/lime.png","Won","0.65,0.2","9","0.65","208","47","",""
"html-keyboard-response","150","213110","0.0-11.0-3.46","6405feae7d6321bfaaf793e8","bdp_rwlrn","Mon Mar 13 2023 13:42:35 GMT-0500 (Central Daylight Time)","401135","Trustworthy,Untrustworthy","","null","","","","feedback","","<div class='respPicDiv'><img src='img/responseButtonOffersNo0_wht.png' class='respPic'></div><div class='trialDiv'><img src='Fruit/lime.png'><br><font class='baseline'><strong>Limin' Large</strong><p><strong><font class='posOutcome'>You WON</font><p>You bet: 1</strong></font> &nbsp; &nbsp; &nbsp; &nbsp; &nbsp; &nbsp;<font class='posOutcome'>you receive: <strong>2</strong></font></div>","null","16","Limin' Large","Fruit/lime.png","Won","0.65,0.2","9","0.65","210","47","",""
"html-keyboard-response","151","214072","0.0-11.0-1.47","6405feae7d6321bfaaf793e8","bdp_rwlrn","Mon Mar 13 2023 13:42:35 GMT-0500 (Central Daylight Time)","401135","Trustworthy,Untrustworthy","","960","","","","decision","","<div class='trialDiv'><img src='Fruit/pears.png'><br><font class='baseline'><strong>Pears Aplenty</strong><p>Choose number of points to bet.</font><div class='respPicDiv'><img src='img/responseButtonOffersNo0L.png' class='respPic'></div></div>","4","16","Pears Aplenty","Fruit/pears.png","Lost","0.65,0.35","12","0.65","215","48","",""
"html-keyboard-response","152","214328","0.0-11.0-2.47","6405feae7d6321bfaaf793e8","bdp_rwlrn","Mon Mar 13 2023 13:42:35 GMT-0500 (Central Daylight Time)","401135","Trustworthy,Untrustworthy","","null","","","","decisionFB","","<div class='trialDiv'><img src='Fruit/pears.png'><br><font class='baseline'><strong>Pears Aplenty</strong><p>Choose number of points to bet.</font><div class='respPicDiv'><img src='img/responseButtonOffersNo0L4.png' class='respPic'></div></div>","null","16","Pears Aplenty","Fruit/pears.png","Lost","0.65,0.35","12","0.65","211","48","",""
"html-keyboard-response","153","215343","0.0-11.0-3.47","6405feae7d6321bfaaf793e8","bdp_rwlrn","Mon Mar 13 2023 13:42:35 GMT-0500 (Central Daylight Time)","401135","Trustworthy,Untrustworthy","","null","","","","feedback","","<div class='respPicDiv'><img src='img/responseButtonOffersNo0_wht.png' class='respPic'></div><div class='trialDiv'><img src='Fruit/pears.png'><br><font class='baseline'><strong>Pears Aplenty</strong><p><strong><font class='negOutcome'>You LOST</font><p>You bet: 4</strong></font> &nbsp; &nbsp; &nbsp; &nbsp; &nbsp; &nbsp;<font class='negOutcome'>You receive: <strong>0</strong></font></div>","null","16","Pears Aplenty","Fruit/pears.png","Lost","0.65,0.35","12","0.65","211","48","",""
"html-keyboard-response","154","216146","0.0-11.0-1.48","6405feae7d6321bfaaf793e8","bdp_rwlrn","Mon Mar 13 2023 13:42:35 GMT-0500 (Central Daylight Time)","401135","Trustworthy,Untrustworthy","","802","","","","decision","","<div class='trialDiv'><img src='Fruit/plums1.png'><br><font class='baseline'><strong>Plum Powerball</strong><p>Choose number of points to bet.</font><div class='respPicDiv'><img src='img/responseButtonOffersNo0L.png' class='respPic'></div></div>","3","17","Plum Powerball","Fruit/plums1.png","Won","0.2,0.65","10","0.2","216","49","",""
"html-keyboard-response","155","216410","0.0-11.0-2.48","6405feae7d6321bfaaf793e8","bdp_rwlrn","Mon Mar 13 2023 13:42:35 GMT-0500 (Central Daylight Time)","401135","Trustworthy,Untrustworthy","","null","","","","decisionFB","","<div class='trialDiv'><img src='Fruit/plums1.png'><br><font class='baseline'><strong>Plum Powerball</strong><p>Choose number of points to bet.</font><div class='respPicDiv'><img src='img/responseButtonOffersNo0L3.png' class='respPic'></div></div>","null","17","Plum Powerball","Fruit/plums1.png","Won","0.2,0.65","10","0.2","213","49","",""
"html-keyboard-response","156","217427","0.0-11.0-3.48","6405feae7d6321bfaaf793e8","bdp_rwlrn","Mon Mar 13 2023 13:42:35 GMT-0500 (Central Daylight Time)","401135","Trustworthy,Untrustworthy","","null","","","","feedback","","<div class='respPicDiv'><img src='img/responseButtonOffersNo0_wht.png' class='respPic'></div><div class='trialDiv'><img src='Fruit/plums1.png'><br><font class='baseline'><strong>Plum Powerball</strong><p><strong><font class='posOutcome'>You WON</font><p>You bet: 3</strong></font> &nbsp; &nbsp; &nbsp; &nbsp; &nbsp; &nbsp;<font class='posOutcome'>you receive: <strong>6</strong></font></div>","null","17","Plum Powerball","Fruit/plums1.png","Won","0.2,0.65","10","0.2","219","49","",""
"html-keyboard-response","157","218615","0.0-11.0-1.49","6405feae7d6321bfaaf793e8","bdp_rwlrn","Mon Mar 13 2023 13:42:35 GMT-0500 (Central Daylight Time)","401135","Trustworthy,Untrustworthy","","1185","","","","decision","","<div class='trialDiv'><img src='Fruit/lime.png'><br><font class='baseline'><strong>Limin' Large</strong><p>Choose number of points to bet.</font><div class='respPicDiv'><img src='img/responseButtonOffersNo0L.png' class='respPic'></div></div>","4","17","Limin' Large","Fruit/lime.png","Lost","0.65,0.2","9","0.65","224","50","",""
"html-keyboard-response","158","218877","0.0-11.0-2.49","6405feae7d6321bfaaf793e8","bdp_rwlrn","Mon Mar 13 2023 13:42:35 GMT-0500 (Central Daylight Time)","401135","Trustworthy,Untrustworthy","","null","","","","decisionFB","","<div class='trialDiv'><img src='Fruit/lime.png'><br><font class='baseline'><strong>Limin' Large</strong><p>Choose number of points to bet.</font><div class='respPicDiv'><img src='img/responseButtonOffersNo0L4.png' class='respPic'></div></div>","null","17","Limin' Large","Fruit/lime.png","Lost","0.65,0.2","9","0.65","220","50","",""
"html-keyboard-response","159","219894","0.0-11.0-3.49","6405feae7d6321bfaaf793e8","bdp_rwlrn","Mon Mar 13 2023 13:42:35 GMT-0500 (Central Daylight Time)","401135","Trustworthy,Untrustworthy","","null","","","","feedback","","<div class='respPicDiv'><img src='img/responseButtonOffersNo0_wht.png' class='respPic'></div><div class='trialDiv'><img src='Fruit/lime.png'><br><font class='baseline'><strong>Limin' Large</strong><p><strong><font class='negOutcome'>You LOST</font><p>You bet: 4</strong></font> &nbsp; &nbsp; &nbsp; &nbsp; &nbsp; &nbsp;<font class='negOutcome'>You receive: <strong>0</strong></font></div>","null","17","Limin' Large","Fruit/lime.png","Lost","0.65,0.2","9","0.65","220","50","",""
"html-keyboard-response","160","220742","0.0-11.0-1.50","6405feae7d6321bfaaf793e8","bdp_rwlrn","Mon Mar 13 2023 13:42:35 GMT-0500 (Central Daylight Time)","401135","Trustworthy,Untrustworthy","","847","","","","decision","","<div class='trialDiv'><img src='Fruit/pears.png'><br><font class='baseline'><strong>Pears Aplenty</strong><p>Choose number of points to bet.</font><div class='respPicDiv'><img src='img/responseButtonOffersNo0L.png' class='respPic'></div></div>","5","17","Pears Aplenty","Fruit/pears.png","Lost","0.65,0.35","12","0.65","225","51","",""
"html-keyboard-response","161","221011","0.0-11.0-2.50","6405feae7d6321bfaaf793e8","bdp_rwlrn","Mon Mar 13 2023 13:42:35 GMT-0500 (Central Daylight Time)","401135","Trustworthy,Untrustworthy","","null","","","","decisionFB","","<div class='trialDiv'><img src='Fruit/pears.png'><br><font class='baseline'><strong>Pears Aplenty</strong><p>Choose number of points to bet.</font><div class='respPicDiv'><img src='img/responseButtonOffersNo0L5.png' class='respPic'></div></div>","null","17","Pears Aplenty","Fruit/pears.png","Lost","0.65,0.35","12","0.65","220","51","",""
"html-keyboard-response","162","222027","0.0-11.0-3.50","6405feae7d6321bfaaf793e8","bdp_rwlrn","Mon Mar 13 2023 13:42:35 GMT-0500 (Central Daylight Time)","401135","Trustworthy,Untrustworthy","","null","","","","feedback","","<div class='respPicDiv'><img src='img/responseButtonOffersNo0_wht.png' class='respPic'></div><div class='trialDiv'><img src='Fruit/pears.png'><br><font class='baseline'><strong>Pears Aplenty</strong><p><strong><font class='negOutcome'>You LOST</font><p>You bet: 5</strong></font> &nbsp; &nbsp; &nbsp; &nbsp; &nbsp; &nbsp;<font class='negOutcome'>You receive: <strong>0</strong></font></div>","null","17","Pears Aplenty","Fruit/pears.png","Lost","0.65,0.35","12","0.65","220","51","",""
"html-keyboard-response","163","222266","0.0-11.0-1.51","6405feae7d6321bfaaf793e8","bdp_rwlrn","Mon Mar 13 2023 13:42:35 GMT-0500 (Central Daylight Time)","401135","Trustworthy,Untrustworthy","","237","","","","decision","","<div class='trialDiv'><img src='Fruit/lime.png'><br><font class='baseline'><strong>Limin' Large</strong><p>Choose number of points to bet.</font><div class='respPicDiv'><img src='img/responseButtonOffersNo0L.png' class='respPic'></div></div>","5","18","Limin' Large","Fruit/lime.png","Lost","0.65,0.2","9","0.65","225","52","",""
