"trial_type","trial_index","time_elapsed","internal_node_id","subject_id","task","startTime","totalTime","labels","view_history","rt","event","trial","time","trialtype","success","stimulus","key_press","ltround","name","fileID","outcome","lottotype","lottoswpt","lottocurrpshare","point_total","round","faceID","face"
"pavlovia","0","2","0.0-0.0","5b1a3fa488ee7400012aef74","bdp_rwlrn","Wed Mar 15 2023 00:24:14 GMT-0400 (Eastern Daylight Time)","963018","Untrustworthy,Trustworthy","","","","","","","","","","","","","","","","","","","",""
"instructions","1","2700","0.0-1.0","5b1a3fa488ee7400012aef74","bdp_rwlrn","Wed Mar 15 2023 00:24:14 GMT-0400 (Eastern Daylight Time)","963018","Untrustworthy,Trustworthy","[{""page_index"":0,""viewing_time"":2698}]","2698","","","","","","","","","","","","","","","","","",""
"","","","","5b1a3fa488ee7400012aef74","bdp_rwlrn","Wed Mar 15 2023 00:24:14 GMT-0400 (Eastern Daylight Time)","963018","Untrustworthy,Trustworthy","","","fullscreenenter","2","4698","fullscreenenter","","","","","","","","","","","","","",""
"fullscreen","2","5696","0.0-2.0","5b1a3fa488ee7400012aef74","bdp_rwlrn","Wed Mar 15 2023 00:24:14 GMT-0400 (Eastern Daylight Time)","963018","Untrustworthy,Trustworthy","","","","","","","true","","","","","","","","","","","","",""
"instructions","3","118342","0.0-4.0","5b1a3fa488ee7400012aef74","bdp_rwlrn","Wed Mar 15 2023 00:24:14 GMT-0400 (Eastern Daylight Time)","963018","Untrustworthy,Trustworthy","[{""page_index"":0,""viewing_time"":35410},{""page_index"":1,""viewing_time"":26002},{""page_index"":2,""viewing_time"":4375},{""page_index"":3,""viewing_time"":34271},{""page_index"":4,""viewing_time"":9289},{""page_index"":5,""viewing_time"":3298}]","112645","","","","","","","","","","","","","","","","","",""
"html-keyboard-response","4","120700","0.0-5.0","5b1a3fa488ee7400012aef74","bdp_rwlrn","Wed Mar 15 2023 00:24:14 GMT-0400 (Eastern Daylight Time)","963018","Untrustworthy,Trustworthy","","2356","","","","","","<div class='header' style='text-align:left; position: absolute; top: 5%; left: 5%;'><small>Task 3 of 5</small></div><div class='instruxDiv'><p><strong>1) What is the maximum number of points you can choose to bet on a lottery?</strong></p><p>a) 0</p><p>b) 1</p><p>c) 5</p>","C","","","","","","","","","","",""
"html-keyboard-response","5","121668","0.0-6.0","5b1a3fa488ee7400012aef74","bdp_rwlrn","Wed Mar 15 2023 00:24:14 GMT-0400 (Eastern Daylight Time)","963018","Untrustworthy,Trustworthy","","868","","","","","","<div class='header' style='text-align:left; position: absolute; top: 5%; left: 5%;'><small>Task 3 of 5</small></div><div class='instruxDiv'><p><strong>1) What is the maximum number of points you can choose to bet on a lottery?</strong></p><p>a) 1</p><p>b) 1</p><p style='color:#00FF00'>c) 5</p><h3 style='color:#00FF00'>Correct!</h3><h3 class='center-content'>The correct response is c).</h3><h3 class='center-content'>The maximum number of points you can choose to bet on a lottery is 5 points.</h3><p><em>Press SPACEBAR to continue</em></p></div>"," ","","","","","","","","","","",""
"html-keyboard-response","6","124419","0.0-7.0","5b1a3fa488ee7400012aef74","bdp_rwlrn","Wed Mar 15 2023 00:24:14 GMT-0400 (Eastern Daylight Time)","963018","Untrustworthy,Trustworthy","","2651","","","","","","<div class='header' style='text-align:left; position: absolute; top: 5%; left: 5%;'><small>Task 3 of 5</small></div><div class='instruxDiv'><p><strong>2) How many points can you win each round?</strong></p><p>a) 10 points</p><p>b) Double what you bet</p><p>c) Quadruple what you bet</p>","B","","","","","","","","","","",""
"html-keyboard-response","7","125126","0.0-8.0","5b1a3fa488ee7400012aef74","bdp_rwlrn","Wed Mar 15 2023 00:24:14 GMT-0400 (Eastern Daylight Time)","963018","Untrustworthy,Trustworthy","","606","","","","","","<div class='header' style='text-align:left; position: absolute; top: 5%; left: 5%;'><small>Task 3 of 5</small></div><div class='instruxDiv'><p><strong>2) How many points can you win each round?</strong></p><p>a) 10 points</p><p style='color:#00FF00'>b) Double what you bet</p><p>c) Quadruple what you bet</p><h3 style='color:#00FF00'>Correct!</h3><h3 class='center-content'>The correct response is b).</h3><h3 class='center-content'>You can win double the amount of points you bet.</h3><p><em>Press SPACEBAR to continue</em></p></div>"," ","","","","","","","","","","",""
"html-keyboard-response","8","130228","0.0-9.0","5b1a3fa488ee7400012aef74","bdp_rwlrn","Wed Mar 15 2023 00:24:14 GMT-0400 (Eastern Daylight Time)","963018","Untrustworthy,Trustworthy","","null","","","","","","<div class='header' style='text-align:left; position: absolute; top: 5%; left: 5%;'><small>Task 3 of 5</small></div><div class='instruxDiv'><p>Thank you for completing the quiz<p>These are the actual lotteries you will be playing in the next block:<p><div class='tc' align='center'><img class='introPic' src='Fruit/mango.png'><br><strong>Mega Mangos</strong></div><div class='bl' align='center'><img class='introPic' src='Fruit/lime.png'><br><strong>Limin' Large</strong></div><div class='br' align='center'><img class='introPic' src='Fruit/watermelon.png'><br><strong>Watermelon Win$</strong></div></div><p>Across <strong>66 rounds</strong> you will play each lottery <strong>22 times</strong> (in random order).<p style='align:center; color:white'><font <em>Press SPACEBAR to continue</em></p>","null","","","","","","","","","","",""
"instructions","9","217771","0.0-10.0","5b1a3fa488ee7400012aef74","bdp_rwlrn","Wed Mar 15 2023 00:24:14 GMT-0400 (Eastern Daylight Time)","963018","Untrustworthy,Trustworthy","[{""page_index"":0,""viewing_time"":82425},{""page_index"":1,""viewing_time"":5118}]","87543","","","","","","","","","","","","","","","","","",""
"html-keyboard-response","10","223636","0.0-11.0-1.0","5b1a3fa488ee7400012aef74","bdp_rwlrn","Wed Mar 15 2023 00:24:14 GMT-0400 (Eastern Daylight Time)","963018","Untrustworthy,Trustworthy","","5763","","","","decision","","<div class='trialDiv'><img src='Fruit/watermelon.png'><br><font class='baseline'><strong>Watermelon Win$</strong><p>Choose number of points to bet.</font><div class='respPicDiv'><img src='img/responseButtonOffersNo0L.png' class='respPic'></div></div>","5","1","Watermelon Win$","Fruit/watermelon.png","Lost","0.2,0.8","13","0.2","5","1","",""
"html-keyboard-response","11","223888","0.0-11.0-2.0","5b1a3fa488ee7400012aef74","bdp_rwlrn","Wed Mar 15 2023 00:24:14 GMT-0400 (Eastern Daylight Time)","963018","Untrustworthy,Trustworthy","","null","","","","decisionFB","","<div class='trialDiv'><img src='Fruit/watermelon.png'><br><font class='baseline'><strong>Watermelon Win$</strong><p>Choose number of points to bet.</font><div class='respPicDiv'><img src='img/responseButtonOffersNo0L5.png' class='respPic'></div></div>","null","1","Watermelon Win$","Fruit/watermelon.png","Lost","0.2,0.8","13","0.2","0","1","",""
"html-keyboard-response","12","224889","0.0-11.0-3.0","5b1a3fa488ee7400012aef74","bdp_rwlrn","Wed Mar 15 2023 00:24:14 GMT-0400 (Eastern Daylight Time)","963018","Untrustworthy,Trustworthy","","null","","","","feedback","","<div class='respPicDiv'><img src='img/responseButtonOffersNo0_wht.png' class='respPic'></div><div class='trialDiv'><img src='Fruit/watermelon.png'><br><font class='baseline'><strong>Watermelon Win$</strong><p><strong><font class='negOutcome'>You LOST</font><p>You bet: 5</strong></font> &nbsp; &nbsp; &nbsp; &nbsp; &nbsp; &nbsp;<font class='negOutcome'>You receive: <strong>0</strong></font></div>","null","1","Watermelon Win$","Fruit/watermelon.png","Lost","0.2,0.8","13","0.2","0","1","",""
"html-keyboard-response","13","227685","0.0-11.0-1.1","5b1a3fa488ee7400012aef74","bdp_rwlrn","Wed Mar 15 2023 00:24:14 GMT-0400 (Eastern Daylight Time)","963018","Untrustworthy,Trustworthy","","2796","","","","decision","","<div class='trialDiv'><img src='Fruit/lime.png'><br><font class='baseline'><strong>Limin' Large</strong><p>Choose number of points to bet.</font><div class='respPicDiv'><img src='img/responseButtonOffersNo0L.png' class='respPic'></div></div>","5","1","Limin' Large","Fruit/lime.png","Lost","0.35,0.8","10","0.35","5","2","",""
"html-keyboard-response","14","227937","0.0-11.0-2.1","5b1a3fa488ee7400012aef74","bdp_rwlrn","Wed Mar 15 2023 00:24:14 GMT-0400 (Eastern Daylight Time)","963018","Untrustworthy,Trustworthy","","null","","","","decisionFB","","<div class='trialDiv'><img src='Fruit/lime.png'><br><font class='baseline'><strong>Limin' Large</strong><p>Choose number of points to bet.</font><div class='respPicDiv'><img src='img/responseButtonOffersNo0L5.png' class='respPic'></div></div>","null","1","Limin' Large","Fruit/lime.png","Lost","0.35,0.8","10","0.35","0","2","",""
"html-keyboard-response","15","228938","0.0-11.0-3.1","5b1a3fa488ee7400012aef74","bdp_rwlrn","Wed Mar 15 2023 00:24:14 GMT-0400 (Eastern Daylight Time)","963018","Untrustworthy,Trustworthy","","null","","","","feedback","","<div class='respPicDiv'><img src='img/responseButtonOffersNo0_wht.png' class='respPic'></div><div class='trialDiv'><img src='Fruit/lime.png'><br><font class='baseline'><strong>Limin' Large</strong><p><strong><font class='negOutcome'>You LOST</font><p>You bet: 5</strong></font> &nbsp; &nbsp; &nbsp; &nbsp; &nbsp; &nbsp;<font class='negOutcome'>You receive: <strong>0</strong></font></div>","null","1","Limin' Large","Fruit/lime.png","Lost","0.35,0.8","10","0.35","0","2","",""
"html-keyboard-response","16","230091","0.0-11.0-1.2","5b1a3fa488ee7400012aef74","bdp_rwlrn","Wed Mar 15 2023 00:24:14 GMT-0400 (Eastern Daylight Time)","963018","Untrustworthy,Trustworthy","","1153","","","","decision","","<div class='trialDiv'><img src='Fruit/mango.png'><br><font class='baseline'><strong>Mega Mangos</strong><p>Choose number of points to bet.</font><div class='respPicDiv'><img src='img/responseButtonOffersNo0L.png' class='respPic'></div></div>","5","1","Mega Mangos","Fruit/mango.png","Won","0.65,0.2","13","0.65","5","3","",""
"html-keyboard-response","17","230343","0.0-11.0-2.2","5b1a3fa488ee7400012aef74","bdp_rwlrn","Wed Mar 15 2023 00:24:14 GMT-0400 (Eastern Daylight Time)","963018","Untrustworthy,Trustworthy","","null","","","","decisionFB","","<div class='trialDiv'><img src='Fruit/mango.png'><br><font class='baseline'><strong>Mega Mangos</strong><p>Choose number of points to bet.</font><div class='respPicDiv'><img src='img/responseButtonOffersNo0L5.png' class='respPic'></div></div>","null","1","Mega Mangos","Fruit/mango.png","Won","0.65,0.2","13","0.65","0","3","",""
"html-keyboard-response","18","231344","0.0-11.0-3.2","5b1a3fa488ee7400012aef74","bdp_rwlrn","Wed Mar 15 2023 00:24:14 GMT-0400 (Eastern Daylight Time)","963018","Untrustworthy,Trustworthy","","null","","","","feedback","","<div class='respPicDiv'><img src='img/responseButtonOffersNo0_wht.png' class='respPic'></div><div class='trialDiv'><img src='Fruit/mango.png'><br><font class='baseline'><strong>Mega Mangos</strong><p><strong><font class='posOutcome'>You WON</font><p>You bet: 5</strong></font> &nbsp; &nbsp; &nbsp; &nbsp; &nbsp; &nbsp;<font class='posOutcome'>you receive: <strong>10</strong></font></div>","null","1","Mega Mangos","Fruit/mango.png","Won","0.65,0.2","13","0.65","10","3","",""
"html-keyboard-response","19","233708","0.0-11.0-1.3","5b1a3fa488ee7400012aef74","bdp_rwlrn","Wed Mar 15 2023 00:24:14 GMT-0400 (Eastern Daylight Time)","963018","Untrustworthy,Trustworthy","","2364","","","","decision","","<div class='trialDiv'><img src='Fruit/watermelon.png'><br><font class='baseline'><strong>Watermelon Win$</strong><p>Choose number of points to bet.</font><div class='respPicDiv'><img src='img/responseButtonOffersNo0L.png' class='respPic'></div></div>","1","2","Watermelon Win$","Fruit/watermelon.png","Won","0.2,0.8","13","0.2","15","4","",""
"html-keyboard-response","20","233960","0.0-11.0-2.3","5b1a3fa488ee7400012aef74","bdp_rwlrn","Wed Mar 15 2023 00:24:14 GMT-0400 (Eastern Daylight Time)","963018","Untrustworthy,Trustworthy","","null","","","","decisionFB","","<div class='trialDiv'><img src='Fruit/watermelon.png'><br><font class='baseline'><strong>Watermelon Win$</strong><p>Choose number of points to bet.</font><div class='respPicDiv'><img src='img/responseButtonOffersNo0L1.png' class='respPic'></div></div>","null","2","Watermelon Win$","Fruit/watermelon.png","Won","0.2,0.8","13","0.2","14","4","",""
"html-keyboard-response","21","234961","0.0-11.0-3.3","5b1a3fa488ee7400012aef74","bdp_rwlrn","Wed Mar 15 2023 00:24:14 GMT-0400 (Eastern Daylight Time)","963018","Untrustworthy,Trustworthy","","null","","","","feedback","","<div class='respPicDiv'><img src='img/responseButtonOffersNo0_wht.png' class='respPic'></div><div class='trialDiv'><img src='Fruit/watermelon.png'><br><font class='baseline'><strong>Watermelon Win$</strong><p><strong><font class='posOutcome'>You WON</font><p>You bet: 1</strong></font> &nbsp; &nbsp; &nbsp; &nbsp; &nbsp; &nbsp;<font class='posOutcome'>you receive: <strong>2</strong></font></div>","null","2","Watermelon Win$","Fruit/watermelon.png","Won","0.2,0.8","13","0.2","16","4","",""
"html-keyboard-response","22","238427","0.0-11.0-1.4","5b1a3fa488ee7400012aef74","bdp_rwlrn","Wed Mar 15 2023 00:24:14 GMT-0400 (Eastern Daylight Time)","963018","Untrustworthy,Trustworthy","","3466","","","","decision","","<div class='trialDiv'><img src='Fruit/mango.png'><br><font class='baseline'><strong>Mega Mangos</strong><p>Choose number of points to bet.</font><div class='respPicDiv'><img src='img/responseButtonOffersNo0L.png' class='respPic'></div></div>","5","2","Mega Mangos","Fruit/mango.png","Lost","0.65,0.2","13","0.65","21","5","",""
"html-keyboard-response","23","238679","0.0-11.0-2.4","5b1a3fa488ee7400012aef74","bdp_rwlrn","Wed Mar 15 2023 00:24:14 GMT-0400 (Eastern Daylight Time)","963018","Untrustworthy,Trustworthy","","null","","","","decisionFB","","<div class='trialDiv'><img src='Fruit/mango.png'><br><font class='baseline'><strong>Mega Mangos</strong><p>Choose number of points to bet.</font><div class='respPicDiv'><img src='img/responseButtonOffersNo0L5.png' class='respPic'></div></div>","null","2","Mega Mangos","Fruit/mango.png","Lost","0.65,0.2","13","0.65","16","5","",""
"html-keyboard-response","24","239680","0.0-11.0-3.4","5b1a3fa488ee7400012aef74","bdp_rwlrn","Wed Mar 15 2023 00:24:14 GMT-0400 (Eastern Daylight Time)","963018","Untrustworthy,Trustworthy","","null","","","","feedback","","<div class='respPicDiv'><img src='img/responseButtonOffersNo0_wht.png' class='respPic'></div><div class='trialDiv'><img src='Fruit/mango.png'><br><font class='baseline'><strong>Mega Mangos</strong><p><strong><font class='negOutcome'>You LOST</font><p>You bet: 5</strong></font> &nbsp; &nbsp; &nbsp; &nbsp; &nbsp; &nbsp;<font class='negOutcome'>You receive: <strong>0</strong></font></div>","null","2","Mega Mangos","Fruit/mango.png","Lost","0.65,0.2","13","0.65","16","5","",""
"html-keyboard-response","25","248868","0.0-11.0-1.5","5b1a3fa488ee7400012aef74","bdp_rwlrn","Wed Mar 15 2023 00:24:14 GMT-0400 (Eastern Daylight Time)","963018","Untrustworthy,Trustworthy","","9188","","","","decision","","<div class='trialDiv'><img src='Fruit/lime.png'><br><font class='baseline'><strong>Limin' Large</strong><p>Choose number of points to bet.</font><div class='respPicDiv'><img src='img/responseButtonOffersNo0L.png' class='respPic'></div></div>","1","2","Limin' Large","Fruit/lime.png","Won","0.35,0.8","10","0.35","21","6","",""
"html-keyboard-response","26","249119","0.0-11.0-2.5","5b1a3fa488ee7400012aef74","bdp_rwlrn","Wed Mar 15 2023 00:24:14 GMT-0400 (Eastern Daylight Time)","963018","Untrustworthy,Trustworthy","","null","","","","decisionFB","","<div class='trialDiv'><img src='Fruit/lime.png'><br><font class='baseline'><strong>Limin' Large</strong><p>Choose number of points to bet.</font><div class='respPicDiv'><img src='img/responseButtonOffersNo0L1.png' class='respPic'></div></div>","null","2","Limin' Large","Fruit/lime.png","Won","0.35,0.8","10","0.35","20","6","",""
"html-keyboard-response","27","250120","0.0-11.0-3.5","5b1a3fa488ee7400012aef74","bdp_rwlrn","Wed Mar 15 2023 00:24:14 GMT-0400 (Eastern Daylight Time)","963018","Untrustworthy,Trustworthy","","null","","","","feedback","","<div class='respPicDiv'><img src='img/responseButtonOffersNo0_wht.png' class='respPic'></div><div class='trialDiv'><img src='Fruit/lime.png'><br><font class='baseline'><strong>Limin' Large</strong><p><strong><font class='posOutcome'>You WON</font><p>You bet: 1</strong></font> &nbsp; &nbsp; &nbsp; &nbsp; &nbsp; &nbsp;<font class='posOutcome'>you receive: <strong>2</strong></font></div>","null","2","Limin' Large","Fruit/lime.png","Won","0.35,0.8","10","0.35","22","6","",""
"html-keyboard-response","28","254171","0.0-11.0-1.6","5b1a3fa488ee7400012aef74","bdp_rwlrn","Wed Mar 15 2023 00:24:14 GMT-0400 (Eastern Daylight Time)","963018","Untrustworthy,Trustworthy","","4050","","","","decision","","<div class='trialDiv'><img src='Fruit/mango.png'><br><font class='baseline'><strong>Mega Mangos</strong><p>Choose number of points to bet.</font><div class='respPicDiv'><img src='img/responseButtonOffersNo0L.png' class='respPic'></div></div>","5","3","Mega Mangos","Fruit/mango.png","Won","0.65,0.2","13","0.65","27","7","",""
"html-keyboard-response","29","254423","0.0-11.0-2.6","5b1a3fa488ee7400012aef74","bdp_rwlrn","Wed Mar 15 2023 00:24:14 GMT-0400 (Eastern Daylight Time)","963018","Untrustworthy,Trustworthy","","null","","","","decisionFB","","<div class='trialDiv'><img src='Fruit/mango.png'><br><font class='baseline'><strong>Mega Mangos</strong><p>Choose number of points to bet.</font><div class='respPicDiv'><img src='img/responseButtonOffersNo0L5.png' class='respPic'></div></div>","null","3","Mega Mangos","Fruit/mango.png","Won","0.65,0.2","13","0.65","22","7","",""
"html-keyboard-response","30","255424","0.0-11.0-3.6","5b1a3fa488ee7400012aef74","bdp_rwlrn","Wed Mar 15 2023 00:24:14 GMT-0400 (Eastern Daylight Time)","963018","Untrustworthy,Trustworthy","","null","","","","feedback","","<div class='respPicDiv'><img src='img/responseButtonOffersNo0_wht.png' class='respPic'></div><div class='trialDiv'><img src='Fruit/mango.png'><br><font class='baseline'><strong>Mega Mangos</strong><p><strong><font class='posOutcome'>You WON</font><p>You bet: 5</strong></font> &nbsp; &nbsp; &nbsp; &nbsp; &nbsp; &nbsp;<font class='posOutcome'>you receive: <strong>10</strong></font></div>","null","3","Mega Mangos","Fruit/mango.png","Won","0.65,0.2","13","0.65","32","7","",""
"html-keyboard-response","31","257595","0.0-11.0-1.7","5b1a3fa488ee7400012aef74","bdp_rwlrn","Wed Mar 15 2023 00:24:14 GMT-0400 (Eastern Daylight Time)","963018","Untrustworthy,Trustworthy","","2171","","","","decision","","<div class='trialDiv'><img src='Fruit/lime.png'><br><font class='baseline'><strong>Limin' Large</strong><p>Choose number of points to bet.</font><div class='respPicDiv'><img src='img/responseButtonOffersNo0L.png' class='respPic'></div></div>","1","3","Limin' Large","Fruit/lime.png","Lost","0.35,0.8","10","0.35","37","8","",""
"html-keyboard-response","32","257847","0.0-11.0-2.7","5b1a3fa488ee7400012aef74","bdp_rwlrn","Wed Mar 15 2023 00:24:14 GMT-0400 (Eastern Daylight Time)","963018","Untrustworthy,Trustworthy","","null","","","","decisionFB","","<div class='trialDiv'><img src='Fruit/lime.png'><br><font class='baseline'><strong>Limin' Large</strong><p>Choose number of points to bet.</font><div class='respPicDiv'><img src='img/responseButtonOffersNo0L1.png' class='respPic'></div></div>","null","3","Limin' Large","Fruit/lime.png","Lost","0.35,0.8","10","0.35","36","8","",""
"html-keyboard-response","33","258848","0.0-11.0-3.7","5b1a3fa488ee7400012aef74","bdp_rwlrn","Wed Mar 15 2023 00:24:14 GMT-0400 (Eastern Daylight Time)","963018","Untrustworthy,Trustworthy","","null","","","","feedback","","<div class='respPicDiv'><img src='img/responseButtonOffersNo0_wht.png' class='respPic'></div><div class='trialDiv'><img src='Fruit/lime.png'><br><font class='baseline'><strong>Limin' Large</strong><p><strong><font class='negOutcome'>You LOST</font><p>You bet: 1</strong></font> &nbsp; &nbsp; &nbsp; &nbsp; &nbsp; &nbsp;<font class='negOutcome'>You receive: <strong>0</strong></font></div>","null","3","Limin' Large","Fruit/lime.png","Lost","0.35,0.8","10","0.35","36","8","",""
"html-keyboard-response","34","266412","0.0-11.0-1.8","5b1a3fa488ee7400012aef74","bdp_rwlrn","Wed Mar 15 2023 00:24:14 GMT-0400 (Eastern Daylight Time)","963018","Untrustworthy,Trustworthy","","7563","","","","decision","","<div class='trialDiv'><img src='Fruit/watermelon.png'><br><font class='baseline'><strong>Watermelon Win$</strong><p>Choose number of points to bet.</font><div class='respPicDiv'><img src='img/responseButtonOffersNo0L.png' class='respPic'></div></div>","1","3","Watermelon Win$","Fruit/watermelon.png","Lost","0.2,0.8","13","0.2","41","9","",""
"html-keyboard-response","35","266664","0.0-11.0-2.8","5b1a3fa488ee7400012aef74","bdp_rwlrn","Wed Mar 15 2023 00:24:14 GMT-0400 (Eastern Daylight Time)","963018","Untrustworthy,Trustworthy","","null","","","","decisionFB","","<div class='trialDiv'><img src='Fruit/watermelon.png'><br><font class='baseline'><strong>Watermelon Win$</strong><p>Choose number of points to bet.</font><div class='respPicDiv'><img src='img/responseButtonOffersNo0L1.png' class='respPic'></div></div>","null","3","Watermelon Win$","Fruit/watermelon.png","Lost","0.2,0.8","13","0.2","40","9","",""
"html-keyboard-response","36","267664","0.0-11.0-3.8","5b1a3fa488ee7400012aef74","bdp_rwlrn","Wed Mar 15 2023 00:24:14 GMT-0400 (Eastern Daylight Time)","963018","Untrustworthy,Trustworthy","","null","","","","feedback","","<div class='respPicDiv'><img src='img/responseButtonOffersNo0_wht.png' class='respPic'></div><div class='trialDiv'><img src='Fruit/watermelon.png'><br><font class='baseline'><strong>Watermelon Win$</strong><p><strong><font class='negOutcome'>You LOST</font><p>You bet: 1</strong></font> &nbsp; &nbsp; &nbsp; &nbsp; &nbsp; &nbsp;<font class='negOutcome'>You receive: <strong>0</strong></font></div>","null","3","Watermelon Win$","Fruit/watermelon.png","Lost","0.2,0.8","13","0.2","40","9","",""
"html-keyboard-response","37","275420","0.0-11.0-1.9","5b1a3fa488ee7400012aef74","bdp_rwlrn","Wed Mar 15 2023 00:24:14 GMT-0400 (Eastern Daylight Time)","963018","Untrustworthy,Trustworthy","","7755","","","","decision","","<div class='trialDiv'><img src='Fruit/lime.png'><br><font class='baseline'><strong>Limin' Large</strong><p>Choose number of points to bet.</font><div class='respPicDiv'><img src='img/responseButtonOffersNo0L.png' class='respPic'></div></div>","5","4","Limin' Large","Fruit/lime.png","Lost","0.35,0.8","10","0.35","45","10","",""
"html-keyboard-response","38","275672","0.0-11.0-2.9","5b1a3fa488ee7400012aef74","bdp_rwlrn","Wed Mar 15 2023 00:24:14 GMT-0400 (Eastern Daylight Time)","963018","Untrustworthy,Trustworthy","","null","","","","decisionFB","","<div class='trialDiv'><img src='Fruit/lime.png'><br><font class='baseline'><strong>Limin' Large</strong><p>Choose number of points to bet.</font><div class='respPicDiv'><img src='img/responseButtonOffersNo0L5.png' class='respPic'></div></div>","null","4","Limin' Large","Fruit/lime.png","Lost","0.35,0.8","10","0.35","40","10","",""
"html-keyboard-response","39","276673","0.0-11.0-3.9","5b1a3fa488ee7400012aef74","bdp_rwlrn","Wed Mar 15 2023 00:24:14 GMT-0400 (Eastern Daylight Time)","963018","Untrustworthy,Trustworthy","","null","","","","feedback","","<div class='respPicDiv'><img src='img/responseButtonOffersNo0_wht.png' class='respPic'></div><div class='trialDiv'><img src='Fruit/lime.png'><br><font class='baseline'><strong>Limin' Large</strong><p><strong><font class='negOutcome'>You LOST</font><p>You bet: 5</strong></font> &nbsp; &nbsp; &nbsp; &nbsp; &nbsp; &nbsp;<font class='negOutcome'>You receive: <strong>0</strong></font></div>","null","4","Limin' Large","Fruit/lime.png","Lost","0.35,0.8","10","0.35","40","10","",""
"html-keyboard-response","40","286564","0.0-11.0-1.10","5b1a3fa488ee7400012aef74","bdp_rwlrn","Wed Mar 15 2023 00:24:14 GMT-0400 (Eastern Daylight Time)","963018","Untrustworthy,Trustworthy","","9891","","","","decision","","<div class='trialDiv'><img src='Fruit/watermelon.png'><br><font class='baseline'><strong>Watermelon Win$</strong><p>Choose number of points to bet.</font><div class='respPicDiv'><img src='img/responseButtonOffersNo0L.png' class='respPic'></div></div>","1","4","Watermelon Win$","Fruit/watermelon.png","Lost","0.2,0.8","13","0.2","45","11","",""
"html-keyboard-response","41","286816","0.0-11.0-2.10","5b1a3fa488ee7400012aef74","bdp_rwlrn","Wed Mar 15 2023 00:24:14 GMT-0400 (Eastern Daylight Time)","963018","Untrustworthy,Trustworthy","","null","","","","decisionFB","","<div class='trialDiv'><img src='Fruit/watermelon.png'><br><font class='baseline'><strong>Watermelon Win$</strong><p>Choose number of points to bet.</font><div class='respPicDiv'><img src='img/responseButtonOffersNo0L1.png' class='respPic'></div></div>","null","4","Watermelon Win$","Fruit/watermelon.png","Lost","0.2,0.8","13","0.2","44","11","",""
"html-keyboard-response","42","287818","0.0-11.0-3.10","5b1a3fa488ee7400012aef74","bdp_rwlrn","Wed Mar 15 2023 00:24:14 GMT-0400 (Eastern Daylight Time)","963018","Untrustworthy,Trustworthy","","null","","","","feedback","","<div class='respPicDiv'><img src='img/responseButtonOffersNo0_wht.png' class='respPic'></div><div class='trialDiv'><img src='Fruit/watermelon.png'><br><font class='baseline'><strong>Watermelon Win$</strong><p><strong><font class='negOutcome'>You LOST</font><p>You bet: 1</strong></font> &nbsp; &nbsp; &nbsp; &nbsp; &nbsp; &nbsp;<font class='negOutcome'>You receive: <strong>0</strong></font></div>","null","4","Watermelon Win$","Fruit/watermelon.png","Lost","0.2,0.8","13","0.2","44","11","",""
"html-keyboard-response","43","289499","0.0-11.0-1.11","5b1a3fa488ee7400012aef74","bdp_rwlrn","Wed Mar 15 2023 00:24:14 GMT-0400 (Eastern Daylight Time)","963018","Untrustworthy,Trustworthy","","1680","","","","decision","","<div class='trialDiv'><img src='Fruit/mango.png'><br><font class='baseline'><strong>Mega Mangos</strong><p>Choose number of points to bet.</font><div class='respPicDiv'><img src='img/responseButtonOffersNo0L.png' class='respPic'></div></div>","5","4","Mega Mangos","Fruit/mango.png","Won","0.65,0.2","13","0.65","49","12","",""
"html-keyboard-response","44","289750","0.0-11.0-2.11","5b1a3fa488ee7400012aef74","bdp_rwlrn","Wed Mar 15 2023 00:24:14 GMT-0400 (Eastern Daylight Time)","963018","Untrustworthy,Trustworthy","","null","","","","decisionFB","","<div class='trialDiv'><img src='Fruit/mango.png'><br><font class='baseline'><strong>Mega Mangos</strong><p>Choose number of points to bet.</font><div class='respPicDiv'><img src='img/responseButtonOffersNo0L5.png' class='respPic'></div></div>","null","4","Mega Mangos","Fruit/mango.png","Won","0.65,0.2","13","0.65","44","12","",""
"html-keyboard-response","45","290752","0.0-11.0-3.11","5b1a3fa488ee7400012aef74","bdp_rwlrn","Wed Mar 15 2023 00:24:14 GMT-0400 (Eastern Daylight Time)","963018","Untrustworthy,Trustworthy","","null","","","","feedback","","<div class='respPicDiv'><img src='img/responseButtonOffersNo0_wht.png' class='respPic'></div><div class='trialDiv'><img src='Fruit/mango.png'><br><font class='baseline'><strong>Mega Mangos</strong><p><strong><font class='posOutcome'>You WON</font><p>You bet: 5</strong></font> &nbsp; &nbsp; &nbsp; &nbsp; &nbsp; &nbsp;<font class='posOutcome'>you receive: <strong>10</strong></font></div>","null","4","Mega Mangos","Fruit/mango.png","Won","0.65,0.2","13","0.65","54","12","",""
"html-keyboard-response","46","293292","0.0-11.0-1.12","5b1a3fa488ee7400012aef74","bdp_rwlrn","Wed Mar 15 2023 00:24:14 GMT-0400 (Eastern Daylight Time)","963018","Untrustworthy,Trustworthy","","2539","","","","decision","","<div class='trialDiv'><img src='Fruit/lime.png'><br><font class='baseline'><strong>Limin' Large</strong><p>Choose number of points to bet.</font><div class='respPicDiv'><img src='img/responseButtonOffersNo0L.png' class='respPic'></div></div>","1","5","Limin' Large","Fruit/lime.png","Lost","0.35,0.8","10","0.35","59","13","",""
"html-keyboard-response","47","293542","0.0-11.0-2.12","5b1a3fa488ee7400012aef74","bdp_rwlrn","Wed Mar 15 2023 00:24:14 GMT-0400 (Eastern Daylight Time)","963018","Untrustworthy,Trustworthy","","null","","","","decisionFB","","<div class='trialDiv'><img src='Fruit/lime.png'><br><font class='baseline'><strong>Limin' Large</strong><p>Choose number of points to bet.</font><div class='respPicDiv'><img src='img/responseButtonOffersNo0L1.png' class='respPic'></div></div>","null","5","Limin' Large","Fruit/lime.png","Lost","0.35,0.8","10","0.35","58","13","",""
"html-keyboard-response","48","294544","0.0-11.0-3.12","5b1a3fa488ee7400012aef74","bdp_rwlrn","Wed Mar 15 2023 00:24:14 GMT-0400 (Eastern Daylight Time)","963018","Untrustworthy,Trustworthy","","null","","","","feedback","","<div class='respPicDiv'><img src='img/responseButtonOffersNo0_wht.png' class='respPic'></div><div class='trialDiv'><img src='Fruit/lime.png'><br><font class='baseline'><strong>Limin' Large</strong><p><strong><font class='negOutcome'>You LOST</font><p>You bet: 1</strong></font> &nbsp; &nbsp; &nbsp; &nbsp; &nbsp; &nbsp;<font class='negOutcome'>You receive: <strong>0</strong></font></div>","null","5","Limin' Large","Fruit/lime.png","Lost","0.35,0.8","10","0.35","58","13","",""
"html-keyboard-response","49","296268","0.0-11.0-1.13","5b1a3fa488ee7400012aef74","bdp_rwlrn","Wed Mar 15 2023 00:24:14 GMT-0400 (Eastern Daylight Time)","963018","Untrustworthy,Trustworthy","","1724","","","","decision","","<div class='trialDiv'><img src='Fruit/mango.png'><br><font class='baseline'><strong>Mega Mangos</strong><p>Choose number of points to bet.</font><div class='respPicDiv'><img src='img/responseButtonOffersNo0L.png' class='respPic'></div></div>","5","5","Mega Mangos","Fruit/mango.png","Won","0.65,0.2","13","0.65","63","14","",""
"html-keyboard-response","50","296519","0.0-11.0-2.13","5b1a3fa488ee7400012aef74","bdp_rwlrn","Wed Mar 15 2023 00:24:14 GMT-0400 (Eastern Daylight Time)","963018","Untrustworthy,Trustworthy","","null","","","","decisionFB","","<div class='trialDiv'><img src='Fruit/mango.png'><br><font class='baseline'><strong>Mega Mangos</strong><p>Choose number of points to bet.</font><div class='respPicDiv'><img src='img/responseButtonOffersNo0L5.png' class='respPic'></div></div>","null","5","Mega Mangos","Fruit/mango.png","Won","0.65,0.2","13","0.65","58","14","",""
"html-keyboard-response","51","297521","0.0-11.0-3.13","5b1a3fa488ee7400012aef74","bdp_rwlrn","Wed Mar 15 2023 00:24:14 GMT-0400 (Eastern Daylight Time)","963018","Untrustworthy,Trustworthy","","null","","","","feedback","","<div class='respPicDiv'><img src='img/responseButtonOffersNo0_wht.png' class='respPic'></div><div class='trialDiv'><img src='Fruit/mango.png'><br><font class='baseline'><strong>Mega Mangos</strong><p><strong><font class='posOutcome'>You WON</font><p>You bet: 5</strong></font> &nbsp; &nbsp; &nbsp; &nbsp; &nbsp; &nbsp;<font class='posOutcome'>you receive: <strong>10</strong></font></div>","null","5","Mega Mangos","Fruit/mango.png","Won","0.65,0.2","13","0.65","68","14","",""
"html-keyboard-response","52","300909","0.0-11.0-1.14","5b1a3fa488ee7400012aef74","bdp_rwlrn","Wed Mar 15 2023 00:24:14 GMT-0400 (Eastern Daylight Time)","963018","Untrustworthy,Trustworthy","","3387","","","","decision","","<div class='trialDiv'><img src='Fruit/watermelon.png'><br><font class='baseline'><strong>Watermelon Win$</strong><p>Choose number of points to bet.</font><div class='respPicDiv'><img src='img/responseButtonOffersNo0L.png' class='respPic'></div></div>","1","5","Watermelon Win$","Fruit/watermelon.png","Lost","0.2,0.8","13","0.2","73","15","",""
"html-keyboard-response","53","301161","0.0-11.0-2.14","5b1a3fa488ee7400012aef74","bdp_rwlrn","Wed Mar 15 2023 00:24:14 GMT-0400 (Eastern Daylight Time)","963018","Untrustworthy,Trustworthy","","null","","","","decisionFB","","<div class='trialDiv'><img src='Fruit/watermelon.png'><br><font class='baseline'><strong>Watermelon Win$</strong><p>Choose number of points to bet.</font><div class='respPicDiv'><img src='img/responseButtonOffersNo0L1.png' class='respPic'></div></div>","null","5","Watermelon Win$","Fruit/watermelon.png","Lost","0.2,0.8","13","0.2","72","15","",""
"html-keyboard-response","54","302163","0.0-11.0-3.14","5b1a3fa488ee7400012aef74","bdp_rwlrn","Wed Mar 15 2023 00:24:14 GMT-0400 (Eastern Daylight Time)","963018","Untrustworthy,Trustworthy","","null","","","","feedback","","<div class='respPicDiv'><img src='img/responseButtonOffersNo0_wht.png' class='respPic'></div><div class='trialDiv'><img src='Fruit/watermelon.png'><br><font class='baseline'><strong>Watermelon Win$</strong><p><strong><font class='negOutcome'>You LOST</font><p>You bet: 1</strong></font> &nbsp; &nbsp; &nbsp; &nbsp; &nbsp; &nbsp;<font class='negOutcome'>You receive: <strong>0</strong></font></div>","null","5","Watermelon Win$","Fruit/watermelon.png","Lost","0.2,0.8","13","0.2","72","15","",""
"html-keyboard-response","55","303452","0.0-11.0-1.15","5b1a3fa488ee7400012aef74","bdp_rwlrn","Wed Mar 15 2023 00:24:14 GMT-0400 (Eastern Daylight Time)","963018","Untrustworthy,Trustworthy","","1289","","","","decision","","<div class='trialDiv'><img src='Fruit/mango.png'><br><font class='baseline'><strong>Mega Mangos</strong><p>Choose number of points to bet.</font><div class='respPicDiv'><img src='img/responseButtonOffersNo0L.png' class='respPic'></div></div>","5","6","Mega Mangos","Fruit/mango.png","Won","0.65,0.2","13","0.65","77","16","",""
"html-keyboard-response","56","303703","0.0-11.0-2.15","5b1a3fa488ee7400012aef74","bdp_rwlrn","Wed Mar 15 2023 00:24:14 GMT-0400 (Eastern Daylight Time)","963018","Untrustworthy,Trustworthy","","null","","","","decisionFB","","<div class='trialDiv'><img src='Fruit/mango.png'><br><font class='baseline'><strong>Mega Mangos</strong><p>Choose number of points to bet.</font><div class='respPicDiv'><img src='img/responseButtonOffersNo0L5.png' class='respPic'></div></div>","null","6","Mega Mangos","Fruit/mango.png","Won","0.65,0.2","13","0.65","72","16","",""
"html-keyboard-response","57","304705","0.0-11.0-3.15","5b1a3fa488ee7400012aef74","bdp_rwlrn","Wed Mar 15 2023 00:24:14 GMT-0400 (Eastern Daylight Time)","963018","Untrustworthy,Trustworthy","","null","","","","feedback","","<div class='respPicDiv'><img src='img/responseButtonOffersNo0_wht.png' class='respPic'></div><div class='trialDiv'><img src='Fruit/mango.png'><br><font class='baseline'><strong>Mega Mangos</strong><p><strong><font class='posOutcome'>You WON</font><p>You bet: 5</strong></font> &nbsp; &nbsp; &nbsp; &nbsp; &nbsp; &nbsp;<font class='posOutcome'>you receive: <strong>10</strong></font></div>","null","6","Mega Mangos","Fruit/mango.png","Won","0.65,0.2","13","0.65","82","16","",""
"html-keyboard-response","58","306772","0.0-11.0-1.16","5b1a3fa488ee7400012aef74","bdp_rwlrn","Wed Mar 15 2023 00:24:14 GMT-0400 (Eastern Daylight Time)","963018","Untrustworthy,Trustworthy","","2067","","","","decision","","<div class='trialDiv'><img src='Fruit/lime.png'><br><font class='baseline'><strong>Limin' Large</strong><p>Choose number of points to bet.</font><div class='respPicDiv'><img src='img/responseButtonOffersNo0L.png' class='respPic'></div></div>","1","6","Limin' Large","Fruit/lime.png","Lost","0.35,0.8","10","0.35","87","17","",""
"html-keyboard-response","59","307023","0.0-11.0-2.16","5b1a3fa488ee7400012aef74","bdp_rwlrn","Wed Mar 15 2023 00:24:14 GMT-0400 (Eastern Daylight Time)","963018","Untrustworthy,Trustworthy","","null","","","","decisionFB","","<div class='trialDiv'><img src='Fruit/lime.png'><br><font class='baseline'><strong>Limin' Large</strong><p>Choose number of points to bet.</font><div class='respPicDiv'><img src='img/responseButtonOffersNo0L1.png' class='respPic'></div></div>","null","6","Limin' Large","Fruit/lime.png","Lost","0.35,0.8","10","0.35","86","17","",""
"html-keyboard-response","60","308024","0.0-11.0-3.16","5b1a3fa488ee7400012aef74","bdp_rwlrn","Wed Mar 15 2023 00:24:14 GMT-0400 (Eastern Daylight Time)","963018","Untrustworthy,Trustworthy","","null","","","","feedback","","<div class='respPicDiv'><img src='img/responseButtonOffersNo0_wht.png' class='respPic'></div><div class='trialDiv'><img src='Fruit/lime.png'><br><font class='baseline'><strong>Limin' Large</strong><p><strong><font class='negOutcome'>You LOST</font><p>You bet: 1</strong></font> &nbsp; &nbsp; &nbsp; &nbsp; &nbsp; &nbsp;<font class='negOutcome'>You receive: <strong>0</strong></font></div>","null","6","Limin' Large","Fruit/lime.png","Lost","0.35,0.8","10","0.35","86","17","",""
"html-keyboard-response","61","309069","0.0-11.0-1.17","5b1a3fa488ee7400012aef74","bdp_rwlrn","Wed Mar 15 2023 00:24:14 GMT-0400 (Eastern Daylight Time)","963018","Untrustworthy,Trustworthy","","1045","","","","decision","","<div class='trialDiv'><img src='Fruit/watermelon.png'><br><font class='baseline'><strong>Watermelon Win$</strong><p>Choose number of points to bet.</font><div class='respPicDiv'><img src='img/responseButtonOffersNo0L.png' class='respPic'></div></div>","1","6","Watermelon Win$","Fruit/watermelon.png","Won","0.2,0.8","13","0.2","91","18","",""
"html-keyboard-response","62","309320","0.0-11.0-2.17","5b1a3fa488ee7400012aef74","bdp_rwlrn","Wed Mar 15 2023 00:24:14 GMT-0400 (Eastern Daylight Time)","963018","Untrustworthy,Trustworthy","","null","","","","decisionFB","","<div class='trialDiv'><img src='Fruit/watermelon.png'><br><font class='baseline'><strong>Watermelon Win$</strong><p>Choose number of points to bet.</font><div class='respPicDiv'><img src='img/responseButtonOffersNo0L1.png' class='respPic'></div></div>","null","6","Watermelon Win$","Fruit/watermelon.png","Won","0.2,0.8","13","0.2","90","18","",""
"html-keyboard-response","63","310321","0.0-11.0-3.17","5b1a3fa488ee7400012aef74","bdp_rwlrn","Wed Mar 15 2023 00:24:14 GMT-0400 (Eastern Daylight Time)","963018","Untrustworthy,Trustworthy","","null","","","","feedback","","<div class='respPicDiv'><img src='img/responseButtonOffersNo0_wht.png' class='respPic'></div><div class='trialDiv'><img src='Fruit/watermelon.png'><br><font class='baseline'><strong>Watermelon Win$</strong><p><strong><font class='posOutcome'>You WON</font><p>You bet: 1</strong></font> &nbsp; &nbsp; &nbsp; &nbsp; &nbsp; &nbsp;<font class='posOutcome'>you receive: <strong>2</strong></font></div>","null","6","Watermelon Win$","Fruit/watermelon.png","Won","0.2,0.8","13","0.2","92","18","",""
"html-keyboard-response","64","312388","0.0-11.0-1.18","5b1a3fa488ee7400012aef74","bdp_rwlrn","Wed Mar 15 2023 00:24:14 GMT-0400 (Eastern Daylight Time)","963018","Untrustworthy,Trustworthy","","2067","","","","decision","","<div class='trialDiv'><img src='Fruit/lime.png'><br><font class='baseline'><strong>Limin' Large</strong><p>Choose number of points to bet.</font><div class='respPicDiv'><img src='img/responseButtonOffersNo0L.png' class='respPic'></div></div>","1","7","Limin' Large","Fruit/lime.png","Lost","0.35,0.8","10","0.35","97","19","",""
"html-keyboard-response","65","312640","0.0-11.0-2.18","5b1a3fa488ee7400012aef74","bdp_rwlrn","Wed Mar 15 2023 00:24:14 GMT-0400 (Eastern Daylight Time)","963018","Untrustworthy,Trustworthy","","null","","","","decisionFB","","<div class='trialDiv'><img src='Fruit/lime.png'><br><font class='baseline'><strong>Limin' Large</strong><p>Choose number of points to bet.</font><div class='respPicDiv'><img src='img/responseButtonOffersNo0L1.png' class='respPic'></div></div>","null","7","Limin' Large","Fruit/lime.png","Lost","0.35,0.8","10","0.35","96","19","",""
"html-keyboard-response","66","313641","0.0-11.0-3.18","5b1a3fa488ee7400012aef74","bdp_rwlrn","Wed Mar 15 2023 00:24:14 GMT-0400 (Eastern Daylight Time)","963018","Untrustworthy,Trustworthy","","null","","","","feedback","","<div class='respPicDiv'><img src='img/responseButtonOffersNo0_wht.png' class='respPic'></div><div class='trialDiv'><img src='Fruit/lime.png'><br><font class='baseline'><strong>Limin' Large</strong><p><strong><font class='negOutcome'>You LOST</font><p>You bet: 1</strong></font> &nbsp; &nbsp; &nbsp; &nbsp; &nbsp; &nbsp;<font class='negOutcome'>You receive: <strong>0</strong></font></div>","null","7","Limin' Large","Fruit/lime.png","Lost","0.35,0.8","10","0.35","96","19","",""
"html-keyboard-response","67","318844","0.0-11.0-1.19","5b1a3fa488ee7400012aef74","bdp_rwlrn","Wed Mar 15 2023 00:24:14 GMT-0400 (Eastern Daylight Time)","963018","Untrustworthy,Trustworthy","","5203","","","","decision","","<div class='trialDiv'><img src='Fruit/watermelon.png'><br><font class='baseline'><strong>Watermelon Win$</strong><p>Choose number of points to bet.</font><div class='respPicDiv'><img src='img/responseButtonOffersNo0L.png' class='respPic'></div></div>","5","7","Watermelon Win$","Fruit/watermelon.png","Lost","0.2,0.8","13","0.2","101","20","",""
"html-keyboard-response","68","319096","0.0-11.0-2.19","5b1a3fa488ee7400012aef74","bdp_rwlrn","Wed Mar 15 2023 00:24:14 GMT-0400 (Eastern Daylight Time)","963018","Untrustworthy,Trustworthy","","null","","","","decisionFB","","<div class='trialDiv'><img src='Fruit/watermelon.png'><br><font class='baseline'><strong>Watermelon Win$</strong><p>Choose number of points to bet.</font><div class='respPicDiv'><img src='img/responseButtonOffersNo0L5.png' class='respPic'></div></div>","null","7","Watermelon Win$","Fruit/watermelon.png","Lost","0.2,0.8","13","0.2","96","20","",""
"html-keyboard-response","69","320098","0.0-11.0-3.19","5b1a3fa488ee7400012aef74","bdp_rwlrn","Wed Mar 15 2023 00:24:14 GMT-0400 (Eastern Daylight Time)","963018","Untrustworthy,Trustworthy","","null","","","","feedback","","<div class='respPicDiv'><img src='img/responseButtonOffersNo0_wht.png' class='respPic'></div><div class='trialDiv'><img src='Fruit/watermelon.png'><br><font class='baseline'><strong>Watermelon Win$</strong><p><strong><font class='negOutcome'>You LOST</font><p>You bet: 5</strong></font> &nbsp; &nbsp; &nbsp; &nbsp; &nbsp; &nbsp;<font class='negOutcome'>You receive: <strong>0</strong></font></div>","null","7","Watermelon Win$","Fruit/watermelon.png","Lost","0.2,0.8","13","0.2","96","20","",""
"html-keyboard-response","70","322484","0.0-11.0-1.20","5b1a3fa488ee7400012aef74","bdp_rwlrn","Wed Mar 15 2023 00:24:14 GMT-0400 (Eastern Daylight Time)","963018","Untrustworthy,Trustworthy","","2386","","","","decision","","<div class='trialDiv'><img src='Fruit/mango.png'><br><font class='baseline'><strong>Mega Mangos</strong><p>Choose number of points to bet.</font><div class='respPicDiv'><img src='img/responseButtonOffersNo0L.png' class='respPic'></div></div>","5","7","Mega Mangos","Fruit/mango.png","Lost","0.65,0.2","13","0.65","101","21","",""
"html-keyboard-response","71","322734","0.0-11.0-2.20","5b1a3fa488ee7400012aef74","bdp_rwlrn","Wed Mar 15 2023 00:24:14 GMT-0400 (Eastern Daylight Time)","963018","Untrustworthy,Trustworthy","","null","","","","decisionFB","","<div class='trialDiv'><img src='Fruit/mango.png'><br><font class='baseline'><strong>Mega Mangos</strong><p>Choose number of points to bet.</font><div class='respPicDiv'><img src='img/responseButtonOffersNo0L5.png' class='respPic'></div></div>","null","7","Mega Mangos","Fruit/mango.png","Lost","0.65,0.2","13","0.65","96","21","",""
"html-keyboard-response","72","323735","0.0-11.0-3.20","5b1a3fa488ee7400012aef74","bdp_rwlrn","Wed Mar 15 2023 00:24:14 GMT-0400 (Eastern Daylight Time)","963018","Untrustworthy,Trustworthy","","null","","","","feedback","","<div class='respPicDiv'><img src='img/responseButtonOffersNo0_wht.png' class='respPic'></div><div class='trialDiv'><img src='Fruit/mango.png'><br><font class='baseline'><strong>Mega Mangos</strong><p><strong><font class='negOutcome'>You LOST</font><p>You bet: 5</strong></font> &nbsp; &nbsp; &nbsp; &nbsp; &nbsp; &nbsp;<font class='negOutcome'>You receive: <strong>0</strong></font></div>","null","7","Mega Mangos","Fruit/mango.png","Lost","0.65,0.2","13","0.65","96","21","",""
"html-keyboard-response","73","340972","0.0-11.0-1.21","5b1a3fa488ee7400012aef74","bdp_rwlrn","Wed Mar 15 2023 00:24:14 GMT-0400 (Eastern Daylight Time)","963018","Untrustworthy,Trustworthy","","17236","","","","decision","","<div class='trialDiv'><img src='Fruit/watermelon.png'><br><font class='baseline'><strong>Watermelon Win$</strong><p>Choose number of points to bet.</font><div class='respPicDiv'><img src='img/responseButtonOffersNo0L.png' class='respPic'></div></div>","1","8","Watermelon Win$","Fruit/watermelon.png","Won","0.2,0.8","13","0.2","101","22","",""
"html-keyboard-response","74","341224","0.0-11.0-2.21","5b1a3fa488ee7400012aef74","bdp_rwlrn","Wed Mar 15 2023 00:24:14 GMT-0400 (Eastern Daylight Time)","963018","Untrustworthy,Trustworthy","","null","","","","decisionFB","","<div class='trialDiv'><img src='Fruit/watermelon.png'><br><font class='baseline'><strong>Watermelon Win$</strong><p>Choose number of points to bet.</font><div class='respPicDiv'><img src='img/responseButtonOffersNo0L1.png' class='respPic'></div></div>","null","8","Watermelon Win$","Fruit/watermelon.png","Won","0.2,0.8","13","0.2","100","22","",""
"html-keyboard-response","75","342225","0.0-11.0-3.21","5b1a3fa488ee7400012aef74","bdp_rwlrn","Wed Mar 15 2023 00:24:14 GMT-0400 (Eastern Daylight Time)","963018","Untrustworthy,Trustworthy","","null","","","","feedback","","<div class='respPicDiv'><img src='img/responseButtonOffersNo0_wht.png' class='respPic'></div><div class='trialDiv'><img src='Fruit/watermelon.png'><br><font class='baseline'><strong>Watermelon Win$</strong><p><strong><font class='posOutcome'>You WON</font><p>You bet: 1</strong></font> &nbsp; &nbsp; &nbsp; &nbsp; &nbsp; &nbsp;<font class='posOutcome'>you receive: <strong>2</strong></font></div>","null","8","Watermelon Win$","Fruit/watermelon.png","Won","0.2,0.8","13","0.2","102","22","",""
"html-keyboard-response","76","343438","0.0-11.0-1.22","5b1a3fa488ee7400012aef74","bdp_rwlrn","Wed Mar 15 2023 00:24:14 GMT-0400 (Eastern Daylight Time)","963018","Untrustworthy,Trustworthy","","1213","","","","decision","","<div class='trialDiv'><img src='Fruit/lime.png'><br><font class='baseline'><strong>Limin' Large</strong><p>Choose number of points to bet.</font><div class='respPicDiv'><img src='img/responseButtonOffersNo0L.png' class='respPic'></div></div>","1","8","Limin' Large","Fruit/lime.png","Won","0.35,0.8","10","0.35","107","23","",""
"html-keyboard-response","77","343689","0.0-11.0-2.22","5b1a3fa488ee7400012aef74","bdp_rwlrn","Wed Mar 15 2023 00:24:14 GMT-0400 (Eastern Daylight Time)","963018","Untrustworthy,Trustworthy","","null","","","","decisionFB","","<div class='trialDiv'><img src='Fruit/lime.png'><br><font class='baseline'><strong>Limin' Large</strong><p>Choose number of points to bet.</font><div class='respPicDiv'><img src='img/responseButtonOffersNo0L1.png' class='respPic'></div></div>","null","8","Limin' Large","Fruit/lime.png","Won","0.35,0.8","10","0.35","106","23","",""
"html-keyboard-response","78","344690","0.0-11.0-3.22","5b1a3fa488ee7400012aef74","bdp_rwlrn","Wed Mar 15 2023 00:24:14 GMT-0400 (Eastern Daylight Time)","963018","Untrustworthy,Trustworthy","","null","","","","feedback","","<div class='respPicDiv'><img src='img/responseButtonOffersNo0_wht.png' class='respPic'></div><div class='trialDiv'><img src='Fruit/lime.png'><br><font class='baseline'><strong>Limin' Large</strong><p><strong><font class='posOutcome'>You WON</font><p>You bet: 1</strong></font> &nbsp; &nbsp; &nbsp; &nbsp; &nbsp; &nbsp;<font class='posOutcome'>you receive: <strong>2</strong></font></div>","null","8","Limin' Large","Fruit/lime.png","Won","0.35,0.8","10","0.35","108","23","",""
"html-keyboard-response","79","347531","0.0-11.0-1.23","5b1a3fa488ee7400012aef74","bdp_rwlrn","Wed Mar 15 2023 00:24:14 GMT-0400 (Eastern Daylight Time)","963018","Untrustworthy,Trustworthy","","2841","","","","decision","","<div class='trialDiv'><img src='Fruit/mango.png'><br><font class='baseline'><strong>Mega Mangos</strong><p>Choose number of points to bet.</font><div class='respPicDiv'><img src='img/responseButtonOffersNo0L.png' class='respPic'></div></div>","1","8","Mega Mangos","Fruit/mango.png","Won","0.65,0.2","13","0.65","113","24","",""
"html-keyboard-response","80","347783","0.0-11.0-2.23","5b1a3fa488ee7400012aef74","bdp_rwlrn","Wed Mar 15 2023 00:24:14 GMT-0400 (Eastern Daylight Time)","963018","Untrustworthy,Trustworthy","","null","","","","decisionFB","","<div class='trialDiv'><img src='Fruit/mango.png'><br><font class='baseline'><strong>Mega Mangos</strong><p>Choose number of points to bet.</font><div class='respPicDiv'><img src='img/responseButtonOffersNo0L1.png' class='respPic'></div></div>","null","8","Mega Mangos","Fruit/mango.png","Won","0.65,0.2","13","0.65","112","24","",""
"html-keyboard-response","81","348784","0.0-11.0-3.23","5b1a3fa488ee7400012aef74","bdp_rwlrn","Wed Mar 15 2023 00:24:14 GMT-0400 (Eastern Daylight Time)","963018","Untrustworthy,Trustworthy","","null","","","","feedback","","<div class='respPicDiv'><img src='img/responseButtonOffersNo0_wht.png' class='respPic'></div><div class='trialDiv'><img src='Fruit/mango.png'><br><font class='baseline'><strong>Mega Mangos</strong><p><strong><font class='posOutcome'>You WON</font><p>You bet: 1</strong></font> &nbsp; &nbsp; &nbsp; &nbsp; &nbsp; &nbsp;<font class='posOutcome'>you receive: <strong>2</strong></font></div>","null","8","Mega Mangos","Fruit/mango.png","Won","0.65,0.2","13","0.65","114","24","",""
"html-keyboard-response","82","350603","0.0-11.0-1.24","5b1a3fa488ee7400012aef74","bdp_rwlrn","Wed Mar 15 2023 00:24:14 GMT-0400 (Eastern Daylight Time)","963018","Untrustworthy,Trustworthy","","1818","","","","decision","","<div class='trialDiv'><img src='Fruit/watermelon.png'><br><font class='baseline'><strong>Watermelon Win$</strong><p>Choose number of points to bet.</font><div class='respPicDiv'><img src='img/responseButtonOffersNo0L.png' class='respPic'></div></div>","5","9","Watermelon Win$","Fruit/watermelon.png","Lost","0.2,0.8","13","0.2","119","25","",""
"html-keyboard-response","83","350854","0.0-11.0-2.24","5b1a3fa488ee7400012aef74","bdp_rwlrn","Wed Mar 15 2023 00:24:14 GMT-0400 (Eastern Daylight Time)","963018","Untrustworthy,Trustworthy","","null","","","","decisionFB","","<div class='trialDiv'><img src='Fruit/watermelon.png'><br><font class='baseline'><strong>Watermelon Win$</strong><p>Choose number of points to bet.</font><div class='respPicDiv'><img src='img/responseButtonOffersNo0L5.png' class='respPic'></div></div>","null","9","Watermelon Win$","Fruit/watermelon.png","Lost","0.2,0.8","13","0.2","114","25","",""
"html-keyboard-response","84","351854","0.0-11.0-3.24","5b1a3fa488ee7400012aef74","bdp_rwlrn","Wed Mar 15 2023 00:24:14 GMT-0400 (Eastern Daylight Time)","963018","Untrustworthy,Trustworthy","","null","","","","feedback","","<div class='respPicDiv'><img src='img/responseButtonOffersNo0_wht.png' class='respPic'></div><div class='trialDiv'><img src='Fruit/watermelon.png'><br><font class='baseline'><strong>Watermelon Win$</strong><p><strong><font class='negOutcome'>You LOST</font><p>You bet: 5</strong></font> &nbsp; &nbsp; &nbsp; &nbsp; &nbsp; &nbsp;<font class='negOutcome'>You receive: <strong>0</strong></font></div>","null","9","Watermelon Win$","Fruit/watermelon.png","Lost","0.2,0.8","13","0.2","114","25","",""
"html-keyboard-response","85","353900","0.0-11.0-1.25","5b1a3fa488ee7400012aef74","bdp_rwlrn","Wed Mar 15 2023 00:24:14 GMT-0400 (Eastern Daylight Time)","963018","Untrustworthy,Trustworthy","","2044","","","","decision","","<div class='trialDiv'><img src='Fruit/lime.png'><br><font class='baseline'><strong>Limin' Large</strong><p>Choose number of points to bet.</font><div class='respPicDiv'><img src='img/responseButtonOffersNo0L.png' class='respPic'></div></div>","5","9","Limin' Large","Fruit/lime.png","Won","0.35,0.8","10","0.35","119","26","",""
"html-keyboard-response","86","354151","0.0-11.0-2.25","5b1a3fa488ee7400012aef74","bdp_rwlrn","Wed Mar 15 2023 00:24:14 GMT-0400 (Eastern Daylight Time)","963018","Untrustworthy,Trustworthy","","null","","","","decisionFB","","<div class='trialDiv'><img src='Fruit/lime.png'><br><font class='baseline'><strong>Limin' Large</strong><p>Choose number of points to bet.</font><div class='respPicDiv'><img src='img/responseButtonOffersNo0L5.png' class='respPic'></div></div>","null","9","Limin' Large","Fruit/lime.png","Won","0.35,0.8","10","0.35","114","26","",""
"html-keyboard-response","87","355152","0.0-11.0-3.25","5b1a3fa488ee7400012aef74","bdp_rwlrn","Wed Mar 15 2023 00:24:14 GMT-0400 (Eastern Daylight Time)","963018","Untrustworthy,Trustworthy","","null","","","","feedback","","<div class='respPicDiv'><img src='img/responseButtonOffersNo0_wht.png' class='respPic'></div><div class='trialDiv'><img src='Fruit/lime.png'><br><font class='baseline'><strong>Limin' Large</strong><p><strong><font class='posOutcome'>You WON</font><p>You bet: 5</strong></font> &nbsp; &nbsp; &nbsp; &nbsp; &nbsp; &nbsp;<font class='posOutcome'>you receive: <strong>10</strong></font></div>","null","9","Limin' Large","Fruit/lime.png","Won","0.35,0.8","10","0.35","124","26","",""
"html-keyboard-response","88","356596","0.0-11.0-1.26","5b1a3fa488ee7400012aef74","bdp_rwlrn","Wed Mar 15 2023 00:24:14 GMT-0400 (Eastern Daylight Time)","963018","Untrustworthy,Trustworthy","","1443","","","","decision","","<div class='trialDiv'><img src='Fruit/mango.png'><br><font class='baseline'><strong>Mega Mangos</strong><p>Choose number of points to bet.</font><div class='respPicDiv'><img src='img/responseButtonOffersNo0L.png' class='respPic'></div></div>","5","9","Mega Mangos","Fruit/mango.png","Won","0.65,0.2","13","0.65","129","27","",""
"html-keyboard-response","89","356847","0.0-11.0-2.26","5b1a3fa488ee7400012aef74","bdp_rwlrn","Wed Mar 15 2023 00:24:14 GMT-0400 (Eastern Daylight Time)","963018","Untrustworthy,Trustworthy","","null","","","","decisionFB","","<div class='trialDiv'><img src='Fruit/mango.png'><br><font class='baseline'><strong>Mega Mangos</strong><p>Choose number of points to bet.</font><div class='respPicDiv'><img src='img/responseButtonOffersNo0L5.png' class='respPic'></div></div>","null","9","Mega Mangos","Fruit/mango.png","Won","0.65,0.2","13","0.65","124","27","",""
"html-keyboard-response","90","357849","0.0-11.0-3.26","5b1a3fa488ee7400012aef74","bdp_rwlrn","Wed Mar 15 2023 00:24:14 GMT-0400 (Eastern Daylight Time)","963018","Untrustworthy,Trustworthy","","null","","","","feedback","","<div class='respPicDiv'><img src='img/responseButtonOffersNo0_wht.png' class='respPic'></div><div class='trialDiv'><img src='Fruit/mango.png'><br><font class='baseline'><strong>Mega Mangos</strong><p><strong><font class='posOutcome'>You WON</font><p>You bet: 5</strong></font> &nbsp; &nbsp; &nbsp; &nbsp; &nbsp; &nbsp;<font class='posOutcome'>you receive: <strong>10</strong></font></div>","null","9","Mega Mangos","Fruit/mango.png","Won","0.65,0.2","13","0.65","134","27","",""
"html-keyboard-response","91","358771","0.0-11.0-1.27","5b1a3fa488ee7400012aef74","bdp_rwlrn","Wed Mar 15 2023 00:24:14 GMT-0400 (Eastern Daylight Time)","963018","Untrustworthy,Trustworthy","","921","","","","decision","","<div class='trialDiv'><img src='Fruit/watermelon.png'><br><font class='baseline'><strong>Watermelon Win$</strong><p>Choose number of points to bet.</font><div class='respPicDiv'><img src='img/responseButtonOffersNo0L.png' class='respPic'></div></div>","1","10","Watermelon Win$","Fruit/watermelon.png","Lost","0.2,0.8","13","0.2","139","28","",""
"html-keyboard-response","92","359022","0.0-11.0-2.27","5b1a3fa488ee7400012aef74","bdp_rwlrn","Wed Mar 15 2023 00:24:14 GMT-0400 (Eastern Daylight Time)","963018","Untrustworthy,Trustworthy","","null","","","","decisionFB","","<div class='trialDiv'><img src='Fruit/watermelon.png'><br><font class='baseline'><strong>Watermelon Win$</strong><p>Choose number of points to bet.</font><div class='respPicDiv'><img src='img/responseButtonOffersNo0L1.png' class='respPic'></div></div>","null","10","Watermelon Win$","Fruit/watermelon.png","Lost","0.2,0.8","13","0.2","138","28","",""
"html-keyboard-response","93","360024","0.0-11.0-3.27","5b1a3fa488ee7400012aef74","bdp_rwlrn","Wed Mar 15 2023 00:24:14 GMT-0400 (Eastern Daylight Time)","963018","Untrustworthy,Trustworthy","","null","","","","feedback","","<div class='respPicDiv'><img src='img/responseButtonOffersNo0_wht.png' class='respPic'></div><div class='trialDiv'><img src='Fruit/watermelon.png'><br><font class='baseline'><strong>Watermelon Win$</strong><p><strong><font class='negOutcome'>You LOST</font><p>You bet: 1</strong></font> &nbsp; &nbsp; &nbsp; &nbsp; &nbsp; &nbsp;<font class='negOutcome'>You receive: <strong>0</strong></font></div>","null","10","Watermelon Win$","Fruit/watermelon.png","Lost","0.2,0.8","13","0.2","138","28","",""
"html-keyboard-response","94","362355","0.0-11.0-1.28","5b1a3fa488ee7400012aef74","bdp_rwlrn","Wed Mar 15 2023 00:24:14 GMT-0400 (Eastern Daylight Time)","963018","Untrustworthy,Trustworthy","","2331","","","","decision","","<div class='trialDiv'><img src='Fruit/mango.png'><br><font class='baseline'><strong>Mega Mangos</strong><p>Choose number of points to bet.</font><div class='respPicDiv'><img src='img/responseButtonOffersNo0L.png' class='respPic'></div></div>","5","10","Mega Mangos","Fruit/mango.png","Won","0.65,0.2","13","0.65","143","29","",""
"html-keyboard-response","95","362606","0.0-11.0-2.28","5b1a3fa488ee7400012aef74","bdp_rwlrn","Wed Mar 15 2023 00:24:14 GMT-0400 (Eastern Daylight Time)","963018","Untrustworthy,Trustworthy","","null","","","","decisionFB","","<div class='trialDiv'><img src='Fruit/mango.png'><br><font class='baseline'><strong>Mega Mangos</strong><p>Choose number of points to bet.</font><div class='respPicDiv'><img src='img/responseButtonOffersNo0L5.png' class='respPic'></div></div>","null","10","Mega Mangos","Fruit/mango.png","Won","0.65,0.2","13","0.65","138","29","",""
"html-keyboard-response","96","363607","0.0-11.0-3.28","5b1a3fa488ee7400012aef74","bdp_rwlrn","Wed Mar 15 2023 00:24:14 GMT-0400 (Eastern Daylight Time)","963018","Untrustworthy,Trustworthy","","null","","","","feedback","","<div class='respPicDiv'><img src='img/responseButtonOffersNo0_wht.png' class='respPic'></div><div class='trialDiv'><img src='Fruit/mango.png'><br><font class='baseline'><strong>Mega Mangos</strong><p><strong><font class='posOutcome'>You WON</font><p>You bet: 5</strong></font> &nbsp; &nbsp; &nbsp; &nbsp; &nbsp; &nbsp;<font class='posOutcome'>you receive: <strong>10</strong></font></div>","null","10","Mega Mangos","Fruit/mango.png","Won","0.65,0.2","13","0.65","148","29","",""
"html-keyboard-response","97","365443","0.0-11.0-1.29","5b1a3fa488ee7400012aef74","bdp_rwlrn","Wed Mar 15 2023 00:24:14 GMT-0400 (Eastern Daylight Time)","963018","Untrustworthy,Trustworthy","","1835","","","","decision","","<div class='trialDiv'><img src='Fruit/lime.png'><br><font class='baseline'><strong>Limin' Large</strong><p>Choose number of points to bet.</font><div class='respPicDiv'><img src='img/responseButtonOffersNo0L.png' class='respPic'></div></div>","5","10","Limin' Large","Fruit/lime.png","Lost","0.35,0.8","10","0.35","153","30","",""
"html-keyboard-response","98","365694","0.0-11.0-2.29","5b1a3fa488ee7400012aef74","bdp_rwlrn","Wed Mar 15 2023 00:24:14 GMT-0400 (Eastern Daylight Time)","963018","Untrustworthy,Trustworthy","","null","","","","decisionFB","","<div class='trialDiv'><img src='Fruit/lime.png'><br><font class='baseline'><strong>Limin' Large</strong><p>Choose number of points to bet.</font><div class='respPicDiv'><img src='img/responseButtonOffersNo0L5.png' class='respPic'></div></div>","null","10","Limin' Large","Fruit/lime.png","Lost","0.35,0.8","10","0.35","148","30","",""
"html-keyboard-response","99","366695","0.0-11.0-3.29","5b1a3fa488ee7400012aef74","bdp_rwlrn","Wed Mar 15 2023 00:24:14 GMT-0400 (Eastern Daylight Time)","963018","Untrustworthy,Trustworthy","","null","","","","feedback","","<div class='respPicDiv'><img src='img/responseButtonOffersNo0_wht.png' class='respPic'></div><div class='trialDiv'><img src='Fruit/lime.png'><br><font class='baseline'><strong>Limin' Large</strong><p><strong><font class='negOutcome'>You LOST</font><p>You bet: 5</strong></font> &nbsp; &nbsp; &nbsp; &nbsp; &nbsp; &nbsp;<font class='negOutcome'>You receive: <strong>0</strong></font></div>","null","10","Limin' Large","Fruit/lime.png","Lost","0.35,0.8","10","0.35","148","30","",""
"html-keyboard-response","100","370117","0.0-11.0-1.30","5b1a3fa488ee7400012aef74","bdp_rwlrn","Wed Mar 15 2023 00:24:14 GMT-0400 (Eastern Daylight Time)","963018","Untrustworthy,Trustworthy","","3421","","","","decision","","<div class='trialDiv'><img src='Fruit/mango.png'><br><font class='baseline'><strong>Mega Mangos</strong><p>Choose number of points to bet.</font><div class='respPicDiv'><img src='img/responseButtonOffersNo0L.png' class='respPic'></div></div>","5","11","Mega Mangos","Fruit/mango.png","Lost","0.65,0.2","13","0.65","153","31","",""
"html-keyboard-response","101","370368","0.0-11.0-2.30","5b1a3fa488ee7400012aef74","bdp_rwlrn","Wed Mar 15 2023 00:24:14 GMT-0400 (Eastern Daylight Time)","963018","Untrustworthy,Trustworthy","","null","","","","decisionFB","","<div class='trialDiv'><img src='Fruit/mango.png'><br><font class='baseline'><strong>Mega Mangos</strong><p>Choose number of points to bet.</font><div class='respPicDiv'><img src='img/responseButtonOffersNo0L5.png' class='respPic'></div></div>","null","11","Mega Mangos","Fruit/mango.png","Lost","0.65,0.2","13","0.65","148","31","",""
"html-keyboard-response","102","371369","0.0-11.0-3.30","5b1a3fa488ee7400012aef74","bdp_rwlrn","Wed Mar 15 2023 00:24:14 GMT-0400 (Eastern Daylight Time)","963018","Untrustworthy,Trustworthy","","null","","","","feedback","","<div class='respPicDiv'><img src='img/responseButtonOffersNo0_wht.png' class='respPic'></div><div class='trialDiv'><img src='Fruit/mango.png'><br><font class='baseline'><strong>Mega Mangos</strong><p><strong><font class='negOutcome'>You LOST</font><p>You bet: 5</strong></font> &nbsp; &nbsp; &nbsp; &nbsp; &nbsp; &nbsp;<font class='negOutcome'>You receive: <strong>0</strong></font></div>","null","11","Mega Mangos","Fruit/mango.png","Lost","0.65,0.2","13","0.65","148","31","",""
"html-keyboard-response","103","385003","0.0-11.0-1.31","5b1a3fa488ee7400012aef74","bdp_rwlrn","Wed Mar 15 2023 00:24:14 GMT-0400 (Eastern Daylight Time)","963018","Untrustworthy,Trustworthy","","13634","","","","decision","","<div class='trialDiv'><img src='Fruit/lime.png'><br><font class='baseline'><strong>Limin' Large</strong><p>Choose number of points to bet.</font><div class='respPicDiv'><img src='img/responseButtonOffersNo0L.png' class='respPic'></div></div>","5","11","Limin' Large","Fruit/lime.png","Won","0.35,0.8","10","0.35","153","32","",""
"html-keyboard-response","104","385256","0.0-11.0-2.31","5b1a3fa488ee7400012aef74","bdp_rwlrn","Wed Mar 15 2023 00:24:14 GMT-0400 (Eastern Daylight Time)","963018","Untrustworthy,Trustworthy","","null","","","","decisionFB","","<div class='trialDiv'><img src='Fruit/lime.png'><br><font class='baseline'><strong>Limin' Large</strong><p>Choose number of points to bet.</font><div class='respPicDiv'><img src='img/responseButtonOffersNo0L5.png' class='respPic'></div></div>","null","11","Limin' Large","Fruit/lime.png","Won","0.35,0.8","10","0.35","148","32","",""
"html-keyboard-response","105","386258","0.0-11.0-3.31","5b1a3fa488ee7400012aef74","bdp_rwlrn","Wed Mar 15 2023 00:24:14 GMT-0400 (Eastern Daylight Time)","963018","Untrustworthy,Trustworthy","","null","","","","feedback","","<div class='respPicDiv'><img src='img/responseButtonOffersNo0_wht.png' class='respPic'></div><div class='trialDiv'><img src='Fruit/lime.png'><br><font class='baseline'><strong>Limin' Large</strong><p><strong><font class='posOutcome'>You WON</font><p>You bet: 5</strong></font> &nbsp; &nbsp; &nbsp; &nbsp; &nbsp; &nbsp;<font class='posOutcome'>you receive: <strong>10</strong></font></div>","null","11","Limin' Large","Fruit/lime.png","Won","0.35,0.8","10","0.35","158","32","",""
"html-keyboard-response","106","388117","0.0-11.0-1.32","5b1a3fa488ee7400012aef74","bdp_rwlrn","Wed Mar 15 2023 00:24:14 GMT-0400 (Eastern Daylight Time)","963018","Untrustworthy,Trustworthy","","1859","","","","decision","","<div class='trialDiv'><img src='Fruit/watermelon.png'><br><font class='baseline'><strong>Watermelon Win$</strong><p>Choose number of points to bet.</font><div class='respPicDiv'><img src='img/responseButtonOffersNo0L.png' class='respPic'></div></div>","1","11","Watermelon Win$","Fruit/watermelon.png","Lost","0.2,0.8","13","0.2","163","33","",""
"html-keyboard-response","107","388369","0.0-11.0-2.32","5b1a3fa488ee7400012aef74","bdp_rwlrn","Wed Mar 15 2023 00:24:14 GMT-0400 (Eastern Daylight Time)","963018","Untrustworthy,Trustworthy","","null","","","","decisionFB","","<div class='trialDiv'><img src='Fruit/watermelon.png'><br><font class='baseline'><strong>Watermelon Win$</strong><p>Choose number of points to bet.</font><div class='respPicDiv'><img src='img/responseButtonOffersNo0L1.png' class='respPic'></div></div>","null","11","Watermelon Win$","Fruit/watermelon.png","Lost","0.2,0.8","13","0.2","162","33","",""
"html-keyboard-response","108","389370","0.0-11.0-3.32","5b1a3fa488ee7400012aef74","bdp_rwlrn","Wed Mar 15 2023 00:24:14 GMT-0400 (Eastern Daylight Time)","963018","Untrustworthy,Trustworthy","","null","","","","feedback","","<div class='respPicDiv'><img src='img/responseButtonOffersNo0_wht.png' class='respPic'></div><div class='trialDiv'><img src='Fruit/watermelon.png'><br><font class='baseline'><strong>Watermelon Win$</strong><p><strong><font class='negOutcome'>You LOST</font><p>You bet: 1</strong></font> &nbsp; &nbsp; &nbsp; &nbsp; &nbsp; &nbsp;<font class='negOutcome'>You receive: <strong>0</strong></font></div>","null","11","Watermelon Win$","Fruit/watermelon.png","Lost","0.2,0.8","13","0.2","162","33","",""
"html-keyboard-response","109","391291","0.0-11.0-1.33","5b1a3fa488ee7400012aef74","bdp_rwlrn","Wed Mar 15 2023 00:24:14 GMT-0400 (Eastern Daylight Time)","963018","Untrustworthy,Trustworthy","","1920","","","","decision","","<div class='trialDiv'><img src='Fruit/lime.png'><br><font class='baseline'><strong>Limin' Large</strong><p>Choose number of points to bet.</font><div class='respPicDiv'><img src='img/responseButtonOffersNo0L.png' class='respPic'></div></div>","5","12","Limin' Large","Fruit/lime.png","Won","0.35,0.8","10","0.35","167","34","",""
"html-keyboard-response","110","391542","0.0-11.0-2.33","5b1a3fa488ee7400012aef74","bdp_rwlrn","Wed Mar 15 2023 00:24:14 GMT-0400 (Eastern Daylight Time)","963018","Untrustworthy,Trustworthy","","null","","","","decisionFB","","<div class='trialDiv'><img src='Fruit/lime.png'><br><font class='baseline'><strong>Limin' Large</strong><p>Choose number of points to bet.</font><div class='respPicDiv'><img src='img/responseButtonOffersNo0L5.png' class='respPic'></div></div>","null","12","Limin' Large","Fruit/lime.png","Won","0.35,0.8","10","0.35","162","34","",""
"html-keyboard-response","111","392543","0.0-11.0-3.33","5b1a3fa488ee7400012aef74","bdp_rwlrn","Wed Mar 15 2023 00:24:14 GMT-0400 (Eastern Daylight Time)","963018","Untrustworthy,Trustworthy","","null","","","","feedback","","<div class='respPicDiv'><img src='img/responseButtonOffersNo0_wht.png' class='respPic'></div><div class='trialDiv'><img src='Fruit/lime.png'><br><font class='baseline'><strong>Limin' Large</strong><p><strong><font class='posOutcome'>You WON</font><p>You bet: 5</strong></font> &nbsp; &nbsp; &nbsp; &nbsp; &nbsp; &nbsp;<font class='posOutcome'>you receive: <strong>10</strong></font></div>","null","12","Limin' Large","Fruit/lime.png","Won","0.35,0.8","10","0.35","172","34","",""
"html-keyboard-response","112","395907","0.0-11.0-1.34","5b1a3fa488ee7400012aef74","bdp_rwlrn","Wed Mar 15 2023 00:24:14 GMT-0400 (Eastern Daylight Time)","963018","Untrustworthy,Trustworthy","","3364","","","","decision","","<div class='trialDiv'><img src='Fruit/mango.png'><br><font class='baseline'><strong>Mega Mangos</strong><p>Choose number of points to bet.</font><div class='respPicDiv'><img src='img/responseButtonOffersNo0L.png' class='respPic'></div></div>","5","12","Mega Mangos","Fruit/mango.png","Lost","0.65,0.2","13","0.65","177","35","",""
"html-keyboard-response","113","396159","0.0-11.0-2.34","5b1a3fa488ee7400012aef74","bdp_rwlrn","Wed Mar 15 2023 00:24:14 GMT-0400 (Eastern Daylight Time)","963018","Untrustworthy,Trustworthy","","null","","","","decisionFB","","<div class='trialDiv'><img src='Fruit/mango.png'><br><font class='baseline'><strong>Mega Mangos</strong><p>Choose number of points to bet.</font><div class='respPicDiv'><img src='img/responseButtonOffersNo0L5.png' class='respPic'></div></div>","null","12","Mega Mangos","Fruit/mango.png","Lost","0.65,0.2","13","0.65","172","35","",""
"html-keyboard-response","114","397160","0.0-11.0-3.34","5b1a3fa488ee7400012aef74","bdp_rwlrn","Wed Mar 15 2023 00:24:14 GMT-0400 (Eastern Daylight Time)","963018","Untrustworthy,Trustworthy","","null","","","","feedback","","<div class='respPicDiv'><img src='img/responseButtonOffersNo0_wht.png' class='respPic'></div><div class='trialDiv'><img src='Fruit/mango.png'><br><font class='baseline'><strong>Mega Mangos</strong><p><strong><font class='negOutcome'>You LOST</font><p>You bet: 5</strong></font> &nbsp; &nbsp; &nbsp; &nbsp; &nbsp; &nbsp;<font class='negOutcome'>You receive: <strong>0</strong></font></div>","null","12","Mega Mangos","Fruit/mango.png","Lost","0.65,0.2","13","0.65","172","35","",""
"html-keyboard-response","115","397955","0.0-11.0-1.35","5b1a3fa488ee7400012aef74","bdp_rwlrn","Wed Mar 15 2023 00:24:14 GMT-0400 (Eastern Daylight Time)","963018","Untrustworthy,Trustworthy","","795","","","","decision","","<div class='trialDiv'><img src='Fruit/watermelon.png'><br><font class='baseline'><strong>Watermelon Win$</strong><p>Choose number of points to bet.</font><div class='respPicDiv'><img src='img/responseButtonOffersNo0L.png' class='respPic'></div></div>","1","12","Watermelon Win$","Fruit/watermelon.png","Lost","0.2,0.8","13","0.2","177","36","",""
"html-keyboard-response","116","398206","0.0-11.0-2.35","5b1a3fa488ee7400012aef74","bdp_rwlrn","Wed Mar 15 2023 00:24:14 GMT-0400 (Eastern Daylight Time)","963018","Untrustworthy,Trustworthy","","null","","","","decisionFB","","<div class='trialDiv'><img src='Fruit/watermelon.png'><br><font class='baseline'><strong>Watermelon Win$</strong><p>Choose number of points to bet.</font><div class='respPicDiv'><img src='img/responseButtonOffersNo0L1.png' class='respPic'></div></div>","null","12","Watermelon Win$","Fruit/watermelon.png","Lost","0.2,0.8","13","0.2","176","36","",""
"html-keyboard-response","117","399208","0.0-11.0-3.35","5b1a3fa488ee7400012aef74","bdp_rwlrn","Wed Mar 15 2023 00:24:14 GMT-0400 (Eastern Daylight Time)","963018","Untrustworthy,Trustworthy","","null","","","","feedback","","<div class='respPicDiv'><img src='img/responseButtonOffersNo0_wht.png' class='respPic'></div><div class='trialDiv'><img src='Fruit/watermelon.png'><br><font class='baseline'><strong>Watermelon Win$</strong><p><strong><font class='negOutcome'>You LOST</font><p>You bet: 1</strong></font> &nbsp; &nbsp; &nbsp; &nbsp; &nbsp; &nbsp;<font class='negOutcome'>You receive: <strong>0</strong></font></div>","null","12","Watermelon Win$","Fruit/watermelon.png","Lost","0.2,0.8","13","0.2","176","36","",""
"html-keyboard-response","118","408595","0.0-11.0-1.36","5b1a3fa488ee7400012aef74","bdp_rwlrn","Wed Mar 15 2023 00:24:14 GMT-0400 (Eastern Daylight Time)","963018","Untrustworthy,Trustworthy","","9387","","","","decision","","<div class='trialDiv'><img src='Fruit/mango.png'><br><font class='baseline'><strong>Mega Mangos</strong><p>Choose number of points to bet.</font><div class='respPicDiv'><img src='img/responseButtonOffersNo0L.png' class='respPic'></div></div>","1","13","Mega Mangos","Fruit/mango.png","Lost","0.65,0.2","13","0.65","181","37","",""
"html-keyboard-response","119","408847","0.0-11.0-2.36","5b1a3fa488ee7400012aef74","bdp_rwlrn","Wed Mar 15 2023 00:24:14 GMT-0400 (Eastern Daylight Time)","963018","Untrustworthy,Trustworthy","","null","","","","decisionFB","","<div class='trialDiv'><img src='Fruit/mango.png'><br><font class='baseline'><strong>Mega Mangos</strong><p>Choose number of points to bet.</font><div class='respPicDiv'><img src='img/responseButtonOffersNo0L1.png' class='respPic'></div></div>","null","13","Mega Mangos","Fruit/mango.png","Lost","0.65,0.2","13","0.65","180","37","",""
"html-keyboard-response","120","409848","0.0-11.0-3.36","5b1a3fa488ee7400012aef74","bdp_rwlrn","Wed Mar 15 2023 00:24:14 GMT-0400 (Eastern Daylight Time)","963018","Untrustworthy,Trustworthy","","null","","","","feedback","","<div class='respPicDiv'><img src='img/responseButtonOffersNo0_wht.png' class='respPic'></div><div class='trialDiv'><img src='Fruit/mango.png'><br><font class='baseline'><strong>Mega Mangos</strong><p><strong><font class='negOutcome'>You LOST</font><p>You bet: 1</strong></font> &nbsp; &nbsp; &nbsp; &nbsp; &nbsp; &nbsp;<font class='negOutcome'>You receive: <strong>0</strong></font></div>","null","13","Mega Mangos","Fruit/mango.png","Lost","0.65,0.2","13","0.65","180","37","",""
"html-keyboard-response","121","412365","0.0-11.0-1.37","5b1a3fa488ee7400012aef74","bdp_rwlrn","Wed Mar 15 2023 00:24:14 GMT-0400 (Eastern Daylight Time)","963018","Untrustworthy,Trustworthy","","2517","","","","decision","","<div class='trialDiv'><img src='Fruit/watermelon.png'><br><font class='baseline'><strong>Watermelon Win$</strong><p>Choose number of points to bet.</font><div class='respPicDiv'><img src='img/responseButtonOffersNo0L.png' class='respPic'></div></div>","1","13","Watermelon Win$","Fruit/watermelon.png","Won","0.2,0.8","13","0.2","185","38","",""
"html-keyboard-response","122","412616","0.0-11.0-2.37","5b1a3fa488ee7400012aef74","bdp_rwlrn","Wed Mar 15 2023 00:24:14 GMT-0400 (Eastern Daylight Time)","963018","Untrustworthy,Trustworthy","","null","","","","decisionFB","","<div class='trialDiv'><img src='Fruit/watermelon.png'><br><font class='baseline'><strong>Watermelon Win$</strong><p>Choose number of points to bet.</font><div class='respPicDiv'><img src='img/responseButtonOffersNo0L1.png' class='respPic'></div></div>","null","13","Watermelon Win$","Fruit/watermelon.png","Won","0.2,0.8","13","0.2","184","38","",""
"html-keyboard-response","123","413618","0.0-11.0-3.37","5b1a3fa488ee7400012aef74","bdp_rwlrn","Wed Mar 15 2023 00:24:14 GMT-0400 (Eastern Daylight Time)","963018","Untrustworthy,Trustworthy","","null","","","","feedback","","<div class='respPicDiv'><img src='img/responseButtonOffersNo0_wht.png' class='respPic'></div><div class='trialDiv'><img src='Fruit/watermelon.png'><br><font class='baseline'><strong>Watermelon Win$</strong><p><strong><font class='posOutcome'>You WON</font><p>You bet: 1</strong></font> &nbsp; &nbsp; &nbsp; &nbsp; &nbsp; &nbsp;<font class='posOutcome'>you receive: <strong>2</strong></font></div>","null","13","Watermelon Win$","Fruit/watermelon.png","Won","0.2,0.8","13","0.2","186","38","",""
"html-keyboard-response","124","416116","0.0-11.0-1.38","5b1a3fa488ee7400012aef74","bdp_rwlrn","Wed Mar 15 2023 00:24:14 GMT-0400 (Eastern Daylight Time)","963018","Untrustworthy,Trustworthy","","2498","","","","decision","","<div class='trialDiv'><img src='Fruit/lime.png'><br><font class='baseline'><strong>Limin' Large</strong><p>Choose number of points to bet.</font><div class='respPicDiv'><img src='img/responseButtonOffersNo0L.png' class='respPic'></div></div>","5","13","Limin' Large","Fruit/lime.png","Won","0.35,0.8","10","0.35","191","39","",""
"html-keyboard-response","125","416368","0.0-11.0-2.38","5b1a3fa488ee7400012aef74","bdp_rwlrn","Wed Mar 15 2023 00:24:14 GMT-0400 (Eastern Daylight Time)","963018","Untrustworthy,Trustworthy","","null","","","","decisionFB","","<div class='trialDiv'><img src='Fruit/lime.png'><br><font class='baseline'><strong>Limin' Large</strong><p>Choose number of points to bet.</font><div class='respPicDiv'><img src='img/responseButtonOffersNo0L5.png' class='respPic'></div></div>","null","13","Limin' Large","Fruit/lime.png","Won","0.35,0.8","10","0.35","186","39","",""
"html-keyboard-response","126","417369","0.0-11.0-3.38","5b1a3fa488ee7400012aef74","bdp_rwlrn","Wed Mar 15 2023 00:24:14 GMT-0400 (Eastern Daylight Time)","963018","Untrustworthy,Trustworthy","","null","","","","feedback","","<div class='respPicDiv'><img src='img/responseButtonOffersNo0_wht.png' class='respPic'></div><div class='trialDiv'><img src='Fruit/lime.png'><br><font class='baseline'><strong>Limin' Large</strong><p><strong><font class='posOutcome'>You WON</font><p>You bet: 5</strong></font> &nbsp; &nbsp; &nbsp; &nbsp; &nbsp; &nbsp;<font class='posOutcome'>you receive: <strong>10</strong></font></div>","null","13","Limin' Large","Fruit/lime.png","Won","0.35,0.8","10","0.35","196","39","",""
"html-keyboard-response","127","418509","0.0-11.0-1.39","5b1a3fa488ee7400012aef74","bdp_rwlrn","Wed Mar 15 2023 00:24:14 GMT-0400 (Eastern Daylight Time)","963018","Untrustworthy,Trustworthy","","1140","","","","decision","","<div class='trialDiv'><img src='Fruit/mango.png'><br><font class='baseline'><strong>Mega Mangos</strong><p>Choose number of points to bet.</font><div class='respPicDiv'><img src='img/responseButtonOffersNo0L.png' class='respPic'></div></div>","1","14","Mega Mangos","Fruit/mango.png","Lost","0.65,0.2","13","0.65","201","40","",""
"html-keyboard-response","128","418770","0.0-11.0-2.39","5b1a3fa488ee7400012aef74","bdp_rwlrn","Wed Mar 15 2023 00:24:14 GMT-0400 (Eastern Daylight Time)","963018","Untrustworthy,Trustworthy","","null","","","","decisionFB","","<div class='trialDiv'><img src='Fruit/mango.png'><br><font class='baseline'><strong>Mega Mangos</strong><p>Choose number of points to bet.</font><div class='respPicDiv'><img src='img/responseButtonOffersNo0L1.png' class='respPic'></div></div>","null","14","Mega Mangos","Fruit/mango.png","Lost","0.65,0.2","13","0.65","200","40","",""
"html-keyboard-response","129","419771","0.0-11.0-3.39","5b1a3fa488ee7400012aef74","bdp_rwlrn","Wed Mar 15 2023 00:24:14 GMT-0400 (Eastern Daylight Time)","963018","Untrustworthy,Trustworthy","","null","","","","feedback","","<div class='respPicDiv'><img src='img/responseButtonOffersNo0_wht.png' class='respPic'></div><div class='trialDiv'><img src='Fruit/mango.png'><br><font class='baseline'><strong>Mega Mangos</strong><p><strong><font class='negOutcome'>You LOST</font><p>You bet: 1</strong></font> &nbsp; &nbsp; &nbsp; &nbsp; &nbsp; &nbsp;<font class='negOutcome'>You receive: <strong>0</strong></font></div>","null","14","Mega Mangos","Fruit/mango.png","Lost","0.65,0.2","13","0.65","200","40","",""
"html-keyboard-response","130","422206","0.0-11.0-1.40","5b1a3fa488ee7400012aef74","bdp_rwlrn","Wed Mar 15 2023 00:24:14 GMT-0400 (Eastern Daylight Time)","963018","Untrustworthy,Trustworthy","","2434","","","","decision","","<div class='trialDiv'><img src='Fruit/lime.png'><br><font class='baseline'><strong>Limin' Large</strong><p>Choose number of points to bet.</font><div class='respPicDiv'><img src='img/responseButtonOffersNo0L.png' class='respPic'></div></div>","5","14","Limin' Large","Fruit/lime.png","Won","0.35,0.8","10","0.35","205","41","",""
"html-keyboard-response","131","422457","0.0-11.0-2.40","5b1a3fa488ee7400012aef74","bdp_rwlrn","Wed Mar 15 2023 00:24:14 GMT-0400 (Eastern Daylight Time)","963018","Untrustworthy,Trustworthy","","null","","","","decisionFB","","<div class='trialDiv'><img src='Fruit/lime.png'><br><font class='baseline'><strong>Limin' Large</strong><p>Choose number of points to bet.</font><div class='respPicDiv'><img src='img/responseButtonOffersNo0L5.png' class='respPic'></div></div>","null","14","Limin' Large","Fruit/lime.png","Won","0.35,0.8","10","0.35","200","41","",""
"html-keyboard-response","132","423458","0.0-11.0-3.40","5b1a3fa488ee7400012aef74","bdp_rwlrn","Wed Mar 15 2023 00:24:14 GMT-0400 (Eastern Daylight Time)","963018","Untrustworthy,Trustworthy","","null","","","","feedback","","<div class='respPicDiv'><img src='img/responseButtonOffersNo0_wht.png' class='respPic'></div><div class='trialDiv'><img src='Fruit/lime.png'><br><font class='baseline'><strong>Limin' Large</strong><p><strong><font class='posOutcome'>You WON</font><p>You bet: 5</strong></font> &nbsp; &nbsp; &nbsp; &nbsp; &nbsp; &nbsp;<font class='posOutcome'>you receive: <strong>10</strong></font></div>","null","14","Limin' Large","Fruit/lime.png","Won","0.35,0.8","10","0.35","210","41","",""
"html-keyboard-response","133","430717","0.0-11.0-1.41","5b1a3fa488ee7400012aef74","bdp_rwlrn","Wed Mar 15 2023 00:24:14 GMT-0400 (Eastern Daylight Time)","963018","Untrustworthy,Trustworthy","","7258","","","","decision","","<div class='trialDiv'><img src='Fruit/watermelon.png'><br><font class='baseline'><strong>Watermelon Win$</strong><p>Choose number of points to bet.</font><div class='respPicDiv'><img src='img/responseButtonOffersNo0L.png' class='respPic'></div></div>","5","14","Watermelon Win$","Fruit/watermelon.png","Won","0.2,0.8","13","0.2","215","42","",""
"html-keyboard-response","134","430969","0.0-11.0-2.41","5b1a3fa488ee7400012aef74","bdp_rwlrn","Wed Mar 15 2023 00:24:14 GMT-0400 (Eastern Daylight Time)","963018","Untrustworthy,Trustworthy","","null","","","","decisionFB","","<div class='trialDiv'><img src='Fruit/watermelon.png'><br><font class='baseline'><strong>Watermelon Win$</strong><p>Choose number of points to bet.</font><div class='respPicDiv'><img src='img/responseButtonOffersNo0L5.png' class='respPic'></div></div>","null","14","Watermelon Win$","Fruit/watermelon.png","Won","0.2,0.8","13","0.2","210","42","",""
"html-keyboard-response","135","431971","0.0-11.0-3.41","5b1a3fa488ee7400012aef74","bdp_rwlrn","Wed Mar 15 2023 00:24:14 GMT-0400 (Eastern Daylight Time)","963018","Untrustworthy,Trustworthy","","null","","","","feedback","","<div class='respPicDiv'><img src='img/responseButtonOffersNo0_wht.png' class='respPic'></div><div class='trialDiv'><img src='Fruit/watermelon.png'><br><font class='baseline'><strong>Watermelon Win$</strong><p><strong><font class='posOutcome'>You WON</font><p>You bet: 5</strong></font> &nbsp; &nbsp; &nbsp; &nbsp; &nbsp; &nbsp;<font class='posOutcome'>you receive: <strong>10</strong></font></div>","null","14","Watermelon Win$","Fruit/watermelon.png","Won","0.2,0.8","13","0.2","220","42","",""
"html-keyboard-response","136","434924","0.0-11.0-1.42","5b1a3fa488ee7400012aef74","bdp_rwlrn","Wed Mar 15 2023 00:24:14 GMT-0400 (Eastern Daylight Time)","963018","Untrustworthy,Trustworthy","","2952","","","","decision","","<div class='trialDiv'><img src='Fruit/lime.png'><br><font class='baseline'><strong>Limin' Large</strong><p>Choose number of points to bet.</font><div class='respPicDiv'><img src='img/responseButtonOffersNo0L.png' class='respPic'></div></div>","5","15","Limin' Large","Fruit/lime.png","Won","0.35,0.8","10","0.35","225","43","",""
"html-keyboard-response","137","435175","0.0-11.0-2.42","5b1a3fa488ee7400012aef74","bdp_rwlrn","Wed Mar 15 2023 00:24:14 GMT-0400 (Eastern Daylight Time)","963018","Untrustworthy,Trustworthy","","null","","","","decisionFB","","<div class='trialDiv'><img src='Fruit/lime.png'><br><font class='baseline'><strong>Limin' Large</strong><p>Choose number of points to bet.</font><div class='respPicDiv'><img src='img/responseButtonOffersNo0L5.png' class='respPic'></div></div>","null","15","Limin' Large","Fruit/lime.png","Won","0.35,0.8","10","0.35","220","43","",""
"html-keyboard-response","138","436176","0.0-11.0-3.42","5b1a3fa488ee7400012aef74","bdp_rwlrn","Wed Mar 15 2023 00:24:14 GMT-0400 (Eastern Daylight Time)","963018","Untrustworthy,Trustworthy","","null","","","","feedback","","<div class='respPicDiv'><img src='img/responseButtonOffersNo0_wht.png' class='respPic'></div><div class='trialDiv'><img src='Fruit/lime.png'><br><font class='baseline'><strong>Limin' Large</strong><p><strong><font class='posOutcome'>You WON</font><p>You bet: 5</strong></font> &nbsp; &nbsp; &nbsp; &nbsp; &nbsp; &nbsp;<font class='posOutcome'>you receive: <strong>10</strong></font></div>","null","15","Limin' Large","Fruit/lime.png","Won","0.35,0.8","10","0.35","230","43","",""
"html-keyboard-response","139","469603","0.0-11.0-1.43","5b1a3fa488ee7400012aef74","bdp_rwlrn","Wed Mar 15 2023 00:24:14 GMT-0400 (Eastern Daylight Time)","963018","Untrustworthy,Trustworthy","","33426","","","","decision","","<div class='trialDiv'><img src='Fruit/watermelon.png'><br><font class='baseline'><strong>Watermelon Win$</strong><p>Choose number of points to bet.</font><div class='respPicDiv'><img src='img/responseButtonOffersNo0L.png' class='respPic'></div></div>","5","15","Watermelon Win$","Fruit/watermelon.png","Won","0.2,0.8","13","0.2","235","44","",""
"html-keyboard-response","140","469855","0.0-11.0-2.43","5b1a3fa488ee7400012aef74","bdp_rwlrn","Wed Mar 15 2023 00:24:14 GMT-0400 (Eastern Daylight Time)","963018","Untrustworthy,Trustworthy","","null","","","","decisionFB","","<div class='trialDiv'><img src='Fruit/watermelon.png'><br><font class='baseline'><strong>Watermelon Win$</strong><p>Choose number of points to bet.</font><div class='respPicDiv'><img src='img/responseButtonOffersNo0L5.png' class='respPic'></div></div>","null","15","Watermelon Win$","Fruit/watermelon.png","Won","0.2,0.8","13","0.2","230","44","",""
"html-keyboard-response","141","470856","0.0-11.0-3.43","5b1a3fa488ee7400012aef74","bdp_rwlrn","Wed Mar 15 2023 00:24:14 GMT-0400 (Eastern Daylight Time)","963018","Untrustworthy,Trustworthy","","null","","","","feedback","","<div class='respPicDiv'><img src='img/responseButtonOffersNo0_wht.png' class='respPic'></div><div class='trialDiv'><img src='Fruit/watermelon.png'><br><font class='baseline'><strong>Watermelon Win$</strong><p><strong><font class='posOutcome'>You WON</font><p>You bet: 5</strong></font> &nbsp; &nbsp; &nbsp; &nbsp; &nbsp; &nbsp;<font class='posOutcome'>you receive: <strong>10</strong></font></div>","null","15","Watermelon Win$","Fruit/watermelon.png","Won","0.2,0.8","13","0.2","240","44","",""
"html-keyboard-response","142","476019","0.0-11.0-1.44","5b1a3fa488ee7400012aef74","bdp_rwlrn","Wed Mar 15 2023 00:24:14 GMT-0400 (Eastern Daylight Time)","963018","Untrustworthy,Trustworthy","","5163","","","","decision","","<div class='trialDiv'><img src='Fruit/mango.png'><br><font class='baseline'><strong>Mega Mangos</strong><p>Choose number of points to bet.</font><div class='respPicDiv'><img src='img/responseButtonOffersNo0L.png' class='respPic'></div></div>","1","15","Mega Mangos","Fruit/mango.png","Lost","0.65,0.2","13","0.65","245","45","",""
"html-keyboard-response","143","476271","0.0-11.0-2.44","5b1a3fa488ee7400012aef74","bdp_rwlrn","Wed Mar 15 2023 00:24:14 GMT-0400 (Eastern Daylight Time)","963018","Untrustworthy,Trustworthy","","null","","","","decisionFB","","<div class='trialDiv'><img src='Fruit/mango.png'><br><font class='baseline'><strong>Mega Mangos</strong><p>Choose number of points to bet.</font><div class='respPicDiv'><img src='img/responseButtonOffersNo0L1.png' class='respPic'></div></div>","null","15","Mega Mangos","Fruit/mango.png","Lost","0.65,0.2","13","0.65","244","45","",""
"html-keyboard-response","144","477272","0.0-11.0-3.44","5b1a3fa488ee7400012aef74","bdp_rwlrn","Wed Mar 15 2023 00:24:14 GMT-0400 (Eastern Daylight Time)","963018","Untrustworthy,Trustworthy","","null","","","","feedback","","<div class='respPicDiv'><img src='img/responseButtonOffersNo0_wht.png' class='respPic'></div><div class='trialDiv'><img src='Fruit/mango.png'><br><font class='baseline'><strong>Mega Mangos</strong><p><strong><font class='negOutcome'>You LOST</font><p>You bet: 1</strong></font> &nbsp; &nbsp; &nbsp; &nbsp; &nbsp; &nbsp;<font class='negOutcome'>You receive: <strong>0</strong></font></div>","null","15","Mega Mangos","Fruit/mango.png","Lost","0.65,0.2","13","0.65","244","45","",""
"html-keyboard-response","145","479075","0.0-11.0-1.45","5b1a3fa488ee7400012aef74","bdp_rwlrn","Wed Mar 15 2023 00:24:14 GMT-0400 (Eastern Daylight Time)","963018","Untrustworthy,Trustworthy","","1802","","","","decision","","<div class='trialDiv'><img src='Fruit/watermelon.png'><br><font class='baseline'><strong>Watermelon Win$</strong><p>Choose number of points to bet.</font><div class='respPicDiv'><img src='img/responseButtonOffersNo0L.png' class='respPic'></div></div>","5","16","Watermelon Win$","Fruit/watermelon.png","Won","0.2,0.8","13","0.2","249","46","",""
"html-keyboard-response","146","479326","0.0-11.0-2.45","5b1a3fa488ee7400012aef74","bdp_rwlrn","Wed Mar 15 2023 00:24:14 GMT-0400 (Eastern Daylight Time)","963018","Untrustworthy,Trustworthy","","null","","","","decisionFB","","<div class='trialDiv'><img src='Fruit/watermelon.png'><br><font class='baseline'><strong>Watermelon Win$</strong><p>Choose number of points to bet.</font><div class='respPicDiv'><img src='img/responseButtonOffersNo0L5.png' class='respPic'></div></div>","null","16","Watermelon Win$","Fruit/watermelon.png","Won","0.2,0.8","13","0.2","244","46","",""
"html-keyboard-response","147","480327","0.0-11.0-3.45","5b1a3fa488ee7400012aef74","bdp_rwlrn","Wed Mar 15 2023 00:24:14 GMT-0400 (Eastern Daylight Time)","963018","Untrustworthy,Trustworthy","","null","","","","feedback","","<div class='respPicDiv'><img src='img/responseButtonOffersNo0_wht.png' class='respPic'></div><div class='trialDiv'><img src='Fruit/watermelon.png'><br><font class='baseline'><strong>Watermelon Win$</strong><p><strong><font class='posOutcome'>You WON</font><p>You bet: 5</strong></font> &nbsp; &nbsp; &nbsp; &nbsp; &nbsp; &nbsp;<font class='posOutcome'>you receive: <strong>10</strong></font></div>","null","16","Watermelon Win$","Fruit/watermelon.png","Won","0.2,0.8","13","0.2","254","46","",""
"html-keyboard-response","148","481764","0.0-11.0-1.46","5b1a3fa488ee7400012aef74","bdp_rwlrn","Wed Mar 15 2023 00:24:14 GMT-0400 (Eastern Daylight Time)","963018","Untrustworthy,Trustworthy","","1435","","","","decision","","<div class='trialDiv'><img src='Fruit/mango.png'><br><font class='baseline'><strong>Mega Mangos</strong><p>Choose number of points to bet.</font><div class='respPicDiv'><img src='img/responseButtonOffersNo0L.png' class='respPic'></div></div>","1","16","Mega Mangos","Fruit/mango.png","Lost","0.65,0.2","13","0.65","259","47","",""
"html-keyboard-response","149","482015","0.0-11.0-2.46","5b1a3fa488ee7400012aef74","bdp_rwlrn","Wed Mar 15 2023 00:24:14 GMT-0400 (Eastern Daylight Time)","963018","Untrustworthy,Trustworthy","","null","","","","decisionFB","","<div class='trialDiv'><img src='Fruit/mango.png'><br><font class='baseline'><strong>Mega Mangos</strong><p>Choose number of points to bet.</font><div class='respPicDiv'><img src='img/responseButtonOffersNo0L1.png' class='respPic'></div></div>","null","16","Mega Mangos","Fruit/mango.png","Lost","0.65,0.2","13","0.65","258","47","",""
"html-keyboard-response","150","483016","0.0-11.0-3.46","5b1a3fa488ee7400012aef74","bdp_rwlrn","Wed Mar 15 2023 00:24:14 GMT-0400 (Eastern Daylight Time)","963018","Untrustworthy,Trustworthy","","null","","","","feedback","","<div class='respPicDiv'><img src='img/responseButtonOffersNo0_wht.png' class='respPic'></div><div class='trialDiv'><img src='Fruit/mango.png'><br><font class='baseline'><strong>Mega Mangos</strong><p><strong><font class='negOutcome'>You LOST</font><p>You bet: 1</strong></font> &nbsp; &nbsp; &nbsp; &nbsp; &nbsp; &nbsp;<font class='negOutcome'>You receive: <strong>0</strong></font></div>","null","16","Mega Mangos","Fruit/mango.png","Lost","0.65,0.2","13","0.65","258","47","",""
"html-keyboard-response","151","484115","0.0-11.0-1.47","5b1a3fa488ee7400012aef74","bdp_rwlrn","Wed Mar 15 2023 00:24:14 GMT-0400 (Eastern Daylight Time)","963018","Untrustworthy,Trustworthy","","1099","","","","decision","","<div class='trialDiv'><img src='Fruit/lime.png'><br><font class='baseline'><strong>Limin' Large</strong><p>Choose number of points to bet.</font><div class='respPicDiv'><img src='img/responseButtonOffersNo0L.png' class='respPic'></div></div>","5","16","Limin' Large","Fruit/lime.png","Lost","0.35,0.8","10","0.35","263","48","",""
"html-keyboard-response","152","484367","0.0-11.0-2.47","5b1a3fa488ee7400012aef74","bdp_rwlrn","Wed Mar 15 2023 00:24:14 GMT-0400 (Eastern Daylight Time)","963018","Untrustworthy,Trustworthy","","null","","","","decisionFB","","<div class='trialDiv'><img src='Fruit/lime.png'><br><font class='baseline'><strong>Limin' Large</strong><p>Choose number of points to bet.</font><div class='respPicDiv'><img src='img/responseButtonOffersNo0L5.png' class='respPic'></div></div>","null","16","Limin' Large","Fruit/lime.png","Lost","0.35,0.8","10","0.35","258","48","",""
"html-keyboard-response","153","485368","0.0-11.0-3.47","5b1a3fa488ee7400012aef74","bdp_rwlrn","Wed Mar 15 2023 00:24:14 GMT-0400 (Eastern Daylight Time)","963018","Untrustworthy,Trustworthy","","null","","","","feedback","","<div class='respPicDiv'><img src='img/responseButtonOffersNo0_wht.png' class='respPic'></div><div class='trialDiv'><img src='Fruit/lime.png'><br><font class='baseline'><strong>Limin' Large</strong><p><strong><font class='negOutcome'>You LOST</font><p>You bet: 5</strong></font> &nbsp; &nbsp; &nbsp; &nbsp; &nbsp; &nbsp;<font class='negOutcome'>You receive: <strong>0</strong></font></div>","null","16","Limin' Large","Fruit/lime.png","Lost","0.35,0.8","10","0.35","258","48","",""
"html-keyboard-response","154","486885","0.0-11.0-1.48","5b1a3fa488ee7400012aef74","bdp_rwlrn","Wed Mar 15 2023 00:24:14 GMT-0400 (Eastern Daylight Time)","963018","Untrustworthy,Trustworthy","","1516","","","","decision","","<div class='trialDiv'><img src='Fruit/mango.png'><br><font class='baseline'><strong>Mega Mangos</strong><p>Choose number of points to bet.</font><div class='respPicDiv'><img src='img/responseButtonOffersNo0L.png' class='respPic'></div></div>","1","17","Mega Mangos","Fruit/mango.png","Lost","0.65,0.2","13","0.65","263","49","",""
"html-keyboard-response","155","487144","0.0-11.0-2.48","5b1a3fa488ee7400012aef74","bdp_rwlrn","Wed Mar 15 2023 00:24:14 GMT-0400 (Eastern Daylight Time)","963018","Untrustworthy,Trustworthy","","null","","","","decisionFB","","<div class='trialDiv'><img src='Fruit/mango.png'><br><font class='baseline'><strong>Mega Mangos</strong><p>Choose number of points to bet.</font><div class='respPicDiv'><img src='img/responseButtonOffersNo0L1.png' class='respPic'></div></div>","null","17","Mega Mangos","Fruit/mango.png","Lost","0.65,0.2","13","0.65","262","49","",""
"html-keyboard-response","156","488145","0.0-11.0-3.48","5b1a3fa488ee7400012aef74","bdp_rwlrn","Wed Mar 15 2023 00:24:14 GMT-0400 (Eastern Daylight Time)","963018","Untrustworthy,Trustworthy","","null","","","","feedback","","<div class='respPicDiv'><img src='img/responseButtonOffersNo0_wht.png' class='respPic'></div><div class='trialDiv'><img src='Fruit/mango.png'><br><font class='baseline'><strong>Mega Mangos</strong><p><strong><font class='negOutcome'>You LOST</font><p>You bet: 1</strong></font> &nbsp; &nbsp; &nbsp; &nbsp; &nbsp; &nbsp;<font class='negOutcome'>You receive: <strong>0</strong></font></div>","null","17","Mega Mangos","Fruit/mango.png","Lost","0.65,0.2","13","0.65","262","49","",""
"html-keyboard-response","157","489620","0.0-11.0-1.49","5b1a3fa488ee7400012aef74","bdp_rwlrn","Wed Mar 15 2023 00:24:14 GMT-0400 (Eastern Daylight Time)","963018","Untrustworthy,Trustworthy","","1475","","","","decision","","<div class='trialDiv'><img src='Fruit/watermelon.png'><br><font class='baseline'><strong>Watermelon Win$</strong><p>Choose number of points to bet.</font><div class='respPicDiv'><img src='img/responseButtonOffersNo0L.png' class='respPic'></div></div>","5","17","Watermelon Win$","Fruit/watermelon.png","Won","0.2,0.8","13","0.2","267","50","",""
"html-keyboard-response","158","489871","0.0-11.0-2.49","5b1a3fa488ee7400012aef74","bdp_rwlrn","Wed Mar 15 2023 00:24:14 GMT-0400 (Eastern Daylight Time)","963018","Untrustworthy,Trustworthy","","null","","","","decisionFB","","<div class='trialDiv'><img src='Fruit/watermelon.png'><br><font class='baseline'><strong>Watermelon Win$</strong><p>Choose number of points to bet.</font><div class='respPicDiv'><img src='img/responseButtonOffersNo0L5.png' class='respPic'></div></div>","null","17","Watermelon Win$","Fruit/watermelon.png","Won","0.2,0.8","13","0.2","262","50","",""
"html-keyboard-response","159","490873","0.0-11.0-3.49","5b1a3fa488ee7400012aef74","bdp_rwlrn","Wed Mar 15 2023 00:24:14 GMT-0400 (Eastern Daylight Time)","963018","Untrustworthy,Trustworthy","","null","","","","feedback","","<div class='respPicDiv'><img src='img/responseButtonOffersNo0_wht.png' class='respPic'></div><div class='trialDiv'><img src='Fruit/watermelon.png'><br><font class='baseline'><strong>Watermelon Win$</strong><p><strong><font class='posOutcome'>You WON</font><p>You bet: 5</strong></font> &nbsp; &nbsp; &nbsp; &nbsp; &nbsp; &nbsp;<font class='posOutcome'>you receive: <strong>10</strong></font></div>","null","17","Watermelon Win$","Fruit/watermelon.png","Won","0.2,0.8","13","0.2","272","50","",""
"html-keyboard-response","160","492819","0.0-11.0-1.50","5b1a3fa488ee7400012aef74","bdp_rwlrn","Wed Mar 15 2023 00:24:14 GMT-0400 (Eastern Daylight Time)","963018","Untrustworthy,Trustworthy","","1946","","","","decision","","<div class='trialDiv'><img src='Fruit/lime.png'><br><font class='baseline'><strong>Limin' Large</strong><p>Choose number of points to bet.</font><div class='respPicDiv'><img src='img/responseButtonOffersNo0L.png' class='respPic'></div></div>","1","17","Limin' Large","Fruit/lime.png","Won","0.35,0.8","10","0.35","277","51","",""
"html-keyboard-response","161","493071","0.0-11.0-2.50","5b1a3fa488ee7400012aef74","bdp_rwlrn","Wed Mar 15 2023 00:24:14 GMT-0400 (Eastern Daylight Time)","963018","Untrustworthy,Trustworthy","","null","","","","decisionFB","","<div class='trialDiv'><img src='Fruit/lime.png'><br><font class='baseline'><strong>Limin' Large</strong><p>Choose number of points to bet.</font><div class='respPicDiv'><img src='img/responseButtonOffersNo0L1.png' class='respPic'></div></div>","null","17","Limin' Large","Fruit/lime.png","Won","0.35,0.8","10","0.35","276","51","",""
"html-keyboard-response","162","494072","0.0-11.0-3.50","5b1a3fa488ee7400012aef74","bdp_rwlrn","Wed Mar 15 2023 00:24:14 GMT-0400 (Eastern Daylight Time)","963018","Untrustworthy,Trustworthy","","null","","","","feedback","","<div class='respPicDiv'><img src='img/responseButtonOffersNo0_wht.png' class='respPic'></div><div class='trialDiv'><img src='Fruit/lime.png'><br><font class='baseline'><strong>Limin' Large</strong><p><strong><font class='posOutcome'>You WON</font><p>You bet: 1</strong></font> &nbsp; &nbsp; &nbsp; &nbsp; &nbsp; &nbsp;<font class='posOutcome'>you receive: <strong>2</strong></font></div>","null","17","Limin' Large","Fruit/lime.png","Won","0.35,0.8","10","0.35","278","51","",""
"html-keyboard-response","163","495099","0.0-11.0-1.51","5b1a3fa488ee7400012aef74","bdp_rwlrn","Wed Mar 15 2023 00:24:14 GMT-0400 (Eastern Daylight Time)","963018","Untrustworthy,Trustworthy","","1026","","","","decision","","<div class='trialDiv'><img src='Fruit/watermelon.png'><br><font class='baseline'><strong>Watermelon Win$</strong><p>Choose number of points to bet.</font><div class='respPicDiv'><img src='img/responseButtonOffersNo0L.png' class='respPic'></div></div>","5","18","Watermelon Win$","Fruit/watermelon.png","Lost","0.2,0.8","13","0.2","283","52","",""
