"trial_type","trial_index","time_elapsed","internal_node_id","subject_id","task","startTime","totalTime","labels","view_history","rt","event","trial","time","trialtype","success","stimulus","key_press","ltround","name","fileID","outcome","lottotype","lottoswpt","lottocurrpshare","point_total","round","faceID","face"
"pavlovia","0","7","0.0-0.0","60cd717e463162435e3b7d46","bdp_rwlrn","Tue Mar 14 2023 13:06:24 GMT-0600 (Central Standard Time)","266003","Untrustworthy,Trustworthy","","","","","","","","","","","","","","","","","","","",""
"instructions","1","1572","0.0-1.0","60cd717e463162435e3b7d46","bdp_rwlrn","Tue Mar 14 2023 13:06:24 GMT-0600 (Central Standard Time)","266003","Untrustworthy,Trustworthy","[{""page_index"":0,""viewing_time"":1563}]","1564","","","","","","","","","","","","","","","","","",""
"","","","","60cd717e463162435e3b7d46","bdp_rwlrn","Tue Mar 14 2023 13:06:24 GMT-0600 (Central Standard Time)","266003","Untrustworthy,Trustworthy","","","fullscreenenter","2","4096","fullscreenenter","","","","","","","","","","","","","",""
"fullscreen","2","5072","0.0-2.0","60cd717e463162435e3b7d46","bdp_rwlrn","Tue Mar 14 2023 13:06:24 GMT-0600 (Central Standard Time)","266003","Untrustworthy,Trustworthy","","","","","","","true","","","","","","","","","","","","",""
"instructions","3","20139","0.0-4.0","60cd717e463162435e3b7d46","bdp_rwlrn","Tue Mar 14 2023 13:06:24 GMT-0600 (Central Standard Time)","266003","Untrustworthy,Trustworthy","[{""page_index"":0,""viewing_time"":1626},{""page_index"":1,""viewing_time"":3744},{""page_index"":2,""viewing_time"":4223},{""page_index"":3,""viewing_time"":1984},{""page_index"":4,""viewing_time"":1976},{""page_index"":5,""viewing_time"":1513}]","15066","","","","","","","","","","","","","","","","","",""
"html-keyboard-response","4","23620","0.0-5.0","60cd717e463162435e3b7d46","bdp_rwlrn","Tue Mar 14 2023 13:06:24 GMT-0600 (Central Standard Time)","266003","Untrustworthy,Trustworthy","","3478","","","","","","<div class='header' style='text-align:left; position: absolute; top: 5%; left: 5%;'><small>Task 3 of 5</small></div><div class='instruxDiv'><p><strong>1) What is the maximum number of points you can choose to bet on a lottery?</strong></p><p>a) 0</p><p>b) 1</p><p>c) 5</p>","C","","","","","","","","","","",""
"html-keyboard-response","5","24843","0.0-6.0","60cd717e463162435e3b7d46","bdp_rwlrn","Tue Mar 14 2023 13:06:24 GMT-0600 (Central Standard Time)","266003","Untrustworthy,Trustworthy","","1121","","","","","","<div class='header' style='text-align:left; position: absolute; top: 5%; left: 5%;'><small>Task 3 of 5</small></div><div class='instruxDiv'><p><strong>1) What is the maximum number of points you can choose to bet on a lottery?</strong></p><p>a) 1</p><p>b) 1</p><p style='color:#00FF00'>c) 5</p><h3 style='color:#00FF00'>Correct!</h3><h3 class='center-content'>The correct response is c).</h3><h3 class='center-content'>The maximum number of points you can choose to bet on a lottery is 5 points.</h3><p><em>Press SPACEBAR to continue</em></p></div>"," ","","","","","","","","","","",""
"html-keyboard-response","6","30899","0.0-7.0","60cd717e463162435e3b7d46","bdp_rwlrn","Tue Mar 14 2023 13:06:24 GMT-0600 (Central Standard Time)","266003","Untrustworthy,Trustworthy","","5953","","","","","","<div class='header' style='text-align:left; position: absolute; top: 5%; left: 5%;'><small>Task 3 of 5</small></div><div class='instruxDiv'><p><strong>2) How many points can you win each round?</strong></p><p>a) 10 points</p><p>b) Double what you bet</p><p>c) Quadruple what you bet</p>","B","","","","","","","","","","",""
"html-keyboard-response","7","32083","0.0-8.0","60cd717e463162435e3b7d46","bdp_rwlrn","Tue Mar 14 2023 13:06:24 GMT-0600 (Central Standard Time)","266003","Untrustworthy,Trustworthy","","1081","","","","","","<div class='header' style='text-align:left; position: absolute; top: 5%; left: 5%;'><small>Task 3 of 5</small></div><div class='instruxDiv'><p><strong>2) How many points can you win each round?</strong></p><p>a) 10 points</p><p style='color:#00FF00'>b) Double what you bet</p><p>c) Quadruple what you bet</p><h3 style='color:#00FF00'>Correct!</h3><h3 class='center-content'>The correct response is b).</h3><h3 class='center-content'>You can win double the amount of points you bet.</h3><p><em>Press SPACEBAR to continue</em></p></div>"," ","","","","","","","","","","",""
"html-keyboard-response","8","37187","0.0-9.0","60cd717e463162435e3b7d46","bdp_rwlrn","Tue Mar 14 2023 13:06:24 GMT-0600 (Central Standard Time)","266003","Untrustworthy,Trustworthy","","null","","","","","","<div class='header' style='text-align:left; position: absolute; top: 5%; left: 5%;'><small>Task 3 of 5</small></div><div class='instruxDiv'><p>Thank you for completing the quiz<p>These are the actual lotteries you will be playing in the next block:<p><div class='tc' align='center'><img class='introPic' src='Fruit/grapes.png'><br><strong>Great Grapes</strong></div><div class='bl' align='center'><img class='introPic' src='Fruit/apple.png'><br><strong>Awesome Apples</strong></div><div class='br' align='center'><img class='introPic' src='Fruit/pears.png'><br><strong>Pears Aplenty</strong></div></div><p>Across <strong>66 rounds</strong> you will play each lottery <strong>22 times</strong> (in random order).<p style='align:center; color:white'><font <em>Press SPACEBAR to continue</em></p>","null","","","","","","","","","","",""
"instructions","9","41386","0.0-10.0","60cd717e463162435e3b7d46","bdp_rwlrn","Tue Mar 14 2023 13:06:24 GMT-0600 (Central Standard Time)","266003","Untrustworthy,Trustworthy","[{""page_index"":0,""viewing_time"":2134},{""page_index"":1,""viewing_time"":2064}]","4198","","","","","","","","","","","","","","","","","",""
"html-keyboard-response","10","42491","0.0-11.0-1.0","60cd717e463162435e3b7d46","bdp_rwlrn","Tue Mar 14 2023 13:06:24 GMT-0600 (Central Standard Time)","266003","Untrustworthy,Trustworthy","","1000","","","","decision","","<div class='trialDiv'><img src='Fruit/apple.png'><br><font class='baseline'><strong>Awesome Apples</strong><p>Choose number of points to bet.</font><div class='respPicDiv'><img src='img/responseButtonOffersNo0L.png' class='respPic'></div></div>","4","1","Awesome Apples","Fruit/apple.png","Lost","0.2,0.65","14","0.2","5","1","",""
"html-keyboard-response","11","42743","0.0-11.0-2.0","60cd717e463162435e3b7d46","bdp_rwlrn","Tue Mar 14 2023 13:06:24 GMT-0600 (Central Standard Time)","266003","Untrustworthy,Trustworthy","","null","","","","decisionFB","","<div class='trialDiv'><img src='Fruit/apple.png'><br><font class='baseline'><strong>Awesome Apples</strong><p>Choose number of points to bet.</font><div class='respPicDiv'><img src='img/responseButtonOffersNo0L4.png' class='respPic'></div></div>","null","1","Awesome Apples","Fruit/apple.png","Lost","0.2,0.65","14","0.2","1","1","",""
"html-keyboard-response","12","43747","0.0-11.0-3.0","60cd717e463162435e3b7d46","bdp_rwlrn","Tue Mar 14 2023 13:06:24 GMT-0600 (Central Standard Time)","266003","Untrustworthy,Trustworthy","","null","","","","feedback","","<div class='respPicDiv'><img src='img/responseButtonOffersNo0_wht.png' class='respPic'></div><div class='trialDiv'><img src='Fruit/apple.png'><br><font class='baseline'><strong>Awesome Apples</strong><p><strong><font class='negOutcome'>You LOST</font><p>You bet: 4</strong></font> &nbsp; &nbsp; &nbsp; &nbsp; &nbsp; &nbsp;<font class='negOutcome'>You receive: <strong>0</strong></font></div>","null","1","Awesome Apples","Fruit/apple.png","Lost","0.2,0.65","14","0.2","1","1","",""
"html-keyboard-response","13","44402","0.0-11.0-1.1","60cd717e463162435e3b7d46","bdp_rwlrn","Tue Mar 14 2023 13:06:24 GMT-0600 (Central Standard Time)","266003","Untrustworthy,Trustworthy","","653","","","","decision","","<div class='trialDiv'><img src='Fruit/pears.png'><br><font class='baseline'><strong>Pears Aplenty</strong><p>Choose number of points to bet.</font><div class='respPicDiv'><img src='img/responseButtonOffersNo0L.png' class='respPic'></div></div>","4","1","Pears Aplenty","Fruit/pears.png","Lost","0.2,0.8","10","0.2","6","2","",""
"html-keyboard-response","14","44655","0.0-11.0-2.1","60cd717e463162435e3b7d46","bdp_rwlrn","Tue Mar 14 2023 13:06:24 GMT-0600 (Central Standard Time)","266003","Untrustworthy,Trustworthy","","null","","","","decisionFB","","<div class='trialDiv'><img src='Fruit/pears.png'><br><font class='baseline'><strong>Pears Aplenty</strong><p>Choose number of points to bet.</font><div class='respPicDiv'><img src='img/responseButtonOffersNo0L4.png' class='respPic'></div></div>","null","1","Pears Aplenty","Fruit/pears.png","Lost","0.2,0.8","10","0.2","2","2","",""
"html-keyboard-response","15","45656","0.0-11.0-3.1","60cd717e463162435e3b7d46","bdp_rwlrn","Tue Mar 14 2023 13:06:24 GMT-0600 (Central Standard Time)","266003","Untrustworthy,Trustworthy","","null","","","","feedback","","<div class='respPicDiv'><img src='img/responseButtonOffersNo0_wht.png' class='respPic'></div><div class='trialDiv'><img src='Fruit/pears.png'><br><font class='baseline'><strong>Pears Aplenty</strong><p><strong><font class='negOutcome'>You LOST</font><p>You bet: 4</strong></font> &nbsp; &nbsp; &nbsp; &nbsp; &nbsp; &nbsp;<font class='negOutcome'>You receive: <strong>0</strong></font></div>","null","1","Pears Aplenty","Fruit/pears.png","Lost","0.2,0.8","10","0.2","2","2","",""
"html-keyboard-response","16","45746","0.0-11.0-1.2","60cd717e463162435e3b7d46","bdp_rwlrn","Tue Mar 14 2023 13:06:24 GMT-0600 (Central Standard Time)","266003","Untrustworthy,Trustworthy","","87","","","","decision","","<div class='trialDiv'><img src='Fruit/grapes.png'><br><font class='baseline'><strong>Great Grapes</strong><p>Choose number of points to bet.</font><div class='respPicDiv'><img src='img/responseButtonOffersNo0L.png' class='respPic'></div></div>","3","1","Great Grapes","Fruit/grapes.png","Lost","0.65,0.2","10","0.65","7","3","",""
"html-keyboard-response","17","45997","0.0-11.0-2.2","60cd717e463162435e3b7d46","bdp_rwlrn","Tue Mar 14 2023 13:06:24 GMT-0600 (Central Standard Time)","266003","Untrustworthy,Trustworthy","","null","","","","decisionFB","","<div class='trialDiv'><img src='Fruit/grapes.png'><br><font class='baseline'><strong>Great Grapes</strong><p>Choose number of points to bet.</font><div class='respPicDiv'><img src='img/responseButtonOffersNo0L3.png' class='respPic'></div></div>","null","1","Great Grapes","Fruit/grapes.png","Lost","0.65,0.2","10","0.65","4","3","",""
"html-keyboard-response","18","47000","0.0-11.0-3.2","60cd717e463162435e3b7d46","bdp_rwlrn","Tue Mar 14 2023 13:06:24 GMT-0600 (Central Standard Time)","266003","Untrustworthy,Trustworthy","","null","","","","feedback","","<div class='respPicDiv'><img src='img/responseButtonOffersNo0_wht.png' class='respPic'></div><div class='trialDiv'><img src='Fruit/grapes.png'><br><font class='baseline'><strong>Great Grapes</strong><p><strong><font class='negOutcome'>You LOST</font><p>You bet: 3</strong></font> &nbsp; &nbsp; &nbsp; &nbsp; &nbsp; &nbsp;<font class='negOutcome'>You receive: <strong>0</strong></font></div>","null","1","Great Grapes","Fruit/grapes.png","Lost","0.65,0.2","10","0.65","4","3","",""
"html-keyboard-response","19","48466","0.0-11.0-1.3","60cd717e463162435e3b7d46","bdp_rwlrn","Tue Mar 14 2023 13:06:24 GMT-0600 (Central Standard Time)","266003","Untrustworthy,Trustworthy","","1465","","","","decision","","<div class='trialDiv'><img src='Fruit/apple.png'><br><font class='baseline'><strong>Awesome Apples</strong><p>Choose number of points to bet.</font><div class='respPicDiv'><img src='img/responseButtonOffersNo0L.png' class='respPic'></div></div>","5","2","Awesome Apples","Fruit/apple.png","Won","0.2,0.65","14","0.2","9","4","",""
"html-keyboard-response","20","48718","0.0-11.0-2.3","60cd717e463162435e3b7d46","bdp_rwlrn","Tue Mar 14 2023 13:06:24 GMT-0600 (Central Standard Time)","266003","Untrustworthy,Trustworthy","","null","","","","decisionFB","","<div class='trialDiv'><img src='Fruit/apple.png'><br><font class='baseline'><strong>Awesome Apples</strong><p>Choose number of points to bet.</font><div class='respPicDiv'><img src='img/responseButtonOffersNo0L5.png' class='respPic'></div></div>","null","2","Awesome Apples","Fruit/apple.png","Won","0.2,0.65","14","0.2","4","4","",""
"html-keyboard-response","21","49721","0.0-11.0-3.3","60cd717e463162435e3b7d46","bdp_rwlrn","Tue Mar 14 2023 13:06:24 GMT-0600 (Central Standard Time)","266003","Untrustworthy,Trustworthy","","null","","","","feedback","","<div class='respPicDiv'><img src='img/responseButtonOffersNo0_wht.png' class='respPic'></div><div class='trialDiv'><img src='Fruit/apple.png'><br><font class='baseline'><strong>Awesome Apples</strong><p><strong><font class='posOutcome'>You WON</font><p>You bet: 5</strong></font> &nbsp; &nbsp; &nbsp; &nbsp; &nbsp; &nbsp;<font class='posOutcome'>you receive: <strong>10</strong></font></div>","null","2","Awesome Apples","Fruit/apple.png","Won","0.2,0.65","14","0.2","14","4","",""
"html-keyboard-response","22","50306","0.0-11.0-1.4","60cd717e463162435e3b7d46","bdp_rwlrn","Tue Mar 14 2023 13:06:24 GMT-0600 (Central Standard Time)","266003","Untrustworthy,Trustworthy","","583","","","","decision","","<div class='trialDiv'><img src='Fruit/pears.png'><br><font class='baseline'><strong>Pears Aplenty</strong><p>Choose number of points to bet.</font><div class='respPicDiv'><img src='img/responseButtonOffersNo0L.png' class='respPic'></div></div>","2","2","Pears Aplenty","Fruit/pears.png","Lost","0.2,0.8","10","0.2","19","5","",""
"html-keyboard-response","23","50558","0.0-11.0-2.4","60cd717e463162435e3b7d46","bdp_rwlrn","Tue Mar 14 2023 13:06:24 GMT-0600 (Central Standard Time)","266003","Untrustworthy,Trustworthy","","null","","","","decisionFB","","<div class='trialDiv'><img src='Fruit/pears.png'><br><font class='baseline'><strong>Pears Aplenty</strong><p>Choose number of points to bet.</font><div class='respPicDiv'><img src='img/responseButtonOffersNo0L2.png' class='respPic'></div></div>","null","2","Pears Aplenty","Fruit/pears.png","Lost","0.2,0.8","10","0.2","17","5","",""
"html-keyboard-response","24","51561","0.0-11.0-3.4","60cd717e463162435e3b7d46","bdp_rwlrn","Tue Mar 14 2023 13:06:24 GMT-0600 (Central Standard Time)","266003","Untrustworthy,Trustworthy","","null","","","","feedback","","<div class='respPicDiv'><img src='img/responseButtonOffersNo0_wht.png' class='respPic'></div><div class='trialDiv'><img src='Fruit/pears.png'><br><font class='baseline'><strong>Pears Aplenty</strong><p><strong><font class='negOutcome'>You LOST</font><p>You bet: 2</strong></font> &nbsp; &nbsp; &nbsp; &nbsp; &nbsp; &nbsp;<font class='negOutcome'>You receive: <strong>0</strong></font></div>","null","2","Pears Aplenty","Fruit/pears.png","Lost","0.2,0.8","10","0.2","17","5","",""
"html-keyboard-response","25","51922","0.0-11.0-1.5","60cd717e463162435e3b7d46","bdp_rwlrn","Tue Mar 14 2023 13:06:24 GMT-0600 (Central Standard Time)","266003","Untrustworthy,Trustworthy","","360","","","","decision","","<div class='trialDiv'><img src='Fruit/grapes.png'><br><font class='baseline'><strong>Great Grapes</strong><p>Choose number of points to bet.</font><div class='respPicDiv'><img src='img/responseButtonOffersNo0L.png' class='respPic'></div></div>","5","2","Great Grapes","Fruit/grapes.png","Won","0.65,0.2","10","0.65","22","6","",""
"html-keyboard-response","26","52174","0.0-11.0-2.5","60cd717e463162435e3b7d46","bdp_rwlrn","Tue Mar 14 2023 13:06:24 GMT-0600 (Central Standard Time)","266003","Untrustworthy,Trustworthy","","null","","","","decisionFB","","<div class='trialDiv'><img src='Fruit/grapes.png'><br><font class='baseline'><strong>Great Grapes</strong><p>Choose number of points to bet.</font><div class='respPicDiv'><img src='img/responseButtonOffersNo0L5.png' class='respPic'></div></div>","null","2","Great Grapes","Fruit/grapes.png","Won","0.65,0.2","10","0.65","17","6","",""
"html-keyboard-response","27","53176","0.0-11.0-3.5","60cd717e463162435e3b7d46","bdp_rwlrn","Tue Mar 14 2023 13:06:24 GMT-0600 (Central Standard Time)","266003","Untrustworthy,Trustworthy","","null","","","","feedback","","<div class='respPicDiv'><img src='img/responseButtonOffersNo0_wht.png' class='respPic'></div><div class='trialDiv'><img src='Fruit/grapes.png'><br><font class='baseline'><strong>Great Grapes</strong><p><strong><font class='posOutcome'>You WON</font><p>You bet: 5</strong></font> &nbsp; &nbsp; &nbsp; &nbsp; &nbsp; &nbsp;<font class='posOutcome'>you receive: <strong>10</strong></font></div>","null","2","Great Grapes","Fruit/grapes.png","Won","0.65,0.2","10","0.65","27","6","",""
"html-keyboard-response","28","53970","0.0-11.0-1.6","60cd717e463162435e3b7d46","bdp_rwlrn","Tue Mar 14 2023 13:06:24 GMT-0600 (Central Standard Time)","266003","Untrustworthy,Trustworthy","","793","","","","decision","","<div class='trialDiv'><img src='Fruit/pears.png'><br><font class='baseline'><strong>Pears Aplenty</strong><p>Choose number of points to bet.</font><div class='respPicDiv'><img src='img/responseButtonOffersNo0L.png' class='respPic'></div></div>","5","3","Pears Aplenty","Fruit/pears.png","Won","0.2,0.8","10","0.2","32","7","",""
"html-keyboard-response","29","54222","0.0-11.0-2.6","60cd717e463162435e3b7d46","bdp_rwlrn","Tue Mar 14 2023 13:06:24 GMT-0600 (Central Standard Time)","266003","Untrustworthy,Trustworthy","","null","","","","decisionFB","","<div class='trialDiv'><img src='Fruit/pears.png'><br><font class='baseline'><strong>Pears Aplenty</strong><p>Choose number of points to bet.</font><div class='respPicDiv'><img src='img/responseButtonOffersNo0L5.png' class='respPic'></div></div>","null","3","Pears Aplenty","Fruit/pears.png","Won","0.2,0.8","10","0.2","27","7","",""
"html-keyboard-response","30","55224","0.0-11.0-3.6","60cd717e463162435e3b7d46","bdp_rwlrn","Tue Mar 14 2023 13:06:24 GMT-0600 (Central Standard Time)","266003","Untrustworthy,Trustworthy","","null","","","","feedback","","<div class='respPicDiv'><img src='img/responseButtonOffersNo0_wht.png' class='respPic'></div><div class='trialDiv'><img src='Fruit/pears.png'><br><font class='baseline'><strong>Pears Aplenty</strong><p><strong><font class='posOutcome'>You WON</font><p>You bet: 5</strong></font> &nbsp; &nbsp; &nbsp; &nbsp; &nbsp; &nbsp;<font class='posOutcome'>you receive: <strong>10</strong></font></div>","null","3","Pears Aplenty","Fruit/pears.png","Won","0.2,0.8","10","0.2","37","7","",""
"html-keyboard-response","31","55618","0.0-11.0-1.7","60cd717e463162435e3b7d46","bdp_rwlrn","Tue Mar 14 2023 13:06:24 GMT-0600 (Central Standard Time)","266003","Untrustworthy,Trustworthy","","393","","","","decision","","<div class='trialDiv'><img src='Fruit/grapes.png'><br><font class='baseline'><strong>Great Grapes</strong><p>Choose number of points to bet.</font><div class='respPicDiv'><img src='img/responseButtonOffersNo0L.png' class='respPic'></div></div>","5","3","Great Grapes","Fruit/grapes.png","Lost","0.65,0.2","10","0.65","42","8","",""
"html-keyboard-response","32","55880","0.0-11.0-2.7","60cd717e463162435e3b7d46","bdp_rwlrn","Tue Mar 14 2023 13:06:24 GMT-0600 (Central Standard Time)","266003","Untrustworthy,Trustworthy","","null","","","","decisionFB","","<div class='trialDiv'><img src='Fruit/grapes.png'><br><font class='baseline'><strong>Great Grapes</strong><p>Choose number of points to bet.</font><div class='respPicDiv'><img src='img/responseButtonOffersNo0L5.png' class='respPic'></div></div>","null","3","Great Grapes","Fruit/grapes.png","Lost","0.65,0.2","10","0.65","37","8","",""
"html-keyboard-response","33","56882","0.0-11.0-3.7","60cd717e463162435e3b7d46","bdp_rwlrn","Tue Mar 14 2023 13:06:24 GMT-0600 (Central Standard Time)","266003","Untrustworthy,Trustworthy","","null","","","","feedback","","<div class='respPicDiv'><img src='img/responseButtonOffersNo0_wht.png' class='respPic'></div><div class='trialDiv'><img src='Fruit/grapes.png'><br><font class='baseline'><strong>Great Grapes</strong><p><strong><font class='negOutcome'>You LOST</font><p>You bet: 5</strong></font> &nbsp; &nbsp; &nbsp; &nbsp; &nbsp; &nbsp;<font class='negOutcome'>You receive: <strong>0</strong></font></div>","null","3","Great Grapes","Fruit/grapes.png","Lost","0.65,0.2","10","0.65","37","8","",""
"html-keyboard-response","34","57218","0.0-11.0-1.8","60cd717e463162435e3b7d46","bdp_rwlrn","Tue Mar 14 2023 13:06:24 GMT-0600 (Central Standard Time)","266003","Untrustworthy,Trustworthy","","335","","","","decision","","<div class='trialDiv'><img src='Fruit/apple.png'><br><font class='baseline'><strong>Awesome Apples</strong><p>Choose number of points to bet.</font><div class='respPicDiv'><img src='img/responseButtonOffersNo0L.png' class='respPic'></div></div>","2","3","Awesome Apples","Fruit/apple.png","Lost","0.2,0.65","14","0.2","42","9","",""
"html-keyboard-response","35","57470","0.0-11.0-2.8","60cd717e463162435e3b7d46","bdp_rwlrn","Tue Mar 14 2023 13:06:24 GMT-0600 (Central Standard Time)","266003","Untrustworthy,Trustworthy","","null","","","","decisionFB","","<div class='trialDiv'><img src='Fruit/apple.png'><br><font class='baseline'><strong>Awesome Apples</strong><p>Choose number of points to bet.</font><div class='respPicDiv'><img src='img/responseButtonOffersNo0L2.png' class='respPic'></div></div>","null","3","Awesome Apples","Fruit/apple.png","Lost","0.2,0.65","14","0.2","40","9","",""
"html-keyboard-response","36","58472","0.0-11.0-3.8","60cd717e463162435e3b7d46","bdp_rwlrn","Tue Mar 14 2023 13:06:24 GMT-0600 (Central Standard Time)","266003","Untrustworthy,Trustworthy","","null","","","","feedback","","<div class='respPicDiv'><img src='img/responseButtonOffersNo0_wht.png' class='respPic'></div><div class='trialDiv'><img src='Fruit/apple.png'><br><font class='baseline'><strong>Awesome Apples</strong><p><strong><font class='negOutcome'>You LOST</font><p>You bet: 2</strong></font> &nbsp; &nbsp; &nbsp; &nbsp; &nbsp; &nbsp;<font class='negOutcome'>You receive: <strong>0</strong></font></div>","null","3","Awesome Apples","Fruit/apple.png","Lost","0.2,0.65","14","0.2","40","9","",""
"html-keyboard-response","37","58522","0.0-11.0-1.9","60cd717e463162435e3b7d46","bdp_rwlrn","Tue Mar 14 2023 13:06:24 GMT-0600 (Central Standard Time)","266003","Untrustworthy,Trustworthy","","48","","","","decision","","<div class='trialDiv'><img src='Fruit/pears.png'><br><font class='baseline'><strong>Pears Aplenty</strong><p>Choose number of points to bet.</font><div class='respPicDiv'><img src='img/responseButtonOffersNo0L.png' class='respPic'></div></div>","3","4","Pears Aplenty","Fruit/pears.png","Lost","0.2,0.8","10","0.2","45","10","",""
"html-keyboard-response","38","58774","0.0-11.0-2.9","60cd717e463162435e3b7d46","bdp_rwlrn","Tue Mar 14 2023 13:06:24 GMT-0600 (Central Standard Time)","266003","Untrustworthy,Trustworthy","","null","","","","decisionFB","","<div class='trialDiv'><img src='Fruit/pears.png'><br><font class='baseline'><strong>Pears Aplenty</strong><p>Choose number of points to bet.</font><div class='respPicDiv'><img src='img/responseButtonOffersNo0L3.png' class='respPic'></div></div>","null","4","Pears Aplenty","Fruit/pears.png","Lost","0.2,0.8","10","0.2","42","10","",""
"html-keyboard-response","39","59776","0.0-11.0-3.9","60cd717e463162435e3b7d46","bdp_rwlrn","Tue Mar 14 2023 13:06:24 GMT-0600 (Central Standard Time)","266003","Untrustworthy,Trustworthy","","null","","","","feedback","","<div class='respPicDiv'><img src='img/responseButtonOffersNo0_wht.png' class='respPic'></div><div class='trialDiv'><img src='Fruit/pears.png'><br><font class='baseline'><strong>Pears Aplenty</strong><p><strong><font class='negOutcome'>You LOST</font><p>You bet: 3</strong></font> &nbsp; &nbsp; &nbsp; &nbsp; &nbsp; &nbsp;<font class='negOutcome'>You receive: <strong>0</strong></font></div>","null","4","Pears Aplenty","Fruit/pears.png","Lost","0.2,0.8","10","0.2","42","10","",""
"html-keyboard-response","40","60026","0.0-11.0-1.10","60cd717e463162435e3b7d46","bdp_rwlrn","Tue Mar 14 2023 13:06:24 GMT-0600 (Central Standard Time)","266003","Untrustworthy,Trustworthy","","249","","","","decision","","<div class='trialDiv'><img src='Fruit/grapes.png'><br><font class='baseline'><strong>Great Grapes</strong><p>Choose number of points to bet.</font><div class='respPicDiv'><img src='img/responseButtonOffersNo0L.png' class='respPic'></div></div>","3","4","Great Grapes","Fruit/grapes.png","Lost","0.65,0.2","10","0.65","47","11","",""
"html-keyboard-response","41","60278","0.0-11.0-2.10","60cd717e463162435e3b7d46","bdp_rwlrn","Tue Mar 14 2023 13:06:24 GMT-0600 (Central Standard Time)","266003","Untrustworthy,Trustworthy","","null","","","","decisionFB","","<div class='trialDiv'><img src='Fruit/grapes.png'><br><font class='baseline'><strong>Great Grapes</strong><p>Choose number of points to bet.</font><div class='respPicDiv'><img src='img/responseButtonOffersNo0L3.png' class='respPic'></div></div>","null","4","Great Grapes","Fruit/grapes.png","Lost","0.65,0.2","10","0.65","44","11","",""
"html-keyboard-response","42","61280","0.0-11.0-3.10","60cd717e463162435e3b7d46","bdp_rwlrn","Tue Mar 14 2023 13:06:24 GMT-0600 (Central Standard Time)","266003","Untrustworthy,Trustworthy","","null","","","","feedback","","<div class='respPicDiv'><img src='img/responseButtonOffersNo0_wht.png' class='respPic'></div><div class='trialDiv'><img src='Fruit/grapes.png'><br><font class='baseline'><strong>Great Grapes</strong><p><strong><font class='negOutcome'>You LOST</font><p>You bet: 3</strong></font> &nbsp; &nbsp; &nbsp; &nbsp; &nbsp; &nbsp;<font class='negOutcome'>You receive: <strong>0</strong></font></div>","null","4","Great Grapes","Fruit/grapes.png","Lost","0.65,0.2","10","0.65","44","11","",""
"html-keyboard-response","43","61490","0.0-11.0-1.11","60cd717e463162435e3b7d46","bdp_rwlrn","Tue Mar 14 2023 13:06:24 GMT-0600 (Central Standard Time)","266003","Untrustworthy,Trustworthy","","209","","","","decision","","<div class='trialDiv'><img src='Fruit/apple.png'><br><font class='baseline'><strong>Awesome Apples</strong><p>Choose number of points to bet.</font><div class='respPicDiv'><img src='img/responseButtonOffersNo0L.png' class='respPic'></div></div>","3","4","Awesome Apples","Fruit/apple.png","Lost","0.2,0.65","14","0.2","49","12","",""
"html-keyboard-response","44","61743","0.0-11.0-2.11","60cd717e463162435e3b7d46","bdp_rwlrn","Tue Mar 14 2023 13:06:24 GMT-0600 (Central Standard Time)","266003","Untrustworthy,Trustworthy","","null","","","","decisionFB","","<div class='trialDiv'><img src='Fruit/apple.png'><br><font class='baseline'><strong>Awesome Apples</strong><p>Choose number of points to bet.</font><div class='respPicDiv'><img src='img/responseButtonOffersNo0L3.png' class='respPic'></div></div>","null","4","Awesome Apples","Fruit/apple.png","Lost","0.2,0.65","14","0.2","46","12","",""
"html-keyboard-response","45","62745","0.0-11.0-3.11","60cd717e463162435e3b7d46","bdp_rwlrn","Tue Mar 14 2023 13:06:24 GMT-0600 (Central Standard Time)","266003","Untrustworthy,Trustworthy","","null","","","","feedback","","<div class='respPicDiv'><img src='img/responseButtonOffersNo0_wht.png' class='respPic'></div><div class='trialDiv'><img src='Fruit/apple.png'><br><font class='baseline'><strong>Awesome Apples</strong><p><strong><font class='negOutcome'>You LOST</font><p>You bet: 3</strong></font> &nbsp; &nbsp; &nbsp; &nbsp; &nbsp; &nbsp;<font class='negOutcome'>You receive: <strong>0</strong></font></div>","null","4","Awesome Apples","Fruit/apple.png","Lost","0.2,0.65","14","0.2","46","12","",""
"html-keyboard-response","46","62906","0.0-11.0-1.12","60cd717e463162435e3b7d46","bdp_rwlrn","Tue Mar 14 2023 13:06:24 GMT-0600 (Central Standard Time)","266003","Untrustworthy,Trustworthy","","160","","","","decision","","<div class='trialDiv'><img src='Fruit/grapes.png'><br><font class='baseline'><strong>Great Grapes</strong><p>Choose number of points to bet.</font><div class='respPicDiv'><img src='img/responseButtonOffersNo0L.png' class='respPic'></div></div>","5","5","Great Grapes","Fruit/grapes.png","Lost","0.65,0.2","10","0.65","51","13","",""
"html-keyboard-response","47","63158","0.0-11.0-2.12","60cd717e463162435e3b7d46","bdp_rwlrn","Tue Mar 14 2023 13:06:24 GMT-0600 (Central Standard Time)","266003","Untrustworthy,Trustworthy","","null","","","","decisionFB","","<div class='trialDiv'><img src='Fruit/grapes.png'><br><font class='baseline'><strong>Great Grapes</strong><p>Choose number of points to bet.</font><div class='respPicDiv'><img src='img/responseButtonOffersNo0L5.png' class='respPic'></div></div>","null","5","Great Grapes","Fruit/grapes.png","Lost","0.65,0.2","10","0.65","46","13","",""
"html-keyboard-response","48","64160","0.0-11.0-3.12","60cd717e463162435e3b7d46","bdp_rwlrn","Tue Mar 14 2023 13:06:24 GMT-0600 (Central Standard Time)","266003","Untrustworthy,Trustworthy","","null","","","","feedback","","<div class='respPicDiv'><img src='img/responseButtonOffersNo0_wht.png' class='respPic'></div><div class='trialDiv'><img src='Fruit/grapes.png'><br><font class='baseline'><strong>Great Grapes</strong><p><strong><font class='negOutcome'>You LOST</font><p>You bet: 5</strong></font> &nbsp; &nbsp; &nbsp; &nbsp; &nbsp; &nbsp;<font class='negOutcome'>You receive: <strong>0</strong></font></div>","null","5","Great Grapes","Fruit/grapes.png","Lost","0.65,0.2","10","0.65","46","13","",""
"html-keyboard-response","49","64451","0.0-11.0-1.13","60cd717e463162435e3b7d46","bdp_rwlrn","Tue Mar 14 2023 13:06:24 GMT-0600 (Central Standard Time)","266003","Untrustworthy,Trustworthy","","288","","","","decision","","<div class='trialDiv'><img src='Fruit/apple.png'><br><font class='baseline'><strong>Awesome Apples</strong><p>Choose number of points to bet.</font><div class='respPicDiv'><img src='img/responseButtonOffersNo0L.png' class='respPic'></div></div>","5","5","Awesome Apples","Fruit/apple.png","Lost","0.2,0.65","14","0.2","51","14","",""
"html-keyboard-response","50","64702","0.0-11.0-2.13","60cd717e463162435e3b7d46","bdp_rwlrn","Tue Mar 14 2023 13:06:24 GMT-0600 (Central Standard Time)","266003","Untrustworthy,Trustworthy","","null","","","","decisionFB","","<div class='trialDiv'><img src='Fruit/apple.png'><br><font class='baseline'><strong>Awesome Apples</strong><p>Choose number of points to bet.</font><div class='respPicDiv'><img src='img/responseButtonOffersNo0L5.png' class='respPic'></div></div>","null","5","Awesome Apples","Fruit/apple.png","Lost","0.2,0.65","14","0.2","46","14","",""
"html-keyboard-response","51","65705","0.0-11.0-3.13","60cd717e463162435e3b7d46","bdp_rwlrn","Tue Mar 14 2023 13:06:24 GMT-0600 (Central Standard Time)","266003","Untrustworthy,Trustworthy","","null","","","","feedback","","<div class='respPicDiv'><img src='img/responseButtonOffersNo0_wht.png' class='respPic'></div><div class='trialDiv'><img src='Fruit/apple.png'><br><font class='baseline'><strong>Awesome Apples</strong><p><strong><font class='negOutcome'>You LOST</font><p>You bet: 5</strong></font> &nbsp; &nbsp; &nbsp; &nbsp; &nbsp; &nbsp;<font class='negOutcome'>You receive: <strong>0</strong></font></div>","null","5","Awesome Apples","Fruit/apple.png","Lost","0.2,0.65","14","0.2","46","14","",""
"html-keyboard-response","52","66042","0.0-11.0-1.14","60cd717e463162435e3b7d46","bdp_rwlrn","Tue Mar 14 2023 13:06:24 GMT-0600 (Central Standard Time)","266003","Untrustworthy,Trustworthy","","335","","","","decision","","<div class='trialDiv'><img src='Fruit/pears.png'><br><font class='baseline'><strong>Pears Aplenty</strong><p>Choose number of points to bet.</font><div class='respPicDiv'><img src='img/responseButtonOffersNo0L.png' class='respPic'></div></div>","1","5","Pears Aplenty","Fruit/pears.png","Lost","0.2,0.8","10","0.2","51","15","",""
"html-keyboard-response","53","66295","0.0-11.0-2.14","60cd717e463162435e3b7d46","bdp_rwlrn","Tue Mar 14 2023 13:06:24 GMT-0600 (Central Standard Time)","266003","Untrustworthy,Trustworthy","","null","","","","decisionFB","","<div class='trialDiv'><img src='Fruit/pears.png'><br><font class='baseline'><strong>Pears Aplenty</strong><p>Choose number of points to bet.</font><div class='respPicDiv'><img src='img/responseButtonOffersNo0L1.png' class='respPic'></div></div>","null","5","Pears Aplenty","Fruit/pears.png","Lost","0.2,0.8","10","0.2","50","15","",""
"html-keyboard-response","54","67298","0.0-11.0-3.14","60cd717e463162435e3b7d46","bdp_rwlrn","Tue Mar 14 2023 13:06:24 GMT-0600 (Central Standard Time)","266003","Untrustworthy,Trustworthy","","null","","","","feedback","","<div class='respPicDiv'><img src='img/responseButtonOffersNo0_wht.png' class='respPic'></div><div class='trialDiv'><img src='Fruit/pears.png'><br><font class='baseline'><strong>Pears Aplenty</strong><p><strong><font class='negOutcome'>You LOST</font><p>You bet: 1</strong></font> &nbsp; &nbsp; &nbsp; &nbsp; &nbsp; &nbsp;<font class='negOutcome'>You receive: <strong>0</strong></font></div>","null","5","Pears Aplenty","Fruit/pears.png","Lost","0.2,0.8","10","0.2","50","15","",""
"html-keyboard-response","55","67554","0.0-11.0-1.15","60cd717e463162435e3b7d46","bdp_rwlrn","Tue Mar 14 2023 13:06:24 GMT-0600 (Central Standard Time)","266003","Untrustworthy,Trustworthy","","255","","","","decision","","<div class='trialDiv'><img src='Fruit/apple.png'><br><font class='baseline'><strong>Awesome Apples</strong><p>Choose number of points to bet.</font><div class='respPicDiv'><img src='img/responseButtonOffersNo0L.png' class='respPic'></div></div>","1","6","Awesome Apples","Fruit/apple.png","Lost","0.2,0.65","14","0.2","55","16","",""
"html-keyboard-response","56","67806","0.0-11.0-2.15","60cd717e463162435e3b7d46","bdp_rwlrn","Tue Mar 14 2023 13:06:24 GMT-0600 (Central Standard Time)","266003","Untrustworthy,Trustworthy","","null","","","","decisionFB","","<div class='trialDiv'><img src='Fruit/apple.png'><br><font class='baseline'><strong>Awesome Apples</strong><p>Choose number of points to bet.</font><div class='respPicDiv'><img src='img/responseButtonOffersNo0L1.png' class='respPic'></div></div>","null","6","Awesome Apples","Fruit/apple.png","Lost","0.2,0.65","14","0.2","54","16","",""
"html-keyboard-response","57","68808","0.0-11.0-3.15","60cd717e463162435e3b7d46","bdp_rwlrn","Tue Mar 14 2023 13:06:24 GMT-0600 (Central Standard Time)","266003","Untrustworthy,Trustworthy","","null","","","","feedback","","<div class='respPicDiv'><img src='img/responseButtonOffersNo0_wht.png' class='respPic'></div><div class='trialDiv'><img src='Fruit/apple.png'><br><font class='baseline'><strong>Awesome Apples</strong><p><strong><font class='negOutcome'>You LOST</font><p>You bet: 1</strong></font> &nbsp; &nbsp; &nbsp; &nbsp; &nbsp; &nbsp;<font class='negOutcome'>You receive: <strong>0</strong></font></div>","null","6","Awesome Apples","Fruit/apple.png","Lost","0.2,0.65","14","0.2","54","16","",""
"html-keyboard-response","58","69066","0.0-11.0-1.16","60cd717e463162435e3b7d46","bdp_rwlrn","Tue Mar 14 2023 13:06:24 GMT-0600 (Central Standard Time)","266003","Untrustworthy,Trustworthy","","257","","","","decision","","<div class='trialDiv'><img src='Fruit/grapes.png'><br><font class='baseline'><strong>Great Grapes</strong><p>Choose number of points to bet.</font><div class='respPicDiv'><img src='img/responseButtonOffersNo0L.png' class='respPic'></div></div>","1","6","Great Grapes","Fruit/grapes.png","Won","0.65,0.2","10","0.65","59","17","",""
"html-keyboard-response","59","69319","0.0-11.0-2.16","60cd717e463162435e3b7d46","bdp_rwlrn","Tue Mar 14 2023 13:06:24 GMT-0600 (Central Standard Time)","266003","Untrustworthy,Trustworthy","","null","","","","decisionFB","","<div class='trialDiv'><img src='Fruit/grapes.png'><br><font class='baseline'><strong>Great Grapes</strong><p>Choose number of points to bet.</font><div class='respPicDiv'><img src='img/responseButtonOffersNo0L1.png' class='respPic'></div></div>","null","6","Great Grapes","Fruit/grapes.png","Won","0.65,0.2","10","0.65","58","17","",""
"html-keyboard-response","60","70322","0.0-11.0-3.16","60cd717e463162435e3b7d46","bdp_rwlrn","Tue Mar 14 2023 13:06:24 GMT-0600 (Central Standard Time)","266003","Untrustworthy,Trustworthy","","null","","","","feedback","","<div class='respPicDiv'><img src='img/responseButtonOffersNo0_wht.png' class='respPic'></div><div class='trialDiv'><img src='Fruit/grapes.png'><br><font class='baseline'><strong>Great Grapes</strong><p><strong><font class='posOutcome'>You WON</font><p>You bet: 1</strong></font> &nbsp; &nbsp; &nbsp; &nbsp; &nbsp; &nbsp;<font class='posOutcome'>you receive: <strong>2</strong></font></div>","null","6","Great Grapes","Fruit/grapes.png","Won","0.65,0.2","10","0.65","60","17","",""
"html-keyboard-response","61","70562","0.0-11.0-1.17","60cd717e463162435e3b7d46","bdp_rwlrn","Tue Mar 14 2023 13:06:24 GMT-0600 (Central Standard Time)","266003","Untrustworthy,Trustworthy","","239","","","","decision","","<div class='trialDiv'><img src='Fruit/pears.png'><br><font class='baseline'><strong>Pears Aplenty</strong><p>Choose number of points to bet.</font><div class='respPicDiv'><img src='img/responseButtonOffersNo0L.png' class='respPic'></div></div>","1","6","Pears Aplenty","Fruit/pears.png","Won","0.2,0.8","10","0.2","65","18","",""
"html-keyboard-response","62","70814","0.0-11.0-2.17","60cd717e463162435e3b7d46","bdp_rwlrn","Tue Mar 14 2023 13:06:24 GMT-0600 (Central Standard Time)","266003","Untrustworthy,Trustworthy","","null","","","","decisionFB","","<div class='trialDiv'><img src='Fruit/pears.png'><br><font class='baseline'><strong>Pears Aplenty</strong><p>Choose number of points to bet.</font><div class='respPicDiv'><img src='img/responseButtonOffersNo0L1.png' class='respPic'></div></div>","null","6","Pears Aplenty","Fruit/pears.png","Won","0.2,0.8","10","0.2","64","18","",""
"html-keyboard-response","63","71818","0.0-11.0-3.17","60cd717e463162435e3b7d46","bdp_rwlrn","Tue Mar 14 2023 13:06:24 GMT-0600 (Central Standard Time)","266003","Untrustworthy,Trustworthy","","null","","","","feedback","","<div class='respPicDiv'><img src='img/responseButtonOffersNo0_wht.png' class='respPic'></div><div class='trialDiv'><img src='Fruit/pears.png'><br><font class='baseline'><strong>Pears Aplenty</strong><p><strong><font class='posOutcome'>You WON</font><p>You bet: 1</strong></font> &nbsp; &nbsp; &nbsp; &nbsp; &nbsp; &nbsp;<font class='posOutcome'>you receive: <strong>2</strong></font></div>","null","6","Pears Aplenty","Fruit/pears.png","Won","0.2,0.8","10","0.2","66","18","",""
"html-keyboard-response","64","72018","0.0-11.0-1.18","60cd717e463162435e3b7d46","bdp_rwlrn","Tue Mar 14 2023 13:06:24 GMT-0600 (Central Standard Time)","266003","Untrustworthy,Trustworthy","","198","","","","decision","","<div class='trialDiv'><img src='Fruit/apple.png'><br><font class='baseline'><strong>Awesome Apples</strong><p>Choose number of points to bet.</font><div class='respPicDiv'><img src='img/responseButtonOffersNo0L.png' class='respPic'></div></div>","1","7","Awesome Apples","Fruit/apple.png","Won","0.2,0.65","14","0.2","71","19","",""
"html-keyboard-response","65","72269","0.0-11.0-2.18","60cd717e463162435e3b7d46","bdp_rwlrn","Tue Mar 14 2023 13:06:24 GMT-0600 (Central Standard Time)","266003","Untrustworthy,Trustworthy","","null","","","","decisionFB","","<div class='trialDiv'><img src='Fruit/apple.png'><br><font class='baseline'><strong>Awesome Apples</strong><p>Choose number of points to bet.</font><div class='respPicDiv'><img src='img/responseButtonOffersNo0L1.png' class='respPic'></div></div>","null","7","Awesome Apples","Fruit/apple.png","Won","0.2,0.65","14","0.2","70","19","",""
"html-keyboard-response","66","73272","0.0-11.0-3.18","60cd717e463162435e3b7d46","bdp_rwlrn","Tue Mar 14 2023 13:06:24 GMT-0600 (Central Standard Time)","266003","Untrustworthy,Trustworthy","","null","","","","feedback","","<div class='respPicDiv'><img src='img/responseButtonOffersNo0_wht.png' class='respPic'></div><div class='trialDiv'><img src='Fruit/apple.png'><br><font class='baseline'><strong>Awesome Apples</strong><p><strong><font class='posOutcome'>You WON</font><p>You bet: 1</strong></font> &nbsp; &nbsp; &nbsp; &nbsp; &nbsp; &nbsp;<font class='posOutcome'>you receive: <strong>2</strong></font></div>","null","7","Awesome Apples","Fruit/apple.png","Won","0.2,0.65","14","0.2","72","19","",""
"html-keyboard-response","67","73482","0.0-11.0-1.19","60cd717e463162435e3b7d46","bdp_rwlrn","Tue Mar 14 2023 13:06:24 GMT-0600 (Central Standard Time)","266003","Untrustworthy,Trustworthy","","209","","","","decision","","<div class='trialDiv'><img src='Fruit/pears.png'><br><font class='baseline'><strong>Pears Aplenty</strong><p>Choose number of points to bet.</font><div class='respPicDiv'><img src='img/responseButtonOffersNo0L.png' class='respPic'></div></div>","5","7","Pears Aplenty","Fruit/pears.png","Lost","0.2,0.8","10","0.2","77","20","",""
"html-keyboard-response","68","73733","0.0-11.0-2.19","60cd717e463162435e3b7d46","bdp_rwlrn","Tue Mar 14 2023 13:06:24 GMT-0600 (Central Standard Time)","266003","Untrustworthy,Trustworthy","","null","","","","decisionFB","","<div class='trialDiv'><img src='Fruit/pears.png'><br><font class='baseline'><strong>Pears Aplenty</strong><p>Choose number of points to bet.</font><div class='respPicDiv'><img src='img/responseButtonOffersNo0L5.png' class='respPic'></div></div>","null","7","Pears Aplenty","Fruit/pears.png","Lost","0.2,0.8","10","0.2","72","20","",""
"html-keyboard-response","69","74736","0.0-11.0-3.19","60cd717e463162435e3b7d46","bdp_rwlrn","Tue Mar 14 2023 13:06:24 GMT-0600 (Central Standard Time)","266003","Untrustworthy,Trustworthy","","null","","","","feedback","","<div class='respPicDiv'><img src='img/responseButtonOffersNo0_wht.png' class='respPic'></div><div class='trialDiv'><img src='Fruit/pears.png'><br><font class='baseline'><strong>Pears Aplenty</strong><p><strong><font class='negOutcome'>You LOST</font><p>You bet: 5</strong></font> &nbsp; &nbsp; &nbsp; &nbsp; &nbsp; &nbsp;<font class='negOutcome'>You receive: <strong>0</strong></font></div>","null","7","Pears Aplenty","Fruit/pears.png","Lost","0.2,0.8","10","0.2","72","20","",""
"html-keyboard-response","70","75082","0.0-11.0-1.20","60cd717e463162435e3b7d46","bdp_rwlrn","Tue Mar 14 2023 13:06:24 GMT-0600 (Central Standard Time)","266003","Untrustworthy,Trustworthy","","345","","","","decision","","<div class='trialDiv'><img src='Fruit/grapes.png'><br><font class='baseline'><strong>Great Grapes</strong><p>Choose number of points to bet.</font><div class='respPicDiv'><img src='img/responseButtonOffersNo0L.png' class='respPic'></div></div>","2","7","Great Grapes","Fruit/grapes.png","Won","0.65,0.2","10","0.65","77","21","",""
"html-keyboard-response","71","75334","0.0-11.0-2.20","60cd717e463162435e3b7d46","bdp_rwlrn","Tue Mar 14 2023 13:06:24 GMT-0600 (Central Standard Time)","266003","Untrustworthy,Trustworthy","","null","","","","decisionFB","","<div class='trialDiv'><img src='Fruit/grapes.png'><br><font class='baseline'><strong>Great Grapes</strong><p>Choose number of points to bet.</font><div class='respPicDiv'><img src='img/responseButtonOffersNo0L2.png' class='respPic'></div></div>","null","7","Great Grapes","Fruit/grapes.png","Won","0.65,0.2","10","0.65","75","21","",""
"html-keyboard-response","72","76336","0.0-11.0-3.20","60cd717e463162435e3b7d46","bdp_rwlrn","Tue Mar 14 2023 13:06:24 GMT-0600 (Central Standard Time)","266003","Untrustworthy,Trustworthy","","null","","","","feedback","","<div class='respPicDiv'><img src='img/responseButtonOffersNo0_wht.png' class='respPic'></div><div class='trialDiv'><img src='Fruit/grapes.png'><br><font class='baseline'><strong>Great Grapes</strong><p><strong><font class='posOutcome'>You WON</font><p>You bet: 2</strong></font> &nbsp; &nbsp; &nbsp; &nbsp; &nbsp; &nbsp;<font class='posOutcome'>you receive: <strong>4</strong></font></div>","null","7","Great Grapes","Fruit/grapes.png","Won","0.65,0.2","10","0.65","79","21","",""
"html-keyboard-response","73","76362","0.0-11.0-1.21","60cd717e463162435e3b7d46","bdp_rwlrn","Tue Mar 14 2023 13:06:24 GMT-0600 (Central Standard Time)","266003","Untrustworthy,Trustworthy","","25","","","","decision","","<div class='trialDiv'><img src='Fruit/apple.png'><br><font class='baseline'><strong>Awesome Apples</strong><p>Choose number of points to bet.</font><div class='respPicDiv'><img src='img/responseButtonOffersNo0L.png' class='respPic'></div></div>","1","8","Awesome Apples","Fruit/apple.png","Lost","0.2,0.65","14","0.2","84","22","",""
"html-keyboard-response","74","76616","0.0-11.0-2.21","60cd717e463162435e3b7d46","bdp_rwlrn","Tue Mar 14 2023 13:06:24 GMT-0600 (Central Standard Time)","266003","Untrustworthy,Trustworthy","","null","","","","decisionFB","","<div class='trialDiv'><img src='Fruit/apple.png'><br><font class='baseline'><strong>Awesome Apples</strong><p>Choose number of points to bet.</font><div class='respPicDiv'><img src='img/responseButtonOffersNo0L1.png' class='respPic'></div></div>","null","8","Awesome Apples","Fruit/apple.png","Lost","0.2,0.65","14","0.2","83","22","",""
"html-keyboard-response","75","77618","0.0-11.0-3.21","60cd717e463162435e3b7d46","bdp_rwlrn","Tue Mar 14 2023 13:06:24 GMT-0600 (Central Standard Time)","266003","Untrustworthy,Trustworthy","","null","","","","feedback","","<div class='respPicDiv'><img src='img/responseButtonOffersNo0_wht.png' class='respPic'></div><div class='trialDiv'><img src='Fruit/apple.png'><br><font class='baseline'><strong>Awesome Apples</strong><p><strong><font class='negOutcome'>You LOST</font><p>You bet: 1</strong></font> &nbsp; &nbsp; &nbsp; &nbsp; &nbsp; &nbsp;<font class='negOutcome'>You receive: <strong>0</strong></font></div>","null","8","Awesome Apples","Fruit/apple.png","Lost","0.2,0.65","14","0.2","83","22","",""
"html-keyboard-response","76","77898","0.0-11.0-1.22","60cd717e463162435e3b7d46","bdp_rwlrn","Tue Mar 14 2023 13:06:24 GMT-0600 (Central Standard Time)","266003","Untrustworthy,Trustworthy","","279","","","","decision","","<div class='trialDiv'><img src='Fruit/grapes.png'><br><font class='baseline'><strong>Great Grapes</strong><p>Choose number of points to bet.</font><div class='respPicDiv'><img src='img/responseButtonOffersNo0L.png' class='respPic'></div></div>","5","8","Great Grapes","Fruit/grapes.png","Won","0.65,0.2","10","0.65","88","23","",""
"html-keyboard-response","77","78150","0.0-11.0-2.22","60cd717e463162435e3b7d46","bdp_rwlrn","Tue Mar 14 2023 13:06:24 GMT-0600 (Central Standard Time)","266003","Untrustworthy,Trustworthy","","null","","","","decisionFB","","<div class='trialDiv'><img src='Fruit/grapes.png'><br><font class='baseline'><strong>Great Grapes</strong><p>Choose number of points to bet.</font><div class='respPicDiv'><img src='img/responseButtonOffersNo0L5.png' class='respPic'></div></div>","null","8","Great Grapes","Fruit/grapes.png","Won","0.65,0.2","10","0.65","83","23","",""
"html-keyboard-response","78","79153","0.0-11.0-3.22","60cd717e463162435e3b7d46","bdp_rwlrn","Tue Mar 14 2023 13:06:24 GMT-0600 (Central Standard Time)","266003","Untrustworthy,Trustworthy","","null","","","","feedback","","<div class='respPicDiv'><img src='img/responseButtonOffersNo0_wht.png' class='respPic'></div><div class='trialDiv'><img src='Fruit/grapes.png'><br><font class='baseline'><strong>Great Grapes</strong><p><strong><font class='posOutcome'>You WON</font><p>You bet: 5</strong></font> &nbsp; &nbsp; &nbsp; &nbsp; &nbsp; &nbsp;<font class='posOutcome'>you receive: <strong>10</strong></font></div>","null","8","Great Grapes","Fruit/grapes.png","Won","0.65,0.2","10","0.65","93","23","",""
"html-keyboard-response","79","79458","0.0-11.0-1.23","60cd717e463162435e3b7d46","bdp_rwlrn","Tue Mar 14 2023 13:06:24 GMT-0600 (Central Standard Time)","266003","Untrustworthy,Trustworthy","","304","","","","decision","","<div class='trialDiv'><img src='Fruit/pears.png'><br><font class='baseline'><strong>Pears Aplenty</strong><p>Choose number of points to bet.</font><div class='respPicDiv'><img src='img/responseButtonOffersNo0L.png' class='respPic'></div></div>","4","8","Pears Aplenty","Fruit/pears.png","Lost","0.2,0.8","10","0.2","98","24","",""
"html-keyboard-response","80","79711","0.0-11.0-2.23","60cd717e463162435e3b7d46","bdp_rwlrn","Tue Mar 14 2023 13:06:24 GMT-0600 (Central Standard Time)","266003","Untrustworthy,Trustworthy","","null","","","","decisionFB","","<div class='trialDiv'><img src='Fruit/pears.png'><br><font class='baseline'><strong>Pears Aplenty</strong><p>Choose number of points to bet.</font><div class='respPicDiv'><img src='img/responseButtonOffersNo0L4.png' class='respPic'></div></div>","null","8","Pears Aplenty","Fruit/pears.png","Lost","0.2,0.8","10","0.2","94","24","",""
"html-keyboard-response","81","80713","0.0-11.0-3.23","60cd717e463162435e3b7d46","bdp_rwlrn","Tue Mar 14 2023 13:06:24 GMT-0600 (Central Standard Time)","266003","Untrustworthy,Trustworthy","","null","","","","feedback","","<div class='respPicDiv'><img src='img/responseButtonOffersNo0_wht.png' class='respPic'></div><div class='trialDiv'><img src='Fruit/pears.png'><br><font class='baseline'><strong>Pears Aplenty</strong><p><strong><font class='negOutcome'>You LOST</font><p>You bet: 4</strong></font> &nbsp; &nbsp; &nbsp; &nbsp; &nbsp; &nbsp;<font class='negOutcome'>You receive: <strong>0</strong></font></div>","null","8","Pears Aplenty","Fruit/pears.png","Lost","0.2,0.8","10","0.2","94","24","",""
"html-keyboard-response","82","80964","0.0-11.0-1.24","60cd717e463162435e3b7d46","bdp_rwlrn","Tue Mar 14 2023 13:06:24 GMT-0600 (Central Standard Time)","266003","Untrustworthy,Trustworthy","","249","","","","decision","","<div class='trialDiv'><img src='Fruit/apple.png'><br><font class='baseline'><strong>Awesome Apples</strong><p>Choose number of points to bet.</font><div class='respPicDiv'><img src='img/responseButtonOffersNo0L.png' class='respPic'></div></div>","2","9","Awesome Apples","Fruit/apple.png","Lost","0.2,0.65","14","0.2","99","25","",""
"html-keyboard-response","83","81216","0.0-11.0-2.24","60cd717e463162435e3b7d46","bdp_rwlrn","Tue Mar 14 2023 13:06:24 GMT-0600 (Central Standard Time)","266003","Untrustworthy,Trustworthy","","null","","","","decisionFB","","<div class='trialDiv'><img src='Fruit/apple.png'><br><font class='baseline'><strong>Awesome Apples</strong><p>Choose number of points to bet.</font><div class='respPicDiv'><img src='img/responseButtonOffersNo0L2.png' class='respPic'></div></div>","null","9","Awesome Apples","Fruit/apple.png","Lost","0.2,0.65","14","0.2","97","25","",""
"html-keyboard-response","84","82218","0.0-11.0-3.24","60cd717e463162435e3b7d46","bdp_rwlrn","Tue Mar 14 2023 13:06:24 GMT-0600 (Central Standard Time)","266003","Untrustworthy,Trustworthy","","null","","","","feedback","","<div class='respPicDiv'><img src='img/responseButtonOffersNo0_wht.png' class='respPic'></div><div class='trialDiv'><img src='Fruit/apple.png'><br><font class='baseline'><strong>Awesome Apples</strong><p><strong><font class='negOutcome'>You LOST</font><p>You bet: 2</strong></font> &nbsp; &nbsp; &nbsp; &nbsp; &nbsp; &nbsp;<font class='negOutcome'>You receive: <strong>0</strong></font></div>","null","9","Awesome Apples","Fruit/apple.png","Lost","0.2,0.65","14","0.2","97","25","",""
"html-keyboard-response","85","82499","0.0-11.0-1.25","60cd717e463162435e3b7d46","bdp_rwlrn","Tue Mar 14 2023 13:06:24 GMT-0600 (Central Standard Time)","266003","Untrustworthy,Trustworthy","","279","","","","decision","","<div class='trialDiv'><img src='Fruit/grapes.png'><br><font class='baseline'><strong>Great Grapes</strong><p>Choose number of points to bet.</font><div class='respPicDiv'><img src='img/responseButtonOffersNo0L.png' class='respPic'></div></div>","4","9","Great Grapes","Fruit/grapes.png","Won","0.65,0.2","10","0.65","102","26","",""
"html-keyboard-response","86","82751","0.0-11.0-2.25","60cd717e463162435e3b7d46","bdp_rwlrn","Tue Mar 14 2023 13:06:24 GMT-0600 (Central Standard Time)","266003","Untrustworthy,Trustworthy","","null","","","","decisionFB","","<div class='trialDiv'><img src='Fruit/grapes.png'><br><font class='baseline'><strong>Great Grapes</strong><p>Choose number of points to bet.</font><div class='respPicDiv'><img src='img/responseButtonOffersNo0L4.png' class='respPic'></div></div>","null","9","Great Grapes","Fruit/grapes.png","Won","0.65,0.2","10","0.65","98","26","",""
"html-keyboard-response","87","83753","0.0-11.0-3.25","60cd717e463162435e3b7d46","bdp_rwlrn","Tue Mar 14 2023 13:06:24 GMT-0600 (Central Standard Time)","266003","Untrustworthy,Trustworthy","","null","","","","feedback","","<div class='respPicDiv'><img src='img/responseButtonOffersNo0_wht.png' class='respPic'></div><div class='trialDiv'><img src='Fruit/grapes.png'><br><font class='baseline'><strong>Great Grapes</strong><p><strong><font class='posOutcome'>You WON</font><p>You bet: 4</strong></font> &nbsp; &nbsp; &nbsp; &nbsp; &nbsp; &nbsp;<font class='posOutcome'>you receive: <strong>8</strong></font></div>","null","9","Great Grapes","Fruit/grapes.png","Won","0.65,0.2","10","0.65","106","26","",""
"html-keyboard-response","88","83770","0.0-11.0-1.26","60cd717e463162435e3b7d46","bdp_rwlrn","Tue Mar 14 2023 13:06:24 GMT-0600 (Central Standard Time)","266003","Untrustworthy,Trustworthy","","15","","","","decision","","<div class='trialDiv'><img src='Fruit/pears.png'><br><font class='baseline'><strong>Pears Aplenty</strong><p>Choose number of points to bet.</font><div class='respPicDiv'><img src='img/responseButtonOffersNo0L.png' class='respPic'></div></div>","5","9","Pears Aplenty","Fruit/pears.png","Lost","0.2,0.8","10","0.2","111","27","",""
"html-keyboard-response","89","84021","0.0-11.0-2.26","60cd717e463162435e3b7d46","bdp_rwlrn","Tue Mar 14 2023 13:06:24 GMT-0600 (Central Standard Time)","266003","Untrustworthy,Trustworthy","","null","","","","decisionFB","","<div class='trialDiv'><img src='Fruit/pears.png'><br><font class='baseline'><strong>Pears Aplenty</strong><p>Choose number of points to bet.</font><div class='respPicDiv'><img src='img/responseButtonOffersNo0L5.png' class='respPic'></div></div>","null","9","Pears Aplenty","Fruit/pears.png","Lost","0.2,0.8","10","0.2","106","27","",""
"html-keyboard-response","90","85023","0.0-11.0-3.26","60cd717e463162435e3b7d46","bdp_rwlrn","Tue Mar 14 2023 13:06:24 GMT-0600 (Central Standard Time)","266003","Untrustworthy,Trustworthy","","null","","","","feedback","","<div class='respPicDiv'><img src='img/responseButtonOffersNo0_wht.png' class='respPic'></div><div class='trialDiv'><img src='Fruit/pears.png'><br><font class='baseline'><strong>Pears Aplenty</strong><p><strong><font class='negOutcome'>You LOST</font><p>You bet: 5</strong></font> &nbsp; &nbsp; &nbsp; &nbsp; &nbsp; &nbsp;<font class='negOutcome'>You receive: <strong>0</strong></font></div>","null","9","Pears Aplenty","Fruit/pears.png","Lost","0.2,0.8","10","0.2","106","27","",""
"html-keyboard-response","91","85066","0.0-11.0-1.27","60cd717e463162435e3b7d46","bdp_rwlrn","Tue Mar 14 2023 13:06:24 GMT-0600 (Central Standard Time)","266003","Untrustworthy,Trustworthy","","41","","","","decision","","<div class='trialDiv'><img src='Fruit/grapes.png'><br><font class='baseline'><strong>Great Grapes</strong><p>Choose number of points to bet.</font><div class='respPicDiv'><img src='img/responseButtonOffersNo0L.png' class='respPic'></div></div>","2","10","Great Grapes","Fruit/grapes.png","Lost","0.65,0.2","10","0.65","111","28","",""
"html-keyboard-response","92","85318","0.0-11.0-2.27","60cd717e463162435e3b7d46","bdp_rwlrn","Tue Mar 14 2023 13:06:24 GMT-0600 (Central Standard Time)","266003","Untrustworthy,Trustworthy","","null","","","","decisionFB","","<div class='trialDiv'><img src='Fruit/grapes.png'><br><font class='baseline'><strong>Great Grapes</strong><p>Choose number of points to bet.</font><div class='respPicDiv'><img src='img/responseButtonOffersNo0L2.png' class='respPic'></div></div>","null","10","Great Grapes","Fruit/grapes.png","Lost","0.65,0.2","10","0.65","109","28","",""
"html-keyboard-response","93","86320","0.0-11.0-3.27","60cd717e463162435e3b7d46","bdp_rwlrn","Tue Mar 14 2023 13:06:24 GMT-0600 (Central Standard Time)","266003","Untrustworthy,Trustworthy","","null","","","","feedback","","<div class='respPicDiv'><img src='img/responseButtonOffersNo0_wht.png' class='respPic'></div><div class='trialDiv'><img src='Fruit/grapes.png'><br><font class='baseline'><strong>Great Grapes</strong><p><strong><font class='negOutcome'>You LOST</font><p>You bet: 2</strong></font> &nbsp; &nbsp; &nbsp; &nbsp; &nbsp; &nbsp;<font class='negOutcome'>You receive: <strong>0</strong></font></div>","null","10","Great Grapes","Fruit/grapes.png","Lost","0.65,0.2","10","0.65","109","28","",""
"html-keyboard-response","94","86522","0.0-11.0-1.28","60cd717e463162435e3b7d46","bdp_rwlrn","Tue Mar 14 2023 13:06:24 GMT-0600 (Central Standard Time)","266003","Untrustworthy,Trustworthy","","201","","","","decision","","<div class='trialDiv'><img src='Fruit/pears.png'><br><font class='baseline'><strong>Pears Aplenty</strong><p>Choose number of points to bet.</font><div class='respPicDiv'><img src='img/responseButtonOffersNo0L.png' class='respPic'></div></div>","2","10","Pears Aplenty","Fruit/pears.png","Won","0.2,0.8","10","0.2","114","29","",""
"html-keyboard-response","95","86775","0.0-11.0-2.28","60cd717e463162435e3b7d46","bdp_rwlrn","Tue Mar 14 2023 13:06:24 GMT-0600 (Central Standard Time)","266003","Untrustworthy,Trustworthy","","null","","","","decisionFB","","<div class='trialDiv'><img src='Fruit/pears.png'><br><font class='baseline'><strong>Pears Aplenty</strong><p>Choose number of points to bet.</font><div class='respPicDiv'><img src='img/responseButtonOffersNo0L2.png' class='respPic'></div></div>","null","10","Pears Aplenty","Fruit/pears.png","Won","0.2,0.8","10","0.2","112","29","",""
"html-keyboard-response","96","87777","0.0-11.0-3.28","60cd717e463162435e3b7d46","bdp_rwlrn","Tue Mar 14 2023 13:06:24 GMT-0600 (Central Standard Time)","266003","Untrustworthy,Trustworthy","","null","","","","feedback","","<div class='respPicDiv'><img src='img/responseButtonOffersNo0_wht.png' class='respPic'></div><div class='trialDiv'><img src='Fruit/pears.png'><br><font class='baseline'><strong>Pears Aplenty</strong><p><strong><font class='posOutcome'>You WON</font><p>You bet: 2</strong></font> &nbsp; &nbsp; &nbsp; &nbsp; &nbsp; &nbsp;<font class='posOutcome'>you receive: <strong>4</strong></font></div>","null","10","Pears Aplenty","Fruit/pears.png","Won","0.2,0.8","10","0.2","116","29","",""
"html-keyboard-response","97","87954","0.0-11.0-1.29","60cd717e463162435e3b7d46","bdp_rwlrn","Tue Mar 14 2023 13:06:24 GMT-0600 (Central Standard Time)","266003","Untrustworthy,Trustworthy","","176","","","","decision","","<div class='trialDiv'><img src='Fruit/apple.png'><br><font class='baseline'><strong>Awesome Apples</strong><p>Choose number of points to bet.</font><div class='respPicDiv'><img src='img/responseButtonOffersNo0L.png' class='respPic'></div></div>","3","10","Awesome Apples","Fruit/apple.png","Lost","0.2,0.65","14","0.2","121","30","",""
"html-keyboard-response","98","88206","0.0-11.0-2.29","60cd717e463162435e3b7d46","bdp_rwlrn","Tue Mar 14 2023 13:06:24 GMT-0600 (Central Standard Time)","266003","Untrustworthy,Trustworthy","","null","","","","decisionFB","","<div class='trialDiv'><img src='Fruit/apple.png'><br><font class='baseline'><strong>Awesome Apples</strong><p>Choose number of points to bet.</font><div class='respPicDiv'><img src='img/responseButtonOffersNo0L3.png' class='respPic'></div></div>","null","10","Awesome Apples","Fruit/apple.png","Lost","0.2,0.65","14","0.2","118","30","",""
"html-keyboard-response","99","89208","0.0-11.0-3.29","60cd717e463162435e3b7d46","bdp_rwlrn","Tue Mar 14 2023 13:06:24 GMT-0600 (Central Standard Time)","266003","Untrustworthy,Trustworthy","","null","","","","feedback","","<div class='respPicDiv'><img src='img/responseButtonOffersNo0_wht.png' class='respPic'></div><div class='trialDiv'><img src='Fruit/apple.png'><br><font class='baseline'><strong>Awesome Apples</strong><p><strong><font class='negOutcome'>You LOST</font><p>You bet: 3</strong></font> &nbsp; &nbsp; &nbsp; &nbsp; &nbsp; &nbsp;<font class='negOutcome'>You receive: <strong>0</strong></font></div>","null","10","Awesome Apples","Fruit/apple.png","Lost","0.2,0.65","14","0.2","118","30","",""
"html-keyboard-response","100","89586","0.0-11.0-1.30","60cd717e463162435e3b7d46","bdp_rwlrn","Tue Mar 14 2023 13:06:24 GMT-0600 (Central Standard Time)","266003","Untrustworthy,Trustworthy","","376","","","","decision","","<div class='trialDiv'><img src='Fruit/pears.png'><br><font class='baseline'><strong>Pears Aplenty</strong><p>Choose number of points to bet.</font><div class='respPicDiv'><img src='img/responseButtonOffersNo0L.png' class='respPic'></div></div>","2","11","Pears Aplenty","Fruit/pears.png","Won","0.2,0.8","10","0.2","123","31","",""
"html-keyboard-response","101","89838","0.0-11.0-2.30","60cd717e463162435e3b7d46","bdp_rwlrn","Tue Mar 14 2023 13:06:24 GMT-0600 (Central Standard Time)","266003","Untrustworthy,Trustworthy","","null","","","","decisionFB","","<div class='trialDiv'><img src='Fruit/pears.png'><br><font class='baseline'><strong>Pears Aplenty</strong><p>Choose number of points to bet.</font><div class='respPicDiv'><img src='img/responseButtonOffersNo0L2.png' class='respPic'></div></div>","null","11","Pears Aplenty","Fruit/pears.png","Won","0.2,0.8","10","0.2","121","31","",""
"html-keyboard-response","102","90840","0.0-11.0-3.30","60cd717e463162435e3b7d46","bdp_rwlrn","Tue Mar 14 2023 13:06:24 GMT-0600 (Central Standard Time)","266003","Untrustworthy,Trustworthy","","null","","","","feedback","","<div class='respPicDiv'><img src='img/responseButtonOffersNo0_wht.png' class='respPic'></div><div class='trialDiv'><img src='Fruit/pears.png'><br><font class='baseline'><strong>Pears Aplenty</strong><p><strong><font class='posOutcome'>You WON</font><p>You bet: 2</strong></font> &nbsp; &nbsp; &nbsp; &nbsp; &nbsp; &nbsp;<font class='posOutcome'>you receive: <strong>4</strong></font></div>","null","11","Pears Aplenty","Fruit/pears.png","Won","0.2,0.8","10","0.2","125","31","",""
"html-keyboard-response","103","91202","0.0-11.0-1.31","60cd717e463162435e3b7d46","bdp_rwlrn","Tue Mar 14 2023 13:06:24 GMT-0600 (Central Standard Time)","266003","Untrustworthy,Trustworthy","","361","","","","decision","","<div class='trialDiv'><img src='Fruit/grapes.png'><br><font class='baseline'><strong>Great Grapes</strong><p>Choose number of points to bet.</font><div class='respPicDiv'><img src='img/responseButtonOffersNo0L.png' class='respPic'></div></div>","5","11","Great Grapes","Fruit/grapes.png","Lost","0.65,0.2","10","0.65","130","32","",""
"html-keyboard-response","104","91455","0.0-11.0-2.31","60cd717e463162435e3b7d46","bdp_rwlrn","Tue Mar 14 2023 13:06:24 GMT-0600 (Central Standard Time)","266003","Untrustworthy,Trustworthy","","null","","","","decisionFB","","<div class='trialDiv'><img src='Fruit/grapes.png'><br><font class='baseline'><strong>Great Grapes</strong><p>Choose number of points to bet.</font><div class='respPicDiv'><img src='img/responseButtonOffersNo0L5.png' class='respPic'></div></div>","null","11","Great Grapes","Fruit/grapes.png","Lost","0.65,0.2","10","0.65","125","32","",""
"html-keyboard-response","105","92457","0.0-11.0-3.31","60cd717e463162435e3b7d46","bdp_rwlrn","Tue Mar 14 2023 13:06:24 GMT-0600 (Central Standard Time)","266003","Untrustworthy,Trustworthy","","null","","","","feedback","","<div class='respPicDiv'><img src='img/responseButtonOffersNo0_wht.png' class='respPic'></div><div class='trialDiv'><img src='Fruit/grapes.png'><br><font class='baseline'><strong>Great Grapes</strong><p><strong><font class='negOutcome'>You LOST</font><p>You bet: 5</strong></font> &nbsp; &nbsp; &nbsp; &nbsp; &nbsp; &nbsp;<font class='negOutcome'>You receive: <strong>0</strong></font></div>","null","11","Great Grapes","Fruit/grapes.png","Lost","0.65,0.2","10","0.65","125","32","",""
"html-keyboard-response","106","93010","0.0-11.0-1.32","60cd717e463162435e3b7d46","bdp_rwlrn","Tue Mar 14 2023 13:06:24 GMT-0600 (Central Standard Time)","266003","Untrustworthy,Trustworthy","","551","","","","decision","","<div class='trialDiv'><img src='Fruit/apple.png'><br><font class='baseline'><strong>Awesome Apples</strong><p>Choose number of points to bet.</font><div class='respPicDiv'><img src='img/responseButtonOffersNo0L.png' class='respPic'></div></div>","4","11","Awesome Apples","Fruit/apple.png","Lost","0.2,0.65","14","0.2","130","33","",""
"html-keyboard-response","107","93262","0.0-11.0-2.32","60cd717e463162435e3b7d46","bdp_rwlrn","Tue Mar 14 2023 13:06:24 GMT-0600 (Central Standard Time)","266003","Untrustworthy,Trustworthy","","null","","","","decisionFB","","<div class='trialDiv'><img src='Fruit/apple.png'><br><font class='baseline'><strong>Awesome Apples</strong><p>Choose number of points to bet.</font><div class='respPicDiv'><img src='img/responseButtonOffersNo0L4.png' class='respPic'></div></div>","null","11","Awesome Apples","Fruit/apple.png","Lost","0.2,0.65","14","0.2","126","33","",""
"html-keyboard-response","108","94265","0.0-11.0-3.32","60cd717e463162435e3b7d46","bdp_rwlrn","Tue Mar 14 2023 13:06:24 GMT-0600 (Central Standard Time)","266003","Untrustworthy,Trustworthy","","null","","","","feedback","","<div class='respPicDiv'><img src='img/responseButtonOffersNo0_wht.png' class='respPic'></div><div class='trialDiv'><img src='Fruit/apple.png'><br><font class='baseline'><strong>Awesome Apples</strong><p><strong><font class='negOutcome'>You LOST</font><p>You bet: 4</strong></font> &nbsp; &nbsp; &nbsp; &nbsp; &nbsp; &nbsp;<font class='negOutcome'>You receive: <strong>0</strong></font></div>","null","11","Awesome Apples","Fruit/apple.png","Lost","0.2,0.65","14","0.2","126","33","",""
"html-keyboard-response","109","94706","0.0-11.0-1.33","60cd717e463162435e3b7d46","bdp_rwlrn","Tue Mar 14 2023 13:06:24 GMT-0600 (Central Standard Time)","266003","Untrustworthy,Trustworthy","","440","","","","decision","","<div class='trialDiv'><img src='Fruit/grapes.png'><br><font class='baseline'><strong>Great Grapes</strong><p>Choose number of points to bet.</font><div class='respPicDiv'><img src='img/responseButtonOffersNo0L.png' class='respPic'></div></div>","2","12","Great Grapes","Fruit/grapes.png","Lost","0.65,0.2","10","0.65","131","34","",""
"html-keyboard-response","110","94958","0.0-11.0-2.33","60cd717e463162435e3b7d46","bdp_rwlrn","Tue Mar 14 2023 13:06:24 GMT-0600 (Central Standard Time)","266003","Untrustworthy,Trustworthy","","null","","","","decisionFB","","<div class='trialDiv'><img src='Fruit/grapes.png'><br><font class='baseline'><strong>Great Grapes</strong><p>Choose number of points to bet.</font><div class='respPicDiv'><img src='img/responseButtonOffersNo0L2.png' class='respPic'></div></div>","null","12","Great Grapes","Fruit/grapes.png","Lost","0.65,0.2","10","0.65","129","34","",""
"html-keyboard-response","111","95961","0.0-11.0-3.33","60cd717e463162435e3b7d46","bdp_rwlrn","Tue Mar 14 2023 13:06:24 GMT-0600 (Central Standard Time)","266003","Untrustworthy,Trustworthy","","null","","","","feedback","","<div class='respPicDiv'><img src='img/responseButtonOffersNo0_wht.png' class='respPic'></div><div class='trialDiv'><img src='Fruit/grapes.png'><br><font class='baseline'><strong>Great Grapes</strong><p><strong><font class='negOutcome'>You LOST</font><p>You bet: 2</strong></font> &nbsp; &nbsp; &nbsp; &nbsp; &nbsp; &nbsp;<font class='negOutcome'>You receive: <strong>0</strong></font></div>","null","12","Great Grapes","Fruit/grapes.png","Lost","0.65,0.2","10","0.65","129","34","",""
"html-keyboard-response","112","96570","0.0-11.0-1.34","60cd717e463162435e3b7d46","bdp_rwlrn","Tue Mar 14 2023 13:06:24 GMT-0600 (Central Standard Time)","266003","Untrustworthy,Trustworthy","","607","","","","decision","","<div class='trialDiv'><img src='Fruit/pears.png'><br><font class='baseline'><strong>Pears Aplenty</strong><p>Choose number of points to bet.</font><div class='respPicDiv'><img src='img/responseButtonOffersNo0L.png' class='respPic'></div></div>","3","12","Pears Aplenty","Fruit/pears.png","Won","0.2,0.8","10","0.2","134","35","",""
"html-keyboard-response","113","96822","0.0-11.0-2.34","60cd717e463162435e3b7d46","bdp_rwlrn","Tue Mar 14 2023 13:06:24 GMT-0600 (Central Standard Time)","266003","Untrustworthy,Trustworthy","","null","","","","decisionFB","","<div class='trialDiv'><img src='Fruit/pears.png'><br><font class='baseline'><strong>Pears Aplenty</strong><p>Choose number of points to bet.</font><div class='respPicDiv'><img src='img/responseButtonOffersNo0L3.png' class='respPic'></div></div>","null","12","Pears Aplenty","Fruit/pears.png","Won","0.2,0.8","10","0.2","131","35","",""
"html-keyboard-response","114","97825","0.0-11.0-3.34","60cd717e463162435e3b7d46","bdp_rwlrn","Tue Mar 14 2023 13:06:24 GMT-0600 (Central Standard Time)","266003","Untrustworthy,Trustworthy","","null","","","","feedback","","<div class='respPicDiv'><img src='img/responseButtonOffersNo0_wht.png' class='respPic'></div><div class='trialDiv'><img src='Fruit/pears.png'><br><font class='baseline'><strong>Pears Aplenty</strong><p><strong><font class='posOutcome'>You WON</font><p>You bet: 3</strong></font> &nbsp; &nbsp; &nbsp; &nbsp; &nbsp; &nbsp;<font class='posOutcome'>you receive: <strong>6</strong></font></div>","null","12","Pears Aplenty","Fruit/pears.png","Won","0.2,0.8","10","0.2","137","35","",""
"html-keyboard-response","115","98082","0.0-11.0-1.35","60cd717e463162435e3b7d46","bdp_rwlrn","Tue Mar 14 2023 13:06:24 GMT-0600 (Central Standard Time)","266003","Untrustworthy,Trustworthy","","256","","","","decision","","<div class='trialDiv'><img src='Fruit/apple.png'><br><font class='baseline'><strong>Awesome Apples</strong><p>Choose number of points to bet.</font><div class='respPicDiv'><img src='img/responseButtonOffersNo0L.png' class='respPic'></div></div>","3","12","Awesome Apples","Fruit/apple.png","Lost","0.2,0.65","14","0.2","142","36","",""
"html-keyboard-response","116","98333","0.0-11.0-2.35","60cd717e463162435e3b7d46","bdp_rwlrn","Tue Mar 14 2023 13:06:24 GMT-0600 (Central Standard Time)","266003","Untrustworthy,Trustworthy","","null","","","","decisionFB","","<div class='trialDiv'><img src='Fruit/apple.png'><br><font class='baseline'><strong>Awesome Apples</strong><p>Choose number of points to bet.</font><div class='respPicDiv'><img src='img/responseButtonOffersNo0L3.png' class='respPic'></div></div>","null","12","Awesome Apples","Fruit/apple.png","Lost","0.2,0.65","14","0.2","139","36","",""
"html-keyboard-response","117","99336","0.0-11.0-3.35","60cd717e463162435e3b7d46","bdp_rwlrn","Tue Mar 14 2023 13:06:24 GMT-0600 (Central Standard Time)","266003","Untrustworthy,Trustworthy","","null","","","","feedback","","<div class='respPicDiv'><img src='img/responseButtonOffersNo0_wht.png' class='respPic'></div><div class='trialDiv'><img src='Fruit/apple.png'><br><font class='baseline'><strong>Awesome Apples</strong><p><strong><font class='negOutcome'>You LOST</font><p>You bet: 3</strong></font> &nbsp; &nbsp; &nbsp; &nbsp; &nbsp; &nbsp;<font class='negOutcome'>You receive: <strong>0</strong></font></div>","null","12","Awesome Apples","Fruit/apple.png","Lost","0.2,0.65","14","0.2","139","36","",""
"html-keyboard-response","118","99674","0.0-11.0-1.36","60cd717e463162435e3b7d46","bdp_rwlrn","Tue Mar 14 2023 13:06:24 GMT-0600 (Central Standard Time)","266003","Untrustworthy,Trustworthy","","337","","","","decision","","<div class='trialDiv'><img src='Fruit/pears.png'><br><font class='baseline'><strong>Pears Aplenty</strong><p>Choose number of points to bet.</font><div class='respPicDiv'><img src='img/responseButtonOffersNo0L.png' class='respPic'></div></div>","5","13","Pears Aplenty","Fruit/pears.png","Won","0.2,0.8","10","0.2","144","37","",""
"html-keyboard-response","119","99928","0.0-11.0-2.36","60cd717e463162435e3b7d46","bdp_rwlrn","Tue Mar 14 2023 13:06:24 GMT-0600 (Central Standard Time)","266003","Untrustworthy,Trustworthy","","null","","","","decisionFB","","<div class='trialDiv'><img src='Fruit/pears.png'><br><font class='baseline'><strong>Pears Aplenty</strong><p>Choose number of points to bet.</font><div class='respPicDiv'><img src='img/responseButtonOffersNo0L5.png' class='respPic'></div></div>","null","13","Pears Aplenty","Fruit/pears.png","Won","0.2,0.8","10","0.2","139","37","",""
"html-keyboard-response","120","100931","0.0-11.0-3.36","60cd717e463162435e3b7d46","bdp_rwlrn","Tue Mar 14 2023 13:06:24 GMT-0600 (Central Standard Time)","266003","Untrustworthy,Trustworthy","","null","","","","feedback","","<div class='respPicDiv'><img src='img/responseButtonOffersNo0_wht.png' class='respPic'></div><div class='trialDiv'><img src='Fruit/pears.png'><br><font class='baseline'><strong>Pears Aplenty</strong><p><strong><font class='posOutcome'>You WON</font><p>You bet: 5</strong></font> &nbsp; &nbsp; &nbsp; &nbsp; &nbsp; &nbsp;<font class='posOutcome'>you receive: <strong>10</strong></font></div>","null","13","Pears Aplenty","Fruit/pears.png","Won","0.2,0.8","10","0.2","149","37","",""
"html-keyboard-response","121","101170","0.0-11.0-1.37","60cd717e463162435e3b7d46","bdp_rwlrn","Tue Mar 14 2023 13:06:24 GMT-0600 (Central Standard Time)","266003","Untrustworthy,Trustworthy","","238","","","","decision","","<div class='trialDiv'><img src='Fruit/grapes.png'><br><font class='baseline'><strong>Great Grapes</strong><p>Choose number of points to bet.</font><div class='respPicDiv'><img src='img/responseButtonOffersNo0L.png' class='respPic'></div></div>","4","13","Great Grapes","Fruit/grapes.png","Lost","0.65,0.2","10","0.65","154","38","",""
"html-keyboard-response","122","101423","0.0-11.0-2.37","60cd717e463162435e3b7d46","bdp_rwlrn","Tue Mar 14 2023 13:06:24 GMT-0600 (Central Standard Time)","266003","Untrustworthy,Trustworthy","","null","","","","decisionFB","","<div class='trialDiv'><img src='Fruit/grapes.png'><br><font class='baseline'><strong>Great Grapes</strong><p>Choose number of points to bet.</font><div class='respPicDiv'><img src='img/responseButtonOffersNo0L4.png' class='respPic'></div></div>","null","13","Great Grapes","Fruit/grapes.png","Lost","0.65,0.2","10","0.65","150","38","",""
"html-keyboard-response","123","102436","0.0-11.0-3.37","60cd717e463162435e3b7d46","bdp_rwlrn","Tue Mar 14 2023 13:06:24 GMT-0600 (Central Standard Time)","266003","Untrustworthy,Trustworthy","","null","","","","feedback","","<div class='respPicDiv'><img src='img/responseButtonOffersNo0_wht.png' class='respPic'></div><div class='trialDiv'><img src='Fruit/grapes.png'><br><font class='baseline'><strong>Great Grapes</strong><p><strong><font class='negOutcome'>You LOST</font><p>You bet: 4</strong></font> &nbsp; &nbsp; &nbsp; &nbsp; &nbsp; &nbsp;<font class='negOutcome'>You receive: <strong>0</strong></font></div>","null","13","Great Grapes","Fruit/grapes.png","Lost","0.65,0.2","10","0.65","150","38","",""
"html-keyboard-response","124","102754","0.0-11.0-1.38","60cd717e463162435e3b7d46","bdp_rwlrn","Tue Mar 14 2023 13:06:24 GMT-0600 (Central Standard Time)","266003","Untrustworthy,Trustworthy","","316","","","","decision","","<div class='trialDiv'><img src='Fruit/apple.png'><br><font class='baseline'><strong>Awesome Apples</strong><p>Choose number of points to bet.</font><div class='respPicDiv'><img src='img/responseButtonOffersNo0L.png' class='respPic'></div></div>","4","13","Awesome Apples","Fruit/apple.png","Lost","0.2,0.65","14","0.2","155","39","",""
"html-keyboard-response","125","103007","0.0-11.0-2.38","60cd717e463162435e3b7d46","bdp_rwlrn","Tue Mar 14 2023 13:06:24 GMT-0600 (Central Standard Time)","266003","Untrustworthy,Trustworthy","","null","","","","decisionFB","","<div class='trialDiv'><img src='Fruit/apple.png'><br><font class='baseline'><strong>Awesome Apples</strong><p>Choose number of points to bet.</font><div class='respPicDiv'><img src='img/responseButtonOffersNo0L4.png' class='respPic'></div></div>","null","13","Awesome Apples","Fruit/apple.png","Lost","0.2,0.65","14","0.2","151","39","",""
"html-keyboard-response","126","104010","0.0-11.0-3.38","60cd717e463162435e3b7d46","bdp_rwlrn","Tue Mar 14 2023 13:06:24 GMT-0600 (Central Standard Time)","266003","Untrustworthy,Trustworthy","","null","","","","feedback","","<div class='respPicDiv'><img src='img/responseButtonOffersNo0_wht.png' class='respPic'></div><div class='trialDiv'><img src='Fruit/apple.png'><br><font class='baseline'><strong>Awesome Apples</strong><p><strong><font class='negOutcome'>You LOST</font><p>You bet: 4</strong></font> &nbsp; &nbsp; &nbsp; &nbsp; &nbsp; &nbsp;<font class='negOutcome'>You receive: <strong>0</strong></font></div>","null","13","Awesome Apples","Fruit/apple.png","Lost","0.2,0.65","14","0.2","151","39","",""
"html-keyboard-response","127","104499","0.0-11.0-1.39","60cd717e463162435e3b7d46","bdp_rwlrn","Tue Mar 14 2023 13:06:24 GMT-0600 (Central Standard Time)","266003","Untrustworthy,Trustworthy","","487","","","","decision","","<div class='trialDiv'><img src='Fruit/pears.png'><br><font class='baseline'><strong>Pears Aplenty</strong><p>Choose number of points to bet.</font><div class='respPicDiv'><img src='img/responseButtonOffersNo0L.png' class='respPic'></div></div>","3","14","Pears Aplenty","Fruit/pears.png","Won","0.2,0.8","10","0.2","156","40","",""
"html-keyboard-response","128","104750","0.0-11.0-2.39","60cd717e463162435e3b7d46","bdp_rwlrn","Tue Mar 14 2023 13:06:24 GMT-0600 (Central Standard Time)","266003","Untrustworthy,Trustworthy","","null","","","","decisionFB","","<div class='trialDiv'><img src='Fruit/pears.png'><br><font class='baseline'><strong>Pears Aplenty</strong><p>Choose number of points to bet.</font><div class='respPicDiv'><img src='img/responseButtonOffersNo0L3.png' class='respPic'></div></div>","null","14","Pears Aplenty","Fruit/pears.png","Won","0.2,0.8","10","0.2","153","40","",""
"html-keyboard-response","129","105754","0.0-11.0-3.39","60cd717e463162435e3b7d46","bdp_rwlrn","Tue Mar 14 2023 13:06:24 GMT-0600 (Central Standard Time)","266003","Untrustworthy,Trustworthy","","null","","","","feedback","","<div class='respPicDiv'><img src='img/responseButtonOffersNo0_wht.png' class='respPic'></div><div class='trialDiv'><img src='Fruit/pears.png'><br><font class='baseline'><strong>Pears Aplenty</strong><p><strong><font class='posOutcome'>You WON</font><p>You bet: 3</strong></font> &nbsp; &nbsp; &nbsp; &nbsp; &nbsp; &nbsp;<font class='posOutcome'>you receive: <strong>6</strong></font></div>","null","14","Pears Aplenty","Fruit/pears.png","Won","0.2,0.8","10","0.2","159","40","",""
"html-keyboard-response","130","105986","0.0-11.0-1.40","60cd717e463162435e3b7d46","bdp_rwlrn","Tue Mar 14 2023 13:06:24 GMT-0600 (Central Standard Time)","266003","Untrustworthy,Trustworthy","","231","","","","decision","","<div class='trialDiv'><img src='Fruit/grapes.png'><br><font class='baseline'><strong>Great Grapes</strong><p>Choose number of points to bet.</font><div class='respPicDiv'><img src='img/responseButtonOffersNo0L.png' class='respPic'></div></div>","3","14","Great Grapes","Fruit/grapes.png","Lost","0.65,0.2","10","0.65","164","41","",""
"html-keyboard-response","131","106238","0.0-11.0-2.40","60cd717e463162435e3b7d46","bdp_rwlrn","Tue Mar 14 2023 13:06:24 GMT-0600 (Central Standard Time)","266003","Untrustworthy,Trustworthy","","null","","","","decisionFB","","<div class='trialDiv'><img src='Fruit/grapes.png'><br><font class='baseline'><strong>Great Grapes</strong><p>Choose number of points to bet.</font><div class='respPicDiv'><img src='img/responseButtonOffersNo0L3.png' class='respPic'></div></div>","null","14","Great Grapes","Fruit/grapes.png","Lost","0.65,0.2","10","0.65","161","41","",""
"html-keyboard-response","132","107241","0.0-11.0-3.40","60cd717e463162435e3b7d46","bdp_rwlrn","Tue Mar 14 2023 13:06:24 GMT-0600 (Central Standard Time)","266003","Untrustworthy,Trustworthy","","null","","","","feedback","","<div class='respPicDiv'><img src='img/responseButtonOffersNo0_wht.png' class='respPic'></div><div class='trialDiv'><img src='Fruit/grapes.png'><br><font class='baseline'><strong>Great Grapes</strong><p><strong><font class='negOutcome'>You LOST</font><p>You bet: 3</strong></font> &nbsp; &nbsp; &nbsp; &nbsp; &nbsp; &nbsp;<font class='negOutcome'>You receive: <strong>0</strong></font></div>","null","14","Great Grapes","Fruit/grapes.png","Lost","0.65,0.2","10","0.65","161","41","",""
"html-keyboard-response","133","107554","0.0-11.0-1.41","60cd717e463162435e3b7d46","bdp_rwlrn","Tue Mar 14 2023 13:06:24 GMT-0600 (Central Standard Time)","266003","Untrustworthy,Trustworthy","","311","","","","decision","","<div class='trialDiv'><img src='Fruit/apple.png'><br><font class='baseline'><strong>Awesome Apples</strong><p>Choose number of points to bet.</font><div class='respPicDiv'><img src='img/responseButtonOffersNo0L.png' class='respPic'></div></div>","1","14","Awesome Apples","Fruit/apple.png","Lost","0.2,0.65","14","0.2","166","42","",""
"html-keyboard-response","134","107806","0.0-11.0-2.41","60cd717e463162435e3b7d46","bdp_rwlrn","Tue Mar 14 2023 13:06:24 GMT-0600 (Central Standard Time)","266003","Untrustworthy,Trustworthy","","null","","","","decisionFB","","<div class='trialDiv'><img src='Fruit/apple.png'><br><font class='baseline'><strong>Awesome Apples</strong><p>Choose number of points to bet.</font><div class='respPicDiv'><img src='img/responseButtonOffersNo0L1.png' class='respPic'></div></div>","null","14","Awesome Apples","Fruit/apple.png","Lost","0.2,0.65","14","0.2","165","42","",""
"html-keyboard-response","135","108808","0.0-11.0-3.41","60cd717e463162435e3b7d46","bdp_rwlrn","Tue Mar 14 2023 13:06:24 GMT-0600 (Central Standard Time)","266003","Untrustworthy,Trustworthy","","null","","","","feedback","","<div class='respPicDiv'><img src='img/responseButtonOffersNo0_wht.png' class='respPic'></div><div class='trialDiv'><img src='Fruit/apple.png'><br><font class='baseline'><strong>Awesome Apples</strong><p><strong><font class='negOutcome'>You LOST</font><p>You bet: 1</strong></font> &nbsp; &nbsp; &nbsp; &nbsp; &nbsp; &nbsp;<font class='negOutcome'>You receive: <strong>0</strong></font></div>","null","14","Awesome Apples","Fruit/apple.png","Lost","0.2,0.65","14","0.2","165","42","",""
"html-keyboard-response","136","109002","0.0-11.0-1.42","60cd717e463162435e3b7d46","bdp_rwlrn","Tue Mar 14 2023 13:06:24 GMT-0600 (Central Standard Time)","266003","Untrustworthy,Trustworthy","","193","","","","decision","","<div class='trialDiv'><img src='Fruit/pears.png'><br><font class='baseline'><strong>Pears Aplenty</strong><p>Choose number of points to bet.</font><div class='respPicDiv'><img src='img/responseButtonOffersNo0L.png' class='respPic'></div></div>","1","15","Pears Aplenty","Fruit/pears.png","Won","0.2,0.8","10","0.2","170","43","",""
"html-keyboard-response","137","109255","0.0-11.0-2.42","60cd717e463162435e3b7d46","bdp_rwlrn","Tue Mar 14 2023 13:06:24 GMT-0600 (Central Standard Time)","266003","Untrustworthy,Trustworthy","","null","","","","decisionFB","","<div class='trialDiv'><img src='Fruit/pears.png'><br><font class='baseline'><strong>Pears Aplenty</strong><p>Choose number of points to bet.</font><div class='respPicDiv'><img src='img/responseButtonOffersNo0L1.png' class='respPic'></div></div>","null","15","Pears Aplenty","Fruit/pears.png","Won","0.2,0.8","10","0.2","169","43","",""
"html-keyboard-response","138","110257","0.0-11.0-3.42","60cd717e463162435e3b7d46","bdp_rwlrn","Tue Mar 14 2023 13:06:24 GMT-0600 (Central Standard Time)","266003","Untrustworthy,Trustworthy","","null","","","","feedback","","<div class='respPicDiv'><img src='img/responseButtonOffersNo0_wht.png' class='respPic'></div><div class='trialDiv'><img src='Fruit/pears.png'><br><font class='baseline'><strong>Pears Aplenty</strong><p><strong><font class='posOutcome'>You WON</font><p>You bet: 1</strong></font> &nbsp; &nbsp; &nbsp; &nbsp; &nbsp; &nbsp;<font class='posOutcome'>you receive: <strong>2</strong></font></div>","null","15","Pears Aplenty","Fruit/pears.png","Won","0.2,0.8","10","0.2","171","43","",""
"html-keyboard-response","139","110402","0.0-11.0-1.43","60cd717e463162435e3b7d46","bdp_rwlrn","Tue Mar 14 2023 13:06:24 GMT-0600 (Central Standard Time)","266003","Untrustworthy,Trustworthy","","144","","","","decision","","<div class='trialDiv'><img src='Fruit/grapes.png'><br><font class='baseline'><strong>Great Grapes</strong><p>Choose number of points to bet.</font><div class='respPicDiv'><img src='img/responseButtonOffersNo0L.png' class='respPic'></div></div>","1","15","Great Grapes","Fruit/grapes.png","Won","0.65,0.2","10","0.65","176","44","",""
"html-keyboard-response","140","110654","0.0-11.0-2.43","60cd717e463162435e3b7d46","bdp_rwlrn","Tue Mar 14 2023 13:06:24 GMT-0600 (Central Standard Time)","266003","Untrustworthy,Trustworthy","","null","","","","decisionFB","","<div class='trialDiv'><img src='Fruit/grapes.png'><br><font class='baseline'><strong>Great Grapes</strong><p>Choose number of points to bet.</font><div class='respPicDiv'><img src='img/responseButtonOffersNo0L1.png' class='respPic'></div></div>","null","15","Great Grapes","Fruit/grapes.png","Won","0.65,0.2","10","0.65","175","44","",""
"html-keyboard-response","141","111657","0.0-11.0-3.43","60cd717e463162435e3b7d46","bdp_rwlrn","Tue Mar 14 2023 13:06:24 GMT-0600 (Central Standard Time)","266003","Untrustworthy,Trustworthy","","null","","","","feedback","","<div class='respPicDiv'><img src='img/responseButtonOffersNo0_wht.png' class='respPic'></div><div class='trialDiv'><img src='Fruit/grapes.png'><br><font class='baseline'><strong>Great Grapes</strong><p><strong><font class='posOutcome'>You WON</font><p>You bet: 1</strong></font> &nbsp; &nbsp; &nbsp; &nbsp; &nbsp; &nbsp;<font class='posOutcome'>you receive: <strong>2</strong></font></div>","null","15","Great Grapes","Fruit/grapes.png","Won","0.65,0.2","10","0.65","177","44","",""
"html-keyboard-response","142","111762","0.0-11.0-1.44","60cd717e463162435e3b7d46","bdp_rwlrn","Tue Mar 14 2023 13:06:24 GMT-0600 (Central Standard Time)","266003","Untrustworthy,Trustworthy","","104","","","","decision","","<div class='trialDiv'><img src='Fruit/apple.png'><br><font class='baseline'><strong>Awesome Apples</strong><p>Choose number of points to bet.</font><div class='respPicDiv'><img src='img/responseButtonOffersNo0L.png' class='respPic'></div></div>","1","15","Awesome Apples","Fruit/apple.png","Won","0.2,0.65","14","0.2","182","45","",""
"html-keyboard-response","143","112014","0.0-11.0-2.44","60cd717e463162435e3b7d46","bdp_rwlrn","Tue Mar 14 2023 13:06:24 GMT-0600 (Central Standard Time)","266003","Untrustworthy,Trustworthy","","null","","","","decisionFB","","<div class='trialDiv'><img src='Fruit/apple.png'><br><font class='baseline'><strong>Awesome Apples</strong><p>Choose number of points to bet.</font><div class='respPicDiv'><img src='img/responseButtonOffersNo0L1.png' class='respPic'></div></div>","null","15","Awesome Apples","Fruit/apple.png","Won","0.2,0.65","14","0.2","181","45","",""
"html-keyboard-response","144","113018","0.0-11.0-3.44","60cd717e463162435e3b7d46","bdp_rwlrn","Tue Mar 14 2023 13:06:24 GMT-0600 (Central Standard Time)","266003","Untrustworthy,Trustworthy","","null","","","","feedback","","<div class='respPicDiv'><img src='img/responseButtonOffersNo0_wht.png' class='respPic'></div><div class='trialDiv'><img src='Fruit/apple.png'><br><font class='baseline'><strong>Awesome Apples</strong><p><strong><font class='posOutcome'>You WON</font><p>You bet: 1</strong></font> &nbsp; &nbsp; &nbsp; &nbsp; &nbsp; &nbsp;<font class='posOutcome'>you receive: <strong>2</strong></font></div>","null","15","Awesome Apples","Fruit/apple.png","Won","0.2,0.65","14","0.2","183","45","",""
"html-keyboard-response","145","113163","0.0-11.0-1.45","60cd717e463162435e3b7d46","bdp_rwlrn","Tue Mar 14 2023 13:06:24 GMT-0600 (Central Standard Time)","266003","Untrustworthy,Trustworthy","","143","","","","decision","","<div class='trialDiv'><img src='Fruit/grapes.png'><br><font class='baseline'><strong>Great Grapes</strong><p>Choose number of points to bet.</font><div class='respPicDiv'><img src='img/responseButtonOffersNo0L.png' class='respPic'></div></div>","1","16","Great Grapes","Fruit/grapes.png","Won","0.65,0.2","10","0.65","188","46","",""
"html-keyboard-response","146","113414","0.0-11.0-2.45","60cd717e463162435e3b7d46","bdp_rwlrn","Tue Mar 14 2023 13:06:24 GMT-0600 (Central Standard Time)","266003","Untrustworthy,Trustworthy","","null","","","","decisionFB","","<div class='trialDiv'><img src='Fruit/grapes.png'><br><font class='baseline'><strong>Great Grapes</strong><p>Choose number of points to bet.</font><div class='respPicDiv'><img src='img/responseButtonOffersNo0L1.png' class='respPic'></div></div>","null","16","Great Grapes","Fruit/grapes.png","Won","0.65,0.2","10","0.65","187","46","",""
"html-keyboard-response","147","114416","0.0-11.0-3.45","60cd717e463162435e3b7d46","bdp_rwlrn","Tue Mar 14 2023 13:06:24 GMT-0600 (Central Standard Time)","266003","Untrustworthy,Trustworthy","","null","","","","feedback","","<div class='respPicDiv'><img src='img/responseButtonOffersNo0_wht.png' class='respPic'></div><div class='trialDiv'><img src='Fruit/grapes.png'><br><font class='baseline'><strong>Great Grapes</strong><p><strong><font class='posOutcome'>You WON</font><p>You bet: 1</strong></font> &nbsp; &nbsp; &nbsp; &nbsp; &nbsp; &nbsp;<font class='posOutcome'>you receive: <strong>2</strong></font></div>","null","16","Great Grapes","Fruit/grapes.png","Won","0.65,0.2","10","0.65","189","46","",""
"html-keyboard-response","148","114666","0.0-11.0-1.46","60cd717e463162435e3b7d46","bdp_rwlrn","Tue Mar 14 2023 13:06:24 GMT-0600 (Central Standard Time)","266003","Untrustworthy,Trustworthy","","248","","","","decision","","<div class='trialDiv'><img src='Fruit/apple.png'><br><font class='baseline'><strong>Awesome Apples</strong><p>Choose number of points to bet.</font><div class='respPicDiv'><img src='img/responseButtonOffersNo0L.png' class='respPic'></div></div>","1","16","Awesome Apples","Fruit/apple.png","Won","0.2,0.65","14","0.2","194","47","",""
"html-keyboard-response","149","114918","0.0-11.0-2.46","60cd717e463162435e3b7d46","bdp_rwlrn","Tue Mar 14 2023 13:06:24 GMT-0600 (Central Standard Time)","266003","Untrustworthy,Trustworthy","","null","","","","decisionFB","","<div class='trialDiv'><img src='Fruit/apple.png'><br><font class='baseline'><strong>Awesome Apples</strong><p>Choose number of points to bet.</font><div class='respPicDiv'><img src='img/responseButtonOffersNo0L1.png' class='respPic'></div></div>","null","16","Awesome Apples","Fruit/apple.png","Won","0.2,0.65","14","0.2","193","47","",""
"html-keyboard-response","150","115921","0.0-11.0-3.46","60cd717e463162435e3b7d46","bdp_rwlrn","Tue Mar 14 2023 13:06:24 GMT-0600 (Central Standard Time)","266003","Untrustworthy,Trustworthy","","null","","","","feedback","","<div class='respPicDiv'><img src='img/responseButtonOffersNo0_wht.png' class='respPic'></div><div class='trialDiv'><img src='Fruit/apple.png'><br><font class='baseline'><strong>Awesome Apples</strong><p><strong><font class='posOutcome'>You WON</font><p>You bet: 1</strong></font> &nbsp; &nbsp; &nbsp; &nbsp; &nbsp; &nbsp;<font class='posOutcome'>you receive: <strong>2</strong></font></div>","null","16","Awesome Apples","Fruit/apple.png","Won","0.2,0.65","14","0.2","195","47","",""
"html-keyboard-response","151","116098","0.0-11.0-1.47","60cd717e463162435e3b7d46","bdp_rwlrn","Tue Mar 14 2023 13:06:24 GMT-0600 (Central Standard Time)","266003","Untrustworthy,Trustworthy","","177","","","","decision","","<div class='trialDiv'><img src='Fruit/pears.png'><br><font class='baseline'><strong>Pears Aplenty</strong><p>Choose number of points to bet.</font><div class='respPicDiv'><img src='img/responseButtonOffersNo0L.png' class='respPic'></div></div>","5","16","Pears Aplenty","Fruit/pears.png","Won","0.2,0.8","10","0.2","200","48","",""
"html-keyboard-response","152","116350","0.0-11.0-2.47","60cd717e463162435e3b7d46","bdp_rwlrn","Tue Mar 14 2023 13:06:24 GMT-0600 (Central Standard Time)","266003","Untrustworthy,Trustworthy","","null","","","","decisionFB","","<div class='trialDiv'><img src='Fruit/pears.png'><br><font class='baseline'><strong>Pears Aplenty</strong><p>Choose number of points to bet.</font><div class='respPicDiv'><img src='img/responseButtonOffersNo0L5.png' class='respPic'></div></div>","null","16","Pears Aplenty","Fruit/pears.png","Won","0.2,0.8","10","0.2","195","48","",""
"html-keyboard-response","153","117353","0.0-11.0-3.47","60cd717e463162435e3b7d46","bdp_rwlrn","Tue Mar 14 2023 13:06:24 GMT-0600 (Central Standard Time)","266003","Untrustworthy,Trustworthy","","null","","","","feedback","","<div class='respPicDiv'><img src='img/responseButtonOffersNo0_wht.png' class='respPic'></div><div class='trialDiv'><img src='Fruit/pears.png'><br><font class='baseline'><strong>Pears Aplenty</strong><p><strong><font class='posOutcome'>You WON</font><p>You bet: 5</strong></font> &nbsp; &nbsp; &nbsp; &nbsp; &nbsp; &nbsp;<font class='posOutcome'>you receive: <strong>10</strong></font></div>","null","16","Pears Aplenty","Fruit/pears.png","Won","0.2,0.8","10","0.2","205","48","",""
"html-keyboard-response","154","117555","0.0-11.0-1.48","60cd717e463162435e3b7d46","bdp_rwlrn","Tue Mar 14 2023 13:06:24 GMT-0600 (Central Standard Time)","266003","Untrustworthy,Trustworthy","","201","","","","decision","","<div class='trialDiv'><img src='Fruit/grapes.png'><br><font class='baseline'><strong>Great Grapes</strong><p>Choose number of points to bet.</font><div class='respPicDiv'><img src='img/responseButtonOffersNo0L.png' class='respPic'></div></div>","5","17","Great Grapes","Fruit/grapes.png","Lost","0.65,0.2","10","0.65","210","49","",""
"html-keyboard-response","155","117807","0.0-11.0-2.48","60cd717e463162435e3b7d46","bdp_rwlrn","Tue Mar 14 2023 13:06:24 GMT-0600 (Central Standard Time)","266003","Untrustworthy,Trustworthy","","null","","","","decisionFB","","<div class='trialDiv'><img src='Fruit/grapes.png'><br><font class='baseline'><strong>Great Grapes</strong><p>Choose number of points to bet.</font><div class='respPicDiv'><img src='img/responseButtonOffersNo0L5.png' class='respPic'></div></div>","null","17","Great Grapes","Fruit/grapes.png","Lost","0.65,0.2","10","0.65","205","49","",""
"html-keyboard-response","156","118809","0.0-11.0-3.48","60cd717e463162435e3b7d46","bdp_rwlrn","Tue Mar 14 2023 13:06:24 GMT-0600 (Central Standard Time)","266003","Untrustworthy,Trustworthy","","null","","","","feedback","","<div class='respPicDiv'><img src='img/responseButtonOffersNo0_wht.png' class='respPic'></div><div class='trialDiv'><img src='Fruit/grapes.png'><br><font class='baseline'><strong>Great Grapes</strong><p><strong><font class='negOutcome'>You LOST</font><p>You bet: 5</strong></font> &nbsp; &nbsp; &nbsp; &nbsp; &nbsp; &nbsp;<font class='negOutcome'>You receive: <strong>0</strong></font></div>","null","17","Great Grapes","Fruit/grapes.png","Lost","0.65,0.2","10","0.65","205","49","",""
"html-keyboard-response","157","118882","0.0-11.0-1.49","60cd717e463162435e3b7d46","bdp_rwlrn","Tue Mar 14 2023 13:06:24 GMT-0600 (Central Standard Time)","266003","Untrustworthy,Trustworthy","","72","","","","decision","","<div class='trialDiv'><img src='Fruit/pears.png'><br><font class='baseline'><strong>Pears Aplenty</strong><p>Choose number of points to bet.</font><div class='respPicDiv'><img src='img/responseButtonOffersNo0L.png' class='respPic'></div></div>","5","17","Pears Aplenty","Fruit/pears.png","Won","0.2,0.8","10","0.2","210","50","",""
"html-keyboard-response","158","119134","0.0-11.0-2.49","60cd717e463162435e3b7d46","bdp_rwlrn","Tue Mar 14 2023 13:06:24 GMT-0600 (Central Standard Time)","266003","Untrustworthy,Trustworthy","","null","","","","decisionFB","","<div class='trialDiv'><img src='Fruit/pears.png'><br><font class='baseline'><strong>Pears Aplenty</strong><p>Choose number of points to bet.</font><div class='respPicDiv'><img src='img/responseButtonOffersNo0L5.png' class='respPic'></div></div>","null","17","Pears Aplenty","Fruit/pears.png","Won","0.2,0.8","10","0.2","205","50","",""
"html-keyboard-response","159","120136","0.0-11.0-3.49","60cd717e463162435e3b7d46","bdp_rwlrn","Tue Mar 14 2023 13:06:24 GMT-0600 (Central Standard Time)","266003","Untrustworthy,Trustworthy","","null","","","","feedback","","<div class='respPicDiv'><img src='img/responseButtonOffersNo0_wht.png' class='respPic'></div><div class='trialDiv'><img src='Fruit/pears.png'><br><font class='baseline'><strong>Pears Aplenty</strong><p><strong><font class='posOutcome'>You WON</font><p>You bet: 5</strong></font> &nbsp; &nbsp; &nbsp; &nbsp; &nbsp; &nbsp;<font class='posOutcome'>you receive: <strong>10</strong></font></div>","null","17","Pears Aplenty","Fruit/pears.png","Won","0.2,0.8","10","0.2","215","50","",""
"html-keyboard-response","160","120482","0.0-11.0-1.50","60cd717e463162435e3b7d46","bdp_rwlrn","Tue Mar 14 2023 13:06:24 GMT-0600 (Central Standard Time)","266003","Untrustworthy,Trustworthy","","345","","","","decision","","<div class='trialDiv'><img src='Fruit/apple.png'><br><font class='baseline'><strong>Awesome Apples</strong><p>Choose number of points to bet.</font><div class='respPicDiv'><img src='img/responseButtonOffersNo0L.png' class='respPic'></div></div>","5","17","Awesome Apples","Fruit/apple.png","Won","0.2,0.65","14","0.2","220","51","",""
"html-keyboard-response","161","120735","0.0-11.0-2.50","60cd717e463162435e3b7d46","bdp_rwlrn","Tue Mar 14 2023 13:06:24 GMT-0600 (Central Standard Time)","266003","Untrustworthy,Trustworthy","","null","","","","decisionFB","","<div class='trialDiv'><img src='Fruit/apple.png'><br><font class='baseline'><strong>Awesome Apples</strong><p>Choose number of points to bet.</font><div class='respPicDiv'><img src='img/responseButtonOffersNo0L5.png' class='respPic'></div></div>","null","17","Awesome Apples","Fruit/apple.png","Won","0.2,0.65","14","0.2","215","51","",""
"html-keyboard-response","162","121737","0.0-11.0-3.50","60cd717e463162435e3b7d46","bdp_rwlrn","Tue Mar 14 2023 13:06:24 GMT-0600 (Central Standard Time)","266003","Untrustworthy,Trustworthy","","null","","","","feedback","","<div class='respPicDiv'><img src='img/responseButtonOffersNo0_wht.png' class='respPic'></div><div class='trialDiv'><img src='Fruit/apple.png'><br><font class='baseline'><strong>Awesome Apples</strong><p><strong><font class='posOutcome'>You WON</font><p>You bet: 5</strong></font> &nbsp; &nbsp; &nbsp; &nbsp; &nbsp; &nbsp;<font class='posOutcome'>you receive: <strong>10</strong></font></div>","null","17","Awesome Apples","Fruit/apple.png","Won","0.2,0.65","14","0.2","225","51","",""
"html-keyboard-response","163","121923","0.0-11.0-1.51","60cd717e463162435e3b7d46","bdp_rwlrn","Tue Mar 14 2023 13:06:24 GMT-0600 (Central Standard Time)","266003","Untrustworthy,Trustworthy","","184","","","","decision","","<div class='trialDiv'><img src='Fruit/pears.png'><br><font class='baseline'><strong>Pears Aplenty</strong><p>Choose number of points to bet.</font><div class='respPicDiv'><img src='img/responseButtonOffersNo0L.png' class='respPic'></div></div>","5","18","Pears Aplenty","Fruit/pears.png","Lost","0.2,0.8","10","0.2","230","52","",""
