"trial_type","trial_index","time_elapsed","internal_node_id","subject_id","task","startTime","totalTime","labels","view_history","rt","event","trial","time","trialtype","success","stimulus","key_press","ltround","name","fileID","outcome","lottotype","lottoswpt","lottocurrpshare","point_total","round","faceID","face"
"pavlovia","0","3","0.0-0.0","6105338a15c74e8435e95c71","bdp_rwlrn","Wed Mar 15 2023 15:39:05 GMT-0400 (Eastern Daylight Time)","370891","Trustworthy,Untrustworthy","","","","","","","","","","","","","","","","","","","",""
"instructions","1","3281","0.0-1.0","6105338a15c74e8435e95c71","bdp_rwlrn","Wed Mar 15 2023 15:39:05 GMT-0400 (Eastern Daylight Time)","370891","Trustworthy,Untrustworthy","[{""page_index"":0,""viewing_time"":3277}]","3277","","","","","","","","","","","","","","","","","",""
"","","","","6105338a15c74e8435e95c71","bdp_rwlrn","Wed Mar 15 2023 15:39:05 GMT-0400 (Eastern Daylight Time)","370891","Trustworthy,Untrustworthy","","","fullscreenenter","2","6008","fullscreenenter","","","","","","","","","","","","","",""
"fullscreen","2","7006","0.0-2.0","6105338a15c74e8435e95c71","bdp_rwlrn","Wed Mar 15 2023 15:39:05 GMT-0400 (Eastern Daylight Time)","370891","Trustworthy,Untrustworthy","","","","","","","true","","","","","","","","","","","","",""
"instructions","3","68802","0.0-4.0","6105338a15c74e8435e95c71","bdp_rwlrn","Wed Mar 15 2023 15:39:05 GMT-0400 (Eastern Daylight Time)","370891","Trustworthy,Untrustworthy","[{""page_index"":0,""viewing_time"":7292},{""page_index"":1,""viewing_time"":10095},{""page_index"":2,""viewing_time"":12825},{""page_index"":3,""viewing_time"":4492},{""page_index"":4,""viewing_time"":16935},{""page_index"":5,""viewing_time"":10155}]","61794","","","","","","","","","","","","","","","","","",""
"html-keyboard-response","4","73779","0.0-5.0","6105338a15c74e8435e95c71","bdp_rwlrn","Wed Mar 15 2023 15:39:05 GMT-0400 (Eastern Daylight Time)","370891","Trustworthy,Untrustworthy","","4974","","","","","","<div class='header' style='text-align:left; position: absolute; top: 5%; left: 5%;'><small>Task 1 of 5</small></div><div class='instruxDiv'><p><strong>1) What is the maximum number of points you can choose to bet on a lottery?</strong></p><p>a) 0</p><p>b) 1</p><p>c) 5</p>","C","","","","","","","","","","",""
"html-keyboard-response","5","75634","0.0-6.0","6105338a15c74e8435e95c71","bdp_rwlrn","Wed Mar 15 2023 15:39:05 GMT-0400 (Eastern Daylight Time)","370891","Trustworthy,Untrustworthy","","1751","","","","","","<div class='header' style='text-align:left; position: absolute; top: 5%; left: 5%;'><small>Task 1 of 5</small></div><div class='instruxDiv'><p><strong>1) What is the maximum number of points you can choose to bet on a lottery?</strong></p><p>a) 1</p><p>b) 1</p><p style='color:#00FF00'>c) 5</p><h3 style='color:#00FF00'>Correct!</h3><h3 class='center-content'>The correct response is c).</h3><h3 class='center-content'>The maximum number of points you can choose to bet on a lottery is 5 points.</h3><p><em>Press SPACEBAR to continue</em></p></div>"," ","","","","","","","","","","",""
"html-keyboard-response","6","81084","0.0-7.0","6105338a15c74e8435e95c71","bdp_rwlrn","Wed Mar 15 2023 15:39:05 GMT-0400 (Eastern Daylight Time)","370891","Trustworthy,Untrustworthy","","5340","","","","","","<div class='header' style='text-align:left; position: absolute; top: 5%; left: 5%;'><small>Task 1 of 5</small></div><div class='instruxDiv'><p><strong>2) How many points can you win each round?</strong></p><p>a) 10 points</p><p>b) Double what you bet</p><p>c) Quadruple what you bet</p>","B","","","","","","","","","","",""
"html-keyboard-response","7","82563","0.0-8.0","6105338a15c74e8435e95c71","bdp_rwlrn","Wed Mar 15 2023 15:39:05 GMT-0400 (Eastern Daylight Time)","370891","Trustworthy,Untrustworthy","","1371","","","","","","<div class='header' style='text-align:left; position: absolute; top: 5%; left: 5%;'><small>Task 1 of 5</small></div><div class='instruxDiv'><p><strong>2) How many points can you win each round?</strong></p><p>a) 10 points</p><p style='color:#00FF00'>b) Double what you bet</p><p>c) Quadruple what you bet</p><h3 style='color:#00FF00'>Correct!</h3><h3 class='center-content'>The correct response is b).</h3><h3 class='center-content'>You can win double the amount of points you bet.</h3><p><em>Press SPACEBAR to continue</em></p></div>"," ","","","","","","","","","","",""
"html-keyboard-response","8","87679","0.0-9.0","6105338a15c74e8435e95c71","bdp_rwlrn","Wed Mar 15 2023 15:39:05 GMT-0400 (Eastern Daylight Time)","370891","Trustworthy,Untrustworthy","","null","","","","","","<div class='header' style='text-align:left; position: absolute; top: 5%; left: 5%;'><small>Task 1 of 5</small></div><div class='instruxDiv'><p>Thank you for completing the quiz<p>These are the actual lotteries you will be playing in the next block:<p><div class='tc' align='center'><img class='introPic' src='Fruit/papayas.png'><br><strong>Papaya Payday</strong></div><div class='bl' align='center'><img class='introPic' src='Fruit/bananas.png'><br><strong>Banana Bonanza</strong></div><div class='br' align='center'><img class='introPic' src='Fruit/pineapple.png'><br><strong>Primo Pineapple</strong></div></div><p>Across <strong>66 rounds</strong> you will play each lottery <strong>22 times</strong> (in random order).<p style='align:center; color:white'><font <em>Press SPACEBAR to continue</em></p>","null","","","","","","","","","","",""
"instructions","9","93291","0.0-10.0","6105338a15c74e8435e95c71","bdp_rwlrn","Wed Mar 15 2023 15:39:05 GMT-0400 (Eastern Daylight Time)","370891","Trustworthy,Untrustworthy","[{""page_index"":0,""viewing_time"":2120},{""page_index"":1,""viewing_time"":3490}]","5611","","","","","","","","","","","","","","","","","",""
"html-keyboard-response","10","95741","0.0-11.0-1.0","6105338a15c74e8435e95c71","bdp_rwlrn","Wed Mar 15 2023 15:39:05 GMT-0400 (Eastern Daylight Time)","370891","Trustworthy,Untrustworthy","","2343","","","","decision","","<div class='trialDiv'><img src='Fruit/bananas.png'><br><font class='baseline'><strong>Banana Bonanza</strong><p>Choose number of points to bet.</font><div class='respPicDiv'><img src='img/responseButtonOffersNo0L.png' class='respPic'></div></div>","3","1","Banana Bonanza","Fruit/bananas.png","Won","0.35,0.8","14","0.35","5","1","",""
"html-keyboard-response","11","96007","0.0-11.0-2.0","6105338a15c74e8435e95c71","bdp_rwlrn","Wed Mar 15 2023 15:39:05 GMT-0400 (Eastern Daylight Time)","370891","Trustworthy,Untrustworthy","","null","","","","decisionFB","","<div class='trialDiv'><img src='Fruit/bananas.png'><br><font class='baseline'><strong>Banana Bonanza</strong><p>Choose number of points to bet.</font><div class='respPicDiv'><img src='img/responseButtonOffersNo0L3.png' class='respPic'></div></div>","null","1","Banana Bonanza","Fruit/bananas.png","Won","0.35,0.8","14","0.35","2","1","",""
"html-keyboard-response","12","97022","0.0-11.0-3.0","6105338a15c74e8435e95c71","bdp_rwlrn","Wed Mar 15 2023 15:39:05 GMT-0400 (Eastern Daylight Time)","370891","Trustworthy,Untrustworthy","","null","","","","feedback","","<div class='respPicDiv'><img src='img/responseButtonOffersNo0_wht.png' class='respPic'></div><div class='trialDiv'><img src='Fruit/bananas.png'><br><font class='baseline'><strong>Banana Bonanza</strong><p><strong><font class='posOutcome'>You WON</font><p>You bet: 3</strong></font> &nbsp; &nbsp; &nbsp; &nbsp; &nbsp; &nbsp;<font class='posOutcome'>you receive: <strong>6</strong></font></div>","null","1","Banana Bonanza","Fruit/bananas.png","Won","0.35,0.8","14","0.35","8","1","",""
"html-keyboard-response","13","99365","0.0-11.0-1.1","6105338a15c74e8435e95c71","bdp_rwlrn","Wed Mar 15 2023 15:39:05 GMT-0400 (Eastern Daylight Time)","370891","Trustworthy,Untrustworthy","","2342","","","","decision","","<div class='trialDiv'><img src='Fruit/pineapple.png'><br><font class='baseline'><strong>Primo Pineapple</strong><p>Choose number of points to bet.</font><div class='respPicDiv'><img src='img/responseButtonOffersNo0L.png' class='respPic'></div></div>","3","1","Primo Pineapple","Fruit/pineapple.png","Lost","0.35,0.65","8","0.35","13","2","",""
"html-keyboard-response","14","99631","0.0-11.0-2.1","6105338a15c74e8435e95c71","bdp_rwlrn","Wed Mar 15 2023 15:39:05 GMT-0400 (Eastern Daylight Time)","370891","Trustworthy,Untrustworthy","","null","","","","decisionFB","","<div class='trialDiv'><img src='Fruit/pineapple.png'><br><font class='baseline'><strong>Primo Pineapple</strong><p>Choose number of points to bet.</font><div class='respPicDiv'><img src='img/responseButtonOffersNo0L3.png' class='respPic'></div></div>","null","1","Primo Pineapple","Fruit/pineapple.png","Lost","0.35,0.65","8","0.35","10","2","",""
"html-keyboard-response","15","100635","0.0-11.0-3.1","6105338a15c74e8435e95c71","bdp_rwlrn","Wed Mar 15 2023 15:39:05 GMT-0400 (Eastern Daylight Time)","370891","Trustworthy,Untrustworthy","","null","","","","feedback","","<div class='respPicDiv'><img src='img/responseButtonOffersNo0_wht.png' class='respPic'></div><div class='trialDiv'><img src='Fruit/pineapple.png'><br><font class='baseline'><strong>Primo Pineapple</strong><p><strong><font class='negOutcome'>You LOST</font><p>You bet: 3</strong></font> &nbsp; &nbsp; &nbsp; &nbsp; &nbsp; &nbsp;<font class='negOutcome'>You receive: <strong>0</strong></font></div>","null","1","Primo Pineapple","Fruit/pineapple.png","Lost","0.35,0.65","8","0.35","10","2","",""
"html-keyboard-response","16","102059","0.0-11.0-1.2","6105338a15c74e8435e95c71","bdp_rwlrn","Wed Mar 15 2023 15:39:05 GMT-0400 (Eastern Daylight Time)","370891","Trustworthy,Untrustworthy","","1422","","","","decision","","<div class='trialDiv'><img src='Fruit/papayas.png'><br><font class='baseline'><strong>Papaya Payday</strong><p>Choose number of points to bet.</font><div class='respPicDiv'><img src='img/responseButtonOffersNo0L.png' class='respPic'></div></div>","3","1","Papaya Payday","Fruit/papayas.png","Won","0.65,0.2","11","0.65","15","3","",""
"html-keyboard-response","17","102315","0.0-11.0-2.2","6105338a15c74e8435e95c71","bdp_rwlrn","Wed Mar 15 2023 15:39:05 GMT-0400 (Eastern Daylight Time)","370891","Trustworthy,Untrustworthy","","null","","","","decisionFB","","<div class='trialDiv'><img src='Fruit/papayas.png'><br><font class='baseline'><strong>Papaya Payday</strong><p>Choose number of points to bet.</font><div class='respPicDiv'><img src='img/responseButtonOffersNo0L3.png' class='respPic'></div></div>","null","1","Papaya Payday","Fruit/papayas.png","Won","0.65,0.2","11","0.65","12","3","",""
"html-keyboard-response","18","103322","0.0-11.0-3.2","6105338a15c74e8435e95c71","bdp_rwlrn","Wed Mar 15 2023 15:39:05 GMT-0400 (Eastern Daylight Time)","370891","Trustworthy,Untrustworthy","","null","","","","feedback","","<div class='respPicDiv'><img src='img/responseButtonOffersNo0_wht.png' class='respPic'></div><div class='trialDiv'><img src='Fruit/papayas.png'><br><font class='baseline'><strong>Papaya Payday</strong><p><strong><font class='posOutcome'>You WON</font><p>You bet: 3</strong></font> &nbsp; &nbsp; &nbsp; &nbsp; &nbsp; &nbsp;<font class='posOutcome'>you receive: <strong>6</strong></font></div>","null","1","Papaya Payday","Fruit/papayas.png","Won","0.65,0.2","11","0.65","18","3","",""
"html-keyboard-response","19","104624","0.0-11.0-1.3","6105338a15c74e8435e95c71","bdp_rwlrn","Wed Mar 15 2023 15:39:05 GMT-0400 (Eastern Daylight Time)","370891","Trustworthy,Untrustworthy","","1299","","","","decision","","<div class='trialDiv'><img src='Fruit/bananas.png'><br><font class='baseline'><strong>Banana Bonanza</strong><p>Choose number of points to bet.</font><div class='respPicDiv'><img src='img/responseButtonOffersNo0L.png' class='respPic'></div></div>","4","2","Banana Bonanza","Fruit/bananas.png","Lost","0.35,0.8","14","0.35","23","4","",""
"html-keyboard-response","20","104883","0.0-11.0-2.3","6105338a15c74e8435e95c71","bdp_rwlrn","Wed Mar 15 2023 15:39:05 GMT-0400 (Eastern Daylight Time)","370891","Trustworthy,Untrustworthy","","null","","","","decisionFB","","<div class='trialDiv'><img src='Fruit/bananas.png'><br><font class='baseline'><strong>Banana Bonanza</strong><p>Choose number of points to bet.</font><div class='respPicDiv'><img src='img/responseButtonOffersNo0L4.png' class='respPic'></div></div>","null","2","Banana Bonanza","Fruit/bananas.png","Lost","0.35,0.8","14","0.35","19","4","",""
"html-keyboard-response","21","105894","0.0-11.0-3.3","6105338a15c74e8435e95c71","bdp_rwlrn","Wed Mar 15 2023 15:39:05 GMT-0400 (Eastern Daylight Time)","370891","Trustworthy,Untrustworthy","","null","","","","feedback","","<div class='respPicDiv'><img src='img/responseButtonOffersNo0_wht.png' class='respPic'></div><div class='trialDiv'><img src='Fruit/bananas.png'><br><font class='baseline'><strong>Banana Bonanza</strong><p><strong><font class='negOutcome'>You LOST</font><p>You bet: 4</strong></font> &nbsp; &nbsp; &nbsp; &nbsp; &nbsp; &nbsp;<font class='negOutcome'>You receive: <strong>0</strong></font></div>","null","2","Banana Bonanza","Fruit/bananas.png","Lost","0.35,0.8","14","0.35","19","4","",""
"html-keyboard-response","22","108647","0.0-11.0-1.4","6105338a15c74e8435e95c71","bdp_rwlrn","Wed Mar 15 2023 15:39:05 GMT-0400 (Eastern Daylight Time)","370891","Trustworthy,Untrustworthy","","2751","","","","decision","","<div class='trialDiv'><img src='Fruit/papayas.png'><br><font class='baseline'><strong>Papaya Payday</strong><p>Choose number of points to bet.</font><div class='respPicDiv'><img src='img/responseButtonOffersNo0L.png' class='respPic'></div></div>","2","2","Papaya Payday","Fruit/papayas.png","Won","0.65,0.2","11","0.65","24","5","",""
"html-keyboard-response","23","108911","0.0-11.0-2.4","6105338a15c74e8435e95c71","bdp_rwlrn","Wed Mar 15 2023 15:39:05 GMT-0400 (Eastern Daylight Time)","370891","Trustworthy,Untrustworthy","","null","","","","decisionFB","","<div class='trialDiv'><img src='Fruit/papayas.png'><br><font class='baseline'><strong>Papaya Payday</strong><p>Choose number of points to bet.</font><div class='respPicDiv'><img src='img/responseButtonOffersNo0L2.png' class='respPic'></div></div>","null","2","Papaya Payday","Fruit/papayas.png","Won","0.65,0.2","11","0.65","22","5","",""
"html-keyboard-response","24","109919","0.0-11.0-3.4","6105338a15c74e8435e95c71","bdp_rwlrn","Wed Mar 15 2023 15:39:05 GMT-0400 (Eastern Daylight Time)","370891","Trustworthy,Untrustworthy","","null","","","","feedback","","<div class='respPicDiv'><img src='img/responseButtonOffersNo0_wht.png' class='respPic'></div><div class='trialDiv'><img src='Fruit/papayas.png'><br><font class='baseline'><strong>Papaya Payday</strong><p><strong><font class='posOutcome'>You WON</font><p>You bet: 2</strong></font> &nbsp; &nbsp; &nbsp; &nbsp; &nbsp; &nbsp;<font class='posOutcome'>you receive: <strong>4</strong></font></div>","null","2","Papaya Payday","Fruit/papayas.png","Won","0.65,0.2","11","0.65","26","5","",""
"html-keyboard-response","25","111695","0.0-11.0-1.5","6105338a15c74e8435e95c71","bdp_rwlrn","Wed Mar 15 2023 15:39:05 GMT-0400 (Eastern Daylight Time)","370891","Trustworthy,Untrustworthy","","1774","","","","decision","","<div class='trialDiv'><img src='Fruit/pineapple.png'><br><font class='baseline'><strong>Primo Pineapple</strong><p>Choose number of points to bet.</font><div class='respPicDiv'><img src='img/responseButtonOffersNo0L.png' class='respPic'></div></div>","4","2","Primo Pineapple","Fruit/pineapple.png","Lost","0.35,0.65","8","0.35","31","6","",""
"html-keyboard-response","26","111959","0.0-11.0-2.5","6105338a15c74e8435e95c71","bdp_rwlrn","Wed Mar 15 2023 15:39:05 GMT-0400 (Eastern Daylight Time)","370891","Trustworthy,Untrustworthy","","null","","","","decisionFB","","<div class='trialDiv'><img src='Fruit/pineapple.png'><br><font class='baseline'><strong>Primo Pineapple</strong><p>Choose number of points to bet.</font><div class='respPicDiv'><img src='img/responseButtonOffersNo0L4.png' class='respPic'></div></div>","null","2","Primo Pineapple","Fruit/pineapple.png","Lost","0.35,0.65","8","0.35","27","6","",""
"html-keyboard-response","27","112967","0.0-11.0-3.5","6105338a15c74e8435e95c71","bdp_rwlrn","Wed Mar 15 2023 15:39:05 GMT-0400 (Eastern Daylight Time)","370891","Trustworthy,Untrustworthy","","null","","","","feedback","","<div class='respPicDiv'><img src='img/responseButtonOffersNo0_wht.png' class='respPic'></div><div class='trialDiv'><img src='Fruit/pineapple.png'><br><font class='baseline'><strong>Primo Pineapple</strong><p><strong><font class='negOutcome'>You LOST</font><p>You bet: 4</strong></font> &nbsp; &nbsp; &nbsp; &nbsp; &nbsp; &nbsp;<font class='negOutcome'>You receive: <strong>0</strong></font></div>","null","2","Primo Pineapple","Fruit/pineapple.png","Lost","0.35,0.65","8","0.35","27","6","",""
"html-keyboard-response","28","113458","0.0-11.0-1.6","6105338a15c74e8435e95c71","bdp_rwlrn","Wed Mar 15 2023 15:39:05 GMT-0400 (Eastern Daylight Time)","370891","Trustworthy,Untrustworthy","","489","","","","decision","","<div class='trialDiv'><img src='Fruit/bananas.png'><br><font class='baseline'><strong>Banana Bonanza</strong><p>Choose number of points to bet.</font><div class='respPicDiv'><img src='img/responseButtonOffersNo0L.png' class='respPic'></div></div>","3","3","Banana Bonanza","Fruit/bananas.png","Lost","0.35,0.8","14","0.35","32","7","",""
"html-keyboard-response","29","113719","0.0-11.0-2.6","6105338a15c74e8435e95c71","bdp_rwlrn","Wed Mar 15 2023 15:39:05 GMT-0400 (Eastern Daylight Time)","370891","Trustworthy,Untrustworthy","","null","","","","decisionFB","","<div class='trialDiv'><img src='Fruit/bananas.png'><br><font class='baseline'><strong>Banana Bonanza</strong><p>Choose number of points to bet.</font><div class='respPicDiv'><img src='img/responseButtonOffersNo0L3.png' class='respPic'></div></div>","null","3","Banana Bonanza","Fruit/bananas.png","Lost","0.35,0.8","14","0.35","29","7","",""
"html-keyboard-response","30","114727","0.0-11.0-3.6","6105338a15c74e8435e95c71","bdp_rwlrn","Wed Mar 15 2023 15:39:05 GMT-0400 (Eastern Daylight Time)","370891","Trustworthy,Untrustworthy","","null","","","","feedback","","<div class='respPicDiv'><img src='img/responseButtonOffersNo0_wht.png' class='respPic'></div><div class='trialDiv'><img src='Fruit/bananas.png'><br><font class='baseline'><strong>Banana Bonanza</strong><p><strong><font class='negOutcome'>You LOST</font><p>You bet: 3</strong></font> &nbsp; &nbsp; &nbsp; &nbsp; &nbsp; &nbsp;<font class='negOutcome'>You receive: <strong>0</strong></font></div>","null","3","Banana Bonanza","Fruit/bananas.png","Lost","0.35,0.8","14","0.35","29","7","",""
"html-keyboard-response","31","116483","0.0-11.0-1.7","6105338a15c74e8435e95c71","bdp_rwlrn","Wed Mar 15 2023 15:39:05 GMT-0400 (Eastern Daylight Time)","370891","Trustworthy,Untrustworthy","","1753","","","","decision","","<div class='trialDiv'><img src='Fruit/papayas.png'><br><font class='baseline'><strong>Papaya Payday</strong><p>Choose number of points to bet.</font><div class='respPicDiv'><img src='img/responseButtonOffersNo0L.png' class='respPic'></div></div>","3","3","Papaya Payday","Fruit/papayas.png","Won","0.65,0.2","11","0.65","34","8","",""
"html-keyboard-response","32","116743","0.0-11.0-2.7","6105338a15c74e8435e95c71","bdp_rwlrn","Wed Mar 15 2023 15:39:05 GMT-0400 (Eastern Daylight Time)","370891","Trustworthy,Untrustworthy","","null","","","","decisionFB","","<div class='trialDiv'><img src='Fruit/papayas.png'><br><font class='baseline'><strong>Papaya Payday</strong><p>Choose number of points to bet.</font><div class='respPicDiv'><img src='img/responseButtonOffersNo0L3.png' class='respPic'></div></div>","null","3","Papaya Payday","Fruit/papayas.png","Won","0.65,0.2","11","0.65","31","8","",""
"html-keyboard-response","33","117751","0.0-11.0-3.7","6105338a15c74e8435e95c71","bdp_rwlrn","Wed Mar 15 2023 15:39:05 GMT-0400 (Eastern Daylight Time)","370891","Trustworthy,Untrustworthy","","null","","","","feedback","","<div class='respPicDiv'><img src='img/responseButtonOffersNo0_wht.png' class='respPic'></div><div class='trialDiv'><img src='Fruit/papayas.png'><br><font class='baseline'><strong>Papaya Payday</strong><p><strong><font class='posOutcome'>You WON</font><p>You bet: 3</strong></font> &nbsp; &nbsp; &nbsp; &nbsp; &nbsp; &nbsp;<font class='posOutcome'>you receive: <strong>6</strong></font></div>","null","3","Papaya Payday","Fruit/papayas.png","Won","0.65,0.2","11","0.65","37","8","",""
"html-keyboard-response","34","119281","0.0-11.0-1.8","6105338a15c74e8435e95c71","bdp_rwlrn","Wed Mar 15 2023 15:39:05 GMT-0400 (Eastern Daylight Time)","370891","Trustworthy,Untrustworthy","","1528","","","","decision","","<div class='trialDiv'><img src='Fruit/pineapple.png'><br><font class='baseline'><strong>Primo Pineapple</strong><p>Choose number of points to bet.</font><div class='respPicDiv'><img src='img/responseButtonOffersNo0L.png' class='respPic'></div></div>","3","3","Primo Pineapple","Fruit/pineapple.png","Lost","0.35,0.65","8","0.35","42","9","",""
"html-keyboard-response","35","119542","0.0-11.0-2.8","6105338a15c74e8435e95c71","bdp_rwlrn","Wed Mar 15 2023 15:39:05 GMT-0400 (Eastern Daylight Time)","370891","Trustworthy,Untrustworthy","","null","","","","decisionFB","","<div class='trialDiv'><img src='Fruit/pineapple.png'><br><font class='baseline'><strong>Primo Pineapple</strong><p>Choose number of points to bet.</font><div class='respPicDiv'><img src='img/responseButtonOffersNo0L3.png' class='respPic'></div></div>","null","3","Primo Pineapple","Fruit/pineapple.png","Lost","0.35,0.65","8","0.35","39","9","",""
"html-keyboard-response","36","120551","0.0-11.0-3.8","6105338a15c74e8435e95c71","bdp_rwlrn","Wed Mar 15 2023 15:39:05 GMT-0400 (Eastern Daylight Time)","370891","Trustworthy,Untrustworthy","","null","","","","feedback","","<div class='respPicDiv'><img src='img/responseButtonOffersNo0_wht.png' class='respPic'></div><div class='trialDiv'><img src='Fruit/pineapple.png'><br><font class='baseline'><strong>Primo Pineapple</strong><p><strong><font class='negOutcome'>You LOST</font><p>You bet: 3</strong></font> &nbsp; &nbsp; &nbsp; &nbsp; &nbsp; &nbsp;<font class='negOutcome'>You receive: <strong>0</strong></font></div>","null","3","Primo Pineapple","Fruit/pineapple.png","Lost","0.35,0.65","8","0.35","39","9","",""
"html-keyboard-response","37","121121","0.0-11.0-1.9","6105338a15c74e8435e95c71","bdp_rwlrn","Wed Mar 15 2023 15:39:05 GMT-0400 (Eastern Daylight Time)","370891","Trustworthy,Untrustworthy","","568","","","","decision","","<div class='trialDiv'><img src='Fruit/bananas.png'><br><font class='baseline'><strong>Banana Bonanza</strong><p>Choose number of points to bet.</font><div class='respPicDiv'><img src='img/responseButtonOffersNo0L.png' class='respPic'></div></div>","2","4","Banana Bonanza","Fruit/bananas.png","Lost","0.35,0.8","14","0.35","44","10","",""
"html-keyboard-response","38","121383","0.0-11.0-2.9","6105338a15c74e8435e95c71","bdp_rwlrn","Wed Mar 15 2023 15:39:05 GMT-0400 (Eastern Daylight Time)","370891","Trustworthy,Untrustworthy","","null","","","","decisionFB","","<div class='trialDiv'><img src='Fruit/bananas.png'><br><font class='baseline'><strong>Banana Bonanza</strong><p>Choose number of points to bet.</font><div class='respPicDiv'><img src='img/responseButtonOffersNo0L2.png' class='respPic'></div></div>","null","4","Banana Bonanza","Fruit/bananas.png","Lost","0.35,0.8","14","0.35","42","10","",""
"html-keyboard-response","39","122387","0.0-11.0-3.9","6105338a15c74e8435e95c71","bdp_rwlrn","Wed Mar 15 2023 15:39:05 GMT-0400 (Eastern Daylight Time)","370891","Trustworthy,Untrustworthy","","null","","","","feedback","","<div class='respPicDiv'><img src='img/responseButtonOffersNo0_wht.png' class='respPic'></div><div class='trialDiv'><img src='Fruit/bananas.png'><br><font class='baseline'><strong>Banana Bonanza</strong><p><strong><font class='negOutcome'>You LOST</font><p>You bet: 2</strong></font> &nbsp; &nbsp; &nbsp; &nbsp; &nbsp; &nbsp;<font class='negOutcome'>You receive: <strong>0</strong></font></div>","null","4","Banana Bonanza","Fruit/bananas.png","Lost","0.35,0.8","14","0.35","42","10","",""
"html-keyboard-response","40","126136","0.0-11.0-1.10","6105338a15c74e8435e95c71","bdp_rwlrn","Wed Mar 15 2023 15:39:05 GMT-0400 (Eastern Daylight Time)","370891","Trustworthy,Untrustworthy","","3747","","","","decision","","<div class='trialDiv'><img src='Fruit/pineapple.png'><br><font class='baseline'><strong>Primo Pineapple</strong><p>Choose number of points to bet.</font><div class='respPicDiv'><img src='img/responseButtonOffersNo0L.png' class='respPic'></div></div>","3","4","Primo Pineapple","Fruit/pineapple.png","Lost","0.35,0.65","8","0.35","47","11","",""
"html-keyboard-response","41","126398","0.0-11.0-2.10","6105338a15c74e8435e95c71","bdp_rwlrn","Wed Mar 15 2023 15:39:05 GMT-0400 (Eastern Daylight Time)","370891","Trustworthy,Untrustworthy","","null","","","","decisionFB","","<div class='trialDiv'><img src='Fruit/pineapple.png'><br><font class='baseline'><strong>Primo Pineapple</strong><p>Choose number of points to bet.</font><div class='respPicDiv'><img src='img/responseButtonOffersNo0L3.png' class='respPic'></div></div>","null","4","Primo Pineapple","Fruit/pineapple.png","Lost","0.35,0.65","8","0.35","44","11","",""
"html-keyboard-response","42","127406","0.0-11.0-3.10","6105338a15c74e8435e95c71","bdp_rwlrn","Wed Mar 15 2023 15:39:05 GMT-0400 (Eastern Daylight Time)","370891","Trustworthy,Untrustworthy","","null","","","","feedback","","<div class='respPicDiv'><img src='img/responseButtonOffersNo0_wht.png' class='respPic'></div><div class='trialDiv'><img src='Fruit/pineapple.png'><br><font class='baseline'><strong>Primo Pineapple</strong><p><strong><font class='negOutcome'>You LOST</font><p>You bet: 3</strong></font> &nbsp; &nbsp; &nbsp; &nbsp; &nbsp; &nbsp;<font class='negOutcome'>You receive: <strong>0</strong></font></div>","null","4","Primo Pineapple","Fruit/pineapple.png","Lost","0.35,0.65","8","0.35","44","11","",""
"html-keyboard-response","43","128701","0.0-11.0-1.11","6105338a15c74e8435e95c71","bdp_rwlrn","Wed Mar 15 2023 15:39:05 GMT-0400 (Eastern Daylight Time)","370891","Trustworthy,Untrustworthy","","1292","","","","decision","","<div class='trialDiv'><img src='Fruit/papayas.png'><br><font class='baseline'><strong>Papaya Payday</strong><p>Choose number of points to bet.</font><div class='respPicDiv'><img src='img/responseButtonOffersNo0L.png' class='respPic'></div></div>","4","4","Papaya Payday","Fruit/papayas.png","Lost","0.65,0.2","11","0.65","49","12","",""
"html-keyboard-response","44","128955","0.0-11.0-2.11","6105338a15c74e8435e95c71","bdp_rwlrn","Wed Mar 15 2023 15:39:05 GMT-0400 (Eastern Daylight Time)","370891","Trustworthy,Untrustworthy","","null","","","","decisionFB","","<div class='trialDiv'><img src='Fruit/papayas.png'><br><font class='baseline'><strong>Papaya Payday</strong><p>Choose number of points to bet.</font><div class='respPicDiv'><img src='img/responseButtonOffersNo0L4.png' class='respPic'></div></div>","null","4","Papaya Payday","Fruit/papayas.png","Lost","0.65,0.2","11","0.65","45","12","",""
"html-keyboard-response","45","129965","0.0-11.0-3.11","6105338a15c74e8435e95c71","bdp_rwlrn","Wed Mar 15 2023 15:39:05 GMT-0400 (Eastern Daylight Time)","370891","Trustworthy,Untrustworthy","","null","","","","feedback","","<div class='respPicDiv'><img src='img/responseButtonOffersNo0_wht.png' class='respPic'></div><div class='trialDiv'><img src='Fruit/papayas.png'><br><font class='baseline'><strong>Papaya Payday</strong><p><strong><font class='negOutcome'>You LOST</font><p>You bet: 4</strong></font> &nbsp; &nbsp; &nbsp; &nbsp; &nbsp; &nbsp;<font class='negOutcome'>You receive: <strong>0</strong></font></div>","null","4","Papaya Payday","Fruit/papayas.png","Lost","0.65,0.2","11","0.65","45","12","",""
"html-keyboard-response","46","130513","0.0-11.0-1.12","6105338a15c74e8435e95c71","bdp_rwlrn","Wed Mar 15 2023 15:39:05 GMT-0400 (Eastern Daylight Time)","370891","Trustworthy,Untrustworthy","","546","","","","decision","","<div class='trialDiv'><img src='Fruit/pineapple.png'><br><font class='baseline'><strong>Primo Pineapple</strong><p>Choose number of points to bet.</font><div class='respPicDiv'><img src='img/responseButtonOffersNo0L.png' class='respPic'></div></div>","2","5","Primo Pineapple","Fruit/pineapple.png","Won","0.35,0.65","8","0.35","50","13","",""
"html-keyboard-response","47","130775","0.0-11.0-2.12","6105338a15c74e8435e95c71","bdp_rwlrn","Wed Mar 15 2023 15:39:05 GMT-0400 (Eastern Daylight Time)","370891","Trustworthy,Untrustworthy","","null","","","","decisionFB","","<div class='trialDiv'><img src='Fruit/pineapple.png'><br><font class='baseline'><strong>Primo Pineapple</strong><p>Choose number of points to bet.</font><div class='respPicDiv'><img src='img/responseButtonOffersNo0L2.png' class='respPic'></div></div>","null","5","Primo Pineapple","Fruit/pineapple.png","Won","0.35,0.65","8","0.35","48","13","",""
"html-keyboard-response","48","131783","0.0-11.0-3.12","6105338a15c74e8435e95c71","bdp_rwlrn","Wed Mar 15 2023 15:39:05 GMT-0400 (Eastern Daylight Time)","370891","Trustworthy,Untrustworthy","","null","","","","feedback","","<div class='respPicDiv'><img src='img/responseButtonOffersNo0_wht.png' class='respPic'></div><div class='trialDiv'><img src='Fruit/pineapple.png'><br><font class='baseline'><strong>Primo Pineapple</strong><p><strong><font class='posOutcome'>You WON</font><p>You bet: 2</strong></font> &nbsp; &nbsp; &nbsp; &nbsp; &nbsp; &nbsp;<font class='posOutcome'>you receive: <strong>4</strong></font></div>","null","5","Primo Pineapple","Fruit/pineapple.png","Won","0.35,0.65","8","0.35","52","13","",""
"html-keyboard-response","49","132266","0.0-11.0-1.13","6105338a15c74e8435e95c71","bdp_rwlrn","Wed Mar 15 2023 15:39:05 GMT-0400 (Eastern Daylight Time)","370891","Trustworthy,Untrustworthy","","480","","","","decision","","<div class='trialDiv'><img src='Fruit/bananas.png'><br><font class='baseline'><strong>Banana Bonanza</strong><p>Choose number of points to bet.</font><div class='respPicDiv'><img src='img/responseButtonOffersNo0L.png' class='respPic'></div></div>","2","5","Banana Bonanza","Fruit/bananas.png","Lost","0.35,0.8","14","0.35","57","14","",""
"html-keyboard-response","50","132523","0.0-11.0-2.13","6105338a15c74e8435e95c71","bdp_rwlrn","Wed Mar 15 2023 15:39:05 GMT-0400 (Eastern Daylight Time)","370891","Trustworthy,Untrustworthy","","null","","","","decisionFB","","<div class='trialDiv'><img src='Fruit/bananas.png'><br><font class='baseline'><strong>Banana Bonanza</strong><p>Choose number of points to bet.</font><div class='respPicDiv'><img src='img/responseButtonOffersNo0L2.png' class='respPic'></div></div>","null","5","Banana Bonanza","Fruit/bananas.png","Lost","0.35,0.8","14","0.35","55","14","",""
"html-keyboard-response","51","133535","0.0-11.0-3.13","6105338a15c74e8435e95c71","bdp_rwlrn","Wed Mar 15 2023 15:39:05 GMT-0400 (Eastern Daylight Time)","370891","Trustworthy,Untrustworthy","","null","","","","feedback","","<div class='respPicDiv'><img src='img/responseButtonOffersNo0_wht.png' class='respPic'></div><div class='trialDiv'><img src='Fruit/bananas.png'><br><font class='baseline'><strong>Banana Bonanza</strong><p><strong><font class='negOutcome'>You LOST</font><p>You bet: 2</strong></font> &nbsp; &nbsp; &nbsp; &nbsp; &nbsp; &nbsp;<font class='negOutcome'>You receive: <strong>0</strong></font></div>","null","5","Banana Bonanza","Fruit/bananas.png","Lost","0.35,0.8","14","0.35","55","14","",""
"html-keyboard-response","52","134166","0.0-11.0-1.14","6105338a15c74e8435e95c71","bdp_rwlrn","Wed Mar 15 2023 15:39:05 GMT-0400 (Eastern Daylight Time)","370891","Trustworthy,Untrustworthy","","629","","","","decision","","<div class='trialDiv'><img src='Fruit/papayas.png'><br><font class='baseline'><strong>Papaya Payday</strong><p>Choose number of points to bet.</font><div class='respPicDiv'><img src='img/responseButtonOffersNo0L.png' class='respPic'></div></div>","3","5","Papaya Payday","Fruit/papayas.png","Lost","0.65,0.2","11","0.65","60","15","",""
"html-keyboard-response","53","134431","0.0-11.0-2.14","6105338a15c74e8435e95c71","bdp_rwlrn","Wed Mar 15 2023 15:39:05 GMT-0400 (Eastern Daylight Time)","370891","Trustworthy,Untrustworthy","","null","","","","decisionFB","","<div class='trialDiv'><img src='Fruit/papayas.png'><br><font class='baseline'><strong>Papaya Payday</strong><p>Choose number of points to bet.</font><div class='respPicDiv'><img src='img/responseButtonOffersNo0L3.png' class='respPic'></div></div>","null","5","Papaya Payday","Fruit/papayas.png","Lost","0.65,0.2","11","0.65","57","15","",""
"html-keyboard-response","54","135435","0.0-11.0-3.14","6105338a15c74e8435e95c71","bdp_rwlrn","Wed Mar 15 2023 15:39:05 GMT-0400 (Eastern Daylight Time)","370891","Trustworthy,Untrustworthy","","null","","","","feedback","","<div class='respPicDiv'><img src='img/responseButtonOffersNo0_wht.png' class='respPic'></div><div class='trialDiv'><img src='Fruit/papayas.png'><br><font class='baseline'><strong>Papaya Payday</strong><p><strong><font class='negOutcome'>You LOST</font><p>You bet: 3</strong></font> &nbsp; &nbsp; &nbsp; &nbsp; &nbsp; &nbsp;<font class='negOutcome'>You receive: <strong>0</strong></font></div>","null","5","Papaya Payday","Fruit/papayas.png","Lost","0.65,0.2","11","0.65","57","15","",""
"html-keyboard-response","55","136196","0.0-11.0-1.15","6105338a15c74e8435e95c71","bdp_rwlrn","Wed Mar 15 2023 15:39:05 GMT-0400 (Eastern Daylight Time)","370891","Trustworthy,Untrustworthy","","759","","","","decision","","<div class='trialDiv'><img src='Fruit/bananas.png'><br><font class='baseline'><strong>Banana Bonanza</strong><p>Choose number of points to bet.</font><div class='respPicDiv'><img src='img/responseButtonOffersNo0L.png' class='respPic'></div></div>","2","6","Banana Bonanza","Fruit/bananas.png","Lost","0.35,0.8","14","0.35","62","16","",""
"html-keyboard-response","56","136455","0.0-11.0-2.15","6105338a15c74e8435e95c71","bdp_rwlrn","Wed Mar 15 2023 15:39:05 GMT-0400 (Eastern Daylight Time)","370891","Trustworthy,Untrustworthy","","null","","","","decisionFB","","<div class='trialDiv'><img src='Fruit/bananas.png'><br><font class='baseline'><strong>Banana Bonanza</strong><p>Choose number of points to bet.</font><div class='respPicDiv'><img src='img/responseButtonOffersNo0L2.png' class='respPic'></div></div>","null","6","Banana Bonanza","Fruit/bananas.png","Lost","0.35,0.8","14","0.35","60","16","",""
"html-keyboard-response","57","137463","0.0-11.0-3.15","6105338a15c74e8435e95c71","bdp_rwlrn","Wed Mar 15 2023 15:39:05 GMT-0400 (Eastern Daylight Time)","370891","Trustworthy,Untrustworthy","","null","","","","feedback","","<div class='respPicDiv'><img src='img/responseButtonOffersNo0_wht.png' class='respPic'></div><div class='trialDiv'><img src='Fruit/bananas.png'><br><font class='baseline'><strong>Banana Bonanza</strong><p><strong><font class='negOutcome'>You LOST</font><p>You bet: 2</strong></font> &nbsp; &nbsp; &nbsp; &nbsp; &nbsp; &nbsp;<font class='negOutcome'>You receive: <strong>0</strong></font></div>","null","6","Banana Bonanza","Fruit/bananas.png","Lost","0.35,0.8","14","0.35","60","16","",""
"html-keyboard-response","58","138830","0.0-11.0-1.16","6105338a15c74e8435e95c71","bdp_rwlrn","Wed Mar 15 2023 15:39:05 GMT-0400 (Eastern Daylight Time)","370891","Trustworthy,Untrustworthy","","1365","","","","decision","","<div class='trialDiv'><img src='Fruit/pineapple.png'><br><font class='baseline'><strong>Primo Pineapple</strong><p>Choose number of points to bet.</font><div class='respPicDiv'><img src='img/responseButtonOffersNo0L.png' class='respPic'></div></div>","1","6","Primo Pineapple","Fruit/pineapple.png","Won","0.35,0.65","8","0.35","65","17","",""
"html-keyboard-response","59","139085","0.0-11.0-2.16","6105338a15c74e8435e95c71","bdp_rwlrn","Wed Mar 15 2023 15:39:05 GMT-0400 (Eastern Daylight Time)","370891","Trustworthy,Untrustworthy","","null","","","","decisionFB","","<div class='trialDiv'><img src='Fruit/pineapple.png'><br><font class='baseline'><strong>Primo Pineapple</strong><p>Choose number of points to bet.</font><div class='respPicDiv'><img src='img/responseButtonOffersNo0L1.png' class='respPic'></div></div>","null","6","Primo Pineapple","Fruit/pineapple.png","Won","0.35,0.65","8","0.35","64","17","",""
"html-keyboard-response","60","140095","0.0-11.0-3.16","6105338a15c74e8435e95c71","bdp_rwlrn","Wed Mar 15 2023 15:39:05 GMT-0400 (Eastern Daylight Time)","370891","Trustworthy,Untrustworthy","","null","","","","feedback","","<div class='respPicDiv'><img src='img/responseButtonOffersNo0_wht.png' class='respPic'></div><div class='trialDiv'><img src='Fruit/pineapple.png'><br><font class='baseline'><strong>Primo Pineapple</strong><p><strong><font class='posOutcome'>You WON</font><p>You bet: 1</strong></font> &nbsp; &nbsp; &nbsp; &nbsp; &nbsp; &nbsp;<font class='posOutcome'>you receive: <strong>2</strong></font></div>","null","6","Primo Pineapple","Fruit/pineapple.png","Won","0.35,0.65","8","0.35","66","17","",""
"html-keyboard-response","61","140870","0.0-11.0-1.17","6105338a15c74e8435e95c71","bdp_rwlrn","Wed Mar 15 2023 15:39:05 GMT-0400 (Eastern Daylight Time)","370891","Trustworthy,Untrustworthy","","772","","","","decision","","<div class='trialDiv'><img src='Fruit/papayas.png'><br><font class='baseline'><strong>Papaya Payday</strong><p>Choose number of points to bet.</font><div class='respPicDiv'><img src='img/responseButtonOffersNo0L.png' class='respPic'></div></div>","2","6","Papaya Payday","Fruit/papayas.png","Lost","0.65,0.2","11","0.65","71","18","",""
"html-keyboard-response","62","141127","0.0-11.0-2.17","6105338a15c74e8435e95c71","bdp_rwlrn","Wed Mar 15 2023 15:39:05 GMT-0400 (Eastern Daylight Time)","370891","Trustworthy,Untrustworthy","","null","","","","decisionFB","","<div class='trialDiv'><img src='Fruit/papayas.png'><br><font class='baseline'><strong>Papaya Payday</strong><p>Choose number of points to bet.</font><div class='respPicDiv'><img src='img/responseButtonOffersNo0L2.png' class='respPic'></div></div>","null","6","Papaya Payday","Fruit/papayas.png","Lost","0.65,0.2","11","0.65","69","18","",""
"html-keyboard-response","63","142135","0.0-11.0-3.17","6105338a15c74e8435e95c71","bdp_rwlrn","Wed Mar 15 2023 15:39:05 GMT-0400 (Eastern Daylight Time)","370891","Trustworthy,Untrustworthy","","null","","","","feedback","","<div class='respPicDiv'><img src='img/responseButtonOffersNo0_wht.png' class='respPic'></div><div class='trialDiv'><img src='Fruit/papayas.png'><br><font class='baseline'><strong>Papaya Payday</strong><p><strong><font class='negOutcome'>You LOST</font><p>You bet: 2</strong></font> &nbsp; &nbsp; &nbsp; &nbsp; &nbsp; &nbsp;<font class='negOutcome'>You receive: <strong>0</strong></font></div>","null","6","Papaya Payday","Fruit/papayas.png","Lost","0.65,0.2","11","0.65","69","18","",""
"html-keyboard-response","64","142747","0.0-11.0-1.18","6105338a15c74e8435e95c71","bdp_rwlrn","Wed Mar 15 2023 15:39:05 GMT-0400 (Eastern Daylight Time)","370891","Trustworthy,Untrustworthy","","609","","","","decision","","<div class='trialDiv'><img src='Fruit/bananas.png'><br><font class='baseline'><strong>Banana Bonanza</strong><p>Choose number of points to bet.</font><div class='respPicDiv'><img src='img/responseButtonOffersNo0L.png' class='respPic'></div></div>","3","7","Banana Bonanza","Fruit/bananas.png","Lost","0.35,0.8","14","0.35","74","19","",""
"html-keyboard-response","65","143007","0.0-11.0-2.18","6105338a15c74e8435e95c71","bdp_rwlrn","Wed Mar 15 2023 15:39:05 GMT-0400 (Eastern Daylight Time)","370891","Trustworthy,Untrustworthy","","null","","","","decisionFB","","<div class='trialDiv'><img src='Fruit/bananas.png'><br><font class='baseline'><strong>Banana Bonanza</strong><p>Choose number of points to bet.</font><div class='respPicDiv'><img src='img/responseButtonOffersNo0L3.png' class='respPic'></div></div>","null","7","Banana Bonanza","Fruit/bananas.png","Lost","0.35,0.8","14","0.35","71","19","",""
"html-keyboard-response","66","144014","0.0-11.0-3.18","6105338a15c74e8435e95c71","bdp_rwlrn","Wed Mar 15 2023 15:39:05 GMT-0400 (Eastern Daylight Time)","370891","Trustworthy,Untrustworthy","","null","","","","feedback","","<div class='respPicDiv'><img src='img/responseButtonOffersNo0_wht.png' class='respPic'></div><div class='trialDiv'><img src='Fruit/bananas.png'><br><font class='baseline'><strong>Banana Bonanza</strong><p><strong><font class='negOutcome'>You LOST</font><p>You bet: 3</strong></font> &nbsp; &nbsp; &nbsp; &nbsp; &nbsp; &nbsp;<font class='negOutcome'>You receive: <strong>0</strong></font></div>","null","7","Banana Bonanza","Fruit/bananas.png","Lost","0.35,0.8","14","0.35","71","19","",""
"html-keyboard-response","67","144596","0.0-11.0-1.19","6105338a15c74e8435e95c71","bdp_rwlrn","Wed Mar 15 2023 15:39:05 GMT-0400 (Eastern Daylight Time)","370891","Trustworthy,Untrustworthy","","580","","","","decision","","<div class='trialDiv'><img src='Fruit/papayas.png'><br><font class='baseline'><strong>Papaya Payday</strong><p>Choose number of points to bet.</font><div class='respPicDiv'><img src='img/responseButtonOffersNo0L.png' class='respPic'></div></div>","1","7","Papaya Payday","Fruit/papayas.png","Lost","0.65,0.2","11","0.65","76","20","",""
"html-keyboard-response","68","144855","0.0-11.0-2.19","6105338a15c74e8435e95c71","bdp_rwlrn","Wed Mar 15 2023 15:39:05 GMT-0400 (Eastern Daylight Time)","370891","Trustworthy,Untrustworthy","","null","","","","decisionFB","","<div class='trialDiv'><img src='Fruit/papayas.png'><br><font class='baseline'><strong>Papaya Payday</strong><p>Choose number of points to bet.</font><div class='respPicDiv'><img src='img/responseButtonOffersNo0L1.png' class='respPic'></div></div>","null","7","Papaya Payday","Fruit/papayas.png","Lost","0.65,0.2","11","0.65","75","20","",""
"html-keyboard-response","69","145863","0.0-11.0-3.19","6105338a15c74e8435e95c71","bdp_rwlrn","Wed Mar 15 2023 15:39:05 GMT-0400 (Eastern Daylight Time)","370891","Trustworthy,Untrustworthy","","null","","","","feedback","","<div class='respPicDiv'><img src='img/responseButtonOffersNo0_wht.png' class='respPic'></div><div class='trialDiv'><img src='Fruit/papayas.png'><br><font class='baseline'><strong>Papaya Payday</strong><p><strong><font class='negOutcome'>You LOST</font><p>You bet: 1</strong></font> &nbsp; &nbsp; &nbsp; &nbsp; &nbsp; &nbsp;<font class='negOutcome'>You receive: <strong>0</strong></font></div>","null","7","Papaya Payday","Fruit/papayas.png","Lost","0.65,0.2","11","0.65","75","20","",""
"html-keyboard-response","70","146111","0.0-11.0-1.20","6105338a15c74e8435e95c71","bdp_rwlrn","Wed Mar 15 2023 15:39:05 GMT-0400 (Eastern Daylight Time)","370891","Trustworthy,Untrustworthy","","246","","","","decision","","<div class='trialDiv'><img src='Fruit/pineapple.png'><br><font class='baseline'><strong>Primo Pineapple</strong><p>Choose number of points to bet.</font><div class='respPicDiv'><img src='img/responseButtonOffersNo0L.png' class='respPic'></div></div>","2","7","Primo Pineapple","Fruit/pineapple.png","Lost","0.35,0.65","8","0.35","80","21","",""
"html-keyboard-response","71","146372","0.0-11.0-2.20","6105338a15c74e8435e95c71","bdp_rwlrn","Wed Mar 15 2023 15:39:05 GMT-0400 (Eastern Daylight Time)","370891","Trustworthy,Untrustworthy","","null","","","","decisionFB","","<div class='trialDiv'><img src='Fruit/pineapple.png'><br><font class='baseline'><strong>Primo Pineapple</strong><p>Choose number of points to bet.</font><div class='respPicDiv'><img src='img/responseButtonOffersNo0L2.png' class='respPic'></div></div>","null","7","Primo Pineapple","Fruit/pineapple.png","Lost","0.35,0.65","8","0.35","78","21","",""
"html-keyboard-response","72","147383","0.0-11.0-3.20","6105338a15c74e8435e95c71","bdp_rwlrn","Wed Mar 15 2023 15:39:05 GMT-0400 (Eastern Daylight Time)","370891","Trustworthy,Untrustworthy","","null","","","","feedback","","<div class='respPicDiv'><img src='img/responseButtonOffersNo0_wht.png' class='respPic'></div><div class='trialDiv'><img src='Fruit/pineapple.png'><br><font class='baseline'><strong>Primo Pineapple</strong><p><strong><font class='negOutcome'>You LOST</font><p>You bet: 2</strong></font> &nbsp; &nbsp; &nbsp; &nbsp; &nbsp; &nbsp;<font class='negOutcome'>You receive: <strong>0</strong></font></div>","null","7","Primo Pineapple","Fruit/pineapple.png","Lost","0.35,0.65","8","0.35","78","21","",""
"html-keyboard-response","73","147654","0.0-11.0-1.21","6105338a15c74e8435e95c71","bdp_rwlrn","Wed Mar 15 2023 15:39:05 GMT-0400 (Eastern Daylight Time)","370891","Trustworthy,Untrustworthy","","268","","","","decision","","<div class='trialDiv'><img src='Fruit/papayas.png'><br><font class='baseline'><strong>Papaya Payday</strong><p>Choose number of points to bet.</font><div class='respPicDiv'><img src='img/responseButtonOffersNo0L.png' class='respPic'></div></div>","3","8","Papaya Payday","Fruit/papayas.png","Won","0.65,0.2","11","0.65","83","22","",""
"html-keyboard-response","74","147919","0.0-11.0-2.21","6105338a15c74e8435e95c71","bdp_rwlrn","Wed Mar 15 2023 15:39:05 GMT-0400 (Eastern Daylight Time)","370891","Trustworthy,Untrustworthy","","null","","","","decisionFB","","<div class='trialDiv'><img src='Fruit/papayas.png'><br><font class='baseline'><strong>Papaya Payday</strong><p>Choose number of points to bet.</font><div class='respPicDiv'><img src='img/responseButtonOffersNo0L3.png' class='respPic'></div></div>","null","8","Papaya Payday","Fruit/papayas.png","Won","0.65,0.2","11","0.65","80","22","",""
"html-keyboard-response","75","148927","0.0-11.0-3.21","6105338a15c74e8435e95c71","bdp_rwlrn","Wed Mar 15 2023 15:39:05 GMT-0400 (Eastern Daylight Time)","370891","Trustworthy,Untrustworthy","","null","","","","feedback","","<div class='respPicDiv'><img src='img/responseButtonOffersNo0_wht.png' class='respPic'></div><div class='trialDiv'><img src='Fruit/papayas.png'><br><font class='baseline'><strong>Papaya Payday</strong><p><strong><font class='posOutcome'>You WON</font><p>You bet: 3</strong></font> &nbsp; &nbsp; &nbsp; &nbsp; &nbsp; &nbsp;<font class='posOutcome'>you receive: <strong>6</strong></font></div>","null","8","Papaya Payday","Fruit/papayas.png","Won","0.65,0.2","11","0.65","86","22","",""
"html-keyboard-response","76","149248","0.0-11.0-1.22","6105338a15c74e8435e95c71","bdp_rwlrn","Wed Mar 15 2023 15:39:05 GMT-0400 (Eastern Daylight Time)","370891","Trustworthy,Untrustworthy","","319","","","","decision","","<div class='trialDiv'><img src='Fruit/bananas.png'><br><font class='baseline'><strong>Banana Bonanza</strong><p>Choose number of points to bet.</font><div class='respPicDiv'><img src='img/responseButtonOffersNo0L.png' class='respPic'></div></div>","1","8","Banana Bonanza","Fruit/bananas.png","Lost","0.35,0.8","14","0.35","91","23","",""
"html-keyboard-response","77","149511","0.0-11.0-2.22","6105338a15c74e8435e95c71","bdp_rwlrn","Wed Mar 15 2023 15:39:05 GMT-0400 (Eastern Daylight Time)","370891","Trustworthy,Untrustworthy","","null","","","","decisionFB","","<div class='trialDiv'><img src='Fruit/bananas.png'><br><font class='baseline'><strong>Banana Bonanza</strong><p>Choose number of points to bet.</font><div class='respPicDiv'><img src='img/responseButtonOffersNo0L1.png' class='respPic'></div></div>","null","8","Banana Bonanza","Fruit/bananas.png","Lost","0.35,0.8","14","0.35","90","23","",""
"html-keyboard-response","78","150519","0.0-11.0-3.22","6105338a15c74e8435e95c71","bdp_rwlrn","Wed Mar 15 2023 15:39:05 GMT-0400 (Eastern Daylight Time)","370891","Trustworthy,Untrustworthy","","null","","","","feedback","","<div class='respPicDiv'><img src='img/responseButtonOffersNo0_wht.png' class='respPic'></div><div class='trialDiv'><img src='Fruit/bananas.png'><br><font class='baseline'><strong>Banana Bonanza</strong><p><strong><font class='negOutcome'>You LOST</font><p>You bet: 1</strong></font> &nbsp; &nbsp; &nbsp; &nbsp; &nbsp; &nbsp;<font class='negOutcome'>You receive: <strong>0</strong></font></div>","null","8","Banana Bonanza","Fruit/bananas.png","Lost","0.35,0.8","14","0.35","90","23","",""
"html-keyboard-response","79","150778","0.0-11.0-1.23","6105338a15c74e8435e95c71","bdp_rwlrn","Wed Mar 15 2023 15:39:05 GMT-0400 (Eastern Daylight Time)","370891","Trustworthy,Untrustworthy","","257","","","","decision","","<div class='trialDiv'><img src='Fruit/pineapple.png'><br><font class='baseline'><strong>Primo Pineapple</strong><p>Choose number of points to bet.</font><div class='respPicDiv'><img src='img/responseButtonOffersNo0L.png' class='respPic'></div></div>","2","8","Primo Pineapple","Fruit/pineapple.png","Won","0.35,0.65","8","0.35","95","24","",""
"html-keyboard-response","80","151039","0.0-11.0-2.23","6105338a15c74e8435e95c71","bdp_rwlrn","Wed Mar 15 2023 15:39:05 GMT-0400 (Eastern Daylight Time)","370891","Trustworthy,Untrustworthy","","null","","","","decisionFB","","<div class='trialDiv'><img src='Fruit/pineapple.png'><br><font class='baseline'><strong>Primo Pineapple</strong><p>Choose number of points to bet.</font><div class='respPicDiv'><img src='img/responseButtonOffersNo0L2.png' class='respPic'></div></div>","null","8","Primo Pineapple","Fruit/pineapple.png","Won","0.35,0.65","8","0.35","93","24","",""
"html-keyboard-response","81","152046","0.0-11.0-3.23","6105338a15c74e8435e95c71","bdp_rwlrn","Wed Mar 15 2023 15:39:05 GMT-0400 (Eastern Daylight Time)","370891","Trustworthy,Untrustworthy","","null","","","","feedback","","<div class='respPicDiv'><img src='img/responseButtonOffersNo0_wht.png' class='respPic'></div><div class='trialDiv'><img src='Fruit/pineapple.png'><br><font class='baseline'><strong>Primo Pineapple</strong><p><strong><font class='posOutcome'>You WON</font><p>You bet: 2</strong></font> &nbsp; &nbsp; &nbsp; &nbsp; &nbsp; &nbsp;<font class='posOutcome'>you receive: <strong>4</strong></font></div>","null","8","Primo Pineapple","Fruit/pineapple.png","Won","0.35,0.65","8","0.35","97","24","",""
"html-keyboard-response","82","152304","0.0-11.0-1.24","6105338a15c74e8435e95c71","bdp_rwlrn","Wed Mar 15 2023 15:39:05 GMT-0400 (Eastern Daylight Time)","370891","Trustworthy,Untrustworthy","","256","","","","decision","","<div class='trialDiv'><img src='Fruit/papayas.png'><br><font class='baseline'><strong>Papaya Payday</strong><p>Choose number of points to bet.</font><div class='respPicDiv'><img src='img/responseButtonOffersNo0L.png' class='respPic'></div></div>","3","9","Papaya Payday","Fruit/papayas.png","Lost","0.65,0.2","11","0.65","102","25","",""
"html-keyboard-response","83","152563","0.0-11.0-2.24","6105338a15c74e8435e95c71","bdp_rwlrn","Wed Mar 15 2023 15:39:05 GMT-0400 (Eastern Daylight Time)","370891","Trustworthy,Untrustworthy","","null","","","","decisionFB","","<div class='trialDiv'><img src='Fruit/papayas.png'><br><font class='baseline'><strong>Papaya Payday</strong><p>Choose number of points to bet.</font><div class='respPicDiv'><img src='img/responseButtonOffersNo0L3.png' class='respPic'></div></div>","null","9","Papaya Payday","Fruit/papayas.png","Lost","0.65,0.2","11","0.65","99","25","",""
"html-keyboard-response","84","153572","0.0-11.0-3.24","6105338a15c74e8435e95c71","bdp_rwlrn","Wed Mar 15 2023 15:39:05 GMT-0400 (Eastern Daylight Time)","370891","Trustworthy,Untrustworthy","","null","","","","feedback","","<div class='respPicDiv'><img src='img/responseButtonOffersNo0_wht.png' class='respPic'></div><div class='trialDiv'><img src='Fruit/papayas.png'><br><font class='baseline'><strong>Papaya Payday</strong><p><strong><font class='negOutcome'>You LOST</font><p>You bet: 3</strong></font> &nbsp; &nbsp; &nbsp; &nbsp; &nbsp; &nbsp;<font class='negOutcome'>You receive: <strong>0</strong></font></div>","null","9","Papaya Payday","Fruit/papayas.png","Lost","0.65,0.2","11","0.65","99","25","",""
"html-keyboard-response","85","153881","0.0-11.0-1.25","6105338a15c74e8435e95c71","bdp_rwlrn","Wed Mar 15 2023 15:39:05 GMT-0400 (Eastern Daylight Time)","370891","Trustworthy,Untrustworthy","","307","","","","decision","","<div class='trialDiv'><img src='Fruit/bananas.png'><br><font class='baseline'><strong>Banana Bonanza</strong><p>Choose number of points to bet.</font><div class='respPicDiv'><img src='img/responseButtonOffersNo0L.png' class='respPic'></div></div>","1","9","Banana Bonanza","Fruit/bananas.png","Won","0.35,0.8","14","0.35","104","26","",""
"html-keyboard-response","86","154143","0.0-11.0-2.25","6105338a15c74e8435e95c71","bdp_rwlrn","Wed Mar 15 2023 15:39:05 GMT-0400 (Eastern Daylight Time)","370891","Trustworthy,Untrustworthy","","null","","","","decisionFB","","<div class='trialDiv'><img src='Fruit/bananas.png'><br><font class='baseline'><strong>Banana Bonanza</strong><p>Choose number of points to bet.</font><div class='respPicDiv'><img src='img/responseButtonOffersNo0L1.png' class='respPic'></div></div>","null","9","Banana Bonanza","Fruit/bananas.png","Won","0.35,0.8","14","0.35","103","26","",""
"html-keyboard-response","87","155147","0.0-11.0-3.25","6105338a15c74e8435e95c71","bdp_rwlrn","Wed Mar 15 2023 15:39:05 GMT-0400 (Eastern Daylight Time)","370891","Trustworthy,Untrustworthy","","null","","","","feedback","","<div class='respPicDiv'><img src='img/responseButtonOffersNo0_wht.png' class='respPic'></div><div class='trialDiv'><img src='Fruit/bananas.png'><br><font class='baseline'><strong>Banana Bonanza</strong><p><strong><font class='posOutcome'>You WON</font><p>You bet: 1</strong></font> &nbsp; &nbsp; &nbsp; &nbsp; &nbsp; &nbsp;<font class='posOutcome'>you receive: <strong>2</strong></font></div>","null","9","Banana Bonanza","Fruit/bananas.png","Won","0.35,0.8","14","0.35","105","26","",""
"html-keyboard-response","88","155382","0.0-11.0-1.26","6105338a15c74e8435e95c71","bdp_rwlrn","Wed Mar 15 2023 15:39:05 GMT-0400 (Eastern Daylight Time)","370891","Trustworthy,Untrustworthy","","232","","","","decision","","<div class='trialDiv'><img src='Fruit/pineapple.png'><br><font class='baseline'><strong>Primo Pineapple</strong><p>Choose number of points to bet.</font><div class='respPicDiv'><img src='img/responseButtonOffersNo0L.png' class='respPic'></div></div>","2","9","Primo Pineapple","Fruit/pineapple.png","Won","0.35,0.65","8","0.35","110","27","",""
"html-keyboard-response","89","155644","0.0-11.0-2.26","6105338a15c74e8435e95c71","bdp_rwlrn","Wed Mar 15 2023 15:39:05 GMT-0400 (Eastern Daylight Time)","370891","Trustworthy,Untrustworthy","","null","","","","decisionFB","","<div class='trialDiv'><img src='Fruit/pineapple.png'><br><font class='baseline'><strong>Primo Pineapple</strong><p>Choose number of points to bet.</font><div class='respPicDiv'><img src='img/responseButtonOffersNo0L2.png' class='respPic'></div></div>","null","9","Primo Pineapple","Fruit/pineapple.png","Won","0.35,0.65","8","0.35","108","27","",""
"html-keyboard-response","90","156651","0.0-11.0-3.26","6105338a15c74e8435e95c71","bdp_rwlrn","Wed Mar 15 2023 15:39:05 GMT-0400 (Eastern Daylight Time)","370891","Trustworthy,Untrustworthy","","null","","","","feedback","","<div class='respPicDiv'><img src='img/responseButtonOffersNo0_wht.png' class='respPic'></div><div class='trialDiv'><img src='Fruit/pineapple.png'><br><font class='baseline'><strong>Primo Pineapple</strong><p><strong><font class='posOutcome'>You WON</font><p>You bet: 2</strong></font> &nbsp; &nbsp; &nbsp; &nbsp; &nbsp; &nbsp;<font class='posOutcome'>you receive: <strong>4</strong></font></div>","null","9","Primo Pineapple","Fruit/pineapple.png","Won","0.35,0.65","8","0.35","112","27","",""
"html-keyboard-response","91","156918","0.0-11.0-1.27","6105338a15c74e8435e95c71","bdp_rwlrn","Wed Mar 15 2023 15:39:05 GMT-0400 (Eastern Daylight Time)","370891","Trustworthy,Untrustworthy","","264","","","","decision","","<div class='trialDiv'><img src='Fruit/papayas.png'><br><font class='baseline'><strong>Papaya Payday</strong><p>Choose number of points to bet.</font><div class='respPicDiv'><img src='img/responseButtonOffersNo0L.png' class='respPic'></div></div>","3","10","Papaya Payday","Fruit/papayas.png","Won","0.65,0.2","11","0.65","117","28","",""
"html-keyboard-response","92","157176","0.0-11.0-2.27","6105338a15c74e8435e95c71","bdp_rwlrn","Wed Mar 15 2023 15:39:05 GMT-0400 (Eastern Daylight Time)","370891","Trustworthy,Untrustworthy","","null","","","","decisionFB","","<div class='trialDiv'><img src='Fruit/papayas.png'><br><font class='baseline'><strong>Papaya Payday</strong><p>Choose number of points to bet.</font><div class='respPicDiv'><img src='img/responseButtonOffersNo0L3.png' class='respPic'></div></div>","null","10","Papaya Payday","Fruit/papayas.png","Won","0.65,0.2","11","0.65","114","28","",""
"html-keyboard-response","93","158184","0.0-11.0-3.27","6105338a15c74e8435e95c71","bdp_rwlrn","Wed Mar 15 2023 15:39:05 GMT-0400 (Eastern Daylight Time)","370891","Trustworthy,Untrustworthy","","null","","","","feedback","","<div class='respPicDiv'><img src='img/responseButtonOffersNo0_wht.png' class='respPic'></div><div class='trialDiv'><img src='Fruit/papayas.png'><br><font class='baseline'><strong>Papaya Payday</strong><p><strong><font class='posOutcome'>You WON</font><p>You bet: 3</strong></font> &nbsp; &nbsp; &nbsp; &nbsp; &nbsp; &nbsp;<font class='posOutcome'>you receive: <strong>6</strong></font></div>","null","10","Papaya Payday","Fruit/papayas.png","Won","0.65,0.2","11","0.65","120","28","",""
"html-keyboard-response","94","158463","0.0-11.0-1.28","6105338a15c74e8435e95c71","bdp_rwlrn","Wed Mar 15 2023 15:39:05 GMT-0400 (Eastern Daylight Time)","370891","Trustworthy,Untrustworthy","","277","","","","decision","","<div class='trialDiv'><img src='Fruit/pineapple.png'><br><font class='baseline'><strong>Primo Pineapple</strong><p>Choose number of points to bet.</font><div class='respPicDiv'><img src='img/responseButtonOffersNo0L.png' class='respPic'></div></div>","1","10","Primo Pineapple","Fruit/pineapple.png","Won","0.35,0.65","8","0.35","125","29","",""
"html-keyboard-response","95","158715","0.0-11.0-2.28","6105338a15c74e8435e95c71","bdp_rwlrn","Wed Mar 15 2023 15:39:05 GMT-0400 (Eastern Daylight Time)","370891","Trustworthy,Untrustworthy","","null","","","","decisionFB","","<div class='trialDiv'><img src='Fruit/pineapple.png'><br><font class='baseline'><strong>Primo Pineapple</strong><p>Choose number of points to bet.</font><div class='respPicDiv'><img src='img/responseButtonOffersNo0L1.png' class='respPic'></div></div>","null","10","Primo Pineapple","Fruit/pineapple.png","Won","0.35,0.65","8","0.35","124","29","",""
"html-keyboard-response","96","159726","0.0-11.0-3.28","6105338a15c74e8435e95c71","bdp_rwlrn","Wed Mar 15 2023 15:39:05 GMT-0400 (Eastern Daylight Time)","370891","Trustworthy,Untrustworthy","","null","","","","feedback","","<div class='respPicDiv'><img src='img/responseButtonOffersNo0_wht.png' class='respPic'></div><div class='trialDiv'><img src='Fruit/pineapple.png'><br><font class='baseline'><strong>Primo Pineapple</strong><p><strong><font class='posOutcome'>You WON</font><p>You bet: 1</strong></font> &nbsp; &nbsp; &nbsp; &nbsp; &nbsp; &nbsp;<font class='posOutcome'>you receive: <strong>2</strong></font></div>","null","10","Primo Pineapple","Fruit/pineapple.png","Won","0.35,0.65","8","0.35","126","29","",""
"html-keyboard-response","97","159977","0.0-11.0-1.29","6105338a15c74e8435e95c71","bdp_rwlrn","Wed Mar 15 2023 15:39:05 GMT-0400 (Eastern Daylight Time)","370891","Trustworthy,Untrustworthy","","247","","","","decision","","<div class='trialDiv'><img src='Fruit/bananas.png'><br><font class='baseline'><strong>Banana Bonanza</strong><p>Choose number of points to bet.</font><div class='respPicDiv'><img src='img/responseButtonOffersNo0L.png' class='respPic'></div></div>","2","10","Banana Bonanza","Fruit/bananas.png","Lost","0.35,0.8","14","0.35","131","30","",""
"html-keyboard-response","98","160238","0.0-11.0-2.29","6105338a15c74e8435e95c71","bdp_rwlrn","Wed Mar 15 2023 15:39:05 GMT-0400 (Eastern Daylight Time)","370891","Trustworthy,Untrustworthy","","null","","","","decisionFB","","<div class='trialDiv'><img src='Fruit/bananas.png'><br><font class='baseline'><strong>Banana Bonanza</strong><p>Choose number of points to bet.</font><div class='respPicDiv'><img src='img/responseButtonOffersNo0L2.png' class='respPic'></div></div>","null","10","Banana Bonanza","Fruit/bananas.png","Lost","0.35,0.8","14","0.35","129","30","",""
"html-keyboard-response","99","161244","0.0-11.0-3.29","6105338a15c74e8435e95c71","bdp_rwlrn","Wed Mar 15 2023 15:39:05 GMT-0400 (Eastern Daylight Time)","370891","Trustworthy,Untrustworthy","","null","","","","feedback","","<div class='respPicDiv'><img src='img/responseButtonOffersNo0_wht.png' class='respPic'></div><div class='trialDiv'><img src='Fruit/bananas.png'><br><font class='baseline'><strong>Banana Bonanza</strong><p><strong><font class='negOutcome'>You LOST</font><p>You bet: 2</strong></font> &nbsp; &nbsp; &nbsp; &nbsp; &nbsp; &nbsp;<font class='negOutcome'>You receive: <strong>0</strong></font></div>","null","10","Banana Bonanza","Fruit/bananas.png","Lost","0.35,0.8","14","0.35","129","30","",""
"html-keyboard-response","100","161508","0.0-11.0-1.30","6105338a15c74e8435e95c71","bdp_rwlrn","Wed Mar 15 2023 15:39:05 GMT-0400 (Eastern Daylight Time)","370891","Trustworthy,Untrustworthy","","262","","","","decision","","<div class='trialDiv'><img src='Fruit/pineapple.png'><br><font class='baseline'><strong>Primo Pineapple</strong><p>Choose number of points to bet.</font><div class='respPicDiv'><img src='img/responseButtonOffersNo0L.png' class='respPic'></div></div>","3","11","Primo Pineapple","Fruit/pineapple.png","Won","0.35,0.65","8","0.35","134","31","",""
"html-keyboard-response","101","161772","0.0-11.0-2.30","6105338a15c74e8435e95c71","bdp_rwlrn","Wed Mar 15 2023 15:39:05 GMT-0400 (Eastern Daylight Time)","370891","Trustworthy,Untrustworthy","","null","","","","decisionFB","","<div class='trialDiv'><img src='Fruit/pineapple.png'><br><font class='baseline'><strong>Primo Pineapple</strong><p>Choose number of points to bet.</font><div class='respPicDiv'><img src='img/responseButtonOffersNo0L3.png' class='respPic'></div></div>","null","11","Primo Pineapple","Fruit/pineapple.png","Won","0.35,0.65","8","0.35","131","31","",""
"html-keyboard-response","102","162779","0.0-11.0-3.30","6105338a15c74e8435e95c71","bdp_rwlrn","Wed Mar 15 2023 15:39:05 GMT-0400 (Eastern Daylight Time)","370891","Trustworthy,Untrustworthy","","null","","","","feedback","","<div class='respPicDiv'><img src='img/responseButtonOffersNo0_wht.png' class='respPic'></div><div class='trialDiv'><img src='Fruit/pineapple.png'><br><font class='baseline'><strong>Primo Pineapple</strong><p><strong><font class='posOutcome'>You WON</font><p>You bet: 3</strong></font> &nbsp; &nbsp; &nbsp; &nbsp; &nbsp; &nbsp;<font class='posOutcome'>you receive: <strong>6</strong></font></div>","null","11","Primo Pineapple","Fruit/pineapple.png","Won","0.35,0.65","8","0.35","137","31","",""
"html-keyboard-response","103","163063","0.0-11.0-1.31","6105338a15c74e8435e95c71","bdp_rwlrn","Wed Mar 15 2023 15:39:05 GMT-0400 (Eastern Daylight Time)","370891","Trustworthy,Untrustworthy","","281","","","","decision","","<div class='trialDiv'><img src='Fruit/bananas.png'><br><font class='baseline'><strong>Banana Bonanza</strong><p>Choose number of points to bet.</font><div class='respPicDiv'><img src='img/responseButtonOffersNo0L.png' class='respPic'></div></div>","1","11","Banana Bonanza","Fruit/bananas.png","Lost","0.35,0.8","14","0.35","142","32","",""
"html-keyboard-response","104","163322","0.0-11.0-2.31","6105338a15c74e8435e95c71","bdp_rwlrn","Wed Mar 15 2023 15:39:05 GMT-0400 (Eastern Daylight Time)","370891","Trustworthy,Untrustworthy","","null","","","","decisionFB","","<div class='trialDiv'><img src='Fruit/bananas.png'><br><font class='baseline'><strong>Banana Bonanza</strong><p>Choose number of points to bet.</font><div class='respPicDiv'><img src='img/responseButtonOffersNo0L1.png' class='respPic'></div></div>","null","11","Banana Bonanza","Fruit/bananas.png","Lost","0.35,0.8","14","0.35","141","32","",""
"html-keyboard-response","105","164325","0.0-11.0-3.31","6105338a15c74e8435e95c71","bdp_rwlrn","Wed Mar 15 2023 15:39:05 GMT-0400 (Eastern Daylight Time)","370891","Trustworthy,Untrustworthy","","null","","","","feedback","","<div class='respPicDiv'><img src='img/responseButtonOffersNo0_wht.png' class='respPic'></div><div class='trialDiv'><img src='Fruit/bananas.png'><br><font class='baseline'><strong>Banana Bonanza</strong><p><strong><font class='negOutcome'>You LOST</font><p>You bet: 1</strong></font> &nbsp; &nbsp; &nbsp; &nbsp; &nbsp; &nbsp;<font class='negOutcome'>You receive: <strong>0</strong></font></div>","null","11","Banana Bonanza","Fruit/bananas.png","Lost","0.35,0.8","14","0.35","141","32","",""
"html-keyboard-response","106","164554","0.0-11.0-1.32","6105338a15c74e8435e95c71","bdp_rwlrn","Wed Mar 15 2023 15:39:05 GMT-0400 (Eastern Daylight Time)","370891","Trustworthy,Untrustworthy","","226","","","","decision","","<div class='trialDiv'><img src='Fruit/papayas.png'><br><font class='baseline'><strong>Papaya Payday</strong><p>Choose number of points to bet.</font><div class='respPicDiv'><img src='img/responseButtonOffersNo0L.png' class='respPic'></div></div>","2","11","Papaya Payday","Fruit/papayas.png","Won","0.65,0.2","11","0.65","146","33","",""
"html-keyboard-response","107","164816","0.0-11.0-2.32","6105338a15c74e8435e95c71","bdp_rwlrn","Wed Mar 15 2023 15:39:05 GMT-0400 (Eastern Daylight Time)","370891","Trustworthy,Untrustworthy","","null","","","","decisionFB","","<div class='trialDiv'><img src='Fruit/papayas.png'><br><font class='baseline'><strong>Papaya Payday</strong><p>Choose number of points to bet.</font><div class='respPicDiv'><img src='img/responseButtonOffersNo0L2.png' class='respPic'></div></div>","null","11","Papaya Payday","Fruit/papayas.png","Won","0.65,0.2","11","0.65","144","33","",""
"html-keyboard-response","108","165824","0.0-11.0-3.32","6105338a15c74e8435e95c71","bdp_rwlrn","Wed Mar 15 2023 15:39:05 GMT-0400 (Eastern Daylight Time)","370891","Trustworthy,Untrustworthy","","null","","","","feedback","","<div class='respPicDiv'><img src='img/responseButtonOffersNo0_wht.png' class='respPic'></div><div class='trialDiv'><img src='Fruit/papayas.png'><br><font class='baseline'><strong>Papaya Payday</strong><p><strong><font class='posOutcome'>You WON</font><p>You bet: 2</strong></font> &nbsp; &nbsp; &nbsp; &nbsp; &nbsp; &nbsp;<font class='posOutcome'>you receive: <strong>4</strong></font></div>","null","11","Papaya Payday","Fruit/papayas.png","Won","0.65,0.2","11","0.65","148","33","",""
"html-keyboard-response","109","166087","0.0-11.0-1.33","6105338a15c74e8435e95c71","bdp_rwlrn","Wed Mar 15 2023 15:39:05 GMT-0400 (Eastern Daylight Time)","370891","Trustworthy,Untrustworthy","","261","","","","decision","","<div class='trialDiv'><img src='Fruit/pineapple.png'><br><font class='baseline'><strong>Primo Pineapple</strong><p>Choose number of points to bet.</font><div class='respPicDiv'><img src='img/responseButtonOffersNo0L.png' class='respPic'></div></div>","3","12","Primo Pineapple","Fruit/pineapple.png","Lost","0.35,0.65","8","0.35","153","34","",""
"html-keyboard-response","110","166343","0.0-11.0-2.33","6105338a15c74e8435e95c71","bdp_rwlrn","Wed Mar 15 2023 15:39:05 GMT-0400 (Eastern Daylight Time)","370891","Trustworthy,Untrustworthy","","null","","","","decisionFB","","<div class='trialDiv'><img src='Fruit/pineapple.png'><br><font class='baseline'><strong>Primo Pineapple</strong><p>Choose number of points to bet.</font><div class='respPicDiv'><img src='img/responseButtonOffersNo0L3.png' class='respPic'></div></div>","null","12","Primo Pineapple","Fruit/pineapple.png","Lost","0.35,0.65","8","0.35","150","34","",""
"html-keyboard-response","111","167351","0.0-11.0-3.33","6105338a15c74e8435e95c71","bdp_rwlrn","Wed Mar 15 2023 15:39:05 GMT-0400 (Eastern Daylight Time)","370891","Trustworthy,Untrustworthy","","null","","","","feedback","","<div class='respPicDiv'><img src='img/responseButtonOffersNo0_wht.png' class='respPic'></div><div class='trialDiv'><img src='Fruit/pineapple.png'><br><font class='baseline'><strong>Primo Pineapple</strong><p><strong><font class='negOutcome'>You LOST</font><p>You bet: 3</strong></font> &nbsp; &nbsp; &nbsp; &nbsp; &nbsp; &nbsp;<font class='negOutcome'>You receive: <strong>0</strong></font></div>","null","12","Primo Pineapple","Fruit/pineapple.png","Lost","0.35,0.65","8","0.35","150","34","",""
"html-keyboard-response","112","167715","0.0-11.0-1.34","6105338a15c74e8435e95c71","bdp_rwlrn","Wed Mar 15 2023 15:39:05 GMT-0400 (Eastern Daylight Time)","370891","Trustworthy,Untrustworthy","","361","","","","decision","","<div class='trialDiv'><img src='Fruit/papayas.png'><br><font class='baseline'><strong>Papaya Payday</strong><p>Choose number of points to bet.</font><div class='respPicDiv'><img src='img/responseButtonOffersNo0L.png' class='respPic'></div></div>","1","12","Papaya Payday","Fruit/papayas.png","Won","0.65,0.2","11","0.65","155","35","",""
"html-keyboard-response","113","167970","0.0-11.0-2.34","6105338a15c74e8435e95c71","bdp_rwlrn","Wed Mar 15 2023 15:39:05 GMT-0400 (Eastern Daylight Time)","370891","Trustworthy,Untrustworthy","","null","","","","decisionFB","","<div class='trialDiv'><img src='Fruit/papayas.png'><br><font class='baseline'><strong>Papaya Payday</strong><p>Choose number of points to bet.</font><div class='respPicDiv'><img src='img/responseButtonOffersNo0L1.png' class='respPic'></div></div>","null","12","Papaya Payday","Fruit/papayas.png","Won","0.65,0.2","11","0.65","154","35","",""
"html-keyboard-response","114","168981","0.0-11.0-3.34","6105338a15c74e8435e95c71","bdp_rwlrn","Wed Mar 15 2023 15:39:05 GMT-0400 (Eastern Daylight Time)","370891","Trustworthy,Untrustworthy","","null","","","","feedback","","<div class='respPicDiv'><img src='img/responseButtonOffersNo0_wht.png' class='respPic'></div><div class='trialDiv'><img src='Fruit/papayas.png'><br><font class='baseline'><strong>Papaya Payday</strong><p><strong><font class='posOutcome'>You WON</font><p>You bet: 1</strong></font> &nbsp; &nbsp; &nbsp; &nbsp; &nbsp; &nbsp;<font class='posOutcome'>you receive: <strong>2</strong></font></div>","null","12","Papaya Payday","Fruit/papayas.png","Won","0.65,0.2","11","0.65","156","35","",""
"html-keyboard-response","115","169207","0.0-11.0-1.35","6105338a15c74e8435e95c71","bdp_rwlrn","Wed Mar 15 2023 15:39:05 GMT-0400 (Eastern Daylight Time)","370891","Trustworthy,Untrustworthy","","222","","","","decision","","<div class='trialDiv'><img src='Fruit/bananas.png'><br><font class='baseline'><strong>Banana Bonanza</strong><p>Choose number of points to bet.</font><div class='respPicDiv'><img src='img/responseButtonOffersNo0L.png' class='respPic'></div></div>","2","12","Banana Bonanza","Fruit/bananas.png","Won","0.35,0.8","14","0.35","161","36","",""
"html-keyboard-response","116","169469","0.0-11.0-2.35","6105338a15c74e8435e95c71","bdp_rwlrn","Wed Mar 15 2023 15:39:05 GMT-0400 (Eastern Daylight Time)","370891","Trustworthy,Untrustworthy","","null","","","","decisionFB","","<div class='trialDiv'><img src='Fruit/bananas.png'><br><font class='baseline'><strong>Banana Bonanza</strong><p>Choose number of points to bet.</font><div class='respPicDiv'><img src='img/responseButtonOffersNo0L2.png' class='respPic'></div></div>","null","12","Banana Bonanza","Fruit/bananas.png","Won","0.35,0.8","14","0.35","159","36","",""
"html-keyboard-response","117","170477","0.0-11.0-3.35","6105338a15c74e8435e95c71","bdp_rwlrn","Wed Mar 15 2023 15:39:05 GMT-0400 (Eastern Daylight Time)","370891","Trustworthy,Untrustworthy","","null","","","","feedback","","<div class='respPicDiv'><img src='img/responseButtonOffersNo0_wht.png' class='respPic'></div><div class='trialDiv'><img src='Fruit/bananas.png'><br><font class='baseline'><strong>Banana Bonanza</strong><p><strong><font class='posOutcome'>You WON</font><p>You bet: 2</strong></font> &nbsp; &nbsp; &nbsp; &nbsp; &nbsp; &nbsp;<font class='posOutcome'>you receive: <strong>4</strong></font></div>","null","12","Banana Bonanza","Fruit/bananas.png","Won","0.35,0.8","14","0.35","163","36","",""
"html-keyboard-response","118","170749","0.0-11.0-1.36","6105338a15c74e8435e95c71","bdp_rwlrn","Wed Mar 15 2023 15:39:05 GMT-0400 (Eastern Daylight Time)","370891","Trustworthy,Untrustworthy","","269","","","","decision","","<div class='trialDiv'><img src='Fruit/pineapple.png'><br><font class='baseline'><strong>Primo Pineapple</strong><p>Choose number of points to bet.</font><div class='respPicDiv'><img src='img/responseButtonOffersNo0L.png' class='respPic'></div></div>","3","13","Primo Pineapple","Fruit/pineapple.png","Lost","0.35,0.65","8","0.35","168","37","",""
"html-keyboard-response","119","171012","0.0-11.0-2.36","6105338a15c74e8435e95c71","bdp_rwlrn","Wed Mar 15 2023 15:39:05 GMT-0400 (Eastern Daylight Time)","370891","Trustworthy,Untrustworthy","","null","","","","decisionFB","","<div class='trialDiv'><img src='Fruit/pineapple.png'><br><font class='baseline'><strong>Primo Pineapple</strong><p>Choose number of points to bet.</font><div class='respPicDiv'><img src='img/responseButtonOffersNo0L3.png' class='respPic'></div></div>","null","13","Primo Pineapple","Fruit/pineapple.png","Lost","0.35,0.65","8","0.35","165","37","",""
"html-keyboard-response","120","172016","0.0-11.0-3.36","6105338a15c74e8435e95c71","bdp_rwlrn","Wed Mar 15 2023 15:39:05 GMT-0400 (Eastern Daylight Time)","370891","Trustworthy,Untrustworthy","","null","","","","feedback","","<div class='respPicDiv'><img src='img/responseButtonOffersNo0_wht.png' class='respPic'></div><div class='trialDiv'><img src='Fruit/pineapple.png'><br><font class='baseline'><strong>Primo Pineapple</strong><p><strong><font class='negOutcome'>You LOST</font><p>You bet: 3</strong></font> &nbsp; &nbsp; &nbsp; &nbsp; &nbsp; &nbsp;<font class='negOutcome'>You receive: <strong>0</strong></font></div>","null","13","Primo Pineapple","Fruit/pineapple.png","Lost","0.35,0.65","8","0.35","165","37","",""
"html-keyboard-response","121","172247","0.0-11.0-1.37","6105338a15c74e8435e95c71","bdp_rwlrn","Wed Mar 15 2023 15:39:05 GMT-0400 (Eastern Daylight Time)","370891","Trustworthy,Untrustworthy","","228","","","","decision","","<div class='trialDiv'><img src='Fruit/bananas.png'><br><font class='baseline'><strong>Banana Bonanza</strong><p>Choose number of points to bet.</font><div class='respPicDiv'><img src='img/responseButtonOffersNo0L.png' class='respPic'></div></div>","1","13","Banana Bonanza","Fruit/bananas.png","Lost","0.35,0.8","14","0.35","170","38","",""
"html-keyboard-response","122","172499","0.0-11.0-2.37","6105338a15c74e8435e95c71","bdp_rwlrn","Wed Mar 15 2023 15:39:05 GMT-0400 (Eastern Daylight Time)","370891","Trustworthy,Untrustworthy","","null","","","","decisionFB","","<div class='trialDiv'><img src='Fruit/bananas.png'><br><font class='baseline'><strong>Banana Bonanza</strong><p>Choose number of points to bet.</font><div class='respPicDiv'><img src='img/responseButtonOffersNo0L1.png' class='respPic'></div></div>","null","13","Banana Bonanza","Fruit/bananas.png","Lost","0.35,0.8","14","0.35","169","38","",""
"html-keyboard-response","123","173507","0.0-11.0-3.37","6105338a15c74e8435e95c71","bdp_rwlrn","Wed Mar 15 2023 15:39:05 GMT-0400 (Eastern Daylight Time)","370891","Trustworthy,Untrustworthy","","null","","","","feedback","","<div class='respPicDiv'><img src='img/responseButtonOffersNo0_wht.png' class='respPic'></div><div class='trialDiv'><img src='Fruit/bananas.png'><br><font class='baseline'><strong>Banana Bonanza</strong><p><strong><font class='negOutcome'>You LOST</font><p>You bet: 1</strong></font> &nbsp; &nbsp; &nbsp; &nbsp; &nbsp; &nbsp;<font class='negOutcome'>You receive: <strong>0</strong></font></div>","null","13","Banana Bonanza","Fruit/bananas.png","Lost","0.35,0.8","14","0.35","169","38","",""
"html-keyboard-response","124","173702","0.0-11.0-1.38","6105338a15c74e8435e95c71","bdp_rwlrn","Wed Mar 15 2023 15:39:05 GMT-0400 (Eastern Daylight Time)","370891","Trustworthy,Untrustworthy","","193","","","","decision","","<div class='trialDiv'><img src='Fruit/papayas.png'><br><font class='baseline'><strong>Papaya Payday</strong><p>Choose number of points to bet.</font><div class='respPicDiv'><img src='img/responseButtonOffersNo0L.png' class='respPic'></div></div>","2","13","Papaya Payday","Fruit/papayas.png","Lost","0.65,0.2","11","0.65","174","39","",""
"html-keyboard-response","125","173962","0.0-11.0-2.38","6105338a15c74e8435e95c71","bdp_rwlrn","Wed Mar 15 2023 15:39:05 GMT-0400 (Eastern Daylight Time)","370891","Trustworthy,Untrustworthy","","null","","","","decisionFB","","<div class='trialDiv'><img src='Fruit/papayas.png'><br><font class='baseline'><strong>Papaya Payday</strong><p>Choose number of points to bet.</font><div class='respPicDiv'><img src='img/responseButtonOffersNo0L2.png' class='respPic'></div></div>","null","13","Papaya Payday","Fruit/papayas.png","Lost","0.65,0.2","11","0.65","172","39","",""
"html-keyboard-response","126","174970","0.0-11.0-3.38","6105338a15c74e8435e95c71","bdp_rwlrn","Wed Mar 15 2023 15:39:05 GMT-0400 (Eastern Daylight Time)","370891","Trustworthy,Untrustworthy","","null","","","","feedback","","<div class='respPicDiv'><img src='img/responseButtonOffersNo0_wht.png' class='respPic'></div><div class='trialDiv'><img src='Fruit/papayas.png'><br><font class='baseline'><strong>Papaya Payday</strong><p><strong><font class='negOutcome'>You LOST</font><p>You bet: 2</strong></font> &nbsp; &nbsp; &nbsp; &nbsp; &nbsp; &nbsp;<font class='negOutcome'>You receive: <strong>0</strong></font></div>","null","13","Papaya Payday","Fruit/papayas.png","Lost","0.65,0.2","11","0.65","172","39","",""
"html-keyboard-response","127","175174","0.0-11.0-1.39","6105338a15c74e8435e95c71","bdp_rwlrn","Wed Mar 15 2023 15:39:05 GMT-0400 (Eastern Daylight Time)","370891","Trustworthy,Untrustworthy","","201","","","","decision","","<div class='trialDiv'><img src='Fruit/pineapple.png'><br><font class='baseline'><strong>Primo Pineapple</strong><p>Choose number of points to bet.</font><div class='respPicDiv'><img src='img/responseButtonOffersNo0L.png' class='respPic'></div></div>","3","14","Primo Pineapple","Fruit/pineapple.png","Lost","0.35,0.65","8","0.35","177","40","",""
"html-keyboard-response","128","175434","0.0-11.0-2.39","6105338a15c74e8435e95c71","bdp_rwlrn","Wed Mar 15 2023 15:39:05 GMT-0400 (Eastern Daylight Time)","370891","Trustworthy,Untrustworthy","","null","","","","decisionFB","","<div class='trialDiv'><img src='Fruit/pineapple.png'><br><font class='baseline'><strong>Primo Pineapple</strong><p>Choose number of points to bet.</font><div class='respPicDiv'><img src='img/responseButtonOffersNo0L3.png' class='respPic'></div></div>","null","14","Primo Pineapple","Fruit/pineapple.png","Lost","0.35,0.65","8","0.35","174","40","",""
"html-keyboard-response","129","176441","0.0-11.0-3.39","6105338a15c74e8435e95c71","bdp_rwlrn","Wed Mar 15 2023 15:39:05 GMT-0400 (Eastern Daylight Time)","370891","Trustworthy,Untrustworthy","","null","","","","feedback","","<div class='respPicDiv'><img src='img/responseButtonOffersNo0_wht.png' class='respPic'></div><div class='trialDiv'><img src='Fruit/pineapple.png'><br><font class='baseline'><strong>Primo Pineapple</strong><p><strong><font class='negOutcome'>You LOST</font><p>You bet: 3</strong></font> &nbsp; &nbsp; &nbsp; &nbsp; &nbsp; &nbsp;<font class='negOutcome'>You receive: <strong>0</strong></font></div>","null","14","Primo Pineapple","Fruit/pineapple.png","Lost","0.35,0.65","8","0.35","174","40","",""
"html-keyboard-response","130","176768","0.0-11.0-1.40","6105338a15c74e8435e95c71","bdp_rwlrn","Wed Mar 15 2023 15:39:05 GMT-0400 (Eastern Daylight Time)","370891","Trustworthy,Untrustworthy","","323","","","","decision","","<div class='trialDiv'><img src='Fruit/bananas.png'><br><font class='baseline'><strong>Banana Bonanza</strong><p>Choose number of points to bet.</font><div class='respPicDiv'><img src='img/responseButtonOffersNo0L.png' class='respPic'></div></div>","1","14","Banana Bonanza","Fruit/bananas.png","Won","0.35,0.8","14","0.35","179","41","",""
"html-keyboard-response","131","177025","0.0-11.0-2.40","6105338a15c74e8435e95c71","bdp_rwlrn","Wed Mar 15 2023 15:39:05 GMT-0400 (Eastern Daylight Time)","370891","Trustworthy,Untrustworthy","","null","","","","decisionFB","","<div class='trialDiv'><img src='Fruit/bananas.png'><br><font class='baseline'><strong>Banana Bonanza</strong><p>Choose number of points to bet.</font><div class='respPicDiv'><img src='img/responseButtonOffersNo0L1.png' class='respPic'></div></div>","null","14","Banana Bonanza","Fruit/bananas.png","Won","0.35,0.8","14","0.35","178","41","",""
"html-keyboard-response","132","178029","0.0-11.0-3.40","6105338a15c74e8435e95c71","bdp_rwlrn","Wed Mar 15 2023 15:39:05 GMT-0400 (Eastern Daylight Time)","370891","Trustworthy,Untrustworthy","","null","","","","feedback","","<div class='respPicDiv'><img src='img/responseButtonOffersNo0_wht.png' class='respPic'></div><div class='trialDiv'><img src='Fruit/bananas.png'><br><font class='baseline'><strong>Banana Bonanza</strong><p><strong><font class='posOutcome'>You WON</font><p>You bet: 1</strong></font> &nbsp; &nbsp; &nbsp; &nbsp; &nbsp; &nbsp;<font class='posOutcome'>you receive: <strong>2</strong></font></div>","null","14","Banana Bonanza","Fruit/bananas.png","Won","0.35,0.8","14","0.35","180","41","",""
"html-keyboard-response","133","178225","0.0-11.0-1.41","6105338a15c74e8435e95c71","bdp_rwlrn","Wed Mar 15 2023 15:39:05 GMT-0400 (Eastern Daylight Time)","370891","Trustworthy,Untrustworthy","","193","","","","decision","","<div class='trialDiv'><img src='Fruit/papayas.png'><br><font class='baseline'><strong>Papaya Payday</strong><p>Choose number of points to bet.</font><div class='respPicDiv'><img src='img/responseButtonOffersNo0L.png' class='respPic'></div></div>","2","14","Papaya Payday","Fruit/papayas.png","Lost","0.65,0.2","11","0.65","185","42","",""
"html-keyboard-response","134","178488","0.0-11.0-2.41","6105338a15c74e8435e95c71","bdp_rwlrn","Wed Mar 15 2023 15:39:05 GMT-0400 (Eastern Daylight Time)","370891","Trustworthy,Untrustworthy","","null","","","","decisionFB","","<div class='trialDiv'><img src='Fruit/papayas.png'><br><font class='baseline'><strong>Papaya Payday</strong><p>Choose number of points to bet.</font><div class='respPicDiv'><img src='img/responseButtonOffersNo0L2.png' class='respPic'></div></div>","null","14","Papaya Payday","Fruit/papayas.png","Lost","0.65,0.2","11","0.65","183","42","",""
"html-keyboard-response","135","179496","0.0-11.0-3.41","6105338a15c74e8435e95c71","bdp_rwlrn","Wed Mar 15 2023 15:39:05 GMT-0400 (Eastern Daylight Time)","370891","Trustworthy,Untrustworthy","","null","","","","feedback","","<div class='respPicDiv'><img src='img/responseButtonOffersNo0_wht.png' class='respPic'></div><div class='trialDiv'><img src='Fruit/papayas.png'><br><font class='baseline'><strong>Papaya Payday</strong><p><strong><font class='negOutcome'>You LOST</font><p>You bet: 2</strong></font> &nbsp; &nbsp; &nbsp; &nbsp; &nbsp; &nbsp;<font class='negOutcome'>You receive: <strong>0</strong></font></div>","null","14","Papaya Payday","Fruit/papayas.png","Lost","0.65,0.2","11","0.65","183","42","",""
"html-keyboard-response","136","179566","0.0-11.0-1.42","6105338a15c74e8435e95c71","bdp_rwlrn","Wed Mar 15 2023 15:39:05 GMT-0400 (Eastern Daylight Time)","370891","Trustworthy,Untrustworthy","","67","","","","decision","","<div class='trialDiv'><img src='Fruit/bananas.png'><br><font class='baseline'><strong>Banana Bonanza</strong><p>Choose number of points to bet.</font><div class='respPicDiv'><img src='img/responseButtonOffersNo0L.png' class='respPic'></div></div>","3","15","Banana Bonanza","Fruit/bananas.png","Won","0.35,0.8","14","0.35","188","43","",""
"html-keyboard-response","137","179824","0.0-11.0-2.42","6105338a15c74e8435e95c71","bdp_rwlrn","Wed Mar 15 2023 15:39:05 GMT-0400 (Eastern Daylight Time)","370891","Trustworthy,Untrustworthy","","null","","","","decisionFB","","<div class='trialDiv'><img src='Fruit/bananas.png'><br><font class='baseline'><strong>Banana Bonanza</strong><p>Choose number of points to bet.</font><div class='respPicDiv'><img src='img/responseButtonOffersNo0L3.png' class='respPic'></div></div>","null","15","Banana Bonanza","Fruit/bananas.png","Won","0.35,0.8","14","0.35","185","43","",""
"html-keyboard-response","138","180832","0.0-11.0-3.42","6105338a15c74e8435e95c71","bdp_rwlrn","Wed Mar 15 2023 15:39:05 GMT-0400 (Eastern Daylight Time)","370891","Trustworthy,Untrustworthy","","null","","","","feedback","","<div class='respPicDiv'><img src='img/responseButtonOffersNo0_wht.png' class='respPic'></div><div class='trialDiv'><img src='Fruit/bananas.png'><br><font class='baseline'><strong>Banana Bonanza</strong><p><strong><font class='posOutcome'>You WON</font><p>You bet: 3</strong></font> &nbsp; &nbsp; &nbsp; &nbsp; &nbsp; &nbsp;<font class='posOutcome'>you receive: <strong>6</strong></font></div>","null","15","Banana Bonanza","Fruit/bananas.png","Won","0.35,0.8","14","0.35","191","43","",""
"html-keyboard-response","139","181068","0.0-11.0-1.43","6105338a15c74e8435e95c71","bdp_rwlrn","Wed Mar 15 2023 15:39:05 GMT-0400 (Eastern Daylight Time)","370891","Trustworthy,Untrustworthy","","234","","","","decision","","<div class='trialDiv'><img src='Fruit/papayas.png'><br><font class='baseline'><strong>Papaya Payday</strong><p>Choose number of points to bet.</font><div class='respPicDiv'><img src='img/responseButtonOffersNo0L.png' class='respPic'></div></div>","1","15","Papaya Payday","Fruit/papayas.png","Lost","0.65,0.2","11","0.65","196","44","",""
"html-keyboard-response","140","181327","0.0-11.0-2.43","6105338a15c74e8435e95c71","bdp_rwlrn","Wed Mar 15 2023 15:39:05 GMT-0400 (Eastern Daylight Time)","370891","Trustworthy,Untrustworthy","","null","","","","decisionFB","","<div class='trialDiv'><img src='Fruit/papayas.png'><br><font class='baseline'><strong>Papaya Payday</strong><p>Choose number of points to bet.</font><div class='respPicDiv'><img src='img/responseButtonOffersNo0L1.png' class='respPic'></div></div>","null","15","Papaya Payday","Fruit/papayas.png","Lost","0.65,0.2","11","0.65","195","44","",""
"html-keyboard-response","141","182334","0.0-11.0-3.43","6105338a15c74e8435e95c71","bdp_rwlrn","Wed Mar 15 2023 15:39:05 GMT-0400 (Eastern Daylight Time)","370891","Trustworthy,Untrustworthy","","null","","","","feedback","","<div class='respPicDiv'><img src='img/responseButtonOffersNo0_wht.png' class='respPic'></div><div class='trialDiv'><img src='Fruit/papayas.png'><br><font class='baseline'><strong>Papaya Payday</strong><p><strong><font class='negOutcome'>You LOST</font><p>You bet: 1</strong></font> &nbsp; &nbsp; &nbsp; &nbsp; &nbsp; &nbsp;<font class='negOutcome'>You receive: <strong>0</strong></font></div>","null","15","Papaya Payday","Fruit/papayas.png","Lost","0.65,0.2","11","0.65","195","44","",""
"html-keyboard-response","142","182587","0.0-11.0-1.44","6105338a15c74e8435e95c71","bdp_rwlrn","Wed Mar 15 2023 15:39:05 GMT-0400 (Eastern Daylight Time)","370891","Trustworthy,Untrustworthy","","251","","","","decision","","<div class='trialDiv'><img src='Fruit/pineapple.png'><br><font class='baseline'><strong>Primo Pineapple</strong><p>Choose number of points to bet.</font><div class='respPicDiv'><img src='img/responseButtonOffersNo0L.png' class='respPic'></div></div>","2","15","Primo Pineapple","Fruit/pineapple.png","Won","0.35,0.65","8","0.35","200","45","",""
"html-keyboard-response","143","182847","0.0-11.0-2.44","6105338a15c74e8435e95c71","bdp_rwlrn","Wed Mar 15 2023 15:39:05 GMT-0400 (Eastern Daylight Time)","370891","Trustworthy,Untrustworthy","","null","","","","decisionFB","","<div class='trialDiv'><img src='Fruit/pineapple.png'><br><font class='baseline'><strong>Primo Pineapple</strong><p>Choose number of points to bet.</font><div class='respPicDiv'><img src='img/responseButtonOffersNo0L2.png' class='respPic'></div></div>","null","15","Primo Pineapple","Fruit/pineapple.png","Won","0.35,0.65","8","0.35","198","45","",""
"html-keyboard-response","144","183855","0.0-11.0-3.44","6105338a15c74e8435e95c71","bdp_rwlrn","Wed Mar 15 2023 15:39:05 GMT-0400 (Eastern Daylight Time)","370891","Trustworthy,Untrustworthy","","null","","","","feedback","","<div class='respPicDiv'><img src='img/responseButtonOffersNo0_wht.png' class='respPic'></div><div class='trialDiv'><img src='Fruit/pineapple.png'><br><font class='baseline'><strong>Primo Pineapple</strong><p><strong><font class='posOutcome'>You WON</font><p>You bet: 2</strong></font> &nbsp; &nbsp; &nbsp; &nbsp; &nbsp; &nbsp;<font class='posOutcome'>you receive: <strong>4</strong></font></div>","null","15","Primo Pineapple","Fruit/pineapple.png","Won","0.35,0.65","8","0.35","202","45","",""
"html-keyboard-response","145","184111","0.0-11.0-1.45","6105338a15c74e8435e95c71","bdp_rwlrn","Wed Mar 15 2023 15:39:05 GMT-0400 (Eastern Daylight Time)","370891","Trustworthy,Untrustworthy","","253","","","","decision","","<div class='trialDiv'><img src='Fruit/papayas.png'><br><font class='baseline'><strong>Papaya Payday</strong><p>Choose number of points to bet.</font><div class='respPicDiv'><img src='img/responseButtonOffersNo0L.png' class='respPic'></div></div>","3","16","Papaya Payday","Fruit/papayas.png","Lost","0.65,0.2","11","0.65","207","46","",""
"html-keyboard-response","146","184374","0.0-11.0-2.45","6105338a15c74e8435e95c71","bdp_rwlrn","Wed Mar 15 2023 15:39:05 GMT-0400 (Eastern Daylight Time)","370891","Trustworthy,Untrustworthy","","null","","","","decisionFB","","<div class='trialDiv'><img src='Fruit/papayas.png'><br><font class='baseline'><strong>Papaya Payday</strong><p>Choose number of points to bet.</font><div class='respPicDiv'><img src='img/responseButtonOffersNo0L3.png' class='respPic'></div></div>","null","16","Papaya Payday","Fruit/papayas.png","Lost","0.65,0.2","11","0.65","204","46","",""
"html-keyboard-response","147","185382","0.0-11.0-3.45","6105338a15c74e8435e95c71","bdp_rwlrn","Wed Mar 15 2023 15:39:05 GMT-0400 (Eastern Daylight Time)","370891","Trustworthy,Untrustworthy","","null","","","","feedback","","<div class='respPicDiv'><img src='img/responseButtonOffersNo0_wht.png' class='respPic'></div><div class='trialDiv'><img src='Fruit/papayas.png'><br><font class='baseline'><strong>Papaya Payday</strong><p><strong><font class='negOutcome'>You LOST</font><p>You bet: 3</strong></font> &nbsp; &nbsp; &nbsp; &nbsp; &nbsp; &nbsp;<font class='negOutcome'>You receive: <strong>0</strong></font></div>","null","16","Papaya Payday","Fruit/papayas.png","Lost","0.65,0.2","11","0.65","204","46","",""
"html-keyboard-response","148","185666","0.0-11.0-1.46","6105338a15c74e8435e95c71","bdp_rwlrn","Wed Mar 15 2023 15:39:05 GMT-0400 (Eastern Daylight Time)","370891","Trustworthy,Untrustworthy","","281","","","","decision","","<div class='trialDiv'><img src='Fruit/bananas.png'><br><font class='baseline'><strong>Banana Bonanza</strong><p>Choose number of points to bet.</font><div class='respPicDiv'><img src='img/responseButtonOffersNo0L.png' class='respPic'></div></div>","1","16","Banana Bonanza","Fruit/bananas.png","Lost","0.35,0.8","14","0.35","209","47","",""
"html-keyboard-response","149","185926","0.0-11.0-2.46","6105338a15c74e8435e95c71","bdp_rwlrn","Wed Mar 15 2023 15:39:05 GMT-0400 (Eastern Daylight Time)","370891","Trustworthy,Untrustworthy","","null","","","","decisionFB","","<div class='trialDiv'><img src='Fruit/bananas.png'><br><font class='baseline'><strong>Banana Bonanza</strong><p>Choose number of points to bet.</font><div class='respPicDiv'><img src='img/responseButtonOffersNo0L1.png' class='respPic'></div></div>","null","16","Banana Bonanza","Fruit/bananas.png","Lost","0.35,0.8","14","0.35","208","47","",""
"html-keyboard-response","150","186934","0.0-11.0-3.46","6105338a15c74e8435e95c71","bdp_rwlrn","Wed Mar 15 2023 15:39:05 GMT-0400 (Eastern Daylight Time)","370891","Trustworthy,Untrustworthy","","null","","","","feedback","","<div class='respPicDiv'><img src='img/responseButtonOffersNo0_wht.png' class='respPic'></div><div class='trialDiv'><img src='Fruit/bananas.png'><br><font class='baseline'><strong>Banana Bonanza</strong><p><strong><font class='negOutcome'>You LOST</font><p>You bet: 1</strong></font> &nbsp; &nbsp; &nbsp; &nbsp; &nbsp; &nbsp;<font class='negOutcome'>You receive: <strong>0</strong></font></div>","null","16","Banana Bonanza","Fruit/bananas.png","Lost","0.35,0.8","14","0.35","208","47","",""
"html-keyboard-response","151","187099","0.0-11.0-1.47","6105338a15c74e8435e95c71","bdp_rwlrn","Wed Mar 15 2023 15:39:05 GMT-0400 (Eastern Daylight Time)","370891","Trustworthy,Untrustworthy","","162","","","","decision","","<div class='trialDiv'><img src='Fruit/pineapple.png'><br><font class='baseline'><strong>Primo Pineapple</strong><p>Choose number of points to bet.</font><div class='respPicDiv'><img src='img/responseButtonOffersNo0L.png' class='respPic'></div></div>","3","16","Primo Pineapple","Fruit/pineapple.png","Won","0.35,0.65","8","0.35","213","48","",""
"html-keyboard-response","152","187357","0.0-11.0-2.47","6105338a15c74e8435e95c71","bdp_rwlrn","Wed Mar 15 2023 15:39:05 GMT-0400 (Eastern Daylight Time)","370891","Trustworthy,Untrustworthy","","null","","","","decisionFB","","<div class='trialDiv'><img src='Fruit/pineapple.png'><br><font class='baseline'><strong>Primo Pineapple</strong><p>Choose number of points to bet.</font><div class='respPicDiv'><img src='img/responseButtonOffersNo0L3.png' class='respPic'></div></div>","null","16","Primo Pineapple","Fruit/pineapple.png","Won","0.35,0.65","8","0.35","210","48","",""
"html-keyboard-response","153","188365","0.0-11.0-3.47","6105338a15c74e8435e95c71","bdp_rwlrn","Wed Mar 15 2023 15:39:05 GMT-0400 (Eastern Daylight Time)","370891","Trustworthy,Untrustworthy","","null","","","","feedback","","<div class='respPicDiv'><img src='img/responseButtonOffersNo0_wht.png' class='respPic'></div><div class='trialDiv'><img src='Fruit/pineapple.png'><br><font class='baseline'><strong>Primo Pineapple</strong><p><strong><font class='posOutcome'>You WON</font><p>You bet: 3</strong></font> &nbsp; &nbsp; &nbsp; &nbsp; &nbsp; &nbsp;<font class='posOutcome'>you receive: <strong>6</strong></font></div>","null","16","Primo Pineapple","Fruit/pineapple.png","Won","0.35,0.65","8","0.35","216","48","",""
"html-keyboard-response","154","188647","0.0-11.0-1.48","6105338a15c74e8435e95c71","bdp_rwlrn","Wed Mar 15 2023 15:39:05 GMT-0400 (Eastern Daylight Time)","370891","Trustworthy,Untrustworthy","","280","","","","decision","","<div class='trialDiv'><img src='Fruit/papayas.png'><br><font class='baseline'><strong>Papaya Payday</strong><p>Choose number of points to bet.</font><div class='respPicDiv'><img src='img/responseButtonOffersNo0L.png' class='respPic'></div></div>","3","17","Papaya Payday","Fruit/papayas.png","Lost","0.65,0.2","11","0.65","221","49","",""
"html-keyboard-response","155","188909","0.0-11.0-2.48","6105338a15c74e8435e95c71","bdp_rwlrn","Wed Mar 15 2023 15:39:05 GMT-0400 (Eastern Daylight Time)","370891","Trustworthy,Untrustworthy","","null","","","","decisionFB","","<div class='trialDiv'><img src='Fruit/papayas.png'><br><font class='baseline'><strong>Papaya Payday</strong><p>Choose number of points to bet.</font><div class='respPicDiv'><img src='img/responseButtonOffersNo0L3.png' class='respPic'></div></div>","null","17","Papaya Payday","Fruit/papayas.png","Lost","0.65,0.2","11","0.65","218","49","",""
"html-keyboard-response","156","189918","0.0-11.0-3.48","6105338a15c74e8435e95c71","bdp_rwlrn","Wed Mar 15 2023 15:39:05 GMT-0400 (Eastern Daylight Time)","370891","Trustworthy,Untrustworthy","","null","","","","feedback","","<div class='respPicDiv'><img src='img/responseButtonOffersNo0_wht.png' class='respPic'></div><div class='trialDiv'><img src='Fruit/papayas.png'><br><font class='baseline'><strong>Papaya Payday</strong><p><strong><font class='negOutcome'>You LOST</font><p>You bet: 3</strong></font> &nbsp; &nbsp; &nbsp; &nbsp; &nbsp; &nbsp;<font class='negOutcome'>You receive: <strong>0</strong></font></div>","null","17","Papaya Payday","Fruit/papayas.png","Lost","0.65,0.2","11","0.65","218","49","",""
"html-keyboard-response","157","190190","0.0-11.0-1.49","6105338a15c74e8435e95c71","bdp_rwlrn","Wed Mar 15 2023 15:39:05 GMT-0400 (Eastern Daylight Time)","370891","Trustworthy,Untrustworthy","","270","","","","decision","","<div class='trialDiv'><img src='Fruit/pineapple.png'><br><font class='baseline'><strong>Primo Pineapple</strong><p>Choose number of points to bet.</font><div class='respPicDiv'><img src='img/responseButtonOffersNo0L.png' class='respPic'></div></div>","1","17","Primo Pineapple","Fruit/pineapple.png","Won","0.35,0.65","8","0.35","223","50","",""
"html-keyboard-response","158","190451","0.0-11.0-2.49","6105338a15c74e8435e95c71","bdp_rwlrn","Wed Mar 15 2023 15:39:05 GMT-0400 (Eastern Daylight Time)","370891","Trustworthy,Untrustworthy","","null","","","","decisionFB","","<div class='trialDiv'><img src='Fruit/pineapple.png'><br><font class='baseline'><strong>Primo Pineapple</strong><p>Choose number of points to bet.</font><div class='respPicDiv'><img src='img/responseButtonOffersNo0L1.png' class='respPic'></div></div>","null","17","Primo Pineapple","Fruit/pineapple.png","Won","0.35,0.65","8","0.35","222","50","",""
"html-keyboard-response","159","191457","0.0-11.0-3.49","6105338a15c74e8435e95c71","bdp_rwlrn","Wed Mar 15 2023 15:39:05 GMT-0400 (Eastern Daylight Time)","370891","Trustworthy,Untrustworthy","","null","","","","feedback","","<div class='respPicDiv'><img src='img/responseButtonOffersNo0_wht.png' class='respPic'></div><div class='trialDiv'><img src='Fruit/pineapple.png'><br><font class='baseline'><strong>Primo Pineapple</strong><p><strong><font class='posOutcome'>You WON</font><p>You bet: 1</strong></font> &nbsp; &nbsp; &nbsp; &nbsp; &nbsp; &nbsp;<font class='posOutcome'>you receive: <strong>2</strong></font></div>","null","17","Primo Pineapple","Fruit/pineapple.png","Won","0.35,0.65","8","0.35","224","50","",""
"html-keyboard-response","160","191693","0.0-11.0-1.50","6105338a15c74e8435e95c71","bdp_rwlrn","Wed Mar 15 2023 15:39:05 GMT-0400 (Eastern Daylight Time)","370891","Trustworthy,Untrustworthy","","234","","","","decision","","<div class='trialDiv'><img src='Fruit/bananas.png'><br><font class='baseline'><strong>Banana Bonanza</strong><p>Choose number of points to bet.</font><div class='respPicDiv'><img src='img/responseButtonOffersNo0L.png' class='respPic'></div></div>","3","17","Banana Bonanza","Fruit/bananas.png","Won","0.35,0.8","14","0.35","229","51","",""
"html-keyboard-response","161","191957","0.0-11.0-2.50","6105338a15c74e8435e95c71","bdp_rwlrn","Wed Mar 15 2023 15:39:05 GMT-0400 (Eastern Daylight Time)","370891","Trustworthy,Untrustworthy","","null","","","","decisionFB","","<div class='trialDiv'><img src='Fruit/bananas.png'><br><font class='baseline'><strong>Banana Bonanza</strong><p>Choose number of points to bet.</font><div class='respPicDiv'><img src='img/responseButtonOffersNo0L3.png' class='respPic'></div></div>","null","17","Banana Bonanza","Fruit/bananas.png","Won","0.35,0.8","14","0.35","226","51","",""
