"trial_type","trial_index","time_elapsed","internal_node_id","subject_id","task","startTime","totalTime","labels","view_history","rt","event","trial","time","trialtype","success","stimulus","key_press","ltround","name","fileID","outcome","lottotype","lottoswpt","lottocurrpshare","point_total","round","faceID","face"
"pavlovia","0","8","0.0-0.0","5e223f4219295951f846dd16","bdp_rwlrn","Mon Mar 13 2023 14:30:10 GMT-0400 (Eastern Daylight Time)","465802","Untrustworthy,Trustworthy","","","","","","","","","","","","","","","","","","","",""
"instructions","1","4097","0.0-1.0","5e223f4219295951f846dd16","bdp_rwlrn","Mon Mar 13 2023 14:30:10 GMT-0400 (Eastern Daylight Time)","465802","Untrustworthy,Trustworthy","[{""page_index"":0,""viewing_time"":4087}]","4087","","","","","","","","","","","","","","","","","",""
"","","","","5e223f4219295951f846dd16","bdp_rwlrn","Mon Mar 13 2023 14:30:10 GMT-0400 (Eastern Daylight Time)","465802","Untrustworthy,Trustworthy","","","fullscreenenter","2","8300","fullscreenenter","","","","","","","","","","","","","",""
"fullscreen","2","9281","0.0-2.0","5e223f4219295951f846dd16","bdp_rwlrn","Mon Mar 13 2023 14:30:10 GMT-0400 (Eastern Daylight Time)","465802","Untrustworthy,Trustworthy","","","","","","","true","","","","","","","","","","","","",""
"instructions","3","63673","0.0-4.0","5e223f4219295951f846dd16","bdp_rwlrn","Mon Mar 13 2023 14:30:10 GMT-0400 (Eastern Daylight Time)","465802","Untrustworthy,Trustworthy","[{""page_index"":0,""viewing_time"":20404},{""page_index"":1,""viewing_time"":11340},{""page_index"":2,""viewing_time"":2028},{""page_index"":3,""viewing_time"":17647},{""page_index"":4,""viewing_time"":1886},{""page_index"":5,""viewing_time"":1083}]","54388","","","","","","","","","","","","","","","","","",""
"html-keyboard-response","4","67147","0.0-5.0","5e223f4219295951f846dd16","bdp_rwlrn","Mon Mar 13 2023 14:30:10 GMT-0400 (Eastern Daylight Time)","465802","Untrustworthy,Trustworthy","","3465","","","","","","<div class='header' style='text-align:left; position: absolute; top: 5%; left: 5%;'><small>Task 3 of 5</small></div><div class='instruxDiv'><p><strong>1) What is the maximum number of points you can choose to bet on a lottery?</strong></p><p>a) 0</p><p>b) 1</p><p>c) 5</p>","C","","","","","","","","","","",""
"html-keyboard-response","5","68777","0.0-6.0","5e223f4219295951f846dd16","bdp_rwlrn","Mon Mar 13 2023 14:30:10 GMT-0400 (Eastern Daylight Time)","465802","Untrustworthy,Trustworthy","","1525","","","","","","<div class='header' style='text-align:left; position: absolute; top: 5%; left: 5%;'><small>Task 3 of 5</small></div><div class='instruxDiv'><p><strong>1) What is the maximum number of points you can choose to bet on a lottery?</strong></p><p>a) 1</p><p>b) 1</p><p style='color:#00FF00'>c) 5</p><h3 style='color:#00FF00'>Correct!</h3><h3 class='center-content'>The correct response is c).</h3><h3 class='center-content'>The maximum number of points you can choose to bet on a lottery is 5 points.</h3><p><em>Press SPACEBAR to continue</em></p></div>"," ","","","","","","","","","","",""
"html-keyboard-response","6","73567","0.0-7.0","5e223f4219295951f846dd16","bdp_rwlrn","Mon Mar 13 2023 14:30:10 GMT-0400 (Eastern Daylight Time)","465802","Untrustworthy,Trustworthy","","4683","","","","","","<div class='header' style='text-align:left; position: absolute; top: 5%; left: 5%;'><small>Task 3 of 5</small></div><div class='instruxDiv'><p><strong>2) How many points can you win each round?</strong></p><p>a) 10 points</p><p>b) Double what you bet</p><p>c) Quadruple what you bet</p>","B","","","","","","","","","","",""
"html-keyboard-response","7","75163","0.0-8.0","5e223f4219295951f846dd16","bdp_rwlrn","Mon Mar 13 2023 14:30:10 GMT-0400 (Eastern Daylight Time)","465802","Untrustworthy,Trustworthy","","1486","","","","","","<div class='header' style='text-align:left; position: absolute; top: 5%; left: 5%;'><small>Task 3 of 5</small></div><div class='instruxDiv'><p><strong>2) How many points can you win each round?</strong></p><p>a) 10 points</p><p style='color:#00FF00'>b) Double what you bet</p><p>c) Quadruple what you bet</p><h3 style='color:#00FF00'>Correct!</h3><h3 class='center-content'>The correct response is b).</h3><h3 class='center-content'>You can win double the amount of points you bet.</h3><p><em>Press SPACEBAR to continue</em></p></div>"," ","","","","","","","","","","",""
"html-keyboard-response","8","80274","0.0-9.0","5e223f4219295951f846dd16","bdp_rwlrn","Mon Mar 13 2023 14:30:10 GMT-0400 (Eastern Daylight Time)","465802","Untrustworthy,Trustworthy","","null","","","","","","<div class='header' style='text-align:left; position: absolute; top: 5%; left: 5%;'><small>Task 3 of 5</small></div><div class='instruxDiv'><p>Thank you for completing the quiz<p>These are the actual lotteries you will be playing in the next block:<p><div class='tc' align='center'><img class='introPic' src='Fruit/apple.png'><br><strong>Awesome Apples</strong></div><div class='bl' align='center'><img class='introPic' src='Fruit/watermelon.png'><br><strong>Watermelon Win$</strong></div><div class='br' align='center'><img class='introPic' src='Fruit/mixed-berries2.png'><br><strong>Berry Bla$t</strong></div></div><p>Across <strong>66 rounds</strong> you will play each lottery <strong>22 times</strong> (in random order).<p style='align:center; color:white'><font <em>Press SPACEBAR to continue</em></p>","null","","","","","","","","","","",""
"instructions","9","82569","0.0-10.0","5e223f4219295951f846dd16","bdp_rwlrn","Mon Mar 13 2023 14:30:10 GMT-0400 (Eastern Daylight Time)","465802","Untrustworthy,Trustworthy","[{""page_index"":0,""viewing_time"":1058},{""page_index"":1,""viewing_time"":1234}]","2292","","","","","","","","","","","","","","","","","",""
"html-keyboard-response","10","84690","0.0-11.0-1.0","5e223f4219295951f846dd16","bdp_rwlrn","Mon Mar 13 2023 14:30:10 GMT-0400 (Eastern Daylight Time)","465802","Untrustworthy,Trustworthy","","2010","","","","decision","","<div class='trialDiv'><img src='Fruit/mixed-berries2.png'><br><font class='baseline'><strong>Berry Bla$t</strong><p>Choose number of points to bet.</font><div class='respPicDiv'><img src='img/responseButtonOffersNo0L.png' class='respPic'></div></div>","4","1","Berry Bla$t","Fruit/mixed-berries2.png","Won","0.8,0.2","13","0.8","5","1","",""
"html-keyboard-response","11","84947","0.0-11.0-2.0","5e223f4219295951f846dd16","bdp_rwlrn","Mon Mar 13 2023 14:30:10 GMT-0400 (Eastern Daylight Time)","465802","Untrustworthy,Trustworthy","","null","","","","decisionFB","","<div class='trialDiv'><img src='Fruit/mixed-berries2.png'><br><font class='baseline'><strong>Berry Bla$t</strong><p>Choose number of points to bet.</font><div class='respPicDiv'><img src='img/responseButtonOffersNo0L4.png' class='respPic'></div></div>","null","1","Berry Bla$t","Fruit/mixed-berries2.png","Won","0.8,0.2","13","0.8","1","1","",""
"html-keyboard-response","12","85954","0.0-11.0-3.0","5e223f4219295951f846dd16","bdp_rwlrn","Mon Mar 13 2023 14:30:10 GMT-0400 (Eastern Daylight Time)","465802","Untrustworthy,Trustworthy","","null","","","","feedback","","<div class='respPicDiv'><img src='img/responseButtonOffersNo0_wht.png' class='respPic'></div><div class='trialDiv'><img src='Fruit/mixed-berries2.png'><br><font class='baseline'><strong>Berry Bla$t</strong><p><strong><font class='posOutcome'>You WON</font><p>You bet: 4</strong></font> &nbsp; &nbsp; &nbsp; &nbsp; &nbsp; &nbsp;<font class='posOutcome'>you receive: <strong>8</strong></font></div>","null","1","Berry Bla$t","Fruit/mixed-berries2.png","Won","0.8,0.2","13","0.8","9","1","",""
"html-keyboard-response","13","91145","0.0-11.0-1.1","5e223f4219295951f846dd16","bdp_rwlrn","Mon Mar 13 2023 14:30:10 GMT-0400 (Eastern Daylight Time)","465802","Untrustworthy,Trustworthy","","5186","","","","decision","","<div class='trialDiv'><img src='Fruit/apple.png'><br><font class='baseline'><strong>Awesome Apples</strong><p>Choose number of points to bet.</font><div class='respPicDiv'><img src='img/responseButtonOffersNo0L.png' class='respPic'></div></div>","4","1","Awesome Apples","Fruit/apple.png","Won","0.35,0.8","11","0.35","14","2","",""
"html-keyboard-response","14","91401","0.0-11.0-2.1","5e223f4219295951f846dd16","bdp_rwlrn","Mon Mar 13 2023 14:30:10 GMT-0400 (Eastern Daylight Time)","465802","Untrustworthy,Trustworthy","","null","","","","decisionFB","","<div class='trialDiv'><img src='Fruit/apple.png'><br><font class='baseline'><strong>Awesome Apples</strong><p>Choose number of points to bet.</font><div class='respPicDiv'><img src='img/responseButtonOffersNo0L4.png' class='respPic'></div></div>","null","1","Awesome Apples","Fruit/apple.png","Won","0.35,0.8","11","0.35","10","2","",""
"html-keyboard-response","15","92410","0.0-11.0-3.1","5e223f4219295951f846dd16","bdp_rwlrn","Mon Mar 13 2023 14:30:10 GMT-0400 (Eastern Daylight Time)","465802","Untrustworthy,Trustworthy","","null","","","","feedback","","<div class='respPicDiv'><img src='img/responseButtonOffersNo0_wht.png' class='respPic'></div><div class='trialDiv'><img src='Fruit/apple.png'><br><font class='baseline'><strong>Awesome Apples</strong><p><strong><font class='posOutcome'>You WON</font><p>You bet: 4</strong></font> &nbsp; &nbsp; &nbsp; &nbsp; &nbsp; &nbsp;<font class='posOutcome'>you receive: <strong>8</strong></font></div>","null","1","Awesome Apples","Fruit/apple.png","Won","0.35,0.8","11","0.35","18","2","",""
"html-keyboard-response","16","94759","0.0-11.0-1.2","5e223f4219295951f846dd16","bdp_rwlrn","Mon Mar 13 2023 14:30:10 GMT-0400 (Eastern Daylight Time)","465802","Untrustworthy,Trustworthy","","2347","","","","decision","","<div class='trialDiv'><img src='Fruit/watermelon.png'><br><font class='baseline'><strong>Watermelon Win$</strong><p>Choose number of points to bet.</font><div class='respPicDiv'><img src='img/responseButtonOffersNo0L.png' class='respPic'></div></div>","5","1","Watermelon Win$","Fruit/watermelon.png","Lost","0.8,0.35","13","0.8","23","3","",""
"html-keyboard-response","17","95017","0.0-11.0-2.2","5e223f4219295951f846dd16","bdp_rwlrn","Mon Mar 13 2023 14:30:10 GMT-0400 (Eastern Daylight Time)","465802","Untrustworthy,Trustworthy","","null","","","","decisionFB","","<div class='trialDiv'><img src='Fruit/watermelon.png'><br><font class='baseline'><strong>Watermelon Win$</strong><p>Choose number of points to bet.</font><div class='respPicDiv'><img src='img/responseButtonOffersNo0L5.png' class='respPic'></div></div>","null","1","Watermelon Win$","Fruit/watermelon.png","Lost","0.8,0.35","13","0.8","18","3","",""
"html-keyboard-response","18","96026","0.0-11.0-3.2","5e223f4219295951f846dd16","bdp_rwlrn","Mon Mar 13 2023 14:30:10 GMT-0400 (Eastern Daylight Time)","465802","Untrustworthy,Trustworthy","","null","","","","feedback","","<div class='respPicDiv'><img src='img/responseButtonOffersNo0_wht.png' class='respPic'></div><div class='trialDiv'><img src='Fruit/watermelon.png'><br><font class='baseline'><strong>Watermelon Win$</strong><p><strong><font class='negOutcome'>You LOST</font><p>You bet: 5</strong></font> &nbsp; &nbsp; &nbsp; &nbsp; &nbsp; &nbsp;<font class='negOutcome'>You receive: <strong>0</strong></font></div>","null","1","Watermelon Win$","Fruit/watermelon.png","Lost","0.8,0.35","13","0.8","18","3","",""
"html-keyboard-response","19","98165","0.0-11.0-1.3","5e223f4219295951f846dd16","bdp_rwlrn","Mon Mar 13 2023 14:30:10 GMT-0400 (Eastern Daylight Time)","465802","Untrustworthy,Trustworthy","","2134","","","","decision","","<div class='trialDiv'><img src='Fruit/mixed-berries2.png'><br><font class='baseline'><strong>Berry Bla$t</strong><p>Choose number of points to bet.</font><div class='respPicDiv'><img src='img/responseButtonOffersNo0L.png' class='respPic'></div></div>","5","2","Berry Bla$t","Fruit/mixed-berries2.png","Lost","0.8,0.2","13","0.8","23","4","",""
"html-keyboard-response","20","98425","0.0-11.0-2.3","5e223f4219295951f846dd16","bdp_rwlrn","Mon Mar 13 2023 14:30:10 GMT-0400 (Eastern Daylight Time)","465802","Untrustworthy,Trustworthy","","null","","","","decisionFB","","<div class='trialDiv'><img src='Fruit/mixed-berries2.png'><br><font class='baseline'><strong>Berry Bla$t</strong><p>Choose number of points to bet.</font><div class='respPicDiv'><img src='img/responseButtonOffersNo0L5.png' class='respPic'></div></div>","null","2","Berry Bla$t","Fruit/mixed-berries2.png","Lost","0.8,0.2","13","0.8","18","4","",""
"html-keyboard-response","21","99433","0.0-11.0-3.3","5e223f4219295951f846dd16","bdp_rwlrn","Mon Mar 13 2023 14:30:10 GMT-0400 (Eastern Daylight Time)","465802","Untrustworthy,Trustworthy","","null","","","","feedback","","<div class='respPicDiv'><img src='img/responseButtonOffersNo0_wht.png' class='respPic'></div><div class='trialDiv'><img src='Fruit/mixed-berries2.png'><br><font class='baseline'><strong>Berry Bla$t</strong><p><strong><font class='negOutcome'>You LOST</font><p>You bet: 5</strong></font> &nbsp; &nbsp; &nbsp; &nbsp; &nbsp; &nbsp;<font class='negOutcome'>You receive: <strong>0</strong></font></div>","null","2","Berry Bla$t","Fruit/mixed-berries2.png","Lost","0.8,0.2","13","0.8","18","4","",""
"html-keyboard-response","22","101181","0.0-11.0-1.4","5e223f4219295951f846dd16","bdp_rwlrn","Mon Mar 13 2023 14:30:10 GMT-0400 (Eastern Daylight Time)","465802","Untrustworthy,Trustworthy","","1744","","","","decision","","<div class='trialDiv'><img src='Fruit/apple.png'><br><font class='baseline'><strong>Awesome Apples</strong><p>Choose number of points to bet.</font><div class='respPicDiv'><img src='img/responseButtonOffersNo0L.png' class='respPic'></div></div>","3","2","Awesome Apples","Fruit/apple.png","Won","0.35,0.8","11","0.35","23","5","",""
"html-keyboard-response","23","101441","0.0-11.0-2.4","5e223f4219295951f846dd16","bdp_rwlrn","Mon Mar 13 2023 14:30:10 GMT-0400 (Eastern Daylight Time)","465802","Untrustworthy,Trustworthy","","null","","","","decisionFB","","<div class='trialDiv'><img src='Fruit/apple.png'><br><font class='baseline'><strong>Awesome Apples</strong><p>Choose number of points to bet.</font><div class='respPicDiv'><img src='img/responseButtonOffersNo0L3.png' class='respPic'></div></div>","null","2","Awesome Apples","Fruit/apple.png","Won","0.35,0.8","11","0.35","20","5","",""
"html-keyboard-response","24","102450","0.0-11.0-3.4","5e223f4219295951f846dd16","bdp_rwlrn","Mon Mar 13 2023 14:30:10 GMT-0400 (Eastern Daylight Time)","465802","Untrustworthy,Trustworthy","","null","","","","feedback","","<div class='respPicDiv'><img src='img/responseButtonOffersNo0_wht.png' class='respPic'></div><div class='trialDiv'><img src='Fruit/apple.png'><br><font class='baseline'><strong>Awesome Apples</strong><p><strong><font class='posOutcome'>You WON</font><p>You bet: 3</strong></font> &nbsp; &nbsp; &nbsp; &nbsp; &nbsp; &nbsp;<font class='posOutcome'>you receive: <strong>6</strong></font></div>","null","2","Awesome Apples","Fruit/apple.png","Won","0.35,0.8","11","0.35","26","5","",""
"html-keyboard-response","25","103796","0.0-11.0-1.5","5e223f4219295951f846dd16","bdp_rwlrn","Mon Mar 13 2023 14:30:10 GMT-0400 (Eastern Daylight Time)","465802","Untrustworthy,Trustworthy","","1341","","","","decision","","<div class='trialDiv'><img src='Fruit/watermelon.png'><br><font class='baseline'><strong>Watermelon Win$</strong><p>Choose number of points to bet.</font><div class='respPicDiv'><img src='img/responseButtonOffersNo0L.png' class='respPic'></div></div>","4","2","Watermelon Win$","Fruit/watermelon.png","Won","0.8,0.35","13","0.8","31","6","",""
"html-keyboard-response","26","104058","0.0-11.0-2.5","5e223f4219295951f846dd16","bdp_rwlrn","Mon Mar 13 2023 14:30:10 GMT-0400 (Eastern Daylight Time)","465802","Untrustworthy,Trustworthy","","null","","","","decisionFB","","<div class='trialDiv'><img src='Fruit/watermelon.png'><br><font class='baseline'><strong>Watermelon Win$</strong><p>Choose number of points to bet.</font><div class='respPicDiv'><img src='img/responseButtonOffersNo0L4.png' class='respPic'></div></div>","null","2","Watermelon Win$","Fruit/watermelon.png","Won","0.8,0.35","13","0.8","27","6","",""
"html-keyboard-response","27","105066","0.0-11.0-3.5","5e223f4219295951f846dd16","bdp_rwlrn","Mon Mar 13 2023 14:30:10 GMT-0400 (Eastern Daylight Time)","465802","Untrustworthy,Trustworthy","","null","","","","feedback","","<div class='respPicDiv'><img src='img/responseButtonOffersNo0_wht.png' class='respPic'></div><div class='trialDiv'><img src='Fruit/watermelon.png'><br><font class='baseline'><strong>Watermelon Win$</strong><p><strong><font class='posOutcome'>You WON</font><p>You bet: 4</strong></font> &nbsp; &nbsp; &nbsp; &nbsp; &nbsp; &nbsp;<font class='posOutcome'>you receive: <strong>8</strong></font></div>","null","2","Watermelon Win$","Fruit/watermelon.png","Won","0.8,0.35","13","0.8","35","6","",""
"html-keyboard-response","28","106394","0.0-11.0-1.6","5e223f4219295951f846dd16","bdp_rwlrn","Mon Mar 13 2023 14:30:10 GMT-0400 (Eastern Daylight Time)","465802","Untrustworthy,Trustworthy","","1323","","","","decision","","<div class='trialDiv'><img src='Fruit/apple.png'><br><font class='baseline'><strong>Awesome Apples</strong><p>Choose number of points to bet.</font><div class='respPicDiv'><img src='img/responseButtonOffersNo0L.png' class='respPic'></div></div>","4","3","Awesome Apples","Fruit/apple.png","Lost","0.35,0.8","11","0.35","40","7","",""
"html-keyboard-response","29","106649","0.0-11.0-2.6","5e223f4219295951f846dd16","bdp_rwlrn","Mon Mar 13 2023 14:30:10 GMT-0400 (Eastern Daylight Time)","465802","Untrustworthy,Trustworthy","","null","","","","decisionFB","","<div class='trialDiv'><img src='Fruit/apple.png'><br><font class='baseline'><strong>Awesome Apples</strong><p>Choose number of points to bet.</font><div class='respPicDiv'><img src='img/responseButtonOffersNo0L4.png' class='respPic'></div></div>","null","3","Awesome Apples","Fruit/apple.png","Lost","0.35,0.8","11","0.35","36","7","",""
"html-keyboard-response","30","107658","0.0-11.0-3.6","5e223f4219295951f846dd16","bdp_rwlrn","Mon Mar 13 2023 14:30:10 GMT-0400 (Eastern Daylight Time)","465802","Untrustworthy,Trustworthy","","null","","","","feedback","","<div class='respPicDiv'><img src='img/responseButtonOffersNo0_wht.png' class='respPic'></div><div class='trialDiv'><img src='Fruit/apple.png'><br><font class='baseline'><strong>Awesome Apples</strong><p><strong><font class='negOutcome'>You LOST</font><p>You bet: 4</strong></font> &nbsp; &nbsp; &nbsp; &nbsp; &nbsp; &nbsp;<font class='negOutcome'>You receive: <strong>0</strong></font></div>","null","3","Awesome Apples","Fruit/apple.png","Lost","0.35,0.8","11","0.35","36","7","",""
"html-keyboard-response","31","108709","0.0-11.0-1.7","5e223f4219295951f846dd16","bdp_rwlrn","Mon Mar 13 2023 14:30:10 GMT-0400 (Eastern Daylight Time)","465802","Untrustworthy,Trustworthy","","1046","","","","decision","","<div class='trialDiv'><img src='Fruit/watermelon.png'><br><font class='baseline'><strong>Watermelon Win$</strong><p>Choose number of points to bet.</font><div class='respPicDiv'><img src='img/responseButtonOffersNo0L.png' class='respPic'></div></div>","4","3","Watermelon Win$","Fruit/watermelon.png","Lost","0.8,0.35","13","0.8","41","8","",""
"html-keyboard-response","32","108970","0.0-11.0-2.7","5e223f4219295951f846dd16","bdp_rwlrn","Mon Mar 13 2023 14:30:10 GMT-0400 (Eastern Daylight Time)","465802","Untrustworthy,Trustworthy","","null","","","","decisionFB","","<div class='trialDiv'><img src='Fruit/watermelon.png'><br><font class='baseline'><strong>Watermelon Win$</strong><p>Choose number of points to bet.</font><div class='respPicDiv'><img src='img/responseButtonOffersNo0L4.png' class='respPic'></div></div>","null","3","Watermelon Win$","Fruit/watermelon.png","Lost","0.8,0.35","13","0.8","37","8","",""
"html-keyboard-response","33","109978","0.0-11.0-3.7","5e223f4219295951f846dd16","bdp_rwlrn","Mon Mar 13 2023 14:30:10 GMT-0400 (Eastern Daylight Time)","465802","Untrustworthy,Trustworthy","","null","","","","feedback","","<div class='respPicDiv'><img src='img/responseButtonOffersNo0_wht.png' class='respPic'></div><div class='trialDiv'><img src='Fruit/watermelon.png'><br><font class='baseline'><strong>Watermelon Win$</strong><p><strong><font class='negOutcome'>You LOST</font><p>You bet: 4</strong></font> &nbsp; &nbsp; &nbsp; &nbsp; &nbsp; &nbsp;<font class='negOutcome'>You receive: <strong>0</strong></font></div>","null","3","Watermelon Win$","Fruit/watermelon.png","Lost","0.8,0.35","13","0.8","37","8","",""
"html-keyboard-response","34","110862","0.0-11.0-1.8","5e223f4219295951f846dd16","bdp_rwlrn","Mon Mar 13 2023 14:30:10 GMT-0400 (Eastern Daylight Time)","465802","Untrustworthy,Trustworthy","","882","","","","decision","","<div class='trialDiv'><img src='Fruit/mixed-berries2.png'><br><font class='baseline'><strong>Berry Bla$t</strong><p>Choose number of points to bet.</font><div class='respPicDiv'><img src='img/responseButtonOffersNo0L.png' class='respPic'></div></div>","3","3","Berry Bla$t","Fruit/mixed-berries2.png","Won","0.8,0.2","13","0.8","42","9","",""
"html-keyboard-response","35","111122","0.0-11.0-2.8","5e223f4219295951f846dd16","bdp_rwlrn","Mon Mar 13 2023 14:30:10 GMT-0400 (Eastern Daylight Time)","465802","Untrustworthy,Trustworthy","","null","","","","decisionFB","","<div class='trialDiv'><img src='Fruit/mixed-berries2.png'><br><font class='baseline'><strong>Berry Bla$t</strong><p>Choose number of points to bet.</font><div class='respPicDiv'><img src='img/responseButtonOffersNo0L3.png' class='respPic'></div></div>","null","3","Berry Bla$t","Fruit/mixed-berries2.png","Won","0.8,0.2","13","0.8","39","9","",""
"html-keyboard-response","36","112130","0.0-11.0-3.8","5e223f4219295951f846dd16","bdp_rwlrn","Mon Mar 13 2023 14:30:10 GMT-0400 (Eastern Daylight Time)","465802","Untrustworthy,Trustworthy","","null","","","","feedback","","<div class='respPicDiv'><img src='img/responseButtonOffersNo0_wht.png' class='respPic'></div><div class='trialDiv'><img src='Fruit/mixed-berries2.png'><br><font class='baseline'><strong>Berry Bla$t</strong><p><strong><font class='posOutcome'>You WON</font><p>You bet: 3</strong></font> &nbsp; &nbsp; &nbsp; &nbsp; &nbsp; &nbsp;<font class='posOutcome'>you receive: <strong>6</strong></font></div>","null","3","Berry Bla$t","Fruit/mixed-berries2.png","Won","0.8,0.2","13","0.8","45","9","",""
"html-keyboard-response","37","112433","0.0-11.0-1.9","5e223f4219295951f846dd16","bdp_rwlrn","Mon Mar 13 2023 14:30:10 GMT-0400 (Eastern Daylight Time)","465802","Untrustworthy,Trustworthy","","299","","","","decision","","<div class='trialDiv'><img src='Fruit/watermelon.png'><br><font class='baseline'><strong>Watermelon Win$</strong><p>Choose number of points to bet.</font><div class='respPicDiv'><img src='img/responseButtonOffersNo0L.png' class='respPic'></div></div>","4","4","Watermelon Win$","Fruit/watermelon.png","Won","0.8,0.35","13","0.8","50","10","",""
"html-keyboard-response","38","112689","0.0-11.0-2.9","5e223f4219295951f846dd16","bdp_rwlrn","Mon Mar 13 2023 14:30:10 GMT-0400 (Eastern Daylight Time)","465802","Untrustworthy,Trustworthy","","null","","","","decisionFB","","<div class='trialDiv'><img src='Fruit/watermelon.png'><br><font class='baseline'><strong>Watermelon Win$</strong><p>Choose number of points to bet.</font><div class='respPicDiv'><img src='img/responseButtonOffersNo0L4.png' class='respPic'></div></div>","null","4","Watermelon Win$","Fruit/watermelon.png","Won","0.8,0.35","13","0.8","46","10","",""
"html-keyboard-response","39","113698","0.0-11.0-3.9","5e223f4219295951f846dd16","bdp_rwlrn","Mon Mar 13 2023 14:30:10 GMT-0400 (Eastern Daylight Time)","465802","Untrustworthy,Trustworthy","","null","","","","feedback","","<div class='respPicDiv'><img src='img/responseButtonOffersNo0_wht.png' class='respPic'></div><div class='trialDiv'><img src='Fruit/watermelon.png'><br><font class='baseline'><strong>Watermelon Win$</strong><p><strong><font class='posOutcome'>You WON</font><p>You bet: 4</strong></font> &nbsp; &nbsp; &nbsp; &nbsp; &nbsp; &nbsp;<font class='posOutcome'>you receive: <strong>8</strong></font></div>","null","4","Watermelon Win$","Fruit/watermelon.png","Won","0.8,0.35","13","0.8","54","10","",""
"html-keyboard-response","40","114340","0.0-11.0-1.10","5e223f4219295951f846dd16","bdp_rwlrn","Mon Mar 13 2023 14:30:10 GMT-0400 (Eastern Daylight Time)","465802","Untrustworthy,Trustworthy","","637","","","","decision","","<div class='trialDiv'><img src='Fruit/apple.png'><br><font class='baseline'><strong>Awesome Apples</strong><p>Choose number of points to bet.</font><div class='respPicDiv'><img src='img/responseButtonOffersNo0L.png' class='respPic'></div></div>","5","4","Awesome Apples","Fruit/apple.png","Lost","0.35,0.8","11","0.35","59","11","",""
"html-keyboard-response","41","114594","0.0-11.0-2.10","5e223f4219295951f846dd16","bdp_rwlrn","Mon Mar 13 2023 14:30:10 GMT-0400 (Eastern Daylight Time)","465802","Untrustworthy,Trustworthy","","null","","","","decisionFB","","<div class='trialDiv'><img src='Fruit/apple.png'><br><font class='baseline'><strong>Awesome Apples</strong><p>Choose number of points to bet.</font><div class='respPicDiv'><img src='img/responseButtonOffersNo0L5.png' class='respPic'></div></div>","null","4","Awesome Apples","Fruit/apple.png","Lost","0.35,0.8","11","0.35","54","11","",""
"html-keyboard-response","42","115602","0.0-11.0-3.10","5e223f4219295951f846dd16","bdp_rwlrn","Mon Mar 13 2023 14:30:10 GMT-0400 (Eastern Daylight Time)","465802","Untrustworthy,Trustworthy","","null","","","","feedback","","<div class='respPicDiv'><img src='img/responseButtonOffersNo0_wht.png' class='respPic'></div><div class='trialDiv'><img src='Fruit/apple.png'><br><font class='baseline'><strong>Awesome Apples</strong><p><strong><font class='negOutcome'>You LOST</font><p>You bet: 5</strong></font> &nbsp; &nbsp; &nbsp; &nbsp; &nbsp; &nbsp;<font class='negOutcome'>You receive: <strong>0</strong></font></div>","null","4","Awesome Apples","Fruit/apple.png","Lost","0.35,0.8","11","0.35","54","11","",""
"html-keyboard-response","43","118260","0.0-11.0-1.11","5e223f4219295951f846dd16","bdp_rwlrn","Mon Mar 13 2023 14:30:10 GMT-0400 (Eastern Daylight Time)","465802","Untrustworthy,Trustworthy","","2651","","","","decision","","<div class='trialDiv'><img src='Fruit/mixed-berries2.png'><br><font class='baseline'><strong>Berry Bla$t</strong><p>Choose number of points to bet.</font><div class='respPicDiv'><img src='img/responseButtonOffersNo0L.png' class='respPic'></div></div>","5","4","Berry Bla$t","Fruit/mixed-berries2.png","Won","0.8,0.2","13","0.8","59","12","",""
"html-keyboard-response","44","118513","0.0-11.0-2.11","5e223f4219295951f846dd16","bdp_rwlrn","Mon Mar 13 2023 14:30:10 GMT-0400 (Eastern Daylight Time)","465802","Untrustworthy,Trustworthy","","null","","","","decisionFB","","<div class='trialDiv'><img src='Fruit/mixed-berries2.png'><br><font class='baseline'><strong>Berry Bla$t</strong><p>Choose number of points to bet.</font><div class='respPicDiv'><img src='img/responseButtonOffersNo0L5.png' class='respPic'></div></div>","null","4","Berry Bla$t","Fruit/mixed-berries2.png","Won","0.8,0.2","13","0.8","54","12","",""
"html-keyboard-response","45","119522","0.0-11.0-3.11","5e223f4219295951f846dd16","bdp_rwlrn","Mon Mar 13 2023 14:30:10 GMT-0400 (Eastern Daylight Time)","465802","Untrustworthy,Trustworthy","","null","","","","feedback","","<div class='respPicDiv'><img src='img/responseButtonOffersNo0_wht.png' class='respPic'></div><div class='trialDiv'><img src='Fruit/mixed-berries2.png'><br><font class='baseline'><strong>Berry Bla$t</strong><p><strong><font class='posOutcome'>You WON</font><p>You bet: 5</strong></font> &nbsp; &nbsp; &nbsp; &nbsp; &nbsp; &nbsp;<font class='posOutcome'>you receive: <strong>10</strong></font></div>","null","4","Berry Bla$t","Fruit/mixed-berries2.png","Won","0.8,0.2","13","0.8","64","12","",""
"html-keyboard-response","46","120809","0.0-11.0-1.12","5e223f4219295951f846dd16","bdp_rwlrn","Mon Mar 13 2023 14:30:10 GMT-0400 (Eastern Daylight Time)","465802","Untrustworthy,Trustworthy","","1283","","","","decision","","<div class='trialDiv'><img src='Fruit/apple.png'><br><font class='baseline'><strong>Awesome Apples</strong><p>Choose number of points to bet.</font><div class='respPicDiv'><img src='img/responseButtonOffersNo0L.png' class='respPic'></div></div>","4","5","Awesome Apples","Fruit/apple.png","Lost","0.35,0.8","11","0.35","69","13","",""
"html-keyboard-response","47","121065","0.0-11.0-2.12","5e223f4219295951f846dd16","bdp_rwlrn","Mon Mar 13 2023 14:30:10 GMT-0400 (Eastern Daylight Time)","465802","Untrustworthy,Trustworthy","","null","","","","decisionFB","","<div class='trialDiv'><img src='Fruit/apple.png'><br><font class='baseline'><strong>Awesome Apples</strong><p>Choose number of points to bet.</font><div class='respPicDiv'><img src='img/responseButtonOffersNo0L4.png' class='respPic'></div></div>","null","5","Awesome Apples","Fruit/apple.png","Lost","0.35,0.8","11","0.35","65","13","",""
"html-keyboard-response","48","122074","0.0-11.0-3.12","5e223f4219295951f846dd16","bdp_rwlrn","Mon Mar 13 2023 14:30:10 GMT-0400 (Eastern Daylight Time)","465802","Untrustworthy,Trustworthy","","null","","","","feedback","","<div class='respPicDiv'><img src='img/responseButtonOffersNo0_wht.png' class='respPic'></div><div class='trialDiv'><img src='Fruit/apple.png'><br><font class='baseline'><strong>Awesome Apples</strong><p><strong><font class='negOutcome'>You LOST</font><p>You bet: 4</strong></font> &nbsp; &nbsp; &nbsp; &nbsp; &nbsp; &nbsp;<font class='negOutcome'>You receive: <strong>0</strong></font></div>","null","5","Awesome Apples","Fruit/apple.png","Lost","0.35,0.8","11","0.35","65","13","",""
"html-keyboard-response","49","122696","0.0-11.0-1.13","5e223f4219295951f846dd16","bdp_rwlrn","Mon Mar 13 2023 14:30:10 GMT-0400 (Eastern Daylight Time)","465802","Untrustworthy,Trustworthy","","619","","","","decision","","<div class='trialDiv'><img src='Fruit/watermelon.png'><br><font class='baseline'><strong>Watermelon Win$</strong><p>Choose number of points to bet.</font><div class='respPicDiv'><img src='img/responseButtonOffersNo0L.png' class='respPic'></div></div>","4","5","Watermelon Win$","Fruit/watermelon.png","Won","0.8,0.35","13","0.8","70","14","",""
"html-keyboard-response","50","122955","0.0-11.0-2.13","5e223f4219295951f846dd16","bdp_rwlrn","Mon Mar 13 2023 14:30:10 GMT-0400 (Eastern Daylight Time)","465802","Untrustworthy,Trustworthy","","null","","","","decisionFB","","<div class='trialDiv'><img src='Fruit/watermelon.png'><br><font class='baseline'><strong>Watermelon Win$</strong><p>Choose number of points to bet.</font><div class='respPicDiv'><img src='img/responseButtonOffersNo0L4.png' class='respPic'></div></div>","null","5","Watermelon Win$","Fruit/watermelon.png","Won","0.8,0.35","13","0.8","66","14","",""
"html-keyboard-response","51","123962","0.0-11.0-3.13","5e223f4219295951f846dd16","bdp_rwlrn","Mon Mar 13 2023 14:30:10 GMT-0400 (Eastern Daylight Time)","465802","Untrustworthy,Trustworthy","","null","","","","feedback","","<div class='respPicDiv'><img src='img/responseButtonOffersNo0_wht.png' class='respPic'></div><div class='trialDiv'><img src='Fruit/watermelon.png'><br><font class='baseline'><strong>Watermelon Win$</strong><p><strong><font class='posOutcome'>You WON</font><p>You bet: 4</strong></font> &nbsp; &nbsp; &nbsp; &nbsp; &nbsp; &nbsp;<font class='posOutcome'>you receive: <strong>8</strong></font></div>","null","5","Watermelon Win$","Fruit/watermelon.png","Won","0.8,0.35","13","0.8","74","14","",""
"html-keyboard-response","52","125022","0.0-11.0-1.14","5e223f4219295951f846dd16","bdp_rwlrn","Mon Mar 13 2023 14:30:10 GMT-0400 (Eastern Daylight Time)","465802","Untrustworthy,Trustworthy","","1055","","","","decision","","<div class='trialDiv'><img src='Fruit/mixed-berries2.png'><br><font class='baseline'><strong>Berry Bla$t</strong><p>Choose number of points to bet.</font><div class='respPicDiv'><img src='img/responseButtonOffersNo0L.png' class='respPic'></div></div>","4","5","Berry Bla$t","Fruit/mixed-berries2.png","Won","0.8,0.2","13","0.8","79","15","",""
"html-keyboard-response","53","125281","0.0-11.0-2.14","5e223f4219295951f846dd16","bdp_rwlrn","Mon Mar 13 2023 14:30:10 GMT-0400 (Eastern Daylight Time)","465802","Untrustworthy,Trustworthy","","null","","","","decisionFB","","<div class='trialDiv'><img src='Fruit/mixed-berries2.png'><br><font class='baseline'><strong>Berry Bla$t</strong><p>Choose number of points to bet.</font><div class='respPicDiv'><img src='img/responseButtonOffersNo0L4.png' class='respPic'></div></div>","null","5","Berry Bla$t","Fruit/mixed-berries2.png","Won","0.8,0.2","13","0.8","75","15","",""
"html-keyboard-response","54","126289","0.0-11.0-3.14","5e223f4219295951f846dd16","bdp_rwlrn","Mon Mar 13 2023 14:30:10 GMT-0400 (Eastern Daylight Time)","465802","Untrustworthy,Trustworthy","","null","","","","feedback","","<div class='respPicDiv'><img src='img/responseButtonOffersNo0_wht.png' class='respPic'></div><div class='trialDiv'><img src='Fruit/mixed-berries2.png'><br><font class='baseline'><strong>Berry Bla$t</strong><p><strong><font class='posOutcome'>You WON</font><p>You bet: 4</strong></font> &nbsp; &nbsp; &nbsp; &nbsp; &nbsp; &nbsp;<font class='posOutcome'>you receive: <strong>8</strong></font></div>","null","5","Berry Bla$t","Fruit/mixed-berries2.png","Won","0.8,0.2","13","0.8","83","15","",""
"html-keyboard-response","55","126853","0.0-11.0-1.15","5e223f4219295951f846dd16","bdp_rwlrn","Mon Mar 13 2023 14:30:10 GMT-0400 (Eastern Daylight Time)","465802","Untrustworthy,Trustworthy","","561","","","","decision","","<div class='trialDiv'><img src='Fruit/watermelon.png'><br><font class='baseline'><strong>Watermelon Win$</strong><p>Choose number of points to bet.</font><div class='respPicDiv'><img src='img/responseButtonOffersNo0L.png' class='respPic'></div></div>","3","6","Watermelon Win$","Fruit/watermelon.png","Won","0.8,0.35","13","0.8","88","16","",""
"html-keyboard-response","56","127106","0.0-11.0-2.15","5e223f4219295951f846dd16","bdp_rwlrn","Mon Mar 13 2023 14:30:10 GMT-0400 (Eastern Daylight Time)","465802","Untrustworthy,Trustworthy","","null","","","","decisionFB","","<div class='trialDiv'><img src='Fruit/watermelon.png'><br><font class='baseline'><strong>Watermelon Win$</strong><p>Choose number of points to bet.</font><div class='respPicDiv'><img src='img/responseButtonOffersNo0L3.png' class='respPic'></div></div>","null","6","Watermelon Win$","Fruit/watermelon.png","Won","0.8,0.35","13","0.8","85","16","",""
"html-keyboard-response","57","128113","0.0-11.0-3.15","5e223f4219295951f846dd16","bdp_rwlrn","Mon Mar 13 2023 14:30:10 GMT-0400 (Eastern Daylight Time)","465802","Untrustworthy,Trustworthy","","null","","","","feedback","","<div class='respPicDiv'><img src='img/responseButtonOffersNo0_wht.png' class='respPic'></div><div class='trialDiv'><img src='Fruit/watermelon.png'><br><font class='baseline'><strong>Watermelon Win$</strong><p><strong><font class='posOutcome'>You WON</font><p>You bet: 3</strong></font> &nbsp; &nbsp; &nbsp; &nbsp; &nbsp; &nbsp;<font class='posOutcome'>you receive: <strong>6</strong></font></div>","null","6","Watermelon Win$","Fruit/watermelon.png","Won","0.8,0.35","13","0.8","91","16","",""
"html-keyboard-response","58","128839","0.0-11.0-1.16","5e223f4219295951f846dd16","bdp_rwlrn","Mon Mar 13 2023 14:30:10 GMT-0400 (Eastern Daylight Time)","465802","Untrustworthy,Trustworthy","","723","","","","decision","","<div class='trialDiv'><img src='Fruit/apple.png'><br><font class='baseline'><strong>Awesome Apples</strong><p>Choose number of points to bet.</font><div class='respPicDiv'><img src='img/responseButtonOffersNo0L.png' class='respPic'></div></div>","5","6","Awesome Apples","Fruit/apple.png","Won","0.35,0.8","11","0.35","96","17","",""
"html-keyboard-response","59","129098","0.0-11.0-2.16","5e223f4219295951f846dd16","bdp_rwlrn","Mon Mar 13 2023 14:30:10 GMT-0400 (Eastern Daylight Time)","465802","Untrustworthy,Trustworthy","","null","","","","decisionFB","","<div class='trialDiv'><img src='Fruit/apple.png'><br><font class='baseline'><strong>Awesome Apples</strong><p>Choose number of points to bet.</font><div class='respPicDiv'><img src='img/responseButtonOffersNo0L5.png' class='respPic'></div></div>","null","6","Awesome Apples","Fruit/apple.png","Won","0.35,0.8","11","0.35","91","17","",""
"html-keyboard-response","60","130106","0.0-11.0-3.16","5e223f4219295951f846dd16","bdp_rwlrn","Mon Mar 13 2023 14:30:10 GMT-0400 (Eastern Daylight Time)","465802","Untrustworthy,Trustworthy","","null","","","","feedback","","<div class='respPicDiv'><img src='img/responseButtonOffersNo0_wht.png' class='respPic'></div><div class='trialDiv'><img src='Fruit/apple.png'><br><font class='baseline'><strong>Awesome Apples</strong><p><strong><font class='posOutcome'>You WON</font><p>You bet: 5</strong></font> &nbsp; &nbsp; &nbsp; &nbsp; &nbsp; &nbsp;<font class='posOutcome'>you receive: <strong>10</strong></font></div>","null","6","Awesome Apples","Fruit/apple.png","Won","0.35,0.8","11","0.35","101","17","",""
"html-keyboard-response","61","130784","0.0-11.0-1.17","5e223f4219295951f846dd16","bdp_rwlrn","Mon Mar 13 2023 14:30:10 GMT-0400 (Eastern Daylight Time)","465802","Untrustworthy,Trustworthy","","675","","","","decision","","<div class='trialDiv'><img src='Fruit/mixed-berries2.png'><br><font class='baseline'><strong>Berry Bla$t</strong><p>Choose number of points to bet.</font><div class='respPicDiv'><img src='img/responseButtonOffersNo0L.png' class='respPic'></div></div>","3","6","Berry Bla$t","Fruit/mixed-berries2.png","Won","0.8,0.2","13","0.8","106","18","",""
"html-keyboard-response","62","131042","0.0-11.0-2.17","5e223f4219295951f846dd16","bdp_rwlrn","Mon Mar 13 2023 14:30:10 GMT-0400 (Eastern Daylight Time)","465802","Untrustworthy,Trustworthy","","null","","","","decisionFB","","<div class='trialDiv'><img src='Fruit/mixed-berries2.png'><br><font class='baseline'><strong>Berry Bla$t</strong><p>Choose number of points to bet.</font><div class='respPicDiv'><img src='img/responseButtonOffersNo0L3.png' class='respPic'></div></div>","null","6","Berry Bla$t","Fruit/mixed-berries2.png","Won","0.8,0.2","13","0.8","103","18","",""
"html-keyboard-response","63","132050","0.0-11.0-3.17","5e223f4219295951f846dd16","bdp_rwlrn","Mon Mar 13 2023 14:30:10 GMT-0400 (Eastern Daylight Time)","465802","Untrustworthy,Trustworthy","","null","","","","feedback","","<div class='respPicDiv'><img src='img/responseButtonOffersNo0_wht.png' class='respPic'></div><div class='trialDiv'><img src='Fruit/mixed-berries2.png'><br><font class='baseline'><strong>Berry Bla$t</strong><p><strong><font class='posOutcome'>You WON</font><p>You bet: 3</strong></font> &nbsp; &nbsp; &nbsp; &nbsp; &nbsp; &nbsp;<font class='posOutcome'>you receive: <strong>6</strong></font></div>","null","6","Berry Bla$t","Fruit/mixed-berries2.png","Won","0.8,0.2","13","0.8","109","18","",""
"html-keyboard-response","64","134174","0.0-11.0-1.18","5e223f4219295951f846dd16","bdp_rwlrn","Mon Mar 13 2023 14:30:10 GMT-0400 (Eastern Daylight Time)","465802","Untrustworthy,Trustworthy","","2120","","","","decision","","<div class='trialDiv'><img src='Fruit/watermelon.png'><br><font class='baseline'><strong>Watermelon Win$</strong><p>Choose number of points to bet.</font><div class='respPicDiv'><img src='img/responseButtonOffersNo0L.png' class='respPic'></div></div>","4","7","Watermelon Win$","Fruit/watermelon.png","Lost","0.8,0.35","13","0.8","114","19","",""
"html-keyboard-response","65","134434","0.0-11.0-2.18","5e223f4219295951f846dd16","bdp_rwlrn","Mon Mar 13 2023 14:30:10 GMT-0400 (Eastern Daylight Time)","465802","Untrustworthy,Trustworthy","","null","","","","decisionFB","","<div class='trialDiv'><img src='Fruit/watermelon.png'><br><font class='baseline'><strong>Watermelon Win$</strong><p>Choose number of points to bet.</font><div class='respPicDiv'><img src='img/responseButtonOffersNo0L4.png' class='respPic'></div></div>","null","7","Watermelon Win$","Fruit/watermelon.png","Lost","0.8,0.35","13","0.8","110","19","",""
"html-keyboard-response","66","135442","0.0-11.0-3.18","5e223f4219295951f846dd16","bdp_rwlrn","Mon Mar 13 2023 14:30:10 GMT-0400 (Eastern Daylight Time)","465802","Untrustworthy,Trustworthy","","null","","","","feedback","","<div class='respPicDiv'><img src='img/responseButtonOffersNo0_wht.png' class='respPic'></div><div class='trialDiv'><img src='Fruit/watermelon.png'><br><font class='baseline'><strong>Watermelon Win$</strong><p><strong><font class='negOutcome'>You LOST</font><p>You bet: 4</strong></font> &nbsp; &nbsp; &nbsp; &nbsp; &nbsp; &nbsp;<font class='negOutcome'>You receive: <strong>0</strong></font></div>","null","7","Watermelon Win$","Fruit/watermelon.png","Lost","0.8,0.35","13","0.8","110","19","",""
"html-keyboard-response","67","137068","0.0-11.0-1.19","5e223f4219295951f846dd16","bdp_rwlrn","Mon Mar 13 2023 14:30:10 GMT-0400 (Eastern Daylight Time)","465802","Untrustworthy,Trustworthy","","1622","","","","decision","","<div class='trialDiv'><img src='Fruit/apple.png'><br><font class='baseline'><strong>Awesome Apples</strong><p>Choose number of points to bet.</font><div class='respPicDiv'><img src='img/responseButtonOffersNo0L.png' class='respPic'></div></div>","4","7","Awesome Apples","Fruit/apple.png","Lost","0.35,0.8","11","0.35","115","20","",""
"html-keyboard-response","68","137330","0.0-11.0-2.19","5e223f4219295951f846dd16","bdp_rwlrn","Mon Mar 13 2023 14:30:10 GMT-0400 (Eastern Daylight Time)","465802","Untrustworthy,Trustworthy","","null","","","","decisionFB","","<div class='trialDiv'><img src='Fruit/apple.png'><br><font class='baseline'><strong>Awesome Apples</strong><p>Choose number of points to bet.</font><div class='respPicDiv'><img src='img/responseButtonOffersNo0L4.png' class='respPic'></div></div>","null","7","Awesome Apples","Fruit/apple.png","Lost","0.35,0.8","11","0.35","111","20","",""
"html-keyboard-response","69","138338","0.0-11.0-3.19","5e223f4219295951f846dd16","bdp_rwlrn","Mon Mar 13 2023 14:30:10 GMT-0400 (Eastern Daylight Time)","465802","Untrustworthy,Trustworthy","","null","","","","feedback","","<div class='respPicDiv'><img src='img/responseButtonOffersNo0_wht.png' class='respPic'></div><div class='trialDiv'><img src='Fruit/apple.png'><br><font class='baseline'><strong>Awesome Apples</strong><p><strong><font class='negOutcome'>You LOST</font><p>You bet: 4</strong></font> &nbsp; &nbsp; &nbsp; &nbsp; &nbsp; &nbsp;<font class='negOutcome'>You receive: <strong>0</strong></font></div>","null","7","Awesome Apples","Fruit/apple.png","Lost","0.35,0.8","11","0.35","111","20","",""
"html-keyboard-response","70","139770","0.0-11.0-1.20","5e223f4219295951f846dd16","bdp_rwlrn","Mon Mar 13 2023 14:30:10 GMT-0400 (Eastern Daylight Time)","465802","Untrustworthy,Trustworthy","","1422","","","","decision","","<div class='trialDiv'><img src='Fruit/mixed-berries2.png'><br><font class='baseline'><strong>Berry Bla$t</strong><p>Choose number of points to bet.</font><div class='respPicDiv'><img src='img/responseButtonOffersNo0L.png' class='respPic'></div></div>","2","7","Berry Bla$t","Fruit/mixed-berries2.png","Lost","0.8,0.2","13","0.8","116","21","",""
"html-keyboard-response","71","140025","0.0-11.0-2.20","5e223f4219295951f846dd16","bdp_rwlrn","Mon Mar 13 2023 14:30:10 GMT-0400 (Eastern Daylight Time)","465802","Untrustworthy,Trustworthy","","null","","","","decisionFB","","<div class='trialDiv'><img src='Fruit/mixed-berries2.png'><br><font class='baseline'><strong>Berry Bla$t</strong><p>Choose number of points to bet.</font><div class='respPicDiv'><img src='img/responseButtonOffersNo0L2.png' class='respPic'></div></div>","null","7","Berry Bla$t","Fruit/mixed-berries2.png","Lost","0.8,0.2","13","0.8","114","21","",""
"html-keyboard-response","72","141033","0.0-11.0-3.20","5e223f4219295951f846dd16","bdp_rwlrn","Mon Mar 13 2023 14:30:10 GMT-0400 (Eastern Daylight Time)","465802","Untrustworthy,Trustworthy","","null","","","","feedback","","<div class='respPicDiv'><img src='img/responseButtonOffersNo0_wht.png' class='respPic'></div><div class='trialDiv'><img src='Fruit/mixed-berries2.png'><br><font class='baseline'><strong>Berry Bla$t</strong><p><strong><font class='negOutcome'>You LOST</font><p>You bet: 2</strong></font> &nbsp; &nbsp; &nbsp; &nbsp; &nbsp; &nbsp;<font class='negOutcome'>You receive: <strong>0</strong></font></div>","null","7","Berry Bla$t","Fruit/mixed-berries2.png","Lost","0.8,0.2","13","0.8","114","21","",""
"html-keyboard-response","73","141731","0.0-11.0-1.21","5e223f4219295951f846dd16","bdp_rwlrn","Mon Mar 13 2023 14:30:10 GMT-0400 (Eastern Daylight Time)","465802","Untrustworthy,Trustworthy","","694","","","","decision","","<div class='trialDiv'><img src='Fruit/apple.png'><br><font class='baseline'><strong>Awesome Apples</strong><p>Choose number of points to bet.</font><div class='respPicDiv'><img src='img/responseButtonOffersNo0L.png' class='respPic'></div></div>","3","8","Awesome Apples","Fruit/apple.png","Lost","0.35,0.8","11","0.35","119","22","",""
"html-keyboard-response","74","141985","0.0-11.0-2.21","5e223f4219295951f846dd16","bdp_rwlrn","Mon Mar 13 2023 14:30:10 GMT-0400 (Eastern Daylight Time)","465802","Untrustworthy,Trustworthy","","null","","","","decisionFB","","<div class='trialDiv'><img src='Fruit/apple.png'><br><font class='baseline'><strong>Awesome Apples</strong><p>Choose number of points to bet.</font><div class='respPicDiv'><img src='img/responseButtonOffersNo0L3.png' class='respPic'></div></div>","null","8","Awesome Apples","Fruit/apple.png","Lost","0.35,0.8","11","0.35","116","22","",""
"html-keyboard-response","75","142993","0.0-11.0-3.21","5e223f4219295951f846dd16","bdp_rwlrn","Mon Mar 13 2023 14:30:10 GMT-0400 (Eastern Daylight Time)","465802","Untrustworthy,Trustworthy","","null","","","","feedback","","<div class='respPicDiv'><img src='img/responseButtonOffersNo0_wht.png' class='respPic'></div><div class='trialDiv'><img src='Fruit/apple.png'><br><font class='baseline'><strong>Awesome Apples</strong><p><strong><font class='negOutcome'>You LOST</font><p>You bet: 3</strong></font> &nbsp; &nbsp; &nbsp; &nbsp; &nbsp; &nbsp;<font class='negOutcome'>You receive: <strong>0</strong></font></div>","null","8","Awesome Apples","Fruit/apple.png","Lost","0.35,0.8","11","0.35","116","22","",""
"html-keyboard-response","76","143383","0.0-11.0-1.22","5e223f4219295951f846dd16","bdp_rwlrn","Mon Mar 13 2023 14:30:10 GMT-0400 (Eastern Daylight Time)","465802","Untrustworthy,Trustworthy","","387","","","","decision","","<div class='trialDiv'><img src='Fruit/watermelon.png'><br><font class='baseline'><strong>Watermelon Win$</strong><p>Choose number of points to bet.</font><div class='respPicDiv'><img src='img/responseButtonOffersNo0L.png' class='respPic'></div></div>","2","8","Watermelon Win$","Fruit/watermelon.png","Won","0.8,0.35","13","0.8","121","23","",""
"html-keyboard-response","77","143642","0.0-11.0-2.22","5e223f4219295951f846dd16","bdp_rwlrn","Mon Mar 13 2023 14:30:10 GMT-0400 (Eastern Daylight Time)","465802","Untrustworthy,Trustworthy","","null","","","","decisionFB","","<div class='trialDiv'><img src='Fruit/watermelon.png'><br><font class='baseline'><strong>Watermelon Win$</strong><p>Choose number of points to bet.</font><div class='respPicDiv'><img src='img/responseButtonOffersNo0L2.png' class='respPic'></div></div>","null","8","Watermelon Win$","Fruit/watermelon.png","Won","0.8,0.35","13","0.8","119","23","",""
"html-keyboard-response","78","144649","0.0-11.0-3.22","5e223f4219295951f846dd16","bdp_rwlrn","Mon Mar 13 2023 14:30:10 GMT-0400 (Eastern Daylight Time)","465802","Untrustworthy,Trustworthy","","null","","","","feedback","","<div class='respPicDiv'><img src='img/responseButtonOffersNo0_wht.png' class='respPic'></div><div class='trialDiv'><img src='Fruit/watermelon.png'><br><font class='baseline'><strong>Watermelon Win$</strong><p><strong><font class='posOutcome'>You WON</font><p>You bet: 2</strong></font> &nbsp; &nbsp; &nbsp; &nbsp; &nbsp; &nbsp;<font class='posOutcome'>you receive: <strong>4</strong></font></div>","null","8","Watermelon Win$","Fruit/watermelon.png","Won","0.8,0.35","13","0.8","123","23","",""
"html-keyboard-response","79","145389","0.0-11.0-1.23","5e223f4219295951f846dd16","bdp_rwlrn","Mon Mar 13 2023 14:30:10 GMT-0400 (Eastern Daylight Time)","465802","Untrustworthy,Trustworthy","","738","","","","decision","","<div class='trialDiv'><img src='Fruit/mixed-berries2.png'><br><font class='baseline'><strong>Berry Bla$t</strong><p>Choose number of points to bet.</font><div class='respPicDiv'><img src='img/responseButtonOffersNo0L.png' class='respPic'></div></div>","5","8","Berry Bla$t","Fruit/mixed-berries2.png","Won","0.8,0.2","13","0.8","128","24","",""
"html-keyboard-response","80","145649","0.0-11.0-2.23","5e223f4219295951f846dd16","bdp_rwlrn","Mon Mar 13 2023 14:30:10 GMT-0400 (Eastern Daylight Time)","465802","Untrustworthy,Trustworthy","","null","","","","decisionFB","","<div class='trialDiv'><img src='Fruit/mixed-berries2.png'><br><font class='baseline'><strong>Berry Bla$t</strong><p>Choose number of points to bet.</font><div class='respPicDiv'><img src='img/responseButtonOffersNo0L5.png' class='respPic'></div></div>","null","8","Berry Bla$t","Fruit/mixed-berries2.png","Won","0.8,0.2","13","0.8","123","24","",""
"html-keyboard-response","81","146658","0.0-11.0-3.23","5e223f4219295951f846dd16","bdp_rwlrn","Mon Mar 13 2023 14:30:10 GMT-0400 (Eastern Daylight Time)","465802","Untrustworthy,Trustworthy","","null","","","","feedback","","<div class='respPicDiv'><img src='img/responseButtonOffersNo0_wht.png' class='respPic'></div><div class='trialDiv'><img src='Fruit/mixed-berries2.png'><br><font class='baseline'><strong>Berry Bla$t</strong><p><strong><font class='posOutcome'>You WON</font><p>You bet: 5</strong></font> &nbsp; &nbsp; &nbsp; &nbsp; &nbsp; &nbsp;<font class='posOutcome'>you receive: <strong>10</strong></font></div>","null","8","Berry Bla$t","Fruit/mixed-berries2.png","Won","0.8,0.2","13","0.8","133","24","",""
"html-keyboard-response","82","150585","0.0-11.0-1.24","5e223f4219295951f846dd16","bdp_rwlrn","Mon Mar 13 2023 14:30:10 GMT-0400 (Eastern Daylight Time)","465802","Untrustworthy,Trustworthy","","3923","","","","decision","","<div class='trialDiv'><img src='Fruit/watermelon.png'><br><font class='baseline'><strong>Watermelon Win$</strong><p>Choose number of points to bet.</font><div class='respPicDiv'><img src='img/responseButtonOffersNo0L.png' class='respPic'></div></div>","5","9","Watermelon Win$","Fruit/watermelon.png","Won","0.8,0.35","13","0.8","138","25","",""
"html-keyboard-response","83","150842","0.0-11.0-2.24","5e223f4219295951f846dd16","bdp_rwlrn","Mon Mar 13 2023 14:30:10 GMT-0400 (Eastern Daylight Time)","465802","Untrustworthy,Trustworthy","","null","","","","decisionFB","","<div class='trialDiv'><img src='Fruit/watermelon.png'><br><font class='baseline'><strong>Watermelon Win$</strong><p>Choose number of points to bet.</font><div class='respPicDiv'><img src='img/responseButtonOffersNo0L5.png' class='respPic'></div></div>","null","9","Watermelon Win$","Fruit/watermelon.png","Won","0.8,0.35","13","0.8","133","25","",""
"html-keyboard-response","84","151852","0.0-11.0-3.24","5e223f4219295951f846dd16","bdp_rwlrn","Mon Mar 13 2023 14:30:10 GMT-0400 (Eastern Daylight Time)","465802","Untrustworthy,Trustworthy","","null","","","","feedback","","<div class='respPicDiv'><img src='img/responseButtonOffersNo0_wht.png' class='respPic'></div><div class='trialDiv'><img src='Fruit/watermelon.png'><br><font class='baseline'><strong>Watermelon Win$</strong><p><strong><font class='posOutcome'>You WON</font><p>You bet: 5</strong></font> &nbsp; &nbsp; &nbsp; &nbsp; &nbsp; &nbsp;<font class='posOutcome'>you receive: <strong>10</strong></font></div>","null","9","Watermelon Win$","Fruit/watermelon.png","Won","0.8,0.35","13","0.8","143","25","",""
"html-keyboard-response","85","153638","0.0-11.0-1.25","5e223f4219295951f846dd16","bdp_rwlrn","Mon Mar 13 2023 14:30:10 GMT-0400 (Eastern Daylight Time)","465802","Untrustworthy,Trustworthy","","1781","","","","decision","","<div class='trialDiv'><img src='Fruit/apple.png'><br><font class='baseline'><strong>Awesome Apples</strong><p>Choose number of points to bet.</font><div class='respPicDiv'><img src='img/responseButtonOffersNo0L.png' class='respPic'></div></div>","5","9","Awesome Apples","Fruit/apple.png","Won","0.35,0.8","11","0.35","148","26","",""
"html-keyboard-response","86","153898","0.0-11.0-2.25","5e223f4219295951f846dd16","bdp_rwlrn","Mon Mar 13 2023 14:30:10 GMT-0400 (Eastern Daylight Time)","465802","Untrustworthy,Trustworthy","","null","","","","decisionFB","","<div class='trialDiv'><img src='Fruit/apple.png'><br><font class='baseline'><strong>Awesome Apples</strong><p>Choose number of points to bet.</font><div class='respPicDiv'><img src='img/responseButtonOffersNo0L5.png' class='respPic'></div></div>","null","9","Awesome Apples","Fruit/apple.png","Won","0.35,0.8","11","0.35","143","26","",""
"html-keyboard-response","87","154906","0.0-11.0-3.25","5e223f4219295951f846dd16","bdp_rwlrn","Mon Mar 13 2023 14:30:10 GMT-0400 (Eastern Daylight Time)","465802","Untrustworthy,Trustworthy","","null","","","","feedback","","<div class='respPicDiv'><img src='img/responseButtonOffersNo0_wht.png' class='respPic'></div><div class='trialDiv'><img src='Fruit/apple.png'><br><font class='baseline'><strong>Awesome Apples</strong><p><strong><font class='posOutcome'>You WON</font><p>You bet: 5</strong></font> &nbsp; &nbsp; &nbsp; &nbsp; &nbsp; &nbsp;<font class='posOutcome'>you receive: <strong>10</strong></font></div>","null","9","Awesome Apples","Fruit/apple.png","Won","0.35,0.8","11","0.35","153","26","",""
"html-keyboard-response","88","155712","0.0-11.0-1.26","5e223f4219295951f846dd16","bdp_rwlrn","Mon Mar 13 2023 14:30:10 GMT-0400 (Eastern Daylight Time)","465802","Untrustworthy,Trustworthy","","802","","","","decision","","<div class='trialDiv'><img src='Fruit/mixed-berries2.png'><br><font class='baseline'><strong>Berry Bla$t</strong><p>Choose number of points to bet.</font><div class='respPicDiv'><img src='img/responseButtonOffersNo0L.png' class='respPic'></div></div>","5","9","Berry Bla$t","Fruit/mixed-berries2.png","Won","0.8,0.2","13","0.8","158","27","",""
"html-keyboard-response","89","155970","0.0-11.0-2.26","5e223f4219295951f846dd16","bdp_rwlrn","Mon Mar 13 2023 14:30:10 GMT-0400 (Eastern Daylight Time)","465802","Untrustworthy,Trustworthy","","null","","","","decisionFB","","<div class='trialDiv'><img src='Fruit/mixed-berries2.png'><br><font class='baseline'><strong>Berry Bla$t</strong><p>Choose number of points to bet.</font><div class='respPicDiv'><img src='img/responseButtonOffersNo0L5.png' class='respPic'></div></div>","null","9","Berry Bla$t","Fruit/mixed-berries2.png","Won","0.8,0.2","13","0.8","153","27","",""
"html-keyboard-response","90","156977","0.0-11.0-3.26","5e223f4219295951f846dd16","bdp_rwlrn","Mon Mar 13 2023 14:30:10 GMT-0400 (Eastern Daylight Time)","465802","Untrustworthy,Trustworthy","","null","","","","feedback","","<div class='respPicDiv'><img src='img/responseButtonOffersNo0_wht.png' class='respPic'></div><div class='trialDiv'><img src='Fruit/mixed-berries2.png'><br><font class='baseline'><strong>Berry Bla$t</strong><p><strong><font class='posOutcome'>You WON</font><p>You bet: 5</strong></font> &nbsp; &nbsp; &nbsp; &nbsp; &nbsp; &nbsp;<font class='posOutcome'>you receive: <strong>10</strong></font></div>","null","9","Berry Bla$t","Fruit/mixed-berries2.png","Won","0.8,0.2","13","0.8","163","27","",""
"html-keyboard-response","91","157410","0.0-11.0-1.27","5e223f4219295951f846dd16","bdp_rwlrn","Mon Mar 13 2023 14:30:10 GMT-0400 (Eastern Daylight Time)","465802","Untrustworthy,Trustworthy","","430","","","","decision","","<div class='trialDiv'><img src='Fruit/apple.png'><br><font class='baseline'><strong>Awesome Apples</strong><p>Choose number of points to bet.</font><div class='respPicDiv'><img src='img/responseButtonOffersNo0L.png' class='respPic'></div></div>","5","10","Awesome Apples","Fruit/apple.png","Won","0.35,0.8","11","0.35","168","28","",""
"html-keyboard-response","92","157666","0.0-11.0-2.27","5e223f4219295951f846dd16","bdp_rwlrn","Mon Mar 13 2023 14:30:10 GMT-0400 (Eastern Daylight Time)","465802","Untrustworthy,Trustworthy","","null","","","","decisionFB","","<div class='trialDiv'><img src='Fruit/apple.png'><br><font class='baseline'><strong>Awesome Apples</strong><p>Choose number of points to bet.</font><div class='respPicDiv'><img src='img/responseButtonOffersNo0L5.png' class='respPic'></div></div>","null","10","Awesome Apples","Fruit/apple.png","Won","0.35,0.8","11","0.35","163","28","",""
"html-keyboard-response","93","158673","0.0-11.0-3.27","5e223f4219295951f846dd16","bdp_rwlrn","Mon Mar 13 2023 14:30:10 GMT-0400 (Eastern Daylight Time)","465802","Untrustworthy,Trustworthy","","null","","","","feedback","","<div class='respPicDiv'><img src='img/responseButtonOffersNo0_wht.png' class='respPic'></div><div class='trialDiv'><img src='Fruit/apple.png'><br><font class='baseline'><strong>Awesome Apples</strong><p><strong><font class='posOutcome'>You WON</font><p>You bet: 5</strong></font> &nbsp; &nbsp; &nbsp; &nbsp; &nbsp; &nbsp;<font class='posOutcome'>you receive: <strong>10</strong></font></div>","null","10","Awesome Apples","Fruit/apple.png","Won","0.35,0.8","11","0.35","173","28","",""
"html-keyboard-response","94","159069","0.0-11.0-1.28","5e223f4219295951f846dd16","bdp_rwlrn","Mon Mar 13 2023 14:30:10 GMT-0400 (Eastern Daylight Time)","465802","Untrustworthy,Trustworthy","","394","","","","decision","","<div class='trialDiv'><img src='Fruit/mixed-berries2.png'><br><font class='baseline'><strong>Berry Bla$t</strong><p>Choose number of points to bet.</font><div class='respPicDiv'><img src='img/responseButtonOffersNo0L.png' class='respPic'></div></div>","5","10","Berry Bla$t","Fruit/mixed-berries2.png","Won","0.8,0.2","13","0.8","178","29","",""
"html-keyboard-response","95","159321","0.0-11.0-2.28","5e223f4219295951f846dd16","bdp_rwlrn","Mon Mar 13 2023 14:30:10 GMT-0400 (Eastern Daylight Time)","465802","Untrustworthy,Trustworthy","","null","","","","decisionFB","","<div class='trialDiv'><img src='Fruit/mixed-berries2.png'><br><font class='baseline'><strong>Berry Bla$t</strong><p>Choose number of points to bet.</font><div class='respPicDiv'><img src='img/responseButtonOffersNo0L5.png' class='respPic'></div></div>","null","10","Berry Bla$t","Fruit/mixed-berries2.png","Won","0.8,0.2","13","0.8","173","29","",""
"html-keyboard-response","96","160329","0.0-11.0-3.28","5e223f4219295951f846dd16","bdp_rwlrn","Mon Mar 13 2023 14:30:10 GMT-0400 (Eastern Daylight Time)","465802","Untrustworthy,Trustworthy","","null","","","","feedback","","<div class='respPicDiv'><img src='img/responseButtonOffersNo0_wht.png' class='respPic'></div><div class='trialDiv'><img src='Fruit/mixed-berries2.png'><br><font class='baseline'><strong>Berry Bla$t</strong><p><strong><font class='posOutcome'>You WON</font><p>You bet: 5</strong></font> &nbsp; &nbsp; &nbsp; &nbsp; &nbsp; &nbsp;<font class='posOutcome'>you receive: <strong>10</strong></font></div>","null","10","Berry Bla$t","Fruit/mixed-berries2.png","Won","0.8,0.2","13","0.8","183","29","",""
"html-keyboard-response","97","160947","0.0-11.0-1.29","5e223f4219295951f846dd16","bdp_rwlrn","Mon Mar 13 2023 14:30:10 GMT-0400 (Eastern Daylight Time)","465802","Untrustworthy,Trustworthy","","614","","","","decision","","<div class='trialDiv'><img src='Fruit/watermelon.png'><br><font class='baseline'><strong>Watermelon Win$</strong><p>Choose number of points to bet.</font><div class='respPicDiv'><img src='img/responseButtonOffersNo0L.png' class='respPic'></div></div>","5","10","Watermelon Win$","Fruit/watermelon.png","Won","0.8,0.35","13","0.8","188","30","",""
"html-keyboard-response","98","161201","0.0-11.0-2.29","5e223f4219295951f846dd16","bdp_rwlrn","Mon Mar 13 2023 14:30:10 GMT-0400 (Eastern Daylight Time)","465802","Untrustworthy,Trustworthy","","null","","","","decisionFB","","<div class='trialDiv'><img src='Fruit/watermelon.png'><br><font class='baseline'><strong>Watermelon Win$</strong><p>Choose number of points to bet.</font><div class='respPicDiv'><img src='img/responseButtonOffersNo0L5.png' class='respPic'></div></div>","null","10","Watermelon Win$","Fruit/watermelon.png","Won","0.8,0.35","13","0.8","183","30","",""
"html-keyboard-response","99","162210","0.0-11.0-3.29","5e223f4219295951f846dd16","bdp_rwlrn","Mon Mar 13 2023 14:30:10 GMT-0400 (Eastern Daylight Time)","465802","Untrustworthy,Trustworthy","","null","","","","feedback","","<div class='respPicDiv'><img src='img/responseButtonOffersNo0_wht.png' class='respPic'></div><div class='trialDiv'><img src='Fruit/watermelon.png'><br><font class='baseline'><strong>Watermelon Win$</strong><p><strong><font class='posOutcome'>You WON</font><p>You bet: 5</strong></font> &nbsp; &nbsp; &nbsp; &nbsp; &nbsp; &nbsp;<font class='posOutcome'>you receive: <strong>10</strong></font></div>","null","10","Watermelon Win$","Fruit/watermelon.png","Won","0.8,0.35","13","0.8","193","30","",""
"html-keyboard-response","100","162558","0.0-11.0-1.30","5e223f4219295951f846dd16","bdp_rwlrn","Mon Mar 13 2023 14:30:10 GMT-0400 (Eastern Daylight Time)","465802","Untrustworthy,Trustworthy","","344","","","","decision","","<div class='trialDiv'><img src='Fruit/apple.png'><br><font class='baseline'><strong>Awesome Apples</strong><p>Choose number of points to bet.</font><div class='respPicDiv'><img src='img/responseButtonOffersNo0L.png' class='respPic'></div></div>","5","11","Awesome Apples","Fruit/apple.png","Won","0.35,0.8","11","0.35","198","31","",""
"html-keyboard-response","101","162818","0.0-11.0-2.30","5e223f4219295951f846dd16","bdp_rwlrn","Mon Mar 13 2023 14:30:10 GMT-0400 (Eastern Daylight Time)","465802","Untrustworthy,Trustworthy","","null","","","","decisionFB","","<div class='trialDiv'><img src='Fruit/apple.png'><br><font class='baseline'><strong>Awesome Apples</strong><p>Choose number of points to bet.</font><div class='respPicDiv'><img src='img/responseButtonOffersNo0L5.png' class='respPic'></div></div>","null","11","Awesome Apples","Fruit/apple.png","Won","0.35,0.8","11","0.35","193","31","",""
"html-keyboard-response","102","163826","0.0-11.0-3.30","5e223f4219295951f846dd16","bdp_rwlrn","Mon Mar 13 2023 14:30:10 GMT-0400 (Eastern Daylight Time)","465802","Untrustworthy,Trustworthy","","null","","","","feedback","","<div class='respPicDiv'><img src='img/responseButtonOffersNo0_wht.png' class='respPic'></div><div class='trialDiv'><img src='Fruit/apple.png'><br><font class='baseline'><strong>Awesome Apples</strong><p><strong><font class='posOutcome'>You WON</font><p>You bet: 5</strong></font> &nbsp; &nbsp; &nbsp; &nbsp; &nbsp; &nbsp;<font class='posOutcome'>you receive: <strong>10</strong></font></div>","null","11","Awesome Apples","Fruit/apple.png","Won","0.35,0.8","11","0.35","203","31","",""
"html-keyboard-response","103","164173","0.0-11.0-1.31","5e223f4219295951f846dd16","bdp_rwlrn","Mon Mar 13 2023 14:30:10 GMT-0400 (Eastern Daylight Time)","465802","Untrustworthy,Trustworthy","","344","","","","decision","","<div class='trialDiv'><img src='Fruit/watermelon.png'><br><font class='baseline'><strong>Watermelon Win$</strong><p>Choose number of points to bet.</font><div class='respPicDiv'><img src='img/responseButtonOffersNo0L.png' class='respPic'></div></div>","5","11","Watermelon Win$","Fruit/watermelon.png","Won","0.8,0.35","13","0.8","208","32","",""
"html-keyboard-response","104","164434","0.0-11.0-2.31","5e223f4219295951f846dd16","bdp_rwlrn","Mon Mar 13 2023 14:30:10 GMT-0400 (Eastern Daylight Time)","465802","Untrustworthy,Trustworthy","","null","","","","decisionFB","","<div class='trialDiv'><img src='Fruit/watermelon.png'><br><font class='baseline'><strong>Watermelon Win$</strong><p>Choose number of points to bet.</font><div class='respPicDiv'><img src='img/responseButtonOffersNo0L5.png' class='respPic'></div></div>","null","11","Watermelon Win$","Fruit/watermelon.png","Won","0.8,0.35","13","0.8","203","32","",""
"html-keyboard-response","105","165442","0.0-11.0-3.31","5e223f4219295951f846dd16","bdp_rwlrn","Mon Mar 13 2023 14:30:10 GMT-0400 (Eastern Daylight Time)","465802","Untrustworthy,Trustworthy","","null","","","","feedback","","<div class='respPicDiv'><img src='img/responseButtonOffersNo0_wht.png' class='respPic'></div><div class='trialDiv'><img src='Fruit/watermelon.png'><br><font class='baseline'><strong>Watermelon Win$</strong><p><strong><font class='posOutcome'>You WON</font><p>You bet: 5</strong></font> &nbsp; &nbsp; &nbsp; &nbsp; &nbsp; &nbsp;<font class='posOutcome'>you receive: <strong>10</strong></font></div>","null","11","Watermelon Win$","Fruit/watermelon.png","Won","0.8,0.35","13","0.8","213","32","",""
"html-keyboard-response","106","165738","0.0-11.0-1.32","5e223f4219295951f846dd16","bdp_rwlrn","Mon Mar 13 2023 14:30:10 GMT-0400 (Eastern Daylight Time)","465802","Untrustworthy,Trustworthy","","291","","","","decision","","<div class='trialDiv'><img src='Fruit/mixed-berries2.png'><br><font class='baseline'><strong>Berry Bla$t</strong><p>Choose number of points to bet.</font><div class='respPicDiv'><img src='img/responseButtonOffersNo0L.png' class='respPic'></div></div>","5","11","Berry Bla$t","Fruit/mixed-berries2.png","Lost","0.8,0.2","13","0.8","218","33","",""
"html-keyboard-response","107","165994","0.0-11.0-2.32","5e223f4219295951f846dd16","bdp_rwlrn","Mon Mar 13 2023 14:30:10 GMT-0400 (Eastern Daylight Time)","465802","Untrustworthy,Trustworthy","","null","","","","decisionFB","","<div class='trialDiv'><img src='Fruit/mixed-berries2.png'><br><font class='baseline'><strong>Berry Bla$t</strong><p>Choose number of points to bet.</font><div class='respPicDiv'><img src='img/responseButtonOffersNo0L5.png' class='respPic'></div></div>","null","11","Berry Bla$t","Fruit/mixed-berries2.png","Lost","0.8,0.2","13","0.8","213","33","",""
"html-keyboard-response","108","167002","0.0-11.0-3.32","5e223f4219295951f846dd16","bdp_rwlrn","Mon Mar 13 2023 14:30:10 GMT-0400 (Eastern Daylight Time)","465802","Untrustworthy,Trustworthy","","null","","","","feedback","","<div class='respPicDiv'><img src='img/responseButtonOffersNo0_wht.png' class='respPic'></div><div class='trialDiv'><img src='Fruit/mixed-berries2.png'><br><font class='baseline'><strong>Berry Bla$t</strong><p><strong><font class='negOutcome'>You LOST</font><p>You bet: 5</strong></font> &nbsp; &nbsp; &nbsp; &nbsp; &nbsp; &nbsp;<font class='negOutcome'>You receive: <strong>0</strong></font></div>","null","11","Berry Bla$t","Fruit/mixed-berries2.png","Lost","0.8,0.2","13","0.8","213","33","",""
"html-keyboard-response","109","167978","0.0-11.0-1.33","5e223f4219295951f846dd16","bdp_rwlrn","Mon Mar 13 2023 14:30:10 GMT-0400 (Eastern Daylight Time)","465802","Untrustworthy,Trustworthy","","973","","","","decision","","<div class='trialDiv'><img src='Fruit/apple.png'><br><font class='baseline'><strong>Awesome Apples</strong><p>Choose number of points to bet.</font><div class='respPicDiv'><img src='img/responseButtonOffersNo0L.png' class='respPic'></div></div>","2","12","Awesome Apples","Fruit/apple.png","Won","0.35,0.8","11","0.35","218","34","",""
"html-keyboard-response","110","168241","0.0-11.0-2.33","5e223f4219295951f846dd16","bdp_rwlrn","Mon Mar 13 2023 14:30:10 GMT-0400 (Eastern Daylight Time)","465802","Untrustworthy,Trustworthy","","null","","","","decisionFB","","<div class='trialDiv'><img src='Fruit/apple.png'><br><font class='baseline'><strong>Awesome Apples</strong><p>Choose number of points to bet.</font><div class='respPicDiv'><img src='img/responseButtonOffersNo0L2.png' class='respPic'></div></div>","null","12","Awesome Apples","Fruit/apple.png","Won","0.35,0.8","11","0.35","216","34","",""
"html-keyboard-response","111","169249","0.0-11.0-3.33","5e223f4219295951f846dd16","bdp_rwlrn","Mon Mar 13 2023 14:30:10 GMT-0400 (Eastern Daylight Time)","465802","Untrustworthy,Trustworthy","","null","","","","feedback","","<div class='respPicDiv'><img src='img/responseButtonOffersNo0_wht.png' class='respPic'></div><div class='trialDiv'><img src='Fruit/apple.png'><br><font class='baseline'><strong>Awesome Apples</strong><p><strong><font class='posOutcome'>You WON</font><p>You bet: 2</strong></font> &nbsp; &nbsp; &nbsp; &nbsp; &nbsp; &nbsp;<font class='posOutcome'>you receive: <strong>4</strong></font></div>","null","12","Awesome Apples","Fruit/apple.png","Won","0.35,0.8","11","0.35","220","34","",""
"html-keyboard-response","112","169532","0.0-11.0-1.34","5e223f4219295951f846dd16","bdp_rwlrn","Mon Mar 13 2023 14:30:10 GMT-0400 (Eastern Daylight Time)","465802","Untrustworthy,Trustworthy","","278","","","","decision","","<div class='trialDiv'><img src='Fruit/mixed-berries2.png'><br><font class='baseline'><strong>Berry Bla$t</strong><p>Choose number of points to bet.</font><div class='respPicDiv'><img src='img/responseButtonOffersNo0L.png' class='respPic'></div></div>","3","12","Berry Bla$t","Fruit/mixed-berries2.png","Lost","0.8,0.2","13","0.8","225","35","",""
"html-keyboard-response","113","169786","0.0-11.0-2.34","5e223f4219295951f846dd16","bdp_rwlrn","Mon Mar 13 2023 14:30:10 GMT-0400 (Eastern Daylight Time)","465802","Untrustworthy,Trustworthy","","null","","","","decisionFB","","<div class='trialDiv'><img src='Fruit/mixed-berries2.png'><br><font class='baseline'><strong>Berry Bla$t</strong><p>Choose number of points to bet.</font><div class='respPicDiv'><img src='img/responseButtonOffersNo0L3.png' class='respPic'></div></div>","null","12","Berry Bla$t","Fruit/mixed-berries2.png","Lost","0.8,0.2","13","0.8","222","35","",""
"html-keyboard-response","114","170793","0.0-11.0-3.34","5e223f4219295951f846dd16","bdp_rwlrn","Mon Mar 13 2023 14:30:10 GMT-0400 (Eastern Daylight Time)","465802","Untrustworthy,Trustworthy","","null","","","","feedback","","<div class='respPicDiv'><img src='img/responseButtonOffersNo0_wht.png' class='respPic'></div><div class='trialDiv'><img src='Fruit/mixed-berries2.png'><br><font class='baseline'><strong>Berry Bla$t</strong><p><strong><font class='negOutcome'>You LOST</font><p>You bet: 3</strong></font> &nbsp; &nbsp; &nbsp; &nbsp; &nbsp; &nbsp;<font class='negOutcome'>You receive: <strong>0</strong></font></div>","null","12","Berry Bla$t","Fruit/mixed-berries2.png","Lost","0.8,0.2","13","0.8","222","35","",""
"html-keyboard-response","115","171111","0.0-11.0-1.35","5e223f4219295951f846dd16","bdp_rwlrn","Mon Mar 13 2023 14:30:10 GMT-0400 (Eastern Daylight Time)","465802","Untrustworthy,Trustworthy","","314","","","","decision","","<div class='trialDiv'><img src='Fruit/watermelon.png'><br><font class='baseline'><strong>Watermelon Win$</strong><p>Choose number of points to bet.</font><div class='respPicDiv'><img src='img/responseButtonOffersNo0L.png' class='respPic'></div></div>","3","12","Watermelon Win$","Fruit/watermelon.png","Won","0.8,0.35","13","0.8","227","36","",""
"html-keyboard-response","116","171371","0.0-11.0-2.35","5e223f4219295951f846dd16","bdp_rwlrn","Mon Mar 13 2023 14:30:10 GMT-0400 (Eastern Daylight Time)","465802","Untrustworthy,Trustworthy","","null","","","","decisionFB","","<div class='trialDiv'><img src='Fruit/watermelon.png'><br><font class='baseline'><strong>Watermelon Win$</strong><p>Choose number of points to bet.</font><div class='respPicDiv'><img src='img/responseButtonOffersNo0L3.png' class='respPic'></div></div>","null","12","Watermelon Win$","Fruit/watermelon.png","Won","0.8,0.35","13","0.8","224","36","",""
"html-keyboard-response","117","172380","0.0-11.0-3.35","5e223f4219295951f846dd16","bdp_rwlrn","Mon Mar 13 2023 14:30:10 GMT-0400 (Eastern Daylight Time)","465802","Untrustworthy,Trustworthy","","null","","","","feedback","","<div class='respPicDiv'><img src='img/responseButtonOffersNo0_wht.png' class='respPic'></div><div class='trialDiv'><img src='Fruit/watermelon.png'><br><font class='baseline'><strong>Watermelon Win$</strong><p><strong><font class='posOutcome'>You WON</font><p>You bet: 3</strong></font> &nbsp; &nbsp; &nbsp; &nbsp; &nbsp; &nbsp;<font class='posOutcome'>you receive: <strong>6</strong></font></div>","null","12","Watermelon Win$","Fruit/watermelon.png","Won","0.8,0.35","13","0.8","230","36","",""
"html-keyboard-response","118","172436","0.0-11.0-1.36","5e223f4219295951f846dd16","bdp_rwlrn","Mon Mar 13 2023 14:30:10 GMT-0400 (Eastern Daylight Time)","465802","Untrustworthy,Trustworthy","","53","","","","decision","","<div class='trialDiv'><img src='Fruit/mixed-berries2.png'><br><font class='baseline'><strong>Berry Bla$t</strong><p>Choose number of points to bet.</font><div class='respPicDiv'><img src='img/responseButtonOffersNo0L.png' class='respPic'></div></div>","5","13","Berry Bla$t","Fruit/mixed-berries2.png","Won","0.8,0.2","13","0.8","235","37","",""
"html-keyboard-response","119","172689","0.0-11.0-2.36","5e223f4219295951f846dd16","bdp_rwlrn","Mon Mar 13 2023 14:30:10 GMT-0400 (Eastern Daylight Time)","465802","Untrustworthy,Trustworthy","","null","","","","decisionFB","","<div class='trialDiv'><img src='Fruit/mixed-berries2.png'><br><font class='baseline'><strong>Berry Bla$t</strong><p>Choose number of points to bet.</font><div class='respPicDiv'><img src='img/responseButtonOffersNo0L5.png' class='respPic'></div></div>","null","13","Berry Bla$t","Fruit/mixed-berries2.png","Won","0.8,0.2","13","0.8","230","37","",""
"html-keyboard-response","120","173699","0.0-11.0-3.36","5e223f4219295951f846dd16","bdp_rwlrn","Mon Mar 13 2023 14:30:10 GMT-0400 (Eastern Daylight Time)","465802","Untrustworthy,Trustworthy","","null","","","","feedback","","<div class='respPicDiv'><img src='img/responseButtonOffersNo0_wht.png' class='respPic'></div><div class='trialDiv'><img src='Fruit/mixed-berries2.png'><br><font class='baseline'><strong>Berry Bla$t</strong><p><strong><font class='posOutcome'>You WON</font><p>You bet: 5</strong></font> &nbsp; &nbsp; &nbsp; &nbsp; &nbsp; &nbsp;<font class='posOutcome'>you receive: <strong>10</strong></font></div>","null","13","Berry Bla$t","Fruit/mixed-berries2.png","Won","0.8,0.2","13","0.8","240","37","",""
"html-keyboard-response","121","174064","0.0-11.0-1.37","5e223f4219295951f846dd16","bdp_rwlrn","Mon Mar 13 2023 14:30:10 GMT-0400 (Eastern Daylight Time)","465802","Untrustworthy,Trustworthy","","362","","","","decision","","<div class='trialDiv'><img src='Fruit/apple.png'><br><font class='baseline'><strong>Awesome Apples</strong><p>Choose number of points to bet.</font><div class='respPicDiv'><img src='img/responseButtonOffersNo0L.png' class='respPic'></div></div>","5","13","Awesome Apples","Fruit/apple.png","Won","0.35,0.8","11","0.35","245","38","",""
"html-keyboard-response","122","174322","0.0-11.0-2.37","5e223f4219295951f846dd16","bdp_rwlrn","Mon Mar 13 2023 14:30:10 GMT-0400 (Eastern Daylight Time)","465802","Untrustworthy,Trustworthy","","null","","","","decisionFB","","<div class='trialDiv'><img src='Fruit/apple.png'><br><font class='baseline'><strong>Awesome Apples</strong><p>Choose number of points to bet.</font><div class='respPicDiv'><img src='img/responseButtonOffersNo0L5.png' class='respPic'></div></div>","null","13","Awesome Apples","Fruit/apple.png","Won","0.35,0.8","11","0.35","240","38","",""
"html-keyboard-response","123","175329","0.0-11.0-3.37","5e223f4219295951f846dd16","bdp_rwlrn","Mon Mar 13 2023 14:30:10 GMT-0400 (Eastern Daylight Time)","465802","Untrustworthy,Trustworthy","","null","","","","feedback","","<div class='respPicDiv'><img src='img/responseButtonOffersNo0_wht.png' class='respPic'></div><div class='trialDiv'><img src='Fruit/apple.png'><br><font class='baseline'><strong>Awesome Apples</strong><p><strong><font class='posOutcome'>You WON</font><p>You bet: 5</strong></font> &nbsp; &nbsp; &nbsp; &nbsp; &nbsp; &nbsp;<font class='posOutcome'>you receive: <strong>10</strong></font></div>","null","13","Awesome Apples","Fruit/apple.png","Won","0.35,0.8","11","0.35","250","38","",""
"html-keyboard-response","124","175744","0.0-11.0-1.38","5e223f4219295951f846dd16","bdp_rwlrn","Mon Mar 13 2023 14:30:10 GMT-0400 (Eastern Daylight Time)","465802","Untrustworthy,Trustworthy","","410","","","","decision","","<div class='trialDiv'><img src='Fruit/watermelon.png'><br><font class='baseline'><strong>Watermelon Win$</strong><p>Choose number of points to bet.</font><div class='respPicDiv'><img src='img/responseButtonOffersNo0L.png' class='respPic'></div></div>","5","13","Watermelon Win$","Fruit/watermelon.png","Lost","0.8,0.35","13","0.8","255","39","",""
"html-keyboard-response","125","176001","0.0-11.0-2.38","5e223f4219295951f846dd16","bdp_rwlrn","Mon Mar 13 2023 14:30:10 GMT-0400 (Eastern Daylight Time)","465802","Untrustworthy,Trustworthy","","null","","","","decisionFB","","<div class='trialDiv'><img src='Fruit/watermelon.png'><br><font class='baseline'><strong>Watermelon Win$</strong><p>Choose number of points to bet.</font><div class='respPicDiv'><img src='img/responseButtonOffersNo0L5.png' class='respPic'></div></div>","null","13","Watermelon Win$","Fruit/watermelon.png","Lost","0.8,0.35","13","0.8","250","39","",""
"html-keyboard-response","126","177009","0.0-11.0-3.38","5e223f4219295951f846dd16","bdp_rwlrn","Mon Mar 13 2023 14:30:10 GMT-0400 (Eastern Daylight Time)","465802","Untrustworthy,Trustworthy","","null","","","","feedback","","<div class='respPicDiv'><img src='img/responseButtonOffersNo0_wht.png' class='respPic'></div><div class='trialDiv'><img src='Fruit/watermelon.png'><br><font class='baseline'><strong>Watermelon Win$</strong><p><strong><font class='negOutcome'>You LOST</font><p>You bet: 5</strong></font> &nbsp; &nbsp; &nbsp; &nbsp; &nbsp; &nbsp;<font class='negOutcome'>You receive: <strong>0</strong></font></div>","null","13","Watermelon Win$","Fruit/watermelon.png","Lost","0.8,0.35","13","0.8","250","39","",""
"html-keyboard-response","127","177919","0.0-11.0-1.39","5e223f4219295951f846dd16","bdp_rwlrn","Mon Mar 13 2023 14:30:10 GMT-0400 (Eastern Daylight Time)","465802","Untrustworthy,Trustworthy","","905","","","","decision","","<div class='trialDiv'><img src='Fruit/mixed-berries2.png'><br><font class='baseline'><strong>Berry Bla$t</strong><p>Choose number of points to bet.</font><div class='respPicDiv'><img src='img/responseButtonOffersNo0L.png' class='respPic'></div></div>","2","14","Berry Bla$t","Fruit/mixed-berries2.png","Lost","0.8,0.2","13","0.8","255","40","",""
"html-keyboard-response","128","178177","0.0-11.0-2.39","5e223f4219295951f846dd16","bdp_rwlrn","Mon Mar 13 2023 14:30:10 GMT-0400 (Eastern Daylight Time)","465802","Untrustworthy,Trustworthy","","null","","","","decisionFB","","<div class='trialDiv'><img src='Fruit/mixed-berries2.png'><br><font class='baseline'><strong>Berry Bla$t</strong><p>Choose number of points to bet.</font><div class='respPicDiv'><img src='img/responseButtonOffersNo0L2.png' class='respPic'></div></div>","null","14","Berry Bla$t","Fruit/mixed-berries2.png","Lost","0.8,0.2","13","0.8","253","40","",""
"html-keyboard-response","129","179186","0.0-11.0-3.39","5e223f4219295951f846dd16","bdp_rwlrn","Mon Mar 13 2023 14:30:10 GMT-0400 (Eastern Daylight Time)","465802","Untrustworthy,Trustworthy","","null","","","","feedback","","<div class='respPicDiv'><img src='img/responseButtonOffersNo0_wht.png' class='respPic'></div><div class='trialDiv'><img src='Fruit/mixed-berries2.png'><br><font class='baseline'><strong>Berry Bla$t</strong><p><strong><font class='negOutcome'>You LOST</font><p>You bet: 2</strong></font> &nbsp; &nbsp; &nbsp; &nbsp; &nbsp; &nbsp;<font class='negOutcome'>You receive: <strong>0</strong></font></div>","null","14","Berry Bla$t","Fruit/mixed-berries2.png","Lost","0.8,0.2","13","0.8","253","40","",""
"html-keyboard-response","130","179564","0.0-11.0-1.40","5e223f4219295951f846dd16","bdp_rwlrn","Mon Mar 13 2023 14:30:10 GMT-0400 (Eastern Daylight Time)","465802","Untrustworthy,Trustworthy","","372","","","","decision","","<div class='trialDiv'><img src='Fruit/apple.png'><br><font class='baseline'><strong>Awesome Apples</strong><p>Choose number of points to bet.</font><div class='respPicDiv'><img src='img/responseButtonOffersNo0L.png' class='respPic'></div></div>","3","14","Awesome Apples","Fruit/apple.png","Won","0.35,0.8","11","0.35","258","41","",""
"html-keyboard-response","131","179817","0.0-11.0-2.40","5e223f4219295951f846dd16","bdp_rwlrn","Mon Mar 13 2023 14:30:10 GMT-0400 (Eastern Daylight Time)","465802","Untrustworthy,Trustworthy","","null","","","","decisionFB","","<div class='trialDiv'><img src='Fruit/apple.png'><br><font class='baseline'><strong>Awesome Apples</strong><p>Choose number of points to bet.</font><div class='respPicDiv'><img src='img/responseButtonOffersNo0L3.png' class='respPic'></div></div>","null","14","Awesome Apples","Fruit/apple.png","Won","0.35,0.8","11","0.35","255","41","",""
"html-keyboard-response","132","180826","0.0-11.0-3.40","5e223f4219295951f846dd16","bdp_rwlrn","Mon Mar 13 2023 14:30:10 GMT-0400 (Eastern Daylight Time)","465802","Untrustworthy,Trustworthy","","null","","","","feedback","","<div class='respPicDiv'><img src='img/responseButtonOffersNo0_wht.png' class='respPic'></div><div class='trialDiv'><img src='Fruit/apple.png'><br><font class='baseline'><strong>Awesome Apples</strong><p><strong><font class='posOutcome'>You WON</font><p>You bet: 3</strong></font> &nbsp; &nbsp; &nbsp; &nbsp; &nbsp; &nbsp;<font class='posOutcome'>you receive: <strong>6</strong></font></div>","null","14","Awesome Apples","Fruit/apple.png","Won","0.35,0.8","11","0.35","261","41","",""
"html-keyboard-response","133","181096","0.0-11.0-1.41","5e223f4219295951f846dd16","bdp_rwlrn","Mon Mar 13 2023 14:30:10 GMT-0400 (Eastern Daylight Time)","465802","Untrustworthy,Trustworthy","","265","","","","decision","","<div class='trialDiv'><img src='Fruit/watermelon.png'><br><font class='baseline'><strong>Watermelon Win$</strong><p>Choose number of points to bet.</font><div class='respPicDiv'><img src='img/responseButtonOffersNo0L.png' class='respPic'></div></div>","5","14","Watermelon Win$","Fruit/watermelon.png","Lost","0.8,0.35","13","0.8","266","42","",""
"html-keyboard-response","134","181354","0.0-11.0-2.41","5e223f4219295951f846dd16","bdp_rwlrn","Mon Mar 13 2023 14:30:10 GMT-0400 (Eastern Daylight Time)","465802","Untrustworthy,Trustworthy","","null","","","","decisionFB","","<div class='trialDiv'><img src='Fruit/watermelon.png'><br><font class='baseline'><strong>Watermelon Win$</strong><p>Choose number of points to bet.</font><div class='respPicDiv'><img src='img/responseButtonOffersNo0L5.png' class='respPic'></div></div>","null","14","Watermelon Win$","Fruit/watermelon.png","Lost","0.8,0.35","13","0.8","261","42","",""
"html-keyboard-response","135","182362","0.0-11.0-3.41","5e223f4219295951f846dd16","bdp_rwlrn","Mon Mar 13 2023 14:30:10 GMT-0400 (Eastern Daylight Time)","465802","Untrustworthy,Trustworthy","","null","","","","feedback","","<div class='respPicDiv'><img src='img/responseButtonOffersNo0_wht.png' class='respPic'></div><div class='trialDiv'><img src='Fruit/watermelon.png'><br><font class='baseline'><strong>Watermelon Win$</strong><p><strong><font class='negOutcome'>You LOST</font><p>You bet: 5</strong></font> &nbsp; &nbsp; &nbsp; &nbsp; &nbsp; &nbsp;<font class='negOutcome'>You receive: <strong>0</strong></font></div>","null","14","Watermelon Win$","Fruit/watermelon.png","Lost","0.8,0.35","13","0.8","261","42","",""
"html-keyboard-response","136","182716","0.0-11.0-1.42","5e223f4219295951f846dd16","bdp_rwlrn","Mon Mar 13 2023 14:30:10 GMT-0400 (Eastern Daylight Time)","465802","Untrustworthy,Trustworthy","","351","","","","decision","","<div class='trialDiv'><img src='Fruit/apple.png'><br><font class='baseline'><strong>Awesome Apples</strong><p>Choose number of points to bet.</font><div class='respPicDiv'><img src='img/responseButtonOffersNo0L.png' class='respPic'></div></div>","5","15","Awesome Apples","Fruit/apple.png","Won","0.35,0.8","11","0.35","266","43","",""
"html-keyboard-response","137","182978","0.0-11.0-2.42","5e223f4219295951f846dd16","bdp_rwlrn","Mon Mar 13 2023 14:30:10 GMT-0400 (Eastern Daylight Time)","465802","Untrustworthy,Trustworthy","","null","","","","decisionFB","","<div class='trialDiv'><img src='Fruit/apple.png'><br><font class='baseline'><strong>Awesome Apples</strong><p>Choose number of points to bet.</font><div class='respPicDiv'><img src='img/responseButtonOffersNo0L5.png' class='respPic'></div></div>","null","15","Awesome Apples","Fruit/apple.png","Won","0.35,0.8","11","0.35","261","43","",""
"html-keyboard-response","138","183987","0.0-11.0-3.42","5e223f4219295951f846dd16","bdp_rwlrn","Mon Mar 13 2023 14:30:10 GMT-0400 (Eastern Daylight Time)","465802","Untrustworthy,Trustworthy","","null","","","","feedback","","<div class='respPicDiv'><img src='img/responseButtonOffersNo0_wht.png' class='respPic'></div><div class='trialDiv'><img src='Fruit/apple.png'><br><font class='baseline'><strong>Awesome Apples</strong><p><strong><font class='posOutcome'>You WON</font><p>You bet: 5</strong></font> &nbsp; &nbsp; &nbsp; &nbsp; &nbsp; &nbsp;<font class='posOutcome'>you receive: <strong>10</strong></font></div>","null","15","Awesome Apples","Fruit/apple.png","Won","0.35,0.8","11","0.35","271","43","",""
"html-keyboard-response","139","184718","0.0-11.0-1.43","5e223f4219295951f846dd16","bdp_rwlrn","Mon Mar 13 2023 14:30:10 GMT-0400 (Eastern Daylight Time)","465802","Untrustworthy,Trustworthy","","728","","","","decision","","<div class='trialDiv'><img src='Fruit/mixed-berries2.png'><br><font class='baseline'><strong>Berry Bla$t</strong><p>Choose number of points to bet.</font><div class='respPicDiv'><img src='img/responseButtonOffersNo0L.png' class='respPic'></div></div>","5","15","Berry Bla$t","Fruit/mixed-berries2.png","Lost","0.8,0.2","13","0.8","276","44","",""
"html-keyboard-response","140","184977","0.0-11.0-2.43","5e223f4219295951f846dd16","bdp_rwlrn","Mon Mar 13 2023 14:30:10 GMT-0400 (Eastern Daylight Time)","465802","Untrustworthy,Trustworthy","","null","","","","decisionFB","","<div class='trialDiv'><img src='Fruit/mixed-berries2.png'><br><font class='baseline'><strong>Berry Bla$t</strong><p>Choose number of points to bet.</font><div class='respPicDiv'><img src='img/responseButtonOffersNo0L5.png' class='respPic'></div></div>","null","15","Berry Bla$t","Fruit/mixed-berries2.png","Lost","0.8,0.2","13","0.8","271","44","",""
"html-keyboard-response","141","185986","0.0-11.0-3.43","5e223f4219295951f846dd16","bdp_rwlrn","Mon Mar 13 2023 14:30:10 GMT-0400 (Eastern Daylight Time)","465802","Untrustworthy,Trustworthy","","null","","","","feedback","","<div class='respPicDiv'><img src='img/responseButtonOffersNo0_wht.png' class='respPic'></div><div class='trialDiv'><img src='Fruit/mixed-berries2.png'><br><font class='baseline'><strong>Berry Bla$t</strong><p><strong><font class='negOutcome'>You LOST</font><p>You bet: 5</strong></font> &nbsp; &nbsp; &nbsp; &nbsp; &nbsp; &nbsp;<font class='negOutcome'>You receive: <strong>0</strong></font></div>","null","15","Berry Bla$t","Fruit/mixed-berries2.png","Lost","0.8,0.2","13","0.8","271","44","",""
"html-keyboard-response","142","186501","0.0-11.0-1.44","5e223f4219295951f846dd16","bdp_rwlrn","Mon Mar 13 2023 14:30:10 GMT-0400 (Eastern Daylight Time)","465802","Untrustworthy,Trustworthy","","511","","","","decision","","<div class='trialDiv'><img src='Fruit/watermelon.png'><br><font class='baseline'><strong>Watermelon Win$</strong><p>Choose number of points to bet.</font><div class='respPicDiv'><img src='img/responseButtonOffersNo0L.png' class='respPic'></div></div>","3","15","Watermelon Win$","Fruit/watermelon.png","Won","0.8,0.35","13","0.8","276","45","",""
"html-keyboard-response","143","186762","0.0-11.0-2.44","5e223f4219295951f846dd16","bdp_rwlrn","Mon Mar 13 2023 14:30:10 GMT-0400 (Eastern Daylight Time)","465802","Untrustworthy,Trustworthy","","null","","","","decisionFB","","<div class='trialDiv'><img src='Fruit/watermelon.png'><br><font class='baseline'><strong>Watermelon Win$</strong><p>Choose number of points to bet.</font><div class='respPicDiv'><img src='img/responseButtonOffersNo0L3.png' class='respPic'></div></div>","null","15","Watermelon Win$","Fruit/watermelon.png","Won","0.8,0.35","13","0.8","273","45","",""
"html-keyboard-response","144","187770","0.0-11.0-3.44","5e223f4219295951f846dd16","bdp_rwlrn","Mon Mar 13 2023 14:30:10 GMT-0400 (Eastern Daylight Time)","465802","Untrustworthy,Trustworthy","","null","","","","feedback","","<div class='respPicDiv'><img src='img/responseButtonOffersNo0_wht.png' class='respPic'></div><div class='trialDiv'><img src='Fruit/watermelon.png'><br><font class='baseline'><strong>Watermelon Win$</strong><p><strong><font class='posOutcome'>You WON</font><p>You bet: 3</strong></font> &nbsp; &nbsp; &nbsp; &nbsp; &nbsp; &nbsp;<font class='posOutcome'>you receive: <strong>6</strong></font></div>","null","15","Watermelon Win$","Fruit/watermelon.png","Won","0.8,0.35","13","0.8","279","45","",""
"html-keyboard-response","145","188060","0.0-11.0-1.45","5e223f4219295951f846dd16","bdp_rwlrn","Mon Mar 13 2023 14:30:10 GMT-0400 (Eastern Daylight Time)","465802","Untrustworthy,Trustworthy","","287","","","","decision","","<div class='trialDiv'><img src='Fruit/apple.png'><br><font class='baseline'><strong>Awesome Apples</strong><p>Choose number of points to bet.</font><div class='respPicDiv'><img src='img/responseButtonOffersNo0L.png' class='respPic'></div></div>","5","16","Awesome Apples","Fruit/apple.png","Lost","0.35,0.8","11","0.35","284","46","",""
"html-keyboard-response","146","188322","0.0-11.0-2.45","5e223f4219295951f846dd16","bdp_rwlrn","Mon Mar 13 2023 14:30:10 GMT-0400 (Eastern Daylight Time)","465802","Untrustworthy,Trustworthy","","null","","","","decisionFB","","<div class='trialDiv'><img src='Fruit/apple.png'><br><font class='baseline'><strong>Awesome Apples</strong><p>Choose number of points to bet.</font><div class='respPicDiv'><img src='img/responseButtonOffersNo0L5.png' class='respPic'></div></div>","null","16","Awesome Apples","Fruit/apple.png","Lost","0.35,0.8","11","0.35","279","46","",""
"html-keyboard-response","147","189330","0.0-11.0-3.45","5e223f4219295951f846dd16","bdp_rwlrn","Mon Mar 13 2023 14:30:10 GMT-0400 (Eastern Daylight Time)","465802","Untrustworthy,Trustworthy","","null","","","","feedback","","<div class='respPicDiv'><img src='img/responseButtonOffersNo0_wht.png' class='respPic'></div><div class='trialDiv'><img src='Fruit/apple.png'><br><font class='baseline'><strong>Awesome Apples</strong><p><strong><font class='negOutcome'>You LOST</font><p>You bet: 5</strong></font> &nbsp; &nbsp; &nbsp; &nbsp; &nbsp; &nbsp;<font class='negOutcome'>You receive: <strong>0</strong></font></div>","null","16","Awesome Apples","Fruit/apple.png","Lost","0.35,0.8","11","0.35","279","46","",""
"html-keyboard-response","148","189652","0.0-11.0-1.46","5e223f4219295951f846dd16","bdp_rwlrn","Mon Mar 13 2023 14:30:10 GMT-0400 (Eastern Daylight Time)","465802","Untrustworthy,Trustworthy","","318","","","","decision","","<div class='trialDiv'><img src='Fruit/watermelon.png'><br><font class='baseline'><strong>Watermelon Win$</strong><p>Choose number of points to bet.</font><div class='respPicDiv'><img src='img/responseButtonOffersNo0L.png' class='respPic'></div></div>","5","16","Watermelon Win$","Fruit/watermelon.png","Lost","0.8,0.35","13","0.8","284","47","",""
"html-keyboard-response","149","189914","0.0-11.0-2.46","5e223f4219295951f846dd16","bdp_rwlrn","Mon Mar 13 2023 14:30:10 GMT-0400 (Eastern Daylight Time)","465802","Untrustworthy,Trustworthy","","null","","","","decisionFB","","<div class='trialDiv'><img src='Fruit/watermelon.png'><br><font class='baseline'><strong>Watermelon Win$</strong><p>Choose number of points to bet.</font><div class='respPicDiv'><img src='img/responseButtonOffersNo0L5.png' class='respPic'></div></div>","null","16","Watermelon Win$","Fruit/watermelon.png","Lost","0.8,0.35","13","0.8","279","47","",""
"html-keyboard-response","150","190922","0.0-11.0-3.46","5e223f4219295951f846dd16","bdp_rwlrn","Mon Mar 13 2023 14:30:10 GMT-0400 (Eastern Daylight Time)","465802","Untrustworthy,Trustworthy","","null","","","","feedback","","<div class='respPicDiv'><img src='img/responseButtonOffersNo0_wht.png' class='respPic'></div><div class='trialDiv'><img src='Fruit/watermelon.png'><br><font class='baseline'><strong>Watermelon Win$</strong><p><strong><font class='negOutcome'>You LOST</font><p>You bet: 5</strong></font> &nbsp; &nbsp; &nbsp; &nbsp; &nbsp; &nbsp;<font class='negOutcome'>You receive: <strong>0</strong></font></div>","null","16","Watermelon Win$","Fruit/watermelon.png","Lost","0.8,0.35","13","0.8","279","47","",""
"html-keyboard-response","151","191302","0.0-11.0-1.47","5e223f4219295951f846dd16","bdp_rwlrn","Mon Mar 13 2023 14:30:10 GMT-0400 (Eastern Daylight Time)","465802","Untrustworthy,Trustworthy","","375","","","","decision","","<div class='trialDiv'><img src='Fruit/mixed-berries2.png'><br><font class='baseline'><strong>Berry Bla$t</strong><p>Choose number of points to bet.</font><div class='respPicDiv'><img src='img/responseButtonOffersNo0L.png' class='respPic'></div></div>","2","16","Berry Bla$t","Fruit/mixed-berries2.png","Lost","0.8,0.2","13","0.8","284","48","",""
"html-keyboard-response","152","191562","0.0-11.0-2.47","5e223f4219295951f846dd16","bdp_rwlrn","Mon Mar 13 2023 14:30:10 GMT-0400 (Eastern Daylight Time)","465802","Untrustworthy,Trustworthy","","null","","","","decisionFB","","<div class='trialDiv'><img src='Fruit/mixed-berries2.png'><br><font class='baseline'><strong>Berry Bla$t</strong><p>Choose number of points to bet.</font><div class='respPicDiv'><img src='img/responseButtonOffersNo0L2.png' class='respPic'></div></div>","null","16","Berry Bla$t","Fruit/mixed-berries2.png","Lost","0.8,0.2","13","0.8","282","48","",""
"html-keyboard-response","153","192570","0.0-11.0-3.47","5e223f4219295951f846dd16","bdp_rwlrn","Mon Mar 13 2023 14:30:10 GMT-0400 (Eastern Daylight Time)","465802","Untrustworthy,Trustworthy","","null","","","","feedback","","<div class='respPicDiv'><img src='img/responseButtonOffersNo0_wht.png' class='respPic'></div><div class='trialDiv'><img src='Fruit/mixed-berries2.png'><br><font class='baseline'><strong>Berry Bla$t</strong><p><strong><font class='negOutcome'>You LOST</font><p>You bet: 2</strong></font> &nbsp; &nbsp; &nbsp; &nbsp; &nbsp; &nbsp;<font class='negOutcome'>You receive: <strong>0</strong></font></div>","null","16","Berry Bla$t","Fruit/mixed-berries2.png","Lost","0.8,0.2","13","0.8","282","48","",""
"html-keyboard-response","154","193177","0.0-11.0-1.48","5e223f4219295951f846dd16","bdp_rwlrn","Mon Mar 13 2023 14:30:10 GMT-0400 (Eastern Daylight Time)","465802","Untrustworthy,Trustworthy","","602","","","","decision","","<div class='trialDiv'><img src='Fruit/apple.png'><br><font class='baseline'><strong>Awesome Apples</strong><p>Choose number of points to bet.</font><div class='respPicDiv'><img src='img/responseButtonOffersNo0L.png' class='respPic'></div></div>","2","17","Awesome Apples","Fruit/apple.png","Won","0.35,0.8","11","0.35","287","49","",""
"html-keyboard-response","155","193434","0.0-11.0-2.48","5e223f4219295951f846dd16","bdp_rwlrn","Mon Mar 13 2023 14:30:10 GMT-0400 (Eastern Daylight Time)","465802","Untrustworthy,Trustworthy","","null","","","","decisionFB","","<div class='trialDiv'><img src='Fruit/apple.png'><br><font class='baseline'><strong>Awesome Apples</strong><p>Choose number of points to bet.</font><div class='respPicDiv'><img src='img/responseButtonOffersNo0L2.png' class='respPic'></div></div>","null","17","Awesome Apples","Fruit/apple.png","Won","0.35,0.8","11","0.35","285","49","",""
"html-keyboard-response","156","194443","0.0-11.0-3.48","5e223f4219295951f846dd16","bdp_rwlrn","Mon Mar 13 2023 14:30:10 GMT-0400 (Eastern Daylight Time)","465802","Untrustworthy,Trustworthy","","null","","","","feedback","","<div class='respPicDiv'><img src='img/responseButtonOffersNo0_wht.png' class='respPic'></div><div class='trialDiv'><img src='Fruit/apple.png'><br><font class='baseline'><strong>Awesome Apples</strong><p><strong><font class='posOutcome'>You WON</font><p>You bet: 2</strong></font> &nbsp; &nbsp; &nbsp; &nbsp; &nbsp; &nbsp;<font class='posOutcome'>you receive: <strong>4</strong></font></div>","null","17","Awesome Apples","Fruit/apple.png","Won","0.35,0.8","11","0.35","289","49","",""
"html-keyboard-response","157","194925","0.0-11.0-1.49","5e223f4219295951f846dd16","bdp_rwlrn","Mon Mar 13 2023 14:30:10 GMT-0400 (Eastern Daylight Time)","465802","Untrustworthy,Trustworthy","","478","","","","decision","","<div class='trialDiv'><img src='Fruit/watermelon.png'><br><font class='baseline'><strong>Watermelon Win$</strong><p>Choose number of points to bet.</font><div class='respPicDiv'><img src='img/responseButtonOffersNo0L.png' class='respPic'></div></div>","4","17","Watermelon Win$","Fruit/watermelon.png","Lost","0.8,0.35","13","0.8","294","50","",""
"html-keyboard-response","158","195185","0.0-11.0-2.49","5e223f4219295951f846dd16","bdp_rwlrn","Mon Mar 13 2023 14:30:10 GMT-0400 (Eastern Daylight Time)","465802","Untrustworthy,Trustworthy","","null","","","","decisionFB","","<div class='trialDiv'><img src='Fruit/watermelon.png'><br><font class='baseline'><strong>Watermelon Win$</strong><p>Choose number of points to bet.</font><div class='respPicDiv'><img src='img/responseButtonOffersNo0L4.png' class='respPic'></div></div>","null","17","Watermelon Win$","Fruit/watermelon.png","Lost","0.8,0.35","13","0.8","290","50","",""
"html-keyboard-response","159","196193","0.0-11.0-3.49","5e223f4219295951f846dd16","bdp_rwlrn","Mon Mar 13 2023 14:30:10 GMT-0400 (Eastern Daylight Time)","465802","Untrustworthy,Trustworthy","","null","","","","feedback","","<div class='respPicDiv'><img src='img/responseButtonOffersNo0_wht.png' class='respPic'></div><div class='trialDiv'><img src='Fruit/watermelon.png'><br><font class='baseline'><strong>Watermelon Win$</strong><p><strong><font class='negOutcome'>You LOST</font><p>You bet: 4</strong></font> &nbsp; &nbsp; &nbsp; &nbsp; &nbsp; &nbsp;<font class='negOutcome'>You receive: <strong>0</strong></font></div>","null","17","Watermelon Win$","Fruit/watermelon.png","Lost","0.8,0.35","13","0.8","290","50","",""
"html-keyboard-response","160","196490","0.0-11.0-1.50","5e223f4219295951f846dd16","bdp_rwlrn","Mon Mar 13 2023 14:30:10 GMT-0400 (Eastern Daylight Time)","465802","Untrustworthy,Trustworthy","","293","","","","decision","","<div class='trialDiv'><img src='Fruit/mixed-berries2.png'><br><font class='baseline'><strong>Berry Bla$t</strong><p>Choose number of points to bet.</font><div class='respPicDiv'><img src='img/responseButtonOffersNo0L.png' class='respPic'></div></div>","3","17","Berry Bla$t","Fruit/mixed-berries2.png","Lost","0.8,0.2","13","0.8","295","51","",""
"html-keyboard-response","161","196746","0.0-11.0-2.50","5e223f4219295951f846dd16","bdp_rwlrn","Mon Mar 13 2023 14:30:10 GMT-0400 (Eastern Daylight Time)","465802","Untrustworthy,Trustworthy","","null","","","","decisionFB","","<div class='trialDiv'><img src='Fruit/mixed-berries2.png'><br><font class='baseline'><strong>Berry Bla$t</strong><p>Choose number of points to bet.</font><div class='respPicDiv'><img src='img/responseButtonOffersNo0L3.png' class='respPic'></div></div>","null","17","Berry Bla$t","Fruit/mixed-berries2.png","Lost","0.8,0.2","13","0.8","292","51","",""
