"event","trial","time","trialtype","subject_id","task","startTime","totalTime","labels","trial_type","trial_index","time_elapsed","internal_node_id","view_history","rt","success","stimulus","key_press","ltround","name","fileID","outcome","lottotype","lottoswpt","lottocurrpshare","point_total","round","faceID","face"
"focus","0","0","focusevent","63b6c76ff03d438cd09b8c56","bdp_rwlrn","Tue Mar 14 2023 13:40:43 GMT-0400 (Eastern Daylight Time)","561068","Trustworthy,Untrustworthy","","","","","","","","","","","","","","","","","","","",""
"","","","","63b6c76ff03d438cd09b8c56","bdp_rwlrn","Tue Mar 14 2023 13:40:43 GMT-0400 (Eastern Daylight Time)","561068","Trustworthy,Untrustworthy","pavlovia","0","43","0.0-0.0","","","","","","","","","","","","","","","",""
"","","","","63b6c76ff03d438cd09b8c56","bdp_rwlrn","Tue Mar 14 2023 13:40:43 GMT-0400 (Eastern Daylight Time)","561068","Trustworthy,Untrustworthy","instructions","1","14809","0.0-1.0","[{""page_index"":0,""viewing_time"":14763}]","14763","","","","","","","","","","","","","",""
"fullscreenexit","2","20451","fullscreenexit","63b6c76ff03d438cd09b8c56","bdp_rwlrn","Tue Mar 14 2023 13:40:43 GMT-0400 (Eastern Daylight Time)","561068","Trustworthy,Untrustworthy","","","","","","","","","","","","","","","","","","","",""
"","","","","63b6c76ff03d438cd09b8c56","bdp_rwlrn","Tue Mar 14 2023 13:40:43 GMT-0400 (Eastern Daylight Time)","561068","Trustworthy,Untrustworthy","fullscreen","2","21068","0.0-2.0","","","true","","","","","","","","","","","","",""
"","","","fullscreenfail","63b6c76ff03d438cd09b8c56","bdp_rwlrn","Tue Mar 14 2023 13:40:43 GMT-0400 (Eastern Daylight Time)","561068","Trustworthy,Untrustworthy","image-keyboard-response","3","35814","0.0-3.0-0.0","","14737","","","32","","","","","","","","","","",""
"","","","","63b6c76ff03d438cd09b8c56","bdp_rwlrn","Tue Mar 14 2023 13:40:43 GMT-0400 (Eastern Daylight Time)","561068","Trustworthy,Untrustworthy","instructions","4","134855","0.0-4.0","[{""page_index"":0,""viewing_time"":16137},{""page_index"":1,""viewing_time"":17678},{""page_index"":2,""viewing_time"":17272},{""page_index"":3,""viewing_time"":7691},{""page_index"":4,""viewing_time"":31157},{""page_index"":5,""viewing_time"":8842}]","98777","","","","","","","","","","","","","",""
"","","","","63b6c76ff03d438cd09b8c56","bdp_rwlrn","Tue Mar 14 2023 13:40:43 GMT-0400 (Eastern Daylight Time)","561068","Trustworthy,Untrustworthy","html-keyboard-response","5","139816","0.0-5.0","","4955","","<div class='header' style='text-align:left; position: absolute; top: 5%; left: 5%;'><small>Task 1 of 5</small></div><div class='instruxDiv'><p><strong>1) What is the maximum number of points you can choose to bet on a lottery?</strong></p><p>a) 0</p><p>b) 1</p><p>c) 5</p>","C","","","","","","","","","","",""
"","","","","63b6c76ff03d438cd09b8c56","bdp_rwlrn","Tue Mar 14 2023 13:40:43 GMT-0400 (Eastern Daylight Time)","561068","Trustworthy,Untrustworthy","html-keyboard-response","6","142247","0.0-6.0","","2323","","<div class='header' style='text-align:left; position: absolute; top: 5%; left: 5%;'><small>Task 1 of 5</small></div><div class='instruxDiv'><p><strong>1) What is the maximum number of points you can choose to bet on a lottery?</strong></p><p>a) 1</p><p>b) 1</p><p style='color:#00FF00'>c) 5</p><h3 style='color:#00FF00'>Correct!</h3><h3 class='center-content'>The correct response is c).</h3><h3 class='center-content'>The maximum number of points you can choose to bet on a lottery is 5 points.</h3><p><em>Press SPACEBAR to continue</em></p></div>"," ","","","","","","","","","","",""
"","","","","63b6c76ff03d438cd09b8c56","bdp_rwlrn","Tue Mar 14 2023 13:40:43 GMT-0400 (Eastern Daylight Time)","561068","Trustworthy,Untrustworthy","html-keyboard-response","7","148838","0.0-7.0","","6482","","<div class='header' style='text-align:left; position: absolute; top: 5%; left: 5%;'><small>Task 1 of 5</small></div><div class='instruxDiv'><p><strong>2) How many points can you win each round?</strong></p><p>a) 10 points</p><p>b) Double what you bet</p><p>c) Quadruple what you bet</p>","B","","","","","","","","","","",""
"","","","","63b6c76ff03d438cd09b8c56","bdp_rwlrn","Tue Mar 14 2023 13:40:43 GMT-0400 (Eastern Daylight Time)","561068","Trustworthy,Untrustworthy","html-keyboard-response","8","151141","0.0-8.0","","2196","","<div class='header' style='text-align:left; position: absolute; top: 5%; left: 5%;'><small>Task 1 of 5</small></div><div class='instruxDiv'><p><strong>2) How many points can you win each round?</strong></p><p>a) 10 points</p><p style='color:#00FF00'>b) Double what you bet</p><p>c) Quadruple what you bet</p><h3 style='color:#00FF00'>Correct!</h3><h3 class='center-content'>The correct response is b).</h3><h3 class='center-content'>You can win double the amount of points you bet.</h3><p><em>Press SPACEBAR to continue</em></p></div>"," ","","","","","","","","","","",""
"","","","","63b6c76ff03d438cd09b8c56","bdp_rwlrn","Tue Mar 14 2023 13:40:43 GMT-0400 (Eastern Daylight Time)","561068","Trustworthy,Untrustworthy","html-keyboard-response","9","156257","0.0-9.0","","null","","<div class='header' style='text-align:left; position: absolute; top: 5%; left: 5%;'><small>Task 1 of 5</small></div><div class='instruxDiv'><p>Thank you for completing the quiz<p>These are the actual lotteries you will be playing in the next block:<p><div class='tc' align='center'><img class='introPic' src='Fruit/bananas.png'><br><strong>Banana Bonanza</strong></div><div class='bl' align='center'><img class='introPic' src='Fruit/mixed-berries2.png'><br><strong>Berry Bla$t</strong></div><div class='br' align='center'><img class='introPic' src='Fruit/mango.png'><br><strong>Mega Mangos</strong></div></div><p>Across <strong>66 rounds</strong> you will play each lottery <strong>22 times</strong> (in random order).<p style='align:center; color:white'><font <em>Press SPACEBAR to continue</em></p>","null","","","","","","","","","","",""
"","","","","63b6c76ff03d438cd09b8c56","bdp_rwlrn","Tue Mar 14 2023 13:40:43 GMT-0400 (Eastern Daylight Time)","561068","Trustworthy,Untrustworthy","instructions","10","165960","0.0-10.0","[{""page_index"":0,""viewing_time"":6829},{""page_index"":1,""viewing_time"":2870}]","9699","","","","","","","","","","","","","",""
"","","","decision","63b6c76ff03d438cd09b8c56","bdp_rwlrn","Tue Mar 14 2023 13:40:43 GMT-0400 (Eastern Daylight Time)","561068","Trustworthy,Untrustworthy","html-keyboard-response","11","169611","0.0-11.0-1.0","","3532","","<div class='trialDiv'><img src='Fruit/mango.png'><br><font class='baseline'><strong>Mega Mangos</strong><p>Choose number of points to bet.</font><div class='respPicDiv'><img src='img/responseButtonOffersNo0L.png' class='respPic'></div></div>","2","1","Mega Mangos","Fruit/mango.png","Lost","0.2,0.65","13","0.2","5","1","",""
"","","","decisionFB","63b6c76ff03d438cd09b8c56","bdp_rwlrn","Tue Mar 14 2023 13:40:43 GMT-0400 (Eastern Daylight Time)","561068","Trustworthy,Untrustworthy","html-keyboard-response","12","169864","0.0-11.0-2.0","","null","","<div class='trialDiv'><img src='Fruit/mango.png'><br><font class='baseline'><strong>Mega Mangos</strong><p>Choose number of points to bet.</font><div class='respPicDiv'><img src='img/responseButtonOffersNo0L2.png' class='respPic'></div></div>","null","1","Mega Mangos","Fruit/mango.png","Lost","0.2,0.65","13","0.2","3","1","",""
"","","","feedback","63b6c76ff03d438cd09b8c56","bdp_rwlrn","Tue Mar 14 2023 13:40:43 GMT-0400 (Eastern Daylight Time)","561068","Trustworthy,Untrustworthy","html-keyboard-response","13","170874","0.0-11.0-3.0","","null","","<div class='respPicDiv'><img src='img/responseButtonOffersNo0_wht.png' class='respPic'></div><div class='trialDiv'><img src='Fruit/mango.png'><br><font class='baseline'><strong>Mega Mangos</strong><p><strong><font class='negOutcome'>You LOST</font><p>You bet: 2</strong></font> &nbsp; &nbsp; &nbsp; &nbsp; &nbsp; &nbsp;<font class='negOutcome'>You receive: <strong>0</strong></font></div>","null","1","Mega Mangos","Fruit/mango.png","Lost","0.2,0.65","13","0.2","3","1","",""
"","","","decision","63b6c76ff03d438cd09b8c56","bdp_rwlrn","Tue Mar 14 2023 13:40:43 GMT-0400 (Eastern Daylight Time)","561068","Trustworthy,Untrustworthy","html-keyboard-response","14","172963","0.0-11.0-1.1","","2087","","<div class='trialDiv'><img src='Fruit/bananas.png'><br><font class='baseline'><strong>Banana Bonanza</strong><p>Choose number of points to bet.</font><div class='respPicDiv'><img src='img/responseButtonOffersNo0L.png' class='respPic'></div></div>","4","1","Banana Bonanza","Fruit/bananas.png","Won","0.8,0.2","13","0.8","8","2","",""
"","","","decisionFB","63b6c76ff03d438cd09b8c56","bdp_rwlrn","Tue Mar 14 2023 13:40:43 GMT-0400 (Eastern Daylight Time)","561068","Trustworthy,Untrustworthy","html-keyboard-response","15","173229","0.0-11.0-2.1","","null","","<div class='trialDiv'><img src='Fruit/bananas.png'><br><font class='baseline'><strong>Banana Bonanza</strong><p>Choose number of points to bet.</font><div class='respPicDiv'><img src='img/responseButtonOffersNo0L4.png' class='respPic'></div></div>","null","1","Banana Bonanza","Fruit/bananas.png","Won","0.8,0.2","13","0.8","4","2","",""
"","","","feedback","63b6c76ff03d438cd09b8c56","bdp_rwlrn","Tue Mar 14 2023 13:40:43 GMT-0400 (Eastern Daylight Time)","561068","Trustworthy,Untrustworthy","html-keyboard-response","16","174239","0.0-11.0-3.1","","null","","<div class='respPicDiv'><img src='img/responseButtonOffersNo0_wht.png' class='respPic'></div><div class='trialDiv'><img src='Fruit/bananas.png'><br><font class='baseline'><strong>Banana Bonanza</strong><p><strong><font class='posOutcome'>You WON</font><p>You bet: 4</strong></font> &nbsp; &nbsp; &nbsp; &nbsp; &nbsp; &nbsp;<font class='posOutcome'>you receive: <strong>8</strong></font></div>","null","1","Banana Bonanza","Fruit/bananas.png","Won","0.8,0.2","13","0.8","12","2","",""
"","","","decision","63b6c76ff03d438cd09b8c56","bdp_rwlrn","Tue Mar 14 2023 13:40:43 GMT-0400 (Eastern Daylight Time)","561068","Trustworthy,Untrustworthy","html-keyboard-response","17","176156","0.0-11.0-1.2","","1915","","<div class='trialDiv'><img src='Fruit/mixed-berries2.png'><br><font class='baseline'><strong>Berry Bla$t</strong><p>Choose number of points to bet.</font><div class='respPicDiv'><img src='img/responseButtonOffersNo0L.png' class='respPic'></div></div>","3","1","Berry Bla$t","Fruit/mixed-berries2.png","Won","0.8,0.35","10","0.8","17","3","",""
"","","","decisionFB","63b6c76ff03d438cd09b8c56","bdp_rwlrn","Tue Mar 14 2023 13:40:43 GMT-0400 (Eastern Daylight Time)","561068","Trustworthy,Untrustworthy","html-keyboard-response","18","176422","0.0-11.0-2.2","","null","","<div class='trialDiv'><img src='Fruit/mixed-berries2.png'><br><font class='baseline'><strong>Berry Bla$t</strong><p>Choose number of points to bet.</font><div class='respPicDiv'><img src='img/responseButtonOffersNo0L3.png' class='respPic'></div></div>","null","1","Berry Bla$t","Fruit/mixed-berries2.png","Won","0.8,0.35","10","0.8","14","3","",""
"","","","feedback","63b6c76ff03d438cd09b8c56","bdp_rwlrn","Tue Mar 14 2023 13:40:43 GMT-0400 (Eastern Daylight Time)","561068","Trustworthy,Untrustworthy","html-keyboard-response","19","177433","0.0-11.0-3.2","","null","","<div class='respPicDiv'><img src='img/responseButtonOffersNo0_wht.png' class='respPic'></div><div class='trialDiv'><img src='Fruit/mixed-berries2.png'><br><font class='baseline'><strong>Berry Bla$t</strong><p><strong><font class='posOutcome'>You WON</font><p>You bet: 3</strong></font> &nbsp; &nbsp; &nbsp; &nbsp; &nbsp; &nbsp;<font class='posOutcome'>you receive: <strong>6</strong></font></div>","null","1","Berry Bla$t","Fruit/mixed-berries2.png","Won","0.8,0.35","10","0.8","20","3","",""
"","","","decision","63b6c76ff03d438cd09b8c56","bdp_rwlrn","Tue Mar 14 2023 13:40:43 GMT-0400 (Eastern Daylight Time)","561068","Trustworthy,Untrustworthy","html-keyboard-response","20","178929","0.0-11.0-1.3","","1490","","<div class='trialDiv'><img src='Fruit/bananas.png'><br><font class='baseline'><strong>Banana Bonanza</strong><p>Choose number of points to bet.</font><div class='respPicDiv'><img src='img/responseButtonOffersNo0L.png' class='respPic'></div></div>","4","2","Banana Bonanza","Fruit/bananas.png","Won","0.8,0.2","13","0.8","25","4","",""
"","","","decisionFB","63b6c76ff03d438cd09b8c56","bdp_rwlrn","Tue Mar 14 2023 13:40:43 GMT-0400 (Eastern Daylight Time)","561068","Trustworthy,Untrustworthy","html-keyboard-response","21","179188","0.0-11.0-2.3","","null","","<div class='trialDiv'><img src='Fruit/bananas.png'><br><font class='baseline'><strong>Banana Bonanza</strong><p>Choose number of points to bet.</font><div class='respPicDiv'><img src='img/responseButtonOffersNo0L4.png' class='respPic'></div></div>","null","2","Banana Bonanza","Fruit/bananas.png","Won","0.8,0.2","13","0.8","21","4","",""
"","","","feedback","63b6c76ff03d438cd09b8c56","bdp_rwlrn","Tue Mar 14 2023 13:40:43 GMT-0400 (Eastern Daylight Time)","561068","Trustworthy,Untrustworthy","html-keyboard-response","22","180203","0.0-11.0-3.3","","null","","<div class='respPicDiv'><img src='img/responseButtonOffersNo0_wht.png' class='respPic'></div><div class='trialDiv'><img src='Fruit/bananas.png'><br><font class='baseline'><strong>Banana Bonanza</strong><p><strong><font class='posOutcome'>You WON</font><p>You bet: 4</strong></font> &nbsp; &nbsp; &nbsp; &nbsp; &nbsp; &nbsp;<font class='posOutcome'>you receive: <strong>8</strong></font></div>","null","2","Banana Bonanza","Fruit/bananas.png","Won","0.8,0.2","13","0.8","29","4","",""
"","","","decision","63b6c76ff03d438cd09b8c56","bdp_rwlrn","Tue Mar 14 2023 13:40:43 GMT-0400 (Eastern Daylight Time)","561068","Trustworthy,Untrustworthy","html-keyboard-response","23","182092","0.0-11.0-1.4","","1885","","<div class='trialDiv'><img src='Fruit/mixed-berries2.png'><br><font class='baseline'><strong>Berry Bla$t</strong><p>Choose number of points to bet.</font><div class='respPicDiv'><img src='img/responseButtonOffersNo0L.png' class='respPic'></div></div>","3","2","Berry Bla$t","Fruit/mixed-berries2.png","Lost","0.8,0.35","10","0.8","34","5","",""
"","","","decisionFB","63b6c76ff03d438cd09b8c56","bdp_rwlrn","Tue Mar 14 2023 13:40:43 GMT-0400 (Eastern Daylight Time)","561068","Trustworthy,Untrustworthy","html-keyboard-response","24","182352","0.0-11.0-2.4","","null","","<div class='trialDiv'><img src='Fruit/mixed-berries2.png'><br><font class='baseline'><strong>Berry Bla$t</strong><p>Choose number of points to bet.</font><div class='respPicDiv'><img src='img/responseButtonOffersNo0L3.png' class='respPic'></div></div>","null","2","Berry Bla$t","Fruit/mixed-berries2.png","Lost","0.8,0.35","10","0.8","31","5","",""
"","","","feedback","63b6c76ff03d438cd09b8c56","bdp_rwlrn","Tue Mar 14 2023 13:40:43 GMT-0400 (Eastern Daylight Time)","561068","Trustworthy,Untrustworthy","html-keyboard-response","25","183361","0.0-11.0-3.4","","null","","<div class='respPicDiv'><img src='img/responseButtonOffersNo0_wht.png' class='respPic'></div><div class='trialDiv'><img src='Fruit/mixed-berries2.png'><br><font class='baseline'><strong>Berry Bla$t</strong><p><strong><font class='negOutcome'>You LOST</font><p>You bet: 3</strong></font> &nbsp; &nbsp; &nbsp; &nbsp; &nbsp; &nbsp;<font class='negOutcome'>You receive: <strong>0</strong></font></div>","null","2","Berry Bla$t","Fruit/mixed-berries2.png","Lost","0.8,0.35","10","0.8","31","5","",""
"","","","decision","63b6c76ff03d438cd09b8c56","bdp_rwlrn","Tue Mar 14 2023 13:40:43 GMT-0400 (Eastern Daylight Time)","561068","Trustworthy,Untrustworthy","html-keyboard-response","26","185826","0.0-11.0-1.5","","2462","","<div class='trialDiv'><img src='Fruit/mango.png'><br><font class='baseline'><strong>Mega Mangos</strong><p>Choose number of points to bet.</font><div class='respPicDiv'><img src='img/responseButtonOffersNo0L.png' class='respPic'></div></div>","1","2","Mega Mangos","Fruit/mango.png","Lost","0.2,0.65","13","0.2","36","6","",""
"","","","decisionFB","63b6c76ff03d438cd09b8c56","bdp_rwlrn","Tue Mar 14 2023 13:40:43 GMT-0400 (Eastern Daylight Time)","561068","Trustworthy,Untrustworthy","html-keyboard-response","27","186099","0.0-11.0-2.5","","null","","<div class='trialDiv'><img src='Fruit/mango.png'><br><font class='baseline'><strong>Mega Mangos</strong><p>Choose number of points to bet.</font><div class='respPicDiv'><img src='img/responseButtonOffersNo0L1.png' class='respPic'></div></div>","null","2","Mega Mangos","Fruit/mango.png","Lost","0.2,0.65","13","0.2","35","6","",""
"","","","feedback","63b6c76ff03d438cd09b8c56","bdp_rwlrn","Tue Mar 14 2023 13:40:43 GMT-0400 (Eastern Daylight Time)","561068","Trustworthy,Untrustworthy","html-keyboard-response","28","187108","0.0-11.0-3.5","","null","","<div class='respPicDiv'><img src='img/responseButtonOffersNo0_wht.png' class='respPic'></div><div class='trialDiv'><img src='Fruit/mango.png'><br><font class='baseline'><strong>Mega Mangos</strong><p><strong><font class='negOutcome'>You LOST</font><p>You bet: 1</strong></font> &nbsp; &nbsp; &nbsp; &nbsp; &nbsp; &nbsp;<font class='negOutcome'>You receive: <strong>0</strong></font></div>","null","2","Mega Mangos","Fruit/mango.png","Lost","0.2,0.65","13","0.2","35","6","",""
"","","","decision","63b6c76ff03d438cd09b8c56","bdp_rwlrn","Tue Mar 14 2023 13:40:43 GMT-0400 (Eastern Daylight Time)","561068","Trustworthy,Untrustworthy","html-keyboard-response","29","190985","0.0-11.0-1.6","","3873","","<div class='trialDiv'><img src='Fruit/mixed-berries2.png'><br><font class='baseline'><strong>Berry Bla$t</strong><p>Choose number of points to bet.</font><div class='respPicDiv'><img src='img/responseButtonOffersNo0L.png' class='respPic'></div></div>","4","3","Berry Bla$t","Fruit/mixed-berries2.png","Won","0.8,0.35","10","0.8","40","7","",""
"","","","decisionFB","63b6c76ff03d438cd09b8c56","bdp_rwlrn","Tue Mar 14 2023 13:40:43 GMT-0400 (Eastern Daylight Time)","561068","Trustworthy,Untrustworthy","html-keyboard-response","30","191254","0.0-11.0-2.6","","null","","<div class='trialDiv'><img src='Fruit/mixed-berries2.png'><br><font class='baseline'><strong>Berry Bla$t</strong><p>Choose number of points to bet.</font><div class='respPicDiv'><img src='img/responseButtonOffersNo0L4.png' class='respPic'></div></div>","null","3","Berry Bla$t","Fruit/mixed-berries2.png","Won","0.8,0.35","10","0.8","36","7","",""
"","","","feedback","63b6c76ff03d438cd09b8c56","bdp_rwlrn","Tue Mar 14 2023 13:40:43 GMT-0400 (Eastern Daylight Time)","561068","Trustworthy,Untrustworthy","html-keyboard-response","31","192258","0.0-11.0-3.6","","null","","<div class='respPicDiv'><img src='img/responseButtonOffersNo0_wht.png' class='respPic'></div><div class='trialDiv'><img src='Fruit/mixed-berries2.png'><br><font class='baseline'><strong>Berry Bla$t</strong><p><strong><font class='posOutcome'>You WON</font><p>You bet: 4</strong></font> &nbsp; &nbsp; &nbsp; &nbsp; &nbsp; &nbsp;<font class='posOutcome'>you receive: <strong>8</strong></font></div>","null","3","Berry Bla$t","Fruit/mixed-berries2.png","Won","0.8,0.35","10","0.8","44","7","",""
"","","","decision","63b6c76ff03d438cd09b8c56","bdp_rwlrn","Tue Mar 14 2023 13:40:43 GMT-0400 (Eastern Daylight Time)","561068","Trustworthy,Untrustworthy","html-keyboard-response","32","193840","0.0-11.0-1.7","","1579","","<div class='trialDiv'><img src='Fruit/mango.png'><br><font class='baseline'><strong>Mega Mangos</strong><p>Choose number of points to bet.</font><div class='respPicDiv'><img src='img/responseButtonOffersNo0L.png' class='respPic'></div></div>","2","3","Mega Mangos","Fruit/mango.png","Won","0.2,0.65","13","0.2","49","8","",""
"","","","decisionFB","63b6c76ff03d438cd09b8c56","bdp_rwlrn","Tue Mar 14 2023 13:40:43 GMT-0400 (Eastern Daylight Time)","561068","Trustworthy,Untrustworthy","html-keyboard-response","33","194108","0.0-11.0-2.7","","null","","<div class='trialDiv'><img src='Fruit/mango.png'><br><font class='baseline'><strong>Mega Mangos</strong><p>Choose number of points to bet.</font><div class='respPicDiv'><img src='img/responseButtonOffersNo0L2.png' class='respPic'></div></div>","null","3","Mega Mangos","Fruit/mango.png","Won","0.2,0.65","13","0.2","47","8","",""
"","","","feedback","63b6c76ff03d438cd09b8c56","bdp_rwlrn","Tue Mar 14 2023 13:40:43 GMT-0400 (Eastern Daylight Time)","561068","Trustworthy,Untrustworthy","html-keyboard-response","34","195111","0.0-11.0-3.7","","null","","<div class='respPicDiv'><img src='img/responseButtonOffersNo0_wht.png' class='respPic'></div><div class='trialDiv'><img src='Fruit/mango.png'><br><font class='baseline'><strong>Mega Mangos</strong><p><strong><font class='posOutcome'>You WON</font><p>You bet: 2</strong></font> &nbsp; &nbsp; &nbsp; &nbsp; &nbsp; &nbsp;<font class='posOutcome'>you receive: <strong>4</strong></font></div>","null","3","Mega Mangos","Fruit/mango.png","Won","0.2,0.65","13","0.2","51","8","",""
"","","","decision","63b6c76ff03d438cd09b8c56","bdp_rwlrn","Tue Mar 14 2023 13:40:43 GMT-0400 (Eastern Daylight Time)","561068","Trustworthy,Untrustworthy","html-keyboard-response","35","198839","0.0-11.0-1.8","","3724","","<div class='trialDiv'><img src='Fruit/bananas.png'><br><font class='baseline'><strong>Banana Bonanza</strong><p>Choose number of points to bet.</font><div class='respPicDiv'><img src='img/responseButtonOffersNo0L.png' class='respPic'></div></div>","5","3","Banana Bonanza","Fruit/bananas.png","Won","0.8,0.2","13","0.8","56","9","",""
"","","","decisionFB","63b6c76ff03d438cd09b8c56","bdp_rwlrn","Tue Mar 14 2023 13:40:43 GMT-0400 (Eastern Daylight Time)","561068","Trustworthy,Untrustworthy","html-keyboard-response","36","199107","0.0-11.0-2.8","","null","","<div class='trialDiv'><img src='Fruit/bananas.png'><br><font class='baseline'><strong>Banana Bonanza</strong><p>Choose number of points to bet.</font><div class='respPicDiv'><img src='img/responseButtonOffersNo0L5.png' class='respPic'></div></div>","null","3","Banana Bonanza","Fruit/bananas.png","Won","0.8,0.2","13","0.8","51","9","",""
"","","","feedback","63b6c76ff03d438cd09b8c56","bdp_rwlrn","Tue Mar 14 2023 13:40:43 GMT-0400 (Eastern Daylight Time)","561068","Trustworthy,Untrustworthy","html-keyboard-response","37","200121","0.0-11.0-3.8","","null","","<div class='respPicDiv'><img src='img/responseButtonOffersNo0_wht.png' class='respPic'></div><div class='trialDiv'><img src='Fruit/bananas.png'><br><font class='baseline'><strong>Banana Bonanza</strong><p><strong><font class='posOutcome'>You WON</font><p>You bet: 5</strong></font> &nbsp; &nbsp; &nbsp; &nbsp; &nbsp; &nbsp;<font class='posOutcome'>you receive: <strong>10</strong></font></div>","null","3","Banana Bonanza","Fruit/bananas.png","Won","0.8,0.2","13","0.8","61","9","",""
"","","","decision","63b6c76ff03d438cd09b8c56","bdp_rwlrn","Tue Mar 14 2023 13:40:43 GMT-0400 (Eastern Daylight Time)","561068","Trustworthy,Untrustworthy","html-keyboard-response","38","203298","0.0-11.0-1.9","","3173","","<div class='trialDiv'><img src='Fruit/mango.png'><br><font class='baseline'><strong>Mega Mangos</strong><p>Choose number of points to bet.</font><div class='respPicDiv'><img src='img/responseButtonOffersNo0L.png' class='respPic'></div></div>","1","4","Mega Mangos","Fruit/mango.png","Won","0.2,0.65","13","0.2","66","10","",""
"","","","decisionFB","63b6c76ff03d438cd09b8c56","bdp_rwlrn","Tue Mar 14 2023 13:40:43 GMT-0400 (Eastern Daylight Time)","561068","Trustworthy,Untrustworthy","html-keyboard-response","39","203559","0.0-11.0-2.9","","null","","<div class='trialDiv'><img src='Fruit/mango.png'><br><font class='baseline'><strong>Mega Mangos</strong><p>Choose number of points to bet.</font><div class='respPicDiv'><img src='img/responseButtonOffersNo0L1.png' class='respPic'></div></div>","null","4","Mega Mangos","Fruit/mango.png","Won","0.2,0.65","13","0.2","65","10","",""
"","","","feedback","63b6c76ff03d438cd09b8c56","bdp_rwlrn","Tue Mar 14 2023 13:40:43 GMT-0400 (Eastern Daylight Time)","561068","Trustworthy,Untrustworthy","html-keyboard-response","40","204574","0.0-11.0-3.9","","null","","<div class='respPicDiv'><img src='img/responseButtonOffersNo0_wht.png' class='respPic'></div><div class='trialDiv'><img src='Fruit/mango.png'><br><font class='baseline'><strong>Mega Mangos</strong><p><strong><font class='posOutcome'>You WON</font><p>You bet: 1</strong></font> &nbsp; &nbsp; &nbsp; &nbsp; &nbsp; &nbsp;<font class='posOutcome'>you receive: <strong>2</strong></font></div>","null","4","Mega Mangos","Fruit/mango.png","Won","0.2,0.65","13","0.2","67","10","",""
"","","","decision","63b6c76ff03d438cd09b8c56","bdp_rwlrn","Tue Mar 14 2023 13:40:43 GMT-0400 (Eastern Daylight Time)","561068","Trustworthy,Untrustworthy","html-keyboard-response","41","206059","0.0-11.0-1.10","","1482","","<div class='trialDiv'><img src='Fruit/bananas.png'><br><font class='baseline'><strong>Banana Bonanza</strong><p>Choose number of points to bet.</font><div class='respPicDiv'><img src='img/responseButtonOffersNo0L.png' class='respPic'></div></div>","2","4","Banana Bonanza","Fruit/bananas.png","Won","0.8,0.2","13","0.8","72","11","",""
"","","","decisionFB","63b6c76ff03d438cd09b8c56","bdp_rwlrn","Tue Mar 14 2023 13:40:43 GMT-0400 (Eastern Daylight Time)","561068","Trustworthy,Untrustworthy","html-keyboard-response","42","206324","0.0-11.0-2.10","","null","","<div class='trialDiv'><img src='Fruit/bananas.png'><br><font class='baseline'><strong>Banana Bonanza</strong><p>Choose number of points to bet.</font><div class='respPicDiv'><img src='img/responseButtonOffersNo0L2.png' class='respPic'></div></div>","null","4","Banana Bonanza","Fruit/bananas.png","Won","0.8,0.2","13","0.8","70","11","",""
"","","","feedback","63b6c76ff03d438cd09b8c56","bdp_rwlrn","Tue Mar 14 2023 13:40:43 GMT-0400 (Eastern Daylight Time)","561068","Trustworthy,Untrustworthy","html-keyboard-response","43","207339","0.0-11.0-3.10","","null","","<div class='respPicDiv'><img src='img/responseButtonOffersNo0_wht.png' class='respPic'></div><div class='trialDiv'><img src='Fruit/bananas.png'><br><font class='baseline'><strong>Banana Bonanza</strong><p><strong><font class='posOutcome'>You WON</font><p>You bet: 2</strong></font> &nbsp; &nbsp; &nbsp; &nbsp; &nbsp; &nbsp;<font class='posOutcome'>you receive: <strong>4</strong></font></div>","null","4","Banana Bonanza","Fruit/bananas.png","Won","0.8,0.2","13","0.8","74","11","",""
"","","","decision","63b6c76ff03d438cd09b8c56","bdp_rwlrn","Tue Mar 14 2023 13:40:43 GMT-0400 (Eastern Daylight Time)","561068","Trustworthy,Untrustworthy","html-keyboard-response","44","209134","0.0-11.0-1.11","","1791","","<div class='trialDiv'><img src='Fruit/mixed-berries2.png'><br><font class='baseline'><strong>Berry Bla$t</strong><p>Choose number of points to bet.</font><div class='respPicDiv'><img src='img/responseButtonOffersNo0L.png' class='respPic'></div></div>","2","4","Berry Bla$t","Fruit/mixed-berries2.png","Lost","0.8,0.35","10","0.8","79","12","",""
"","","","decisionFB","63b6c76ff03d438cd09b8c56","bdp_rwlrn","Tue Mar 14 2023 13:40:43 GMT-0400 (Eastern Daylight Time)","561068","Trustworthy,Untrustworthy","html-keyboard-response","45","209397","0.0-11.0-2.11","","null","","<div class='trialDiv'><img src='Fruit/mixed-berries2.png'><br><font class='baseline'><strong>Berry Bla$t</strong><p>Choose number of points to bet.</font><div class='respPicDiv'><img src='img/responseButtonOffersNo0L2.png' class='respPic'></div></div>","null","4","Berry Bla$t","Fruit/mixed-berries2.png","Lost","0.8,0.35","10","0.8","77","12","",""
"","","","feedback","63b6c76ff03d438cd09b8c56","bdp_rwlrn","Tue Mar 14 2023 13:40:43 GMT-0400 (Eastern Daylight Time)","561068","Trustworthy,Untrustworthy","html-keyboard-response","46","210414","0.0-11.0-3.11","","null","","<div class='respPicDiv'><img src='img/responseButtonOffersNo0_wht.png' class='respPic'></div><div class='trialDiv'><img src='Fruit/mixed-berries2.png'><br><font class='baseline'><strong>Berry Bla$t</strong><p><strong><font class='negOutcome'>You LOST</font><p>You bet: 2</strong></font> &nbsp; &nbsp; &nbsp; &nbsp; &nbsp; &nbsp;<font class='negOutcome'>You receive: <strong>0</strong></font></div>","null","4","Berry Bla$t","Fruit/mixed-berries2.png","Lost","0.8,0.35","10","0.8","77","12","",""
"","","","decision","63b6c76ff03d438cd09b8c56","bdp_rwlrn","Tue Mar 14 2023 13:40:43 GMT-0400 (Eastern Daylight Time)","561068","Trustworthy,Untrustworthy","html-keyboard-response","47","211379","0.0-11.0-1.12","","962","","<div class='trialDiv'><img src='Fruit/bananas.png'><br><font class='baseline'><strong>Banana Bonanza</strong><p>Choose number of points to bet.</font><div class='respPicDiv'><img src='img/responseButtonOffersNo0L.png' class='respPic'></div></div>","3","5","Banana Bonanza","Fruit/bananas.png","Won","0.8,0.2","13","0.8","82","13","",""
"","","","decisionFB","63b6c76ff03d438cd09b8c56","bdp_rwlrn","Tue Mar 14 2023 13:40:43 GMT-0400 (Eastern Daylight Time)","561068","Trustworthy,Untrustworthy","html-keyboard-response","48","211651","0.0-11.0-2.12","","null","","<div class='trialDiv'><img src='Fruit/bananas.png'><br><font class='baseline'><strong>Banana Bonanza</strong><p>Choose number of points to bet.</font><div class='respPicDiv'><img src='img/responseButtonOffersNo0L3.png' class='respPic'></div></div>","null","5","Banana Bonanza","Fruit/bananas.png","Won","0.8,0.2","13","0.8","79","13","",""
"","","","feedback","63b6c76ff03d438cd09b8c56","bdp_rwlrn","Tue Mar 14 2023 13:40:43 GMT-0400 (Eastern Daylight Time)","561068","Trustworthy,Untrustworthy","html-keyboard-response","49","212665","0.0-11.0-3.12","","null","","<div class='respPicDiv'><img src='img/responseButtonOffersNo0_wht.png' class='respPic'></div><div class='trialDiv'><img src='Fruit/bananas.png'><br><font class='baseline'><strong>Banana Bonanza</strong><p><strong><font class='posOutcome'>You WON</font><p>You bet: 3</strong></font> &nbsp; &nbsp; &nbsp; &nbsp; &nbsp; &nbsp;<font class='posOutcome'>you receive: <strong>6</strong></font></div>","null","5","Banana Bonanza","Fruit/bananas.png","Won","0.8,0.2","13","0.8","85","13","",""
"","","","decision","63b6c76ff03d438cd09b8c56","bdp_rwlrn","Tue Mar 14 2023 13:40:43 GMT-0400 (Eastern Daylight Time)","561068","Trustworthy,Untrustworthy","html-keyboard-response","50","214089","0.0-11.0-1.13","","1423","","<div class='trialDiv'><img src='Fruit/mango.png'><br><font class='baseline'><strong>Mega Mangos</strong><p>Choose number of points to bet.</font><div class='respPicDiv'><img src='img/responseButtonOffersNo0L.png' class='respPic'></div></div>","2","5","Mega Mangos","Fruit/mango.png","Lost","0.2,0.65","13","0.2","90","14","",""
"","","","decisionFB","63b6c76ff03d438cd09b8c56","bdp_rwlrn","Tue Mar 14 2023 13:40:43 GMT-0400 (Eastern Daylight Time)","561068","Trustworthy,Untrustworthy","html-keyboard-response","51","214345","0.0-11.0-2.13","","null","","<div class='trialDiv'><img src='Fruit/mango.png'><br><font class='baseline'><strong>Mega Mangos</strong><p>Choose number of points to bet.</font><div class='respPicDiv'><img src='img/responseButtonOffersNo0L2.png' class='respPic'></div></div>","null","5","Mega Mangos","Fruit/mango.png","Lost","0.2,0.65","13","0.2","88","14","",""
"","","","feedback","63b6c76ff03d438cd09b8c56","bdp_rwlrn","Tue Mar 14 2023 13:40:43 GMT-0400 (Eastern Daylight Time)","561068","Trustworthy,Untrustworthy","html-keyboard-response","52","215350","0.0-11.0-3.13","","null","","<div class='respPicDiv'><img src='img/responseButtonOffersNo0_wht.png' class='respPic'></div><div class='trialDiv'><img src='Fruit/mango.png'><br><font class='baseline'><strong>Mega Mangos</strong><p><strong><font class='negOutcome'>You LOST</font><p>You bet: 2</strong></font> &nbsp; &nbsp; &nbsp; &nbsp; &nbsp; &nbsp;<font class='negOutcome'>You receive: <strong>0</strong></font></div>","null","5","Mega Mangos","Fruit/mango.png","Lost","0.2,0.65","13","0.2","88","14","",""
"","","","decision","63b6c76ff03d438cd09b8c56","bdp_rwlrn","Tue Mar 14 2023 13:40:43 GMT-0400 (Eastern Daylight Time)","561068","Trustworthy,Untrustworthy","html-keyboard-response","53","216962","0.0-11.0-1.14","","1605","","<div class='trialDiv'><img src='Fruit/mixed-berries2.png'><br><font class='baseline'><strong>Berry Bla$t</strong><p>Choose number of points to bet.</font><div class='respPicDiv'><img src='img/responseButtonOffersNo0L.png' class='respPic'></div></div>","4","5","Berry Bla$t","Fruit/mixed-berries2.png","Won","0.8,0.35","10","0.8","93","15","",""
"","","","decisionFB","63b6c76ff03d438cd09b8c56","bdp_rwlrn","Tue Mar 14 2023 13:40:43 GMT-0400 (Eastern Daylight Time)","561068","Trustworthy,Untrustworthy","html-keyboard-response","54","217216","0.0-11.0-2.14","","null","","<div class='trialDiv'><img src='Fruit/mixed-berries2.png'><br><font class='baseline'><strong>Berry Bla$t</strong><p>Choose number of points to bet.</font><div class='respPicDiv'><img src='img/responseButtonOffersNo0L4.png' class='respPic'></div></div>","null","5","Berry Bla$t","Fruit/mixed-berries2.png","Won","0.8,0.35","10","0.8","89","15","",""
"","","","feedback","63b6c76ff03d438cd09b8c56","bdp_rwlrn","Tue Mar 14 2023 13:40:43 GMT-0400 (Eastern Daylight Time)","561068","Trustworthy,Untrustworthy","html-keyboard-response","55","218224","0.0-11.0-3.14","","null","","<div class='respPicDiv'><img src='img/responseButtonOffersNo0_wht.png' class='respPic'></div><div class='trialDiv'><img src='Fruit/mixed-berries2.png'><br><font class='baseline'><strong>Berry Bla$t</strong><p><strong><font class='posOutcome'>You WON</font><p>You bet: 4</strong></font> &nbsp; &nbsp; &nbsp; &nbsp; &nbsp; &nbsp;<font class='posOutcome'>you receive: <strong>8</strong></font></div>","null","5","Berry Bla$t","Fruit/mixed-berries2.png","Won","0.8,0.35","10","0.8","97","15","",""
"","","","decision","63b6c76ff03d438cd09b8c56","bdp_rwlrn","Tue Mar 14 2023 13:40:43 GMT-0400 (Eastern Daylight Time)","561068","Trustworthy,Untrustworthy","html-keyboard-response","56","219399","0.0-11.0-1.15","","1171","","<div class='trialDiv'><img src='Fruit/mango.png'><br><font class='baseline'><strong>Mega Mangos</strong><p>Choose number of points to bet.</font><div class='respPicDiv'><img src='img/responseButtonOffersNo0L.png' class='respPic'></div></div>","2","6","Mega Mangos","Fruit/mango.png","Lost","0.2,0.65","13","0.2","102","16","",""
"","","","decisionFB","63b6c76ff03d438cd09b8c56","bdp_rwlrn","Tue Mar 14 2023 13:40:43 GMT-0400 (Eastern Daylight Time)","561068","Trustworthy,Untrustworthy","html-keyboard-response","57","219659","0.0-11.0-2.15","","null","","<div class='trialDiv'><img src='Fruit/mango.png'><br><font class='baseline'><strong>Mega Mangos</strong><p>Choose number of points to bet.</font><div class='respPicDiv'><img src='img/responseButtonOffersNo0L2.png' class='respPic'></div></div>","null","6","Mega Mangos","Fruit/mango.png","Lost","0.2,0.65","13","0.2","100","16","",""
"","","","feedback","63b6c76ff03d438cd09b8c56","bdp_rwlrn","Tue Mar 14 2023 13:40:43 GMT-0400 (Eastern Daylight Time)","561068","Trustworthy,Untrustworthy","html-keyboard-response","58","220669","0.0-11.0-3.15","","null","","<div class='respPicDiv'><img src='img/responseButtonOffersNo0_wht.png' class='respPic'></div><div class='trialDiv'><img src='Fruit/mango.png'><br><font class='baseline'><strong>Mega Mangos</strong><p><strong><font class='negOutcome'>You LOST</font><p>You bet: 2</strong></font> &nbsp; &nbsp; &nbsp; &nbsp; &nbsp; &nbsp;<font class='negOutcome'>You receive: <strong>0</strong></font></div>","null","6","Mega Mangos","Fruit/mango.png","Lost","0.2,0.65","13","0.2","100","16","",""
"","","","decision","63b6c76ff03d438cd09b8c56","bdp_rwlrn","Tue Mar 14 2023 13:40:43 GMT-0400 (Eastern Daylight Time)","561068","Trustworthy,Untrustworthy","html-keyboard-response","59","222298","0.0-11.0-1.16","","1626","","<div class='trialDiv'><img src='Fruit/mixed-berries2.png'><br><font class='baseline'><strong>Berry Bla$t</strong><p>Choose number of points to bet.</font><div class='respPicDiv'><img src='img/responseButtonOffersNo0L.png' class='respPic'></div></div>","3","6","Berry Bla$t","Fruit/mixed-berries2.png","Lost","0.8,0.35","10","0.8","105","17","",""
"","","","decisionFB","63b6c76ff03d438cd09b8c56","bdp_rwlrn","Tue Mar 14 2023 13:40:43 GMT-0400 (Eastern Daylight Time)","561068","Trustworthy,Untrustworthy","html-keyboard-response","60","222565","0.0-11.0-2.16","","null","","<div class='trialDiv'><img src='Fruit/mixed-berries2.png'><br><font class='baseline'><strong>Berry Bla$t</strong><p>Choose number of points to bet.</font><div class='respPicDiv'><img src='img/responseButtonOffersNo0L3.png' class='respPic'></div></div>","null","6","Berry Bla$t","Fruit/mixed-berries2.png","Lost","0.8,0.35","10","0.8","102","17","",""
"","","","feedback","63b6c76ff03d438cd09b8c56","bdp_rwlrn","Tue Mar 14 2023 13:40:43 GMT-0400 (Eastern Daylight Time)","561068","Trustworthy,Untrustworthy","html-keyboard-response","61","223582","0.0-11.0-3.16","","null","","<div class='respPicDiv'><img src='img/responseButtonOffersNo0_wht.png' class='respPic'></div><div class='trialDiv'><img src='Fruit/mixed-berries2.png'><br><font class='baseline'><strong>Berry Bla$t</strong><p><strong><font class='negOutcome'>You LOST</font><p>You bet: 3</strong></font> &nbsp; &nbsp; &nbsp; &nbsp; &nbsp; &nbsp;<font class='negOutcome'>You receive: <strong>0</strong></font></div>","null","6","Berry Bla$t","Fruit/mixed-berries2.png","Lost","0.8,0.35","10","0.8","102","17","",""
"","","","decision","63b6c76ff03d438cd09b8c56","bdp_rwlrn","Tue Mar 14 2023 13:40:43 GMT-0400 (Eastern Daylight Time)","561068","Trustworthy,Untrustworthy","html-keyboard-response","62","225130","0.0-11.0-1.17","","1540","","<div class='trialDiv'><img src='Fruit/bananas.png'><br><font class='baseline'><strong>Banana Bonanza</strong><p>Choose number of points to bet.</font><div class='respPicDiv'><img src='img/responseButtonOffersNo0L.png' class='respPic'></div></div>","4","6","Banana Bonanza","Fruit/bananas.png","Won","0.8,0.2","13","0.8","107","18","",""
"","","","decisionFB","63b6c76ff03d438cd09b8c56","bdp_rwlrn","Tue Mar 14 2023 13:40:43 GMT-0400 (Eastern Daylight Time)","561068","Trustworthy,Untrustworthy","html-keyboard-response","63","225398","0.0-11.0-2.17","","null","","<div class='trialDiv'><img src='Fruit/bananas.png'><br><font class='baseline'><strong>Banana Bonanza</strong><p>Choose number of points to bet.</font><div class='respPicDiv'><img src='img/responseButtonOffersNo0L4.png' class='respPic'></div></div>","null","6","Banana Bonanza","Fruit/bananas.png","Won","0.8,0.2","13","0.8","103","18","",""
"","","","feedback","63b6c76ff03d438cd09b8c56","bdp_rwlrn","Tue Mar 14 2023 13:40:43 GMT-0400 (Eastern Daylight Time)","561068","Trustworthy,Untrustworthy","html-keyboard-response","64","226400","0.0-11.0-3.17","","null","","<div class='respPicDiv'><img src='img/responseButtonOffersNo0_wht.png' class='respPic'></div><div class='trialDiv'><img src='Fruit/bananas.png'><br><font class='baseline'><strong>Banana Bonanza</strong><p><strong><font class='posOutcome'>You WON</font><p>You bet: 4</strong></font> &nbsp; &nbsp; &nbsp; &nbsp; &nbsp; &nbsp;<font class='posOutcome'>you receive: <strong>8</strong></font></div>","null","6","Banana Bonanza","Fruit/bananas.png","Won","0.8,0.2","13","0.8","111","18","",""
"","","","decision","63b6c76ff03d438cd09b8c56","bdp_rwlrn","Tue Mar 14 2023 13:40:43 GMT-0400 (Eastern Daylight Time)","561068","Trustworthy,Untrustworthy","html-keyboard-response","65","227920","0.0-11.0-1.18","","1516","","<div class='trialDiv'><img src='Fruit/mixed-berries2.png'><br><font class='baseline'><strong>Berry Bla$t</strong><p>Choose number of points to bet.</font><div class='respPicDiv'><img src='img/responseButtonOffersNo0L.png' class='respPic'></div></div>","2","7","Berry Bla$t","Fruit/mixed-berries2.png","Lost","0.8,0.35","10","0.8","116","19","",""
"","","","decisionFB","63b6c76ff03d438cd09b8c56","bdp_rwlrn","Tue Mar 14 2023 13:40:43 GMT-0400 (Eastern Daylight Time)","561068","Trustworthy,Untrustworthy","html-keyboard-response","66","228190","0.0-11.0-2.18","","null","","<div class='trialDiv'><img src='Fruit/mixed-berries2.png'><br><font class='baseline'><strong>Berry Bla$t</strong><p>Choose number of points to bet.</font><div class='respPicDiv'><img src='img/responseButtonOffersNo0L2.png' class='respPic'></div></div>","null","7","Berry Bla$t","Fruit/mixed-berries2.png","Lost","0.8,0.35","10","0.8","114","19","",""
"","","","feedback","63b6c76ff03d438cd09b8c56","bdp_rwlrn","Tue Mar 14 2023 13:40:43 GMT-0400 (Eastern Daylight Time)","561068","Trustworthy,Untrustworthy","html-keyboard-response","67","229204","0.0-11.0-3.18","","null","","<div class='respPicDiv'><img src='img/responseButtonOffersNo0_wht.png' class='respPic'></div><div class='trialDiv'><img src='Fruit/mixed-berries2.png'><br><font class='baseline'><strong>Berry Bla$t</strong><p><strong><font class='negOutcome'>You LOST</font><p>You bet: 2</strong></font> &nbsp; &nbsp; &nbsp; &nbsp; &nbsp; &nbsp;<font class='negOutcome'>You receive: <strong>0</strong></font></div>","null","7","Berry Bla$t","Fruit/mixed-berries2.png","Lost","0.8,0.35","10","0.8","114","19","",""
"","","","decision","63b6c76ff03d438cd09b8c56","bdp_rwlrn","Tue Mar 14 2023 13:40:43 GMT-0400 (Eastern Daylight Time)","561068","Trustworthy,Untrustworthy","html-keyboard-response","68","230214","0.0-11.0-1.19","","1007","","<div class='trialDiv'><img src='Fruit/mango.png'><br><font class='baseline'><strong>Mega Mangos</strong><p>Choose number of points to bet.</font><div class='respPicDiv'><img src='img/responseButtonOffersNo0L.png' class='respPic'></div></div>","1","7","Mega Mangos","Fruit/mango.png","Lost","0.2,0.65","13","0.2","119","20","",""
"","","","decisionFB","63b6c76ff03d438cd09b8c56","bdp_rwlrn","Tue Mar 14 2023 13:40:43 GMT-0400 (Eastern Daylight Time)","561068","Trustworthy,Untrustworthy","html-keyboard-response","69","230472","0.0-11.0-2.19","","null","","<div class='trialDiv'><img src='Fruit/mango.png'><br><font class='baseline'><strong>Mega Mangos</strong><p>Choose number of points to bet.</font><div class='respPicDiv'><img src='img/responseButtonOffersNo0L1.png' class='respPic'></div></div>","null","7","Mega Mangos","Fruit/mango.png","Lost","0.2,0.65","13","0.2","118","20","",""
"","","","feedback","63b6c76ff03d438cd09b8c56","bdp_rwlrn","Tue Mar 14 2023 13:40:43 GMT-0400 (Eastern Daylight Time)","561068","Trustworthy,Untrustworthy","html-keyboard-response","70","231479","0.0-11.0-3.19","","null","","<div class='respPicDiv'><img src='img/responseButtonOffersNo0_wht.png' class='respPic'></div><div class='trialDiv'><img src='Fruit/mango.png'><br><font class='baseline'><strong>Mega Mangos</strong><p><strong><font class='negOutcome'>You LOST</font><p>You bet: 1</strong></font> &nbsp; &nbsp; &nbsp; &nbsp; &nbsp; &nbsp;<font class='negOutcome'>You receive: <strong>0</strong></font></div>","null","7","Mega Mangos","Fruit/mango.png","Lost","0.2,0.65","13","0.2","118","20","",""
"","","","decision","63b6c76ff03d438cd09b8c56","bdp_rwlrn","Tue Mar 14 2023 13:40:43 GMT-0400 (Eastern Daylight Time)","561068","Trustworthy,Untrustworthy","html-keyboard-response","71","232977","0.0-11.0-1.20","","1491","","<div class='trialDiv'><img src='Fruit/bananas.png'><br><font class='baseline'><strong>Banana Bonanza</strong><p>Choose number of points to bet.</font><div class='respPicDiv'><img src='img/responseButtonOffersNo0L.png' class='respPic'></div></div>","5","7","Banana Bonanza","Fruit/bananas.png","Won","0.8,0.2","13","0.8","123","21","",""
"","","","decisionFB","63b6c76ff03d438cd09b8c56","bdp_rwlrn","Tue Mar 14 2023 13:40:43 GMT-0400 (Eastern Daylight Time)","561068","Trustworthy,Untrustworthy","html-keyboard-response","72","233238","0.0-11.0-2.20","","null","","<div class='trialDiv'><img src='Fruit/bananas.png'><br><font class='baseline'><strong>Banana Bonanza</strong><p>Choose number of points to bet.</font><div class='respPicDiv'><img src='img/responseButtonOffersNo0L5.png' class='respPic'></div></div>","null","7","Banana Bonanza","Fruit/bananas.png","Won","0.8,0.2","13","0.8","118","21","",""
"","","","feedback","63b6c76ff03d438cd09b8c56","bdp_rwlrn","Tue Mar 14 2023 13:40:43 GMT-0400 (Eastern Daylight Time)","561068","Trustworthy,Untrustworthy","html-keyboard-response","73","234244","0.0-11.0-3.20","","null","","<div class='respPicDiv'><img src='img/responseButtonOffersNo0_wht.png' class='respPic'></div><div class='trialDiv'><img src='Fruit/bananas.png'><br><font class='baseline'><strong>Banana Bonanza</strong><p><strong><font class='posOutcome'>You WON</font><p>You bet: 5</strong></font> &nbsp; &nbsp; &nbsp; &nbsp; &nbsp; &nbsp;<font class='posOutcome'>you receive: <strong>10</strong></font></div>","null","7","Banana Bonanza","Fruit/bananas.png","Won","0.8,0.2","13","0.8","128","21","",""
"","","","decision","63b6c76ff03d438cd09b8c56","bdp_rwlrn","Tue Mar 14 2023 13:40:43 GMT-0400 (Eastern Daylight Time)","561068","Trustworthy,Untrustworthy","html-keyboard-response","74","237860","0.0-11.0-1.21","","3612","","<div class='trialDiv'><img src='Fruit/mango.png'><br><font class='baseline'><strong>Mega Mangos</strong><p>Choose number of points to bet.</font><div class='respPicDiv'><img src='img/responseButtonOffersNo0L.png' class='respPic'></div></div>","2","8","Mega Mangos","Fruit/mango.png","Lost","0.2,0.65","13","0.2","133","22","",""
"","","","decisionFB","63b6c76ff03d438cd09b8c56","bdp_rwlrn","Tue Mar 14 2023 13:40:43 GMT-0400 (Eastern Daylight Time)","561068","Trustworthy,Untrustworthy","html-keyboard-response","75","238126","0.0-11.0-2.21","","null","","<div class='trialDiv'><img src='Fruit/mango.png'><br><font class='baseline'><strong>Mega Mangos</strong><p>Choose number of points to bet.</font><div class='respPicDiv'><img src='img/responseButtonOffersNo0L2.png' class='respPic'></div></div>","null","8","Mega Mangos","Fruit/mango.png","Lost","0.2,0.65","13","0.2","131","22","",""
"","","","feedback","63b6c76ff03d438cd09b8c56","bdp_rwlrn","Tue Mar 14 2023 13:40:43 GMT-0400 (Eastern Daylight Time)","561068","Trustworthy,Untrustworthy","html-keyboard-response","76","239132","0.0-11.0-3.21","","null","","<div class='respPicDiv'><img src='img/responseButtonOffersNo0_wht.png' class='respPic'></div><div class='trialDiv'><img src='Fruit/mango.png'><br><font class='baseline'><strong>Mega Mangos</strong><p><strong><font class='negOutcome'>You LOST</font><p>You bet: 2</strong></font> &nbsp; &nbsp; &nbsp; &nbsp; &nbsp; &nbsp;<font class='negOutcome'>You receive: <strong>0</strong></font></div>","null","8","Mega Mangos","Fruit/mango.png","Lost","0.2,0.65","13","0.2","131","22","",""
"","","","decision","63b6c76ff03d438cd09b8c56","bdp_rwlrn","Tue Mar 14 2023 13:40:43 GMT-0400 (Eastern Daylight Time)","561068","Trustworthy,Untrustworthy","html-keyboard-response","77","240249","0.0-11.0-1.22","","1113","","<div class='trialDiv'><img src='Fruit/mixed-berries2.png'><br><font class='baseline'><strong>Berry Bla$t</strong><p>Choose number of points to bet.</font><div class='respPicDiv'><img src='img/responseButtonOffersNo0L.png' class='respPic'></div></div>","3","8","Berry Bla$t","Fruit/mixed-berries2.png","Lost","0.8,0.35","10","0.8","136","23","",""
"","","","decisionFB","63b6c76ff03d438cd09b8c56","bdp_rwlrn","Tue Mar 14 2023 13:40:43 GMT-0400 (Eastern Daylight Time)","561068","Trustworthy,Untrustworthy","html-keyboard-response","78","240519","0.0-11.0-2.22","","null","","<div class='trialDiv'><img src='Fruit/mixed-berries2.png'><br><font class='baseline'><strong>Berry Bla$t</strong><p>Choose number of points to bet.</font><div class='respPicDiv'><img src='img/responseButtonOffersNo0L3.png' class='respPic'></div></div>","null","8","Berry Bla$t","Fruit/mixed-berries2.png","Lost","0.8,0.35","10","0.8","133","23","",""
"","","","feedback","63b6c76ff03d438cd09b8c56","bdp_rwlrn","Tue Mar 14 2023 13:40:43 GMT-0400 (Eastern Daylight Time)","561068","Trustworthy,Untrustworthy","html-keyboard-response","79","241527","0.0-11.0-3.22","","null","","<div class='respPicDiv'><img src='img/responseButtonOffersNo0_wht.png' class='respPic'></div><div class='trialDiv'><img src='Fruit/mixed-berries2.png'><br><font class='baseline'><strong>Berry Bla$t</strong><p><strong><font class='negOutcome'>You LOST</font><p>You bet: 3</strong></font> &nbsp; &nbsp; &nbsp; &nbsp; &nbsp; &nbsp;<font class='negOutcome'>You receive: <strong>0</strong></font></div>","null","8","Berry Bla$t","Fruit/mixed-berries2.png","Lost","0.8,0.35","10","0.8","133","23","",""
"","","","decision","63b6c76ff03d438cd09b8c56","bdp_rwlrn","Tue Mar 14 2023 13:40:43 GMT-0400 (Eastern Daylight Time)","561068","Trustworthy,Untrustworthy","html-keyboard-response","80","242979","0.0-11.0-1.23","","1450","","<div class='trialDiv'><img src='Fruit/bananas.png'><br><font class='baseline'><strong>Banana Bonanza</strong><p>Choose number of points to bet.</font><div class='respPicDiv'><img src='img/responseButtonOffersNo0L.png' class='respPic'></div></div>","3","8","Banana Bonanza","Fruit/bananas.png","Won","0.8,0.2","13","0.8","138","24","",""
"","","","decisionFB","63b6c76ff03d438cd09b8c56","bdp_rwlrn","Tue Mar 14 2023 13:40:43 GMT-0400 (Eastern Daylight Time)","561068","Trustworthy,Untrustworthy","html-keyboard-response","81","243243","0.0-11.0-2.23","","null","","<div class='trialDiv'><img src='Fruit/bananas.png'><br><font class='baseline'><strong>Banana Bonanza</strong><p>Choose number of points to bet.</font><div class='respPicDiv'><img src='img/responseButtonOffersNo0L3.png' class='respPic'></div></div>","null","8","Banana Bonanza","Fruit/bananas.png","Won","0.8,0.2","13","0.8","135","24","",""
"","","","feedback","63b6c76ff03d438cd09b8c56","bdp_rwlrn","Tue Mar 14 2023 13:40:43 GMT-0400 (Eastern Daylight Time)","561068","Trustworthy,Untrustworthy","html-keyboard-response","82","244261","0.0-11.0-3.23","","null","","<div class='respPicDiv'><img src='img/responseButtonOffersNo0_wht.png' class='respPic'></div><div class='trialDiv'><img src='Fruit/bananas.png'><br><font class='baseline'><strong>Banana Bonanza</strong><p><strong><font class='posOutcome'>You WON</font><p>You bet: 3</strong></font> &nbsp; &nbsp; &nbsp; &nbsp; &nbsp; &nbsp;<font class='posOutcome'>you receive: <strong>6</strong></font></div>","null","8","Banana Bonanza","Fruit/bananas.png","Won","0.8,0.2","13","0.8","141","24","",""
"","","","decision","63b6c76ff03d438cd09b8c56","bdp_rwlrn","Tue Mar 14 2023 13:40:43 GMT-0400 (Eastern Daylight Time)","561068","Trustworthy,Untrustworthy","html-keyboard-response","83","245676","0.0-11.0-1.24","","1409","","<div class='trialDiv'><img src='Fruit/mango.png'><br><font class='baseline'><strong>Mega Mangos</strong><p>Choose number of points to bet.</font><div class='respPicDiv'><img src='img/responseButtonOffersNo0L.png' class='respPic'></div></div>","1","9","Mega Mangos","Fruit/mango.png","Lost","0.2,0.65","13","0.2","146","25","",""
"","","","decisionFB","63b6c76ff03d438cd09b8c56","bdp_rwlrn","Tue Mar 14 2023 13:40:43 GMT-0400 (Eastern Daylight Time)","561068","Trustworthy,Untrustworthy","html-keyboard-response","84","245942","0.0-11.0-2.24","","null","","<div class='trialDiv'><img src='Fruit/mango.png'><br><font class='baseline'><strong>Mega Mangos</strong><p>Choose number of points to bet.</font><div class='respPicDiv'><img src='img/responseButtonOffersNo0L1.png' class='respPic'></div></div>","null","9","Mega Mangos","Fruit/mango.png","Lost","0.2,0.65","13","0.2","145","25","",""
"","","","feedback","63b6c76ff03d438cd09b8c56","bdp_rwlrn","Tue Mar 14 2023 13:40:43 GMT-0400 (Eastern Daylight Time)","561068","Trustworthy,Untrustworthy","html-keyboard-response","85","246958","0.0-11.0-3.24","","null","","<div class='respPicDiv'><img src='img/responseButtonOffersNo0_wht.png' class='respPic'></div><div class='trialDiv'><img src='Fruit/mango.png'><br><font class='baseline'><strong>Mega Mangos</strong><p><strong><font class='negOutcome'>You LOST</font><p>You bet: 1</strong></font> &nbsp; &nbsp; &nbsp; &nbsp; &nbsp; &nbsp;<font class='negOutcome'>You receive: <strong>0</strong></font></div>","null","9","Mega Mangos","Fruit/mango.png","Lost","0.2,0.65","13","0.2","145","25","",""
"","","","decision","63b6c76ff03d438cd09b8c56","bdp_rwlrn","Tue Mar 14 2023 13:40:43 GMT-0400 (Eastern Daylight Time)","561068","Trustworthy,Untrustworthy","html-keyboard-response","86","247438","0.0-11.0-1.25","","477","","<div class='trialDiv'><img src='Fruit/mixed-berries2.png'><br><font class='baseline'><strong>Berry Bla$t</strong><p>Choose number of points to bet.</font><div class='respPicDiv'><img src='img/responseButtonOffersNo0L.png' class='respPic'></div></div>","2","9","Berry Bla$t","Fruit/mixed-berries2.png","Won","0.8,0.35","10","0.8","150","26","",""
"","","","decisionFB","63b6c76ff03d438cd09b8c56","bdp_rwlrn","Tue Mar 14 2023 13:40:43 GMT-0400 (Eastern Daylight Time)","561068","Trustworthy,Untrustworthy","html-keyboard-response","87","247696","0.0-11.0-2.25","","null","","<div class='trialDiv'><img src='Fruit/mixed-berries2.png'><br><font class='baseline'><strong>Berry Bla$t</strong><p>Choose number of points to bet.</font><div class='respPicDiv'><img src='img/responseButtonOffersNo0L2.png' class='respPic'></div></div>","null","9","Berry Bla$t","Fruit/mixed-berries2.png","Won","0.8,0.35","10","0.8","148","26","",""
"","","","feedback","63b6c76ff03d438cd09b8c56","bdp_rwlrn","Tue Mar 14 2023 13:40:43 GMT-0400 (Eastern Daylight Time)","561068","Trustworthy,Untrustworthy","html-keyboard-response","88","248711","0.0-11.0-3.25","","null","","<div class='respPicDiv'><img src='img/responseButtonOffersNo0_wht.png' class='respPic'></div><div class='trialDiv'><img src='Fruit/mixed-berries2.png'><br><font class='baseline'><strong>Berry Bla$t</strong><p><strong><font class='posOutcome'>You WON</font><p>You bet: 2</strong></font> &nbsp; &nbsp; &nbsp; &nbsp; &nbsp; &nbsp;<font class='posOutcome'>you receive: <strong>4</strong></font></div>","null","9","Berry Bla$t","Fruit/mixed-berries2.png","Won","0.8,0.35","10","0.8","152","26","",""
"","","","decision","63b6c76ff03d438cd09b8c56","bdp_rwlrn","Tue Mar 14 2023 13:40:43 GMT-0400 (Eastern Daylight Time)","561068","Trustworthy,Untrustworthy","html-keyboard-response","89","249303","0.0-11.0-1.26","","584","","<div class='trialDiv'><img src='Fruit/bananas.png'><br><font class='baseline'><strong>Banana Bonanza</strong><p>Choose number of points to bet.</font><div class='respPicDiv'><img src='img/responseButtonOffersNo0L.png' class='respPic'></div></div>","5","9","Banana Bonanza","Fruit/bananas.png","Won","0.8,0.2","13","0.8","157","27","",""
"","","","decisionFB","63b6c76ff03d438cd09b8c56","bdp_rwlrn","Tue Mar 14 2023 13:40:43 GMT-0400 (Eastern Daylight Time)","561068","Trustworthy,Untrustworthy","html-keyboard-response","90","249570","0.0-11.0-2.26","","null","","<div class='trialDiv'><img src='Fruit/bananas.png'><br><font class='baseline'><strong>Banana Bonanza</strong><p>Choose number of points to bet.</font><div class='respPicDiv'><img src='img/responseButtonOffersNo0L5.png' class='respPic'></div></div>","null","9","Banana Bonanza","Fruit/bananas.png","Won","0.8,0.2","13","0.8","152","27","",""
"","","","feedback","63b6c76ff03d438cd09b8c56","bdp_rwlrn","Tue Mar 14 2023 13:40:43 GMT-0400 (Eastern Daylight Time)","561068","Trustworthy,Untrustworthy","html-keyboard-response","91","250579","0.0-11.0-3.26","","null","","<div class='respPicDiv'><img src='img/responseButtonOffersNo0_wht.png' class='respPic'></div><div class='trialDiv'><img src='Fruit/bananas.png'><br><font class='baseline'><strong>Banana Bonanza</strong><p><strong><font class='posOutcome'>You WON</font><p>You bet: 5</strong></font> &nbsp; &nbsp; &nbsp; &nbsp; &nbsp; &nbsp;<font class='posOutcome'>you receive: <strong>10</strong></font></div>","null","9","Banana Bonanza","Fruit/bananas.png","Won","0.8,0.2","13","0.8","162","27","",""
"","","","decision","63b6c76ff03d438cd09b8c56","bdp_rwlrn","Tue Mar 14 2023 13:40:43 GMT-0400 (Eastern Daylight Time)","561068","Trustworthy,Untrustworthy","html-keyboard-response","92","251786","0.0-11.0-1.27","","1204","","<div class='trialDiv'><img src='Fruit/mixed-berries2.png'><br><font class='baseline'><strong>Berry Bla$t</strong><p>Choose number of points to bet.</font><div class='respPicDiv'><img src='img/responseButtonOffersNo0L.png' class='respPic'></div></div>","2","10","Berry Bla$t","Fruit/mixed-berries2.png","Lost","0.8,0.35","10","0.8","167","28","",""
"","","","decisionFB","63b6c76ff03d438cd09b8c56","bdp_rwlrn","Tue Mar 14 2023 13:40:43 GMT-0400 (Eastern Daylight Time)","561068","Trustworthy,Untrustworthy","html-keyboard-response","93","252054","0.0-11.0-2.27","","null","","<div class='trialDiv'><img src='Fruit/mixed-berries2.png'><br><font class='baseline'><strong>Berry Bla$t</strong><p>Choose number of points to bet.</font><div class='respPicDiv'><img src='img/responseButtonOffersNo0L2.png' class='respPic'></div></div>","null","10","Berry Bla$t","Fruit/mixed-berries2.png","Lost","0.8,0.35","10","0.8","165","28","",""
"","","","feedback","63b6c76ff03d438cd09b8c56","bdp_rwlrn","Tue Mar 14 2023 13:40:43 GMT-0400 (Eastern Daylight Time)","561068","Trustworthy,Untrustworthy","html-keyboard-response","94","253075","0.0-11.0-3.27","","null","","<div class='respPicDiv'><img src='img/responseButtonOffersNo0_wht.png' class='respPic'></div><div class='trialDiv'><img src='Fruit/mixed-berries2.png'><br><font class='baseline'><strong>Berry Bla$t</strong><p><strong><font class='negOutcome'>You LOST</font><p>You bet: 2</strong></font> &nbsp; &nbsp; &nbsp; &nbsp; &nbsp; &nbsp;<font class='negOutcome'>You receive: <strong>0</strong></font></div>","null","10","Berry Bla$t","Fruit/mixed-berries2.png","Lost","0.8,0.35","10","0.8","165","28","",""
"","","","decision","63b6c76ff03d438cd09b8c56","bdp_rwlrn","Tue Mar 14 2023 13:40:43 GMT-0400 (Eastern Daylight Time)","561068","Trustworthy,Untrustworthy","html-keyboard-response","95","254859","0.0-11.0-1.28","","1781","","<div class='trialDiv'><img src='Fruit/bananas.png'><br><font class='baseline'><strong>Banana Bonanza</strong><p>Choose number of points to bet.</font><div class='respPicDiv'><img src='img/responseButtonOffersNo0L.png' class='respPic'></div></div>","4","10","Banana Bonanza","Fruit/bananas.png","Won","0.8,0.2","13","0.8","170","29","",""
"","","","decisionFB","63b6c76ff03d438cd09b8c56","bdp_rwlrn","Tue Mar 14 2023 13:40:43 GMT-0400 (Eastern Daylight Time)","561068","Trustworthy,Untrustworthy","html-keyboard-response","96","255115","0.0-11.0-2.28","","null","","<div class='trialDiv'><img src='Fruit/bananas.png'><br><font class='baseline'><strong>Banana Bonanza</strong><p>Choose number of points to bet.</font><div class='respPicDiv'><img src='img/responseButtonOffersNo0L4.png' class='respPic'></div></div>","null","10","Banana Bonanza","Fruit/bananas.png","Won","0.8,0.2","13","0.8","166","29","",""
"","","","feedback","63b6c76ff03d438cd09b8c56","bdp_rwlrn","Tue Mar 14 2023 13:40:43 GMT-0400 (Eastern Daylight Time)","561068","Trustworthy,Untrustworthy","html-keyboard-response","97","256130","0.0-11.0-3.28","","null","","<div class='respPicDiv'><img src='img/responseButtonOffersNo0_wht.png' class='respPic'></div><div class='trialDiv'><img src='Fruit/bananas.png'><br><font class='baseline'><strong>Banana Bonanza</strong><p><strong><font class='posOutcome'>You WON</font><p>You bet: 4</strong></font> &nbsp; &nbsp; &nbsp; &nbsp; &nbsp; &nbsp;<font class='posOutcome'>you receive: <strong>8</strong></font></div>","null","10","Banana Bonanza","Fruit/bananas.png","Won","0.8,0.2","13","0.8","174","29","",""
"","","","decision","63b6c76ff03d438cd09b8c56","bdp_rwlrn","Tue Mar 14 2023 13:40:43 GMT-0400 (Eastern Daylight Time)","561068","Trustworthy,Untrustworthy","html-keyboard-response","98","256863","0.0-11.0-1.29","","728","","<div class='trialDiv'><img src='Fruit/mango.png'><br><font class='baseline'><strong>Mega Mangos</strong><p>Choose number of points to bet.</font><div class='respPicDiv'><img src='img/responseButtonOffersNo0L.png' class='respPic'></div></div>","1","10","Mega Mangos","Fruit/mango.png","Lost","0.2,0.65","13","0.2","179","30","",""
"","","","decisionFB","63b6c76ff03d438cd09b8c56","bdp_rwlrn","Tue Mar 14 2023 13:40:43 GMT-0400 (Eastern Daylight Time)","561068","Trustworthy,Untrustworthy","html-keyboard-response","99","257137","0.0-11.0-2.29","","null","","<div class='trialDiv'><img src='Fruit/mango.png'><br><font class='baseline'><strong>Mega Mangos</strong><p>Choose number of points to bet.</font><div class='respPicDiv'><img src='img/responseButtonOffersNo0L1.png' class='respPic'></div></div>","null","10","Mega Mangos","Fruit/mango.png","Lost","0.2,0.65","13","0.2","178","30","",""
"","","","feedback","63b6c76ff03d438cd09b8c56","bdp_rwlrn","Tue Mar 14 2023 13:40:43 GMT-0400 (Eastern Daylight Time)","561068","Trustworthy,Untrustworthy","html-keyboard-response","100","258153","0.0-11.0-3.29","","null","","<div class='respPicDiv'><img src='img/responseButtonOffersNo0_wht.png' class='respPic'></div><div class='trialDiv'><img src='Fruit/mango.png'><br><font class='baseline'><strong>Mega Mangos</strong><p><strong><font class='negOutcome'>You LOST</font><p>You bet: 1</strong></font> &nbsp; &nbsp; &nbsp; &nbsp; &nbsp; &nbsp;<font class='negOutcome'>You receive: <strong>0</strong></font></div>","null","10","Mega Mangos","Fruit/mango.png","Lost","0.2,0.65","13","0.2","178","30","",""
"","","","decision","63b6c76ff03d438cd09b8c56","bdp_rwlrn","Tue Mar 14 2023 13:40:43 GMT-0400 (Eastern Daylight Time)","561068","Trustworthy,Untrustworthy","html-keyboard-response","101","260330","0.0-11.0-1.30","","2176","","<div class='trialDiv'><img src='Fruit/mixed-berries2.png'><br><font class='baseline'><strong>Berry Bla$t</strong><p>Choose number of points to bet.</font><div class='respPicDiv'><img src='img/responseButtonOffersNo0L.png' class='respPic'></div></div>","5","11","Berry Bla$t","Fruit/mixed-berries2.png","Won","0.8,0.35","10","0.8","183","31","",""
"","","","decisionFB","63b6c76ff03d438cd09b8c56","bdp_rwlrn","Tue Mar 14 2023 13:40:43 GMT-0400 (Eastern Daylight Time)","561068","Trustworthy,Untrustworthy","html-keyboard-response","102","260594","0.0-11.0-2.30","","null","","<div class='trialDiv'><img src='Fruit/mixed-berries2.png'><br><font class='baseline'><strong>Berry Bla$t</strong><p>Choose number of points to bet.</font><div class='respPicDiv'><img src='img/responseButtonOffersNo0L5.png' class='respPic'></div></div>","null","11","Berry Bla$t","Fruit/mixed-berries2.png","Won","0.8,0.35","10","0.8","178","31","",""
"","","","feedback","63b6c76ff03d438cd09b8c56","bdp_rwlrn","Tue Mar 14 2023 13:40:43 GMT-0400 (Eastern Daylight Time)","561068","Trustworthy,Untrustworthy","html-keyboard-response","103","261606","0.0-11.0-3.30","","null","","<div class='respPicDiv'><img src='img/responseButtonOffersNo0_wht.png' class='respPic'></div><div class='trialDiv'><img src='Fruit/mixed-berries2.png'><br><font class='baseline'><strong>Berry Bla$t</strong><p><strong><font class='posOutcome'>You WON</font><p>You bet: 5</strong></font> &nbsp; &nbsp; &nbsp; &nbsp; &nbsp; &nbsp;<font class='posOutcome'>you receive: <strong>10</strong></font></div>","null","11","Berry Bla$t","Fruit/mixed-berries2.png","Won","0.8,0.35","10","0.8","188","31","",""
"","","","decision","63b6c76ff03d438cd09b8c56","bdp_rwlrn","Tue Mar 14 2023 13:40:43 GMT-0400 (Eastern Daylight Time)","561068","Trustworthy,Untrustworthy","html-keyboard-response","104","262522","0.0-11.0-1.31","","914","","<div class='trialDiv'><img src='Fruit/mango.png'><br><font class='baseline'><strong>Mega Mangos</strong><p>Choose number of points to bet.</font><div class='respPicDiv'><img src='img/responseButtonOffersNo0L.png' class='respPic'></div></div>","2","11","Mega Mangos","Fruit/mango.png","Lost","0.2,0.65","13","0.2","193","32","",""
"","","","decisionFB","63b6c76ff03d438cd09b8c56","bdp_rwlrn","Tue Mar 14 2023 13:40:43 GMT-0400 (Eastern Daylight Time)","561068","Trustworthy,Untrustworthy","html-keyboard-response","105","262781","0.0-11.0-2.31","","null","","<div class='trialDiv'><img src='Fruit/mango.png'><br><font class='baseline'><strong>Mega Mangos</strong><p>Choose number of points to bet.</font><div class='respPicDiv'><img src='img/responseButtonOffersNo0L2.png' class='respPic'></div></div>","null","11","Mega Mangos","Fruit/mango.png","Lost","0.2,0.65","13","0.2","191","32","",""
"","","","feedback","63b6c76ff03d438cd09b8c56","bdp_rwlrn","Tue Mar 14 2023 13:40:43 GMT-0400 (Eastern Daylight Time)","561068","Trustworthy,Untrustworthy","html-keyboard-response","106","263789","0.0-11.0-3.31","","null","","<div class='respPicDiv'><img src='img/responseButtonOffersNo0_wht.png' class='respPic'></div><div class='trialDiv'><img src='Fruit/mango.png'><br><font class='baseline'><strong>Mega Mangos</strong><p><strong><font class='negOutcome'>You LOST</font><p>You bet: 2</strong></font> &nbsp; &nbsp; &nbsp; &nbsp; &nbsp; &nbsp;<font class='negOutcome'>You receive: <strong>0</strong></font></div>","null","11","Mega Mangos","Fruit/mango.png","Lost","0.2,0.65","13","0.2","191","32","",""
"","","","decision","63b6c76ff03d438cd09b8c56","bdp_rwlrn","Tue Mar 14 2023 13:40:43 GMT-0400 (Eastern Daylight Time)","561068","Trustworthy,Untrustworthy","html-keyboard-response","107","264547","0.0-11.0-1.32","","755","","<div class='trialDiv'><img src='Fruit/bananas.png'><br><font class='baseline'><strong>Banana Bonanza</strong><p>Choose number of points to bet.</font><div class='respPicDiv'><img src='img/responseButtonOffersNo0L.png' class='respPic'></div></div>","3","11","Banana Bonanza","Fruit/bananas.png","Lost","0.8,0.2","13","0.8","196","33","",""
"","","","decisionFB","63b6c76ff03d438cd09b8c56","bdp_rwlrn","Tue Mar 14 2023 13:40:43 GMT-0400 (Eastern Daylight Time)","561068","Trustworthy,Untrustworthy","html-keyboard-response","108","264806","0.0-11.0-2.32","","null","","<div class='trialDiv'><img src='Fruit/bananas.png'><br><font class='baseline'><strong>Banana Bonanza</strong><p>Choose number of points to bet.</font><div class='respPicDiv'><img src='img/responseButtonOffersNo0L3.png' class='respPic'></div></div>","null","11","Banana Bonanza","Fruit/bananas.png","Lost","0.8,0.2","13","0.8","193","33","",""
"","","","feedback","63b6c76ff03d438cd09b8c56","bdp_rwlrn","Tue Mar 14 2023 13:40:43 GMT-0400 (Eastern Daylight Time)","561068","Trustworthy,Untrustworthy","html-keyboard-response","109","265815","0.0-11.0-3.32","","null","","<div class='respPicDiv'><img src='img/responseButtonOffersNo0_wht.png' class='respPic'></div><div class='trialDiv'><img src='Fruit/bananas.png'><br><font class='baseline'><strong>Banana Bonanza</strong><p><strong><font class='negOutcome'>You LOST</font><p>You bet: 3</strong></font> &nbsp; &nbsp; &nbsp; &nbsp; &nbsp; &nbsp;<font class='negOutcome'>You receive: <strong>0</strong></font></div>","null","11","Banana Bonanza","Fruit/bananas.png","Lost","0.8,0.2","13","0.8","193","33","",""
"","","","decision","63b6c76ff03d438cd09b8c56","bdp_rwlrn","Tue Mar 14 2023 13:40:43 GMT-0400 (Eastern Daylight Time)","561068","Trustworthy,Untrustworthy","html-keyboard-response","110","266895","0.0-11.0-1.33","","1076","","<div class='trialDiv'><img src='Fruit/mango.png'><br><font class='baseline'><strong>Mega Mangos</strong><p>Choose number of points to bet.</font><div class='respPicDiv'><img src='img/responseButtonOffersNo0L.png' class='respPic'></div></div>","2","12","Mega Mangos","Fruit/mango.png","Lost","0.2,0.65","13","0.2","198","34","",""
"","","","decisionFB","63b6c76ff03d438cd09b8c56","bdp_rwlrn","Tue Mar 14 2023 13:40:43 GMT-0400 (Eastern Daylight Time)","561068","Trustworthy,Untrustworthy","html-keyboard-response","111","267151","0.0-11.0-2.33","","null","","<div class='trialDiv'><img src='Fruit/mango.png'><br><font class='baseline'><strong>Mega Mangos</strong><p>Choose number of points to bet.</font><div class='respPicDiv'><img src='img/responseButtonOffersNo0L2.png' class='respPic'></div></div>","null","12","Mega Mangos","Fruit/mango.png","Lost","0.2,0.65","13","0.2","196","34","",""
"","","","feedback","63b6c76ff03d438cd09b8c56","bdp_rwlrn","Tue Mar 14 2023 13:40:43 GMT-0400 (Eastern Daylight Time)","561068","Trustworthy,Untrustworthy","html-keyboard-response","112","268169","0.0-11.0-3.33","","null","","<div class='respPicDiv'><img src='img/responseButtonOffersNo0_wht.png' class='respPic'></div><div class='trialDiv'><img src='Fruit/mango.png'><br><font class='baseline'><strong>Mega Mangos</strong><p><strong><font class='negOutcome'>You LOST</font><p>You bet: 2</strong></font> &nbsp; &nbsp; &nbsp; &nbsp; &nbsp; &nbsp;<font class='negOutcome'>You receive: <strong>0</strong></font></div>","null","12","Mega Mangos","Fruit/mango.png","Lost","0.2,0.65","13","0.2","196","34","",""
"","","","decision","63b6c76ff03d438cd09b8c56","bdp_rwlrn","Tue Mar 14 2023 13:40:43 GMT-0400 (Eastern Daylight Time)","561068","Trustworthy,Untrustworthy","html-keyboard-response","113","269450","0.0-11.0-1.34","","1278","","<div class='trialDiv'><img src='Fruit/bananas.png'><br><font class='baseline'><strong>Banana Bonanza</strong><p>Choose number of points to bet.</font><div class='respPicDiv'><img src='img/responseButtonOffersNo0L.png' class='respPic'></div></div>","4","12","Banana Bonanza","Fruit/bananas.png","Won","0.8,0.2","13","0.8","201","35","",""
"","","","decisionFB","63b6c76ff03d438cd09b8c56","bdp_rwlrn","Tue Mar 14 2023 13:40:43 GMT-0400 (Eastern Daylight Time)","561068","Trustworthy,Untrustworthy","html-keyboard-response","114","269722","0.0-11.0-2.34","","null","","<div class='trialDiv'><img src='Fruit/bananas.png'><br><font class='baseline'><strong>Banana Bonanza</strong><p>Choose number of points to bet.</font><div class='respPicDiv'><img src='img/responseButtonOffersNo0L4.png' class='respPic'></div></div>","null","12","Banana Bonanza","Fruit/bananas.png","Won","0.8,0.2","13","0.8","197","35","",""
"","","","feedback","63b6c76ff03d438cd09b8c56","bdp_rwlrn","Tue Mar 14 2023 13:40:43 GMT-0400 (Eastern Daylight Time)","561068","Trustworthy,Untrustworthy","html-keyboard-response","115","270737","0.0-11.0-3.34","","null","","<div class='respPicDiv'><img src='img/responseButtonOffersNo0_wht.png' class='respPic'></div><div class='trialDiv'><img src='Fruit/bananas.png'><br><font class='baseline'><strong>Banana Bonanza</strong><p><strong><font class='posOutcome'>You WON</font><p>You bet: 4</strong></font> &nbsp; &nbsp; &nbsp; &nbsp; &nbsp; &nbsp;<font class='posOutcome'>you receive: <strong>8</strong></font></div>","null","12","Banana Bonanza","Fruit/bananas.png","Won","0.8,0.2","13","0.8","205","35","",""
"","","","decision","63b6c76ff03d438cd09b8c56","bdp_rwlrn","Tue Mar 14 2023 13:40:43 GMT-0400 (Eastern Daylight Time)","561068","Trustworthy,Untrustworthy","html-keyboard-response","116","272085","0.0-11.0-1.35","","1345","","<div class='trialDiv'><img src='Fruit/mixed-berries2.png'><br><font class='baseline'><strong>Berry Bla$t</strong><p>Choose number of points to bet.</font><div class='respPicDiv'><img src='img/responseButtonOffersNo0L.png' class='respPic'></div></div>","2","12","Berry Bla$t","Fruit/mixed-berries2.png","Lost","0.8,0.35","10","0.8","210","36","",""
"","","","decisionFB","63b6c76ff03d438cd09b8c56","bdp_rwlrn","Tue Mar 14 2023 13:40:43 GMT-0400 (Eastern Daylight Time)","561068","Trustworthy,Untrustworthy","html-keyboard-response","117","272346","0.0-11.0-2.35","","null","","<div class='trialDiv'><img src='Fruit/mixed-berries2.png'><br><font class='baseline'><strong>Berry Bla$t</strong><p>Choose number of points to bet.</font><div class='respPicDiv'><img src='img/responseButtonOffersNo0L2.png' class='respPic'></div></div>","null","12","Berry Bla$t","Fruit/mixed-berries2.png","Lost","0.8,0.35","10","0.8","208","36","",""
"","","","feedback","63b6c76ff03d438cd09b8c56","bdp_rwlrn","Tue Mar 14 2023 13:40:43 GMT-0400 (Eastern Daylight Time)","561068","Trustworthy,Untrustworthy","html-keyboard-response","118","273360","0.0-11.0-3.35","","null","","<div class='respPicDiv'><img src='img/responseButtonOffersNo0_wht.png' class='respPic'></div><div class='trialDiv'><img src='Fruit/mixed-berries2.png'><br><font class='baseline'><strong>Berry Bla$t</strong><p><strong><font class='negOutcome'>You LOST</font><p>You bet: 2</strong></font> &nbsp; &nbsp; &nbsp; &nbsp; &nbsp; &nbsp;<font class='negOutcome'>You receive: <strong>0</strong></font></div>","null","12","Berry Bla$t","Fruit/mixed-berries2.png","Lost","0.8,0.35","10","0.8","208","36","",""
"","","","decision","63b6c76ff03d438cd09b8c56","bdp_rwlrn","Tue Mar 14 2023 13:40:43 GMT-0400 (Eastern Daylight Time)","561068","Trustworthy,Untrustworthy","html-keyboard-response","119","274482","0.0-11.0-1.36","","1116","","<div class='trialDiv'><img src='Fruit/bananas.png'><br><font class='baseline'><strong>Banana Bonanza</strong><p>Choose number of points to bet.</font><div class='respPicDiv'><img src='img/responseButtonOffersNo0L.png' class='respPic'></div></div>","5","13","Banana Bonanza","Fruit/bananas.png","Won","0.8,0.2","13","0.8","213","37","",""
"","","","decisionFB","63b6c76ff03d438cd09b8c56","bdp_rwlrn","Tue Mar 14 2023 13:40:43 GMT-0400 (Eastern Daylight Time)","561068","Trustworthy,Untrustworthy","html-keyboard-response","120","274740","0.0-11.0-2.36","","null","","<div class='trialDiv'><img src='Fruit/bananas.png'><br><font class='baseline'><strong>Banana Bonanza</strong><p>Choose number of points to bet.</font><div class='respPicDiv'><img src='img/responseButtonOffersNo0L5.png' class='respPic'></div></div>","null","13","Banana Bonanza","Fruit/bananas.png","Won","0.8,0.2","13","0.8","208","37","",""
"","","","feedback","63b6c76ff03d438cd09b8c56","bdp_rwlrn","Tue Mar 14 2023 13:40:43 GMT-0400 (Eastern Daylight Time)","561068","Trustworthy,Untrustworthy","html-keyboard-response","121","275751","0.0-11.0-3.36","","null","","<div class='respPicDiv'><img src='img/responseButtonOffersNo0_wht.png' class='respPic'></div><div class='trialDiv'><img src='Fruit/bananas.png'><br><font class='baseline'><strong>Banana Bonanza</strong><p><strong><font class='posOutcome'>You WON</font><p>You bet: 5</strong></font> &nbsp; &nbsp; &nbsp; &nbsp; &nbsp; &nbsp;<font class='posOutcome'>you receive: <strong>10</strong></font></div>","null","13","Banana Bonanza","Fruit/bananas.png","Won","0.8,0.2","13","0.8","218","37","",""
"","","","decision","63b6c76ff03d438cd09b8c56","bdp_rwlrn","Tue Mar 14 2023 13:40:43 GMT-0400 (Eastern Daylight Time)","561068","Trustworthy,Untrustworthy","html-keyboard-response","122","276588","0.0-11.0-1.37","","832","","<div class='trialDiv'><img src='Fruit/mango.png'><br><font class='baseline'><strong>Mega Mangos</strong><p>Choose number of points to bet.</font><div class='respPicDiv'><img src='img/responseButtonOffersNo0L.png' class='respPic'></div></div>","1","13","Mega Mangos","Fruit/mango.png","Won","0.2,0.65","13","0.2","223","38","",""
"","","","decisionFB","63b6c76ff03d438cd09b8c56","bdp_rwlrn","Tue Mar 14 2023 13:40:43 GMT-0400 (Eastern Daylight Time)","561068","Trustworthy,Untrustworthy","html-keyboard-response","123","276849","0.0-11.0-2.37","","null","","<div class='trialDiv'><img src='Fruit/mango.png'><br><font class='baseline'><strong>Mega Mangos</strong><p>Choose number of points to bet.</font><div class='respPicDiv'><img src='img/responseButtonOffersNo0L1.png' class='respPic'></div></div>","null","13","Mega Mangos","Fruit/mango.png","Won","0.2,0.65","13","0.2","222","38","",""
"","","","feedback","63b6c76ff03d438cd09b8c56","bdp_rwlrn","Tue Mar 14 2023 13:40:43 GMT-0400 (Eastern Daylight Time)","561068","Trustworthy,Untrustworthy","html-keyboard-response","124","277858","0.0-11.0-3.37","","null","","<div class='respPicDiv'><img src='img/responseButtonOffersNo0_wht.png' class='respPic'></div><div class='trialDiv'><img src='Fruit/mango.png'><br><font class='baseline'><strong>Mega Mangos</strong><p><strong><font class='posOutcome'>You WON</font><p>You bet: 1</strong></font> &nbsp; &nbsp; &nbsp; &nbsp; &nbsp; &nbsp;<font class='posOutcome'>you receive: <strong>2</strong></font></div>","null","13","Mega Mangos","Fruit/mango.png","Won","0.2,0.65","13","0.2","224","38","",""
"","","","decision","63b6c76ff03d438cd09b8c56","bdp_rwlrn","Tue Mar 14 2023 13:40:43 GMT-0400 (Eastern Daylight Time)","561068","Trustworthy,Untrustworthy","html-keyboard-response","125","278471","0.0-11.0-1.38","","607","","<div class='trialDiv'><img src='Fruit/mixed-berries2.png'><br><font class='baseline'><strong>Berry Bla$t</strong><p>Choose number of points to bet.</font><div class='respPicDiv'><img src='img/responseButtonOffersNo0L.png' class='respPic'></div></div>","1","13","Berry Bla$t","Fruit/mixed-berries2.png","Lost","0.8,0.35","10","0.8","229","39","",""
"","","","decisionFB","63b6c76ff03d438cd09b8c56","bdp_rwlrn","Tue Mar 14 2023 13:40:43 GMT-0400 (Eastern Daylight Time)","561068","Trustworthy,Untrustworthy","html-keyboard-response","126","278737","0.0-11.0-2.38","","null","","<div class='trialDiv'><img src='Fruit/mixed-berries2.png'><br><font class='baseline'><strong>Berry Bla$t</strong><p>Choose number of points to bet.</font><div class='respPicDiv'><img src='img/responseButtonOffersNo0L1.png' class='respPic'></div></div>","null","13","Berry Bla$t","Fruit/mixed-berries2.png","Lost","0.8,0.35","10","0.8","228","39","",""
"","","","feedback","63b6c76ff03d438cd09b8c56","bdp_rwlrn","Tue Mar 14 2023 13:40:43 GMT-0400 (Eastern Daylight Time)","561068","Trustworthy,Untrustworthy","html-keyboard-response","127","279746","0.0-11.0-3.38","","null","","<div class='respPicDiv'><img src='img/responseButtonOffersNo0_wht.png' class='respPic'></div><div class='trialDiv'><img src='Fruit/mixed-berries2.png'><br><font class='baseline'><strong>Berry Bla$t</strong><p><strong><font class='negOutcome'>You LOST</font><p>You bet: 1</strong></font> &nbsp; &nbsp; &nbsp; &nbsp; &nbsp; &nbsp;<font class='negOutcome'>You receive: <strong>0</strong></font></div>","null","13","Berry Bla$t","Fruit/mixed-berries2.png","Lost","0.8,0.35","10","0.8","228","39","",""
"","","","decision","63b6c76ff03d438cd09b8c56","bdp_rwlrn","Tue Mar 14 2023 13:40:43 GMT-0400 (Eastern Daylight Time)","561068","Trustworthy,Untrustworthy","html-keyboard-response","128","280687","0.0-11.0-1.39","","937","","<div class='trialDiv'><img src='Fruit/mango.png'><br><font class='baseline'><strong>Mega Mangos</strong><p>Choose number of points to bet.</font><div class='respPicDiv'><img src='img/responseButtonOffersNo0L.png' class='respPic'></div></div>","1","14","Mega Mangos","Fruit/mango.png","Won","0.2,0.65","13","0.2","233","40","",""
"","","","decisionFB","63b6c76ff03d438cd09b8c56","bdp_rwlrn","Tue Mar 14 2023 13:40:43 GMT-0400 (Eastern Daylight Time)","561068","Trustworthy,Untrustworthy","html-keyboard-response","129","280953","0.0-11.0-2.39","","null","","<div class='trialDiv'><img src='Fruit/mango.png'><br><font class='baseline'><strong>Mega Mangos</strong><p>Choose number of points to bet.</font><div class='respPicDiv'><img src='img/responseButtonOffersNo0L1.png' class='respPic'></div></div>","null","14","Mega Mangos","Fruit/mango.png","Won","0.2,0.65","13","0.2","232","40","",""
"","","","feedback","63b6c76ff03d438cd09b8c56","bdp_rwlrn","Tue Mar 14 2023 13:40:43 GMT-0400 (Eastern Daylight Time)","561068","Trustworthy,Untrustworthy","html-keyboard-response","130","281972","0.0-11.0-3.39","","null","","<div class='respPicDiv'><img src='img/responseButtonOffersNo0_wht.png' class='respPic'></div><div class='trialDiv'><img src='Fruit/mango.png'><br><font class='baseline'><strong>Mega Mangos</strong><p><strong><font class='posOutcome'>You WON</font><p>You bet: 1</strong></font> &nbsp; &nbsp; &nbsp; &nbsp; &nbsp; &nbsp;<font class='posOutcome'>you receive: <strong>2</strong></font></div>","null","14","Mega Mangos","Fruit/mango.png","Won","0.2,0.65","13","0.2","234","40","",""
"","","","decision","63b6c76ff03d438cd09b8c56","bdp_rwlrn","Tue Mar 14 2023 13:40:43 GMT-0400 (Eastern Daylight Time)","561068","Trustworthy,Untrustworthy","html-keyboard-response","131","282635","0.0-11.0-1.40","","655","","<div class='trialDiv'><img src='Fruit/bananas.png'><br><font class='baseline'><strong>Banana Bonanza</strong><p>Choose number of points to bet.</font><div class='respPicDiv'><img src='img/responseButtonOffersNo0L.png' class='respPic'></div></div>","5","14","Banana Bonanza","Fruit/bananas.png","Won","0.8,0.2","13","0.8","239","41","",""
"","","","decisionFB","63b6c76ff03d438cd09b8c56","bdp_rwlrn","Tue Mar 14 2023 13:40:43 GMT-0400 (Eastern Daylight Time)","561068","Trustworthy,Untrustworthy","html-keyboard-response","132","282894","0.0-11.0-2.40","","null","","<div class='trialDiv'><img src='Fruit/bananas.png'><br><font class='baseline'><strong>Banana Bonanza</strong><p>Choose number of points to bet.</font><div class='respPicDiv'><img src='img/responseButtonOffersNo0L5.png' class='respPic'></div></div>","null","14","Banana Bonanza","Fruit/bananas.png","Won","0.8,0.2","13","0.8","234","41","",""
"","","","feedback","63b6c76ff03d438cd09b8c56","bdp_rwlrn","Tue Mar 14 2023 13:40:43 GMT-0400 (Eastern Daylight Time)","561068","Trustworthy,Untrustworthy","html-keyboard-response","133","283903","0.0-11.0-3.40","","null","","<div class='respPicDiv'><img src='img/responseButtonOffersNo0_wht.png' class='respPic'></div><div class='trialDiv'><img src='Fruit/bananas.png'><br><font class='baseline'><strong>Banana Bonanza</strong><p><strong><font class='posOutcome'>You WON</font><p>You bet: 5</strong></font> &nbsp; &nbsp; &nbsp; &nbsp; &nbsp; &nbsp;<font class='posOutcome'>you receive: <strong>10</strong></font></div>","null","14","Banana Bonanza","Fruit/bananas.png","Won","0.8,0.2","13","0.8","244","41","",""
"","","","decision","63b6c76ff03d438cd09b8c56","bdp_rwlrn","Tue Mar 14 2023 13:40:43 GMT-0400 (Eastern Daylight Time)","561068","Trustworthy,Untrustworthy","html-keyboard-response","134","284663","0.0-11.0-1.41","","756","","<div class='trialDiv'><img src='Fruit/mixed-berries2.png'><br><font class='baseline'><strong>Berry Bla$t</strong><p>Choose number of points to bet.</font><div class='respPicDiv'><img src='img/responseButtonOffersNo0L.png' class='respPic'></div></div>","1","14","Berry Bla$t","Fruit/mixed-berries2.png","Lost","0.8,0.35","10","0.8","249","42","",""
"","","","decisionFB","63b6c76ff03d438cd09b8c56","bdp_rwlrn","Tue Mar 14 2023 13:40:43 GMT-0400 (Eastern Daylight Time)","561068","Trustworthy,Untrustworthy","html-keyboard-response","135","284923","0.0-11.0-2.41","","null","","<div class='trialDiv'><img src='Fruit/mixed-berries2.png'><br><font class='baseline'><strong>Berry Bla$t</strong><p>Choose number of points to bet.</font><div class='respPicDiv'><img src='img/responseButtonOffersNo0L1.png' class='respPic'></div></div>","null","14","Berry Bla$t","Fruit/mixed-berries2.png","Lost","0.8,0.35","10","0.8","248","42","",""
"","","","feedback","63b6c76ff03d438cd09b8c56","bdp_rwlrn","Tue Mar 14 2023 13:40:43 GMT-0400 (Eastern Daylight Time)","561068","Trustworthy,Untrustworthy","html-keyboard-response","136","285939","0.0-11.0-3.41","","null","","<div class='respPicDiv'><img src='img/responseButtonOffersNo0_wht.png' class='respPic'></div><div class='trialDiv'><img src='Fruit/mixed-berries2.png'><br><font class='baseline'><strong>Berry Bla$t</strong><p><strong><font class='negOutcome'>You LOST</font><p>You bet: 1</strong></font> &nbsp; &nbsp; &nbsp; &nbsp; &nbsp; &nbsp;<font class='negOutcome'>You receive: <strong>0</strong></font></div>","null","14","Berry Bla$t","Fruit/mixed-berries2.png","Lost","0.8,0.35","10","0.8","248","42","",""
"","","","decision","63b6c76ff03d438cd09b8c56","bdp_rwlrn","Tue Mar 14 2023 13:40:43 GMT-0400 (Eastern Daylight Time)","561068","Trustworthy,Untrustworthy","html-keyboard-response","137","287485","0.0-11.0-1.42","","1539","","<div class='trialDiv'><img src='Fruit/bananas.png'><br><font class='baseline'><strong>Banana Bonanza</strong><p>Choose number of points to bet.</font><div class='respPicDiv'><img src='img/responseButtonOffersNo0L.png' class='respPic'></div></div>","3","15","Banana Bonanza","Fruit/bananas.png","Lost","0.8,0.2","13","0.8","253","43","",""
"","","","decisionFB","63b6c76ff03d438cd09b8c56","bdp_rwlrn","Tue Mar 14 2023 13:40:43 GMT-0400 (Eastern Daylight Time)","561068","Trustworthy,Untrustworthy","html-keyboard-response","138","287743","0.0-11.0-2.42","","null","","<div class='trialDiv'><img src='Fruit/bananas.png'><br><font class='baseline'><strong>Banana Bonanza</strong><p>Choose number of points to bet.</font><div class='respPicDiv'><img src='img/responseButtonOffersNo0L3.png' class='respPic'></div></div>","null","15","Banana Bonanza","Fruit/bananas.png","Lost","0.8,0.2","13","0.8","250","43","",""
"","","","feedback","63b6c76ff03d438cd09b8c56","bdp_rwlrn","Tue Mar 14 2023 13:40:43 GMT-0400 (Eastern Daylight Time)","561068","Trustworthy,Untrustworthy","html-keyboard-response","139","288756","0.0-11.0-3.42","","null","","<div class='respPicDiv'><img src='img/responseButtonOffersNo0_wht.png' class='respPic'></div><div class='trialDiv'><img src='Fruit/bananas.png'><br><font class='baseline'><strong>Banana Bonanza</strong><p><strong><font class='negOutcome'>You LOST</font><p>You bet: 3</strong></font> &nbsp; &nbsp; &nbsp; &nbsp; &nbsp; &nbsp;<font class='negOutcome'>You receive: <strong>0</strong></font></div>","null","15","Banana Bonanza","Fruit/bananas.png","Lost","0.8,0.2","13","0.8","250","43","",""
"","","","decision","63b6c76ff03d438cd09b8c56","bdp_rwlrn","Tue Mar 14 2023 13:40:43 GMT-0400 (Eastern Daylight Time)","561068","Trustworthy,Untrustworthy","html-keyboard-response","140","290423","0.0-11.0-1.43","","1660","","<div class='trialDiv'><img src='Fruit/mango.png'><br><font class='baseline'><strong>Mega Mangos</strong><p>Choose number of points to bet.</font><div class='respPicDiv'><img src='img/responseButtonOffersNo0L.png' class='respPic'></div></div>","4","15","Mega Mangos","Fruit/mango.png","Lost","0.2,0.65","13","0.2","255","44","",""
"","","","decisionFB","63b6c76ff03d438cd09b8c56","bdp_rwlrn","Tue Mar 14 2023 13:40:43 GMT-0400 (Eastern Daylight Time)","561068","Trustworthy,Untrustworthy","html-keyboard-response","141","290693","0.0-11.0-2.43","","null","","<div class='trialDiv'><img src='Fruit/mango.png'><br><font class='baseline'><strong>Mega Mangos</strong><p>Choose number of points to bet.</font><div class='respPicDiv'><img src='img/responseButtonOffersNo0L4.png' class='respPic'></div></div>","null","15","Mega Mangos","Fruit/mango.png","Lost","0.2,0.65","13","0.2","251","44","",""
"","","","feedback","63b6c76ff03d438cd09b8c56","bdp_rwlrn","Tue Mar 14 2023 13:40:43 GMT-0400 (Eastern Daylight Time)","561068","Trustworthy,Untrustworthy","html-keyboard-response","142","291695","0.0-11.0-3.43","","null","","<div class='respPicDiv'><img src='img/responseButtonOffersNo0_wht.png' class='respPic'></div><div class='trialDiv'><img src='Fruit/mango.png'><br><font class='baseline'><strong>Mega Mangos</strong><p><strong><font class='negOutcome'>You LOST</font><p>You bet: 4</strong></font> &nbsp; &nbsp; &nbsp; &nbsp; &nbsp; &nbsp;<font class='negOutcome'>You receive: <strong>0</strong></font></div>","null","15","Mega Mangos","Fruit/mango.png","Lost","0.2,0.65","13","0.2","251","44","",""
"","","","decision","63b6c76ff03d438cd09b8c56","bdp_rwlrn","Tue Mar 14 2023 13:40:43 GMT-0400 (Eastern Daylight Time)","561068","Trustworthy,Untrustworthy","html-keyboard-response","143","292999","0.0-11.0-1.44","","1301","","<div class='trialDiv'><img src='Fruit/mixed-berries2.png'><br><font class='baseline'><strong>Berry Bla$t</strong><p>Choose number of points to bet.</font><div class='respPicDiv'><img src='img/responseButtonOffersNo0L.png' class='respPic'></div></div>","2","15","Berry Bla$t","Fruit/mixed-berries2.png","Lost","0.8,0.35","10","0.8","256","45","",""
"","","","decisionFB","63b6c76ff03d438cd09b8c56","bdp_rwlrn","Tue Mar 14 2023 13:40:43 GMT-0400 (Eastern Daylight Time)","561068","Trustworthy,Untrustworthy","html-keyboard-response","144","293259","0.0-11.0-2.44","","null","","<div class='trialDiv'><img src='Fruit/mixed-berries2.png'><br><font class='baseline'><strong>Berry Bla$t</strong><p>Choose number of points to bet.</font><div class='respPicDiv'><img src='img/responseButtonOffersNo0L2.png' class='respPic'></div></div>","null","15","Berry Bla$t","Fruit/mixed-berries2.png","Lost","0.8,0.35","10","0.8","254","45","",""
"","","","feedback","63b6c76ff03d438cd09b8c56","bdp_rwlrn","Tue Mar 14 2023 13:40:43 GMT-0400 (Eastern Daylight Time)","561068","Trustworthy,Untrustworthy","html-keyboard-response","145","294268","0.0-11.0-3.44","","null","","<div class='respPicDiv'><img src='img/responseButtonOffersNo0_wht.png' class='respPic'></div><div class='trialDiv'><img src='Fruit/mixed-berries2.png'><br><font class='baseline'><strong>Berry Bla$t</strong><p><strong><font class='negOutcome'>You LOST</font><p>You bet: 2</strong></font> &nbsp; &nbsp; &nbsp; &nbsp; &nbsp; &nbsp;<font class='negOutcome'>You receive: <strong>0</strong></font></div>","null","15","Berry Bla$t","Fruit/mixed-berries2.png","Lost","0.8,0.35","10","0.8","254","45","",""
"","","","decision","63b6c76ff03d438cd09b8c56","bdp_rwlrn","Tue Mar 14 2023 13:40:43 GMT-0400 (Eastern Daylight Time)","561068","Trustworthy,Untrustworthy","html-keyboard-response","146","294782","0.0-11.0-1.45","","506","","<div class='trialDiv'><img src='Fruit/bananas.png'><br><font class='baseline'><strong>Banana Bonanza</strong><p>Choose number of points to bet.</font><div class='respPicDiv'><img src='img/responseButtonOffersNo0L.png' class='respPic'></div></div>","5","16","Banana Bonanza","Fruit/bananas.png","Won","0.8,0.2","13","0.8","259","46","",""
"","","","decisionFB","63b6c76ff03d438cd09b8c56","bdp_rwlrn","Tue Mar 14 2023 13:40:43 GMT-0400 (Eastern Daylight Time)","561068","Trustworthy,Untrustworthy","html-keyboard-response","147","295036","0.0-11.0-2.45","","null","","<div class='trialDiv'><img src='Fruit/bananas.png'><br><font class='baseline'><strong>Banana Bonanza</strong><p>Choose number of points to bet.</font><div class='respPicDiv'><img src='img/responseButtonOffersNo0L5.png' class='respPic'></div></div>","null","16","Banana Bonanza","Fruit/bananas.png","Won","0.8,0.2","13","0.8","254","46","",""
"","","","feedback","63b6c76ff03d438cd09b8c56","bdp_rwlrn","Tue Mar 14 2023 13:40:43 GMT-0400 (Eastern Daylight Time)","561068","Trustworthy,Untrustworthy","html-keyboard-response","148","296049","0.0-11.0-3.45","","null","","<div class='respPicDiv'><img src='img/responseButtonOffersNo0_wht.png' class='respPic'></div><div class='trialDiv'><img src='Fruit/bananas.png'><br><font class='baseline'><strong>Banana Bonanza</strong><p><strong><font class='posOutcome'>You WON</font><p>You bet: 5</strong></font> &nbsp; &nbsp; &nbsp; &nbsp; &nbsp; &nbsp;<font class='posOutcome'>you receive: <strong>10</strong></font></div>","null","16","Banana Bonanza","Fruit/bananas.png","Won","0.8,0.2","13","0.8","264","46","",""
"","","","decision","63b6c76ff03d438cd09b8c56","bdp_rwlrn","Tue Mar 14 2023 13:40:43 GMT-0400 (Eastern Daylight Time)","561068","Trustworthy,Untrustworthy","html-keyboard-response","149","296793","0.0-11.0-1.46","","741","","<div class='trialDiv'><img src='Fruit/mixed-berries2.png'><br><font class='baseline'><strong>Berry Bla$t</strong><p>Choose number of points to bet.</font><div class='respPicDiv'><img src='img/responseButtonOffersNo0L.png' class='respPic'></div></div>","3","16","Berry Bla$t","Fruit/mixed-berries2.png","Lost","0.8,0.35","10","0.8","269","47","",""
"","","","decisionFB","63b6c76ff03d438cd09b8c56","bdp_rwlrn","Tue Mar 14 2023 13:40:43 GMT-0400 (Eastern Daylight Time)","561068","Trustworthy,Untrustworthy","html-keyboard-response","150","297059","0.0-11.0-2.46","","null","","<div class='trialDiv'><img src='Fruit/mixed-berries2.png'><br><font class='baseline'><strong>Berry Bla$t</strong><p>Choose number of points to bet.</font><div class='respPicDiv'><img src='img/responseButtonOffersNo0L3.png' class='respPic'></div></div>","null","16","Berry Bla$t","Fruit/mixed-berries2.png","Lost","0.8,0.35","10","0.8","266","47","",""
"","","","feedback","63b6c76ff03d438cd09b8c56","bdp_rwlrn","Tue Mar 14 2023 13:40:43 GMT-0400 (Eastern Daylight Time)","561068","Trustworthy,Untrustworthy","html-keyboard-response","151","298074","0.0-11.0-3.46","","null","","<div class='respPicDiv'><img src='img/responseButtonOffersNo0_wht.png' class='respPic'></div><div class='trialDiv'><img src='Fruit/mixed-berries2.png'><br><font class='baseline'><strong>Berry Bla$t</strong><p><strong><font class='negOutcome'>You LOST</font><p>You bet: 3</strong></font> &nbsp; &nbsp; &nbsp; &nbsp; &nbsp; &nbsp;<font class='negOutcome'>You receive: <strong>0</strong></font></div>","null","16","Berry Bla$t","Fruit/mixed-berries2.png","Lost","0.8,0.35","10","0.8","266","47","",""
"","","","decision","63b6c76ff03d438cd09b8c56","bdp_rwlrn","Tue Mar 14 2023 13:40:43 GMT-0400 (Eastern Daylight Time)","561068","Trustworthy,Untrustworthy","html-keyboard-response","152","298884","0.0-11.0-1.47","","803","","<div class='trialDiv'><img src='Fruit/mango.png'><br><font class='baseline'><strong>Mega Mangos</strong><p>Choose number of points to bet.</font><div class='respPicDiv'><img src='img/responseButtonOffersNo0L.png' class='respPic'></div></div>","3","16","Mega Mangos","Fruit/mango.png","Won","0.2,0.65","13","0.2","271","48","",""
"","","","decisionFB","63b6c76ff03d438cd09b8c56","bdp_rwlrn","Tue Mar 14 2023 13:40:43 GMT-0400 (Eastern Daylight Time)","561068","Trustworthy,Untrustworthy","html-keyboard-response","153","299143","0.0-11.0-2.47","","null","","<div class='trialDiv'><img src='Fruit/mango.png'><br><font class='baseline'><strong>Mega Mangos</strong><p>Choose number of points to bet.</font><div class='respPicDiv'><img src='img/responseButtonOffersNo0L3.png' class='respPic'></div></div>","null","16","Mega Mangos","Fruit/mango.png","Won","0.2,0.65","13","0.2","268","48","",""
"","","","feedback","63b6c76ff03d438cd09b8c56","bdp_rwlrn","Tue Mar 14 2023 13:40:43 GMT-0400 (Eastern Daylight Time)","561068","Trustworthy,Untrustworthy","html-keyboard-response","154","300155","0.0-11.0-3.47","","null","","<div class='respPicDiv'><img src='img/responseButtonOffersNo0_wht.png' class='respPic'></div><div class='trialDiv'><img src='Fruit/mango.png'><br><font class='baseline'><strong>Mega Mangos</strong><p><strong><font class='posOutcome'>You WON</font><p>You bet: 3</strong></font> &nbsp; &nbsp; &nbsp; &nbsp; &nbsp; &nbsp;<font class='posOutcome'>you receive: <strong>6</strong></font></div>","null","16","Mega Mangos","Fruit/mango.png","Won","0.2,0.65","13","0.2","274","48","",""
"","","","decision","63b6c76ff03d438cd09b8c56","bdp_rwlrn","Tue Mar 14 2023 13:40:43 GMT-0400 (Eastern Daylight Time)","561068","Trustworthy,Untrustworthy","html-keyboard-response","155","301414","0.0-11.0-1.48","","1254","","<div class='trialDiv'><img src='Fruit/mixed-berries2.png'><br><font class='baseline'><strong>Berry Bla$t</strong><p>Choose number of points to bet.</font><div class='respPicDiv'><img src='img/responseButtonOffersNo0L.png' class='respPic'></div></div>","2","17","Berry Bla$t","Fruit/mixed-berries2.png","Lost","0.8,0.35","10","0.8","279","49","",""
"","","","decisionFB","63b6c76ff03d438cd09b8c56","bdp_rwlrn","Tue Mar 14 2023 13:40:43 GMT-0400 (Eastern Daylight Time)","561068","Trustworthy,Untrustworthy","html-keyboard-response","156","301682","0.0-11.0-2.48","","null","","<div class='trialDiv'><img src='Fruit/mixed-berries2.png'><br><font class='baseline'><strong>Berry Bla$t</strong><p>Choose number of points to bet.</font><div class='respPicDiv'><img src='img/responseButtonOffersNo0L2.png' class='respPic'></div></div>","null","17","Berry Bla$t","Fruit/mixed-berries2.png","Lost","0.8,0.35","10","0.8","277","49","",""
"","","","feedback","63b6c76ff03d438cd09b8c56","bdp_rwlrn","Tue Mar 14 2023 13:40:43 GMT-0400 (Eastern Daylight Time)","561068","Trustworthy,Untrustworthy","html-keyboard-response","157","302691","0.0-11.0-3.48","","null","","<div class='respPicDiv'><img src='img/responseButtonOffersNo0_wht.png' class='respPic'></div><div class='trialDiv'><img src='Fruit/mixed-berries2.png'><br><font class='baseline'><strong>Berry Bla$t</strong><p><strong><font class='negOutcome'>You LOST</font><p>You bet: 2</strong></font> &nbsp; &nbsp; &nbsp; &nbsp; &nbsp; &nbsp;<font class='negOutcome'>You receive: <strong>0</strong></font></div>","null","17","Berry Bla$t","Fruit/mixed-berries2.png","Lost","0.8,0.35","10","0.8","277","49","",""
"","","","decision","63b6c76ff03d438cd09b8c56","bdp_rwlrn","Tue Mar 14 2023 13:40:43 GMT-0400 (Eastern Daylight Time)","561068","Trustworthy,Untrustworthy","html-keyboard-response","158","303765","0.0-11.0-1.49","","1067","","<div class='trialDiv'><img src='Fruit/mango.png'><br><font class='baseline'><strong>Mega Mangos</strong><p>Choose number of points to bet.</font><div class='respPicDiv'><img src='img/responseButtonOffersNo0L.png' class='respPic'></div></div>","2","17","Mega Mangos","Fruit/mango.png","Won","0.2,0.65","13","0.2","282","50","",""
"","","","decisionFB","63b6c76ff03d438cd09b8c56","bdp_rwlrn","Tue Mar 14 2023 13:40:43 GMT-0400 (Eastern Daylight Time)","561068","Trustworthy,Untrustworthy","html-keyboard-response","159","304023","0.0-11.0-2.49","","null","","<div class='trialDiv'><img src='Fruit/mango.png'><br><font class='baseline'><strong>Mega Mangos</strong><p>Choose number of points to bet.</font><div class='respPicDiv'><img src='img/responseButtonOffersNo0L2.png' class='respPic'></div></div>","null","17","Mega Mangos","Fruit/mango.png","Won","0.2,0.65","13","0.2","280","50","",""
"","","","feedback","63b6c76ff03d438cd09b8c56","bdp_rwlrn","Tue Mar 14 2023 13:40:43 GMT-0400 (Eastern Daylight Time)","561068","Trustworthy,Untrustworthy","html-keyboard-response","160","305035","0.0-11.0-3.49","","null","","<div class='respPicDiv'><img src='img/responseButtonOffersNo0_wht.png' class='respPic'></div><div class='trialDiv'><img src='Fruit/mango.png'><br><font class='baseline'><strong>Mega Mangos</strong><p><strong><font class='posOutcome'>You WON</font><p>You bet: 2</strong></font> &nbsp; &nbsp; &nbsp; &nbsp; &nbsp; &nbsp;<font class='posOutcome'>you receive: <strong>4</strong></font></div>","null","17","Mega Mangos","Fruit/mango.png","Won","0.2,0.65","13","0.2","284","50","",""
"","","","decision","63b6c76ff03d438cd09b8c56","bdp_rwlrn","Tue Mar 14 2023 13:40:43 GMT-0400 (Eastern Daylight Time)","561068","Trustworthy,Untrustworthy","html-keyboard-response","161","306046","0.0-11.0-1.50","","1008","","<div class='trialDiv'><img src='Fruit/bananas.png'><br><font class='baseline'><strong>Banana Bonanza</strong><p>Choose number of points to bet.</font><div class='respPicDiv'><img src='img/responseButtonOffersNo0L.png' class='respPic'></div></div>","5","17","Banana Bonanza","Fruit/bananas.png","Lost","0.8,0.2","13","0.8","289","51","",""
"","","","decisionFB","63b6c76ff03d438cd09b8c56","bdp_rwlrn","Tue Mar 14 2023 13:40:43 GMT-0400 (Eastern Daylight Time)","561068","Trustworthy,Untrustworthy","html-keyboard-response","162","306312","0.0-11.0-2.50","","null","","<div class='trialDiv'><img src='Fruit/bananas.png'><br><font class='baseline'><strong>Banana Bonanza</strong><p>Choose number of points to bet.</font><div class='respPicDiv'><img src='img/responseButtonOffersNo0L5.png' class='respPic'></div></div>","null","17","Banana Bonanza","Fruit/bananas.png","Lost","0.8,0.2","13","0.8","284","51","",""
