"trial_type","trial_index","time_elapsed","internal_node_id","subject_id","task","startTime","totalTime","labels","view_history","rt","event","trial","time","trialtype","success","stimulus","key_press","ltround","name","fileID","outcome","lottotype","lottoswpt","lottocurrpshare","point_total","round","faceID","face"
"pavlovia","0","6","0.0-0.0","63d428eb946e85527cfdf058","bdp_rwlrn","Tue Mar 14 2023 18:11:57 GMT-0700 (Pacific Daylight Time)","334689","Trustworthy,Untrustworthy","","","","","","","","","","","","","","","","","","","",""
"instructions","1","5723","0.0-1.0","63d428eb946e85527cfdf058","bdp_rwlrn","Tue Mar 14 2023 18:11:57 GMT-0700 (Pacific Daylight Time)","334689","Trustworthy,Untrustworthy","[{""page_index"":0,""viewing_time"":5716}]","5716","","","","","","","","","","","","","","","","","",""
"","","","","63d428eb946e85527cfdf058","bdp_rwlrn","Tue Mar 14 2023 18:11:57 GMT-0700 (Pacific Daylight Time)","334689","Trustworthy,Untrustworthy","","","fullscreenenter","2","7422","fullscreenenter","","","","","","","","","","","","","",""
"fullscreen","2","8416","0.0-2.0","63d428eb946e85527cfdf058","bdp_rwlrn","Tue Mar 14 2023 18:11:57 GMT-0700 (Pacific Daylight Time)","334689","Trustworthy,Untrustworthy","","","","","","","true","","","","","","","","","","","","",""
"","","","","63d428eb946e85527cfdf058","bdp_rwlrn","Tue Mar 14 2023 18:11:57 GMT-0700 (Pacific Daylight Time)","334689","Trustworthy,Untrustworthy","","","fullscreenexit","3","8591","fullscreenexit","","","","","","","","","","","","","",""
"instructions","3","49993","0.0-4.0","63d428eb946e85527cfdf058","bdp_rwlrn","Tue Mar 14 2023 18:11:57 GMT-0700 (Pacific Daylight Time)","334689","Trustworthy,Untrustworthy","[{""page_index"":0,""viewing_time"":9324},{""page_index"":1,""viewing_time"":7672},{""page_index"":2,""viewing_time"":1869},{""page_index"":3,""viewing_time"":4885},{""page_index"":4,""viewing_time"":12536},{""page_index"":5,""viewing_time"":5287}]","41574","","","","","","","","","","","","","","","","","",""
"html-keyboard-response","4","54323","0.0-5.0","63d428eb946e85527cfdf058","bdp_rwlrn","Tue Mar 14 2023 18:11:57 GMT-0700 (Pacific Daylight Time)","334689","Trustworthy,Untrustworthy","","4328","","","","","","<div class='header' style='text-align:left; position: absolute; top: 5%; left: 5%;'><small>Task 1 of 5</small></div><div class='instruxDiv'><p><strong>1) What is the maximum number of points you can choose to bet on a lottery?</strong></p><p>a) 0</p><p>b) 1</p><p>c) 5</p>","C","","","","","","","","","","",""
"html-keyboard-response","5","55714","0.0-6.0","63d428eb946e85527cfdf058","bdp_rwlrn","Tue Mar 14 2023 18:11:57 GMT-0700 (Pacific Daylight Time)","334689","Trustworthy,Untrustworthy","","1282","","","","","","<div class='header' style='text-align:left; position: absolute; top: 5%; left: 5%;'><small>Task 1 of 5</small></div><div class='instruxDiv'><p><strong>1) What is the maximum number of points you can choose to bet on a lottery?</strong></p><p>a) 1</p><p>b) 1</p><p style='color:#00FF00'>c) 5</p><h3 style='color:#00FF00'>Correct!</h3><h3 class='center-content'>The correct response is c).</h3><h3 class='center-content'>The maximum number of points you can choose to bet on a lottery is 5 points.</h3><p><em>Press SPACEBAR to continue</em></p></div>"," ","","","","","","","","","","",""
"html-keyboard-response","6","60554","0.0-7.0","63d428eb946e85527cfdf058","bdp_rwlrn","Tue Mar 14 2023 18:11:57 GMT-0700 (Pacific Daylight Time)","334689","Trustworthy,Untrustworthy","","4736","","","","","","<div class='header' style='text-align:left; position: absolute; top: 5%; left: 5%;'><small>Task 1 of 5</small></div><div class='instruxDiv'><p><strong>2) How many points can you win each round?</strong></p><p>a) 10 points</p><p>b) Double what you bet</p><p>c) Quadruple what you bet</p>","B","","","","","","","","","","",""
"html-keyboard-response","7","62017","0.0-8.0","63d428eb946e85527cfdf058","bdp_rwlrn","Tue Mar 14 2023 18:11:57 GMT-0700 (Pacific Daylight Time)","334689","Trustworthy,Untrustworthy","","1351","","","","","","<div class='header' style='text-align:left; position: absolute; top: 5%; left: 5%;'><small>Task 1 of 5</small></div><div class='instruxDiv'><p><strong>2) How many points can you win each round?</strong></p><p>a) 10 points</p><p style='color:#00FF00'>b) Double what you bet</p><p>c) Quadruple what you bet</p><h3 style='color:#00FF00'>Correct!</h3><h3 class='center-content'>The correct response is b).</h3><h3 class='center-content'>You can win double the amount of points you bet.</h3><p><em>Press SPACEBAR to continue</em></p></div>"," ","","","","","","","","","","",""
"html-keyboard-response","8","67139","0.0-9.0","63d428eb946e85527cfdf058","bdp_rwlrn","Tue Mar 14 2023 18:11:57 GMT-0700 (Pacific Daylight Time)","334689","Trustworthy,Untrustworthy","","null","","","","","","<div class='header' style='text-align:left; position: absolute; top: 5%; left: 5%;'><small>Task 1 of 5</small></div><div class='instruxDiv'><p>Thank you for completing the quiz<p>These are the actual lotteries you will be playing in the next block:<p><div class='tc' align='center'><img class='introPic' src='Fruit/plums1.png'><br><strong>Plum Powerball</strong></div><div class='bl' align='center'><img class='introPic' src='Fruit/mixed-berries2.png'><br><strong>Berry Bla$t</strong></div><div class='br' align='center'><img class='introPic' src='Fruit/pears.png'><br><strong>Pears Aplenty</strong></div></div><p>Across <strong>66 rounds</strong> you will play each lottery <strong>22 times</strong> (in random order).<p style='align:center; color:white'><font <em>Press SPACEBAR to continue</em></p>","null","","","","","","","","","","",""
"instructions","9","71394","0.0-10.0","63d428eb946e85527cfdf058","bdp_rwlrn","Tue Mar 14 2023 18:11:57 GMT-0700 (Pacific Daylight Time)","334689","Trustworthy,Untrustworthy","[{""page_index"":0,""viewing_time"":1000},{""page_index"":1,""viewing_time"":3254}]","4254","","","","","","","","","","","","","","","","","",""
"html-keyboard-response","10","74525","0.0-11.0-1.0","63d428eb946e85527cfdf058","bdp_rwlrn","Tue Mar 14 2023 18:11:57 GMT-0700 (Pacific Daylight Time)","334689","Trustworthy,Untrustworthy","","3017","","","","decision","","<div class='trialDiv'><img src='Fruit/plums1.png'><br><font class='baseline'><strong>Plum Powerball</strong><p>Choose number of points to bet.</font><div class='respPicDiv'><img src='img/responseButtonOffersNo0L.png' class='respPic'></div></div>","3","1","Plum Powerball","Fruit/plums1.png","Lost","0.35,0.8","13","0.35","5","1","",""
"html-keyboard-response","11","74787","0.0-11.0-2.0","63d428eb946e85527cfdf058","bdp_rwlrn","Tue Mar 14 2023 18:11:57 GMT-0700 (Pacific Daylight Time)","334689","Trustworthy,Untrustworthy","","null","","","","decisionFB","","<div class='trialDiv'><img src='Fruit/plums1.png'><br><font class='baseline'><strong>Plum Powerball</strong><p>Choose number of points to bet.</font><div class='respPicDiv'><img src='img/responseButtonOffersNo0L3.png' class='respPic'></div></div>","null","1","Plum Powerball","Fruit/plums1.png","Lost","0.35,0.8","13","0.35","2","1","",""
"html-keyboard-response","12","75802","0.0-11.0-3.0","63d428eb946e85527cfdf058","bdp_rwlrn","Tue Mar 14 2023 18:11:57 GMT-0700 (Pacific Daylight Time)","334689","Trustworthy,Untrustworthy","","null","","","","feedback","","<div class='respPicDiv'><img src='img/responseButtonOffersNo0_wht.png' class='respPic'></div><div class='trialDiv'><img src='Fruit/plums1.png'><br><font class='baseline'><strong>Plum Powerball</strong><p><strong><font class='negOutcome'>You LOST</font><p>You bet: 3</strong></font> &nbsp; &nbsp; &nbsp; &nbsp; &nbsp; &nbsp;<font class='negOutcome'>You receive: <strong>0</strong></font></div>","null","1","Plum Powerball","Fruit/plums1.png","Lost","0.35,0.8","13","0.35","2","1","",""
"html-keyboard-response","13","76842","0.0-11.0-1.1","63d428eb946e85527cfdf058","bdp_rwlrn","Tue Mar 14 2023 18:11:57 GMT-0700 (Pacific Daylight Time)","334689","Trustworthy,Untrustworthy","","1038","","","","decision","","<div class='trialDiv'><img src='Fruit/pears.png'><br><font class='baseline'><strong>Pears Aplenty</strong><p>Choose number of points to bet.</font><div class='respPicDiv'><img src='img/responseButtonOffersNo0L.png' class='respPic'></div></div>","4","1","Pears Aplenty","Fruit/pears.png","Won","0.35,0.65","9","0.35","7","2","",""
"html-keyboard-response","14","77096","0.0-11.0-2.1","63d428eb946e85527cfdf058","bdp_rwlrn","Tue Mar 14 2023 18:11:57 GMT-0700 (Pacific Daylight Time)","334689","Trustworthy,Untrustworthy","","null","","","","decisionFB","","<div class='trialDiv'><img src='Fruit/pears.png'><br><font class='baseline'><strong>Pears Aplenty</strong><p>Choose number of points to bet.</font><div class='respPicDiv'><img src='img/responseButtonOffersNo0L4.png' class='respPic'></div></div>","null","1","Pears Aplenty","Fruit/pears.png","Won","0.35,0.65","9","0.35","3","2","",""
"html-keyboard-response","15","78108","0.0-11.0-3.1","63d428eb946e85527cfdf058","bdp_rwlrn","Tue Mar 14 2023 18:11:57 GMT-0700 (Pacific Daylight Time)","334689","Trustworthy,Untrustworthy","","null","","","","feedback","","<div class='respPicDiv'><img src='img/responseButtonOffersNo0_wht.png' class='respPic'></div><div class='trialDiv'><img src='Fruit/pears.png'><br><font class='baseline'><strong>Pears Aplenty</strong><p><strong><font class='posOutcome'>You WON</font><p>You bet: 4</strong></font> &nbsp; &nbsp; &nbsp; &nbsp; &nbsp; &nbsp;<font class='posOutcome'>you receive: <strong>8</strong></font></div>","null","1","Pears Aplenty","Fruit/pears.png","Won","0.35,0.65","9","0.35","11","2","",""
"html-keyboard-response","16","80453","0.0-11.0-1.2","63d428eb946e85527cfdf058","bdp_rwlrn","Tue Mar 14 2023 18:11:57 GMT-0700 (Pacific Daylight Time)","334689","Trustworthy,Untrustworthy","","2343","","","","decision","","<div class='trialDiv'><img src='Fruit/mixed-berries2.png'><br><font class='baseline'><strong>Berry Bla$t</strong><p>Choose number of points to bet.</font><div class='respPicDiv'><img src='img/responseButtonOffersNo0L.png' class='respPic'></div></div>","5","1","Berry Bla$t","Fruit/mixed-berries2.png","Won","0.65,0.2","11","0.65","16","3","",""
"html-keyboard-response","17","80717","0.0-11.0-2.2","63d428eb946e85527cfdf058","bdp_rwlrn","Tue Mar 14 2023 18:11:57 GMT-0700 (Pacific Daylight Time)","334689","Trustworthy,Untrustworthy","","null","","","","decisionFB","","<div class='trialDiv'><img src='Fruit/mixed-berries2.png'><br><font class='baseline'><strong>Berry Bla$t</strong><p>Choose number of points to bet.</font><div class='respPicDiv'><img src='img/responseButtonOffersNo0L5.png' class='respPic'></div></div>","null","1","Berry Bla$t","Fruit/mixed-berries2.png","Won","0.65,0.2","11","0.65","11","3","",""
"html-keyboard-response","18","81729","0.0-11.0-3.2","63d428eb946e85527cfdf058","bdp_rwlrn","Tue Mar 14 2023 18:11:57 GMT-0700 (Pacific Daylight Time)","334689","Trustworthy,Untrustworthy","","null","","","","feedback","","<div class='respPicDiv'><img src='img/responseButtonOffersNo0_wht.png' class='respPic'></div><div class='trialDiv'><img src='Fruit/mixed-berries2.png'><br><font class='baseline'><strong>Berry Bla$t</strong><p><strong><font class='posOutcome'>You WON</font><p>You bet: 5</strong></font> &nbsp; &nbsp; &nbsp; &nbsp; &nbsp; &nbsp;<font class='posOutcome'>you receive: <strong>10</strong></font></div>","null","1","Berry Bla$t","Fruit/mixed-berries2.png","Won","0.65,0.2","11","0.65","21","3","",""
"html-keyboard-response","19","83377","0.0-11.0-1.3","63d428eb946e85527cfdf058","bdp_rwlrn","Tue Mar 14 2023 18:11:57 GMT-0700 (Pacific Daylight Time)","334689","Trustworthy,Untrustworthy","","1647","","","","decision","","<div class='trialDiv'><img src='Fruit/plums1.png'><br><font class='baseline'><strong>Plum Powerball</strong><p>Choose number of points to bet.</font><div class='respPicDiv'><img src='img/responseButtonOffersNo0L.png' class='respPic'></div></div>","3","2","Plum Powerball","Fruit/plums1.png","Lost","0.35,0.8","13","0.35","26","4","",""
"html-keyboard-response","20","83641","0.0-11.0-2.3","63d428eb946e85527cfdf058","bdp_rwlrn","Tue Mar 14 2023 18:11:57 GMT-0700 (Pacific Daylight Time)","334689","Trustworthy,Untrustworthy","","null","","","","decisionFB","","<div class='trialDiv'><img src='Fruit/plums1.png'><br><font class='baseline'><strong>Plum Powerball</strong><p>Choose number of points to bet.</font><div class='respPicDiv'><img src='img/responseButtonOffersNo0L3.png' class='respPic'></div></div>","null","2","Plum Powerball","Fruit/plums1.png","Lost","0.35,0.8","13","0.35","23","4","",""
"html-keyboard-response","21","84652","0.0-11.0-3.3","63d428eb946e85527cfdf058","bdp_rwlrn","Tue Mar 14 2023 18:11:57 GMT-0700 (Pacific Daylight Time)","334689","Trustworthy,Untrustworthy","","null","","","","feedback","","<div class='respPicDiv'><img src='img/responseButtonOffersNo0_wht.png' class='respPic'></div><div class='trialDiv'><img src='Fruit/plums1.png'><br><font class='baseline'><strong>Plum Powerball</strong><p><strong><font class='negOutcome'>You LOST</font><p>You bet: 3</strong></font> &nbsp; &nbsp; &nbsp; &nbsp; &nbsp; &nbsp;<font class='negOutcome'>You receive: <strong>0</strong></font></div>","null","2","Plum Powerball","Fruit/plums1.png","Lost","0.35,0.8","13","0.35","23","4","",""
"html-keyboard-response","22","85129","0.0-11.0-1.4","63d428eb946e85527cfdf058","bdp_rwlrn","Tue Mar 14 2023 18:11:57 GMT-0700 (Pacific Daylight Time)","334689","Trustworthy,Untrustworthy","","476","","","","decision","","<div class='trialDiv'><img src='Fruit/mixed-berries2.png'><br><font class='baseline'><strong>Berry Bla$t</strong><p>Choose number of points to bet.</font><div class='respPicDiv'><img src='img/responseButtonOffersNo0L.png' class='respPic'></div></div>","4","2","Berry Bla$t","Fruit/mixed-berries2.png","Won","0.65,0.2","11","0.65","28","5","",""
"html-keyboard-response","23","85383","0.0-11.0-2.4","63d428eb946e85527cfdf058","bdp_rwlrn","Tue Mar 14 2023 18:11:57 GMT-0700 (Pacific Daylight Time)","334689","Trustworthy,Untrustworthy","","null","","","","decisionFB","","<div class='trialDiv'><img src='Fruit/mixed-berries2.png'><br><font class='baseline'><strong>Berry Bla$t</strong><p>Choose number of points to bet.</font><div class='respPicDiv'><img src='img/responseButtonOffersNo0L4.png' class='respPic'></div></div>","null","2","Berry Bla$t","Fruit/mixed-berries2.png","Won","0.65,0.2","11","0.65","24","5","",""
"html-keyboard-response","24","86396","0.0-11.0-3.4","63d428eb946e85527cfdf058","bdp_rwlrn","Tue Mar 14 2023 18:11:57 GMT-0700 (Pacific Daylight Time)","334689","Trustworthy,Untrustworthy","","null","","","","feedback","","<div class='respPicDiv'><img src='img/responseButtonOffersNo0_wht.png' class='respPic'></div><div class='trialDiv'><img src='Fruit/mixed-berries2.png'><br><font class='baseline'><strong>Berry Bla$t</strong><p><strong><font class='posOutcome'>You WON</font><p>You bet: 4</strong></font> &nbsp; &nbsp; &nbsp; &nbsp; &nbsp; &nbsp;<font class='posOutcome'>you receive: <strong>8</strong></font></div>","null","2","Berry Bla$t","Fruit/mixed-berries2.png","Won","0.65,0.2","11","0.65","32","5","",""
"html-keyboard-response","25","88165","0.0-11.0-1.5","63d428eb946e85527cfdf058","bdp_rwlrn","Tue Mar 14 2023 18:11:57 GMT-0700 (Pacific Daylight Time)","334689","Trustworthy,Untrustworthy","","1766","","","","decision","","<div class='trialDiv'><img src='Fruit/pears.png'><br><font class='baseline'><strong>Pears Aplenty</strong><p>Choose number of points to bet.</font><div class='respPicDiv'><img src='img/responseButtonOffersNo0L.png' class='respPic'></div></div>","5","2","Pears Aplenty","Fruit/pears.png","Lost","0.35,0.65","9","0.35","37","6","",""
"html-keyboard-response","26","88430","0.0-11.0-2.5","63d428eb946e85527cfdf058","bdp_rwlrn","Tue Mar 14 2023 18:11:57 GMT-0700 (Pacific Daylight Time)","334689","Trustworthy,Untrustworthy","","null","","","","decisionFB","","<div class='trialDiv'><img src='Fruit/pears.png'><br><font class='baseline'><strong>Pears Aplenty</strong><p>Choose number of points to bet.</font><div class='respPicDiv'><img src='img/responseButtonOffersNo0L5.png' class='respPic'></div></div>","null","2","Pears Aplenty","Fruit/pears.png","Lost","0.35,0.65","9","0.35","32","6","",""
"html-keyboard-response","27","89434","0.0-11.0-3.5","63d428eb946e85527cfdf058","bdp_rwlrn","Tue Mar 14 2023 18:11:57 GMT-0700 (Pacific Daylight Time)","334689","Trustworthy,Untrustworthy","","null","","","","feedback","","<div class='respPicDiv'><img src='img/responseButtonOffersNo0_wht.png' class='respPic'></div><div class='trialDiv'><img src='Fruit/pears.png'><br><font class='baseline'><strong>Pears Aplenty</strong><p><strong><font class='negOutcome'>You LOST</font><p>You bet: 5</strong></font> &nbsp; &nbsp; &nbsp; &nbsp; &nbsp; &nbsp;<font class='negOutcome'>You receive: <strong>0</strong></font></div>","null","2","Pears Aplenty","Fruit/pears.png","Lost","0.35,0.65","9","0.35","32","6","",""
"html-keyboard-response","28","89593","0.0-11.0-1.6","63d428eb946e85527cfdf058","bdp_rwlrn","Tue Mar 14 2023 18:11:57 GMT-0700 (Pacific Daylight Time)","334689","Trustworthy,Untrustworthy","","157","","","","decision","","<div class='trialDiv'><img src='Fruit/plums1.png'><br><font class='baseline'><strong>Plum Powerball</strong><p>Choose number of points to bet.</font><div class='respPicDiv'><img src='img/responseButtonOffersNo0L.png' class='respPic'></div></div>","5","3","Plum Powerball","Fruit/plums1.png","Won","0.35,0.8","13","0.35","37","7","",""
"html-keyboard-response","29","89852","0.0-11.0-2.6","63d428eb946e85527cfdf058","bdp_rwlrn","Tue Mar 14 2023 18:11:57 GMT-0700 (Pacific Daylight Time)","334689","Trustworthy,Untrustworthy","","null","","","","decisionFB","","<div class='trialDiv'><img src='Fruit/plums1.png'><br><font class='baseline'><strong>Plum Powerball</strong><p>Choose number of points to bet.</font><div class='respPicDiv'><img src='img/responseButtonOffersNo0L5.png' class='respPic'></div></div>","null","3","Plum Powerball","Fruit/plums1.png","Won","0.35,0.8","13","0.35","32","7","",""
"html-keyboard-response","30","90857","0.0-11.0-3.6","63d428eb946e85527cfdf058","bdp_rwlrn","Tue Mar 14 2023 18:11:57 GMT-0700 (Pacific Daylight Time)","334689","Trustworthy,Untrustworthy","","null","","","","feedback","","<div class='respPicDiv'><img src='img/responseButtonOffersNo0_wht.png' class='respPic'></div><div class='trialDiv'><img src='Fruit/plums1.png'><br><font class='baseline'><strong>Plum Powerball</strong><p><strong><font class='posOutcome'>You WON</font><p>You bet: 5</strong></font> &nbsp; &nbsp; &nbsp; &nbsp; &nbsp; &nbsp;<font class='posOutcome'>you receive: <strong>10</strong></font></div>","null","3","Plum Powerball","Fruit/plums1.png","Won","0.35,0.8","13","0.35","42","7","",""
"html-keyboard-response","31","91658","0.0-11.0-1.7","63d428eb946e85527cfdf058","bdp_rwlrn","Tue Mar 14 2023 18:11:57 GMT-0700 (Pacific Daylight Time)","334689","Trustworthy,Untrustworthy","","800","","","","decision","","<div class='trialDiv'><img src='Fruit/mixed-berries2.png'><br><font class='baseline'><strong>Berry Bla$t</strong><p>Choose number of points to bet.</font><div class='respPicDiv'><img src='img/responseButtonOffersNo0L.png' class='respPic'></div></div>","2","3","Berry Bla$t","Fruit/mixed-berries2.png","Lost","0.65,0.2","11","0.65","47","8","",""
"html-keyboard-response","32","91919","0.0-11.0-2.7","63d428eb946e85527cfdf058","bdp_rwlrn","Tue Mar 14 2023 18:11:57 GMT-0700 (Pacific Daylight Time)","334689","Trustworthy,Untrustworthy","","null","","","","decisionFB","","<div class='trialDiv'><img src='Fruit/mixed-berries2.png'><br><font class='baseline'><strong>Berry Bla$t</strong><p>Choose number of points to bet.</font><div class='respPicDiv'><img src='img/responseButtonOffersNo0L2.png' class='respPic'></div></div>","null","3","Berry Bla$t","Fruit/mixed-berries2.png","Lost","0.65,0.2","11","0.65","45","8","",""
"html-keyboard-response","33","92928","0.0-11.0-3.7","63d428eb946e85527cfdf058","bdp_rwlrn","Tue Mar 14 2023 18:11:57 GMT-0700 (Pacific Daylight Time)","334689","Trustworthy,Untrustworthy","","null","","","","feedback","","<div class='respPicDiv'><img src='img/responseButtonOffersNo0_wht.png' class='respPic'></div><div class='trialDiv'><img src='Fruit/mixed-berries2.png'><br><font class='baseline'><strong>Berry Bla$t</strong><p><strong><font class='negOutcome'>You LOST</font><p>You bet: 2</strong></font> &nbsp; &nbsp; &nbsp; &nbsp; &nbsp; &nbsp;<font class='negOutcome'>You receive: <strong>0</strong></font></div>","null","3","Berry Bla$t","Fruit/mixed-berries2.png","Lost","0.65,0.2","11","0.65","45","8","",""
"html-keyboard-response","34","93415","0.0-11.0-1.8","63d428eb946e85527cfdf058","bdp_rwlrn","Tue Mar 14 2023 18:11:57 GMT-0700 (Pacific Daylight Time)","334689","Trustworthy,Untrustworthy","","485","","","","decision","","<div class='trialDiv'><img src='Fruit/pears.png'><br><font class='baseline'><strong>Pears Aplenty</strong><p>Choose number of points to bet.</font><div class='respPicDiv'><img src='img/responseButtonOffersNo0L.png' class='respPic'></div></div>","3","3","Pears Aplenty","Fruit/pears.png","Lost","0.35,0.65","9","0.35","50","9","",""
"html-keyboard-response","35","93680","0.0-11.0-2.8","63d428eb946e85527cfdf058","bdp_rwlrn","Tue Mar 14 2023 18:11:57 GMT-0700 (Pacific Daylight Time)","334689","Trustworthy,Untrustworthy","","null","","","","decisionFB","","<div class='trialDiv'><img src='Fruit/pears.png'><br><font class='baseline'><strong>Pears Aplenty</strong><p>Choose number of points to bet.</font><div class='respPicDiv'><img src='img/responseButtonOffersNo0L3.png' class='respPic'></div></div>","null","3","Pears Aplenty","Fruit/pears.png","Lost","0.35,0.65","9","0.35","47","9","",""
"html-keyboard-response","36","94693","0.0-11.0-3.8","63d428eb946e85527cfdf058","bdp_rwlrn","Tue Mar 14 2023 18:11:57 GMT-0700 (Pacific Daylight Time)","334689","Trustworthy,Untrustworthy","","null","","","","feedback","","<div class='respPicDiv'><img src='img/responseButtonOffersNo0_wht.png' class='respPic'></div><div class='trialDiv'><img src='Fruit/pears.png'><br><font class='baseline'><strong>Pears Aplenty</strong><p><strong><font class='negOutcome'>You LOST</font><p>You bet: 3</strong></font> &nbsp; &nbsp; &nbsp; &nbsp; &nbsp; &nbsp;<font class='negOutcome'>You receive: <strong>0</strong></font></div>","null","3","Pears Aplenty","Fruit/pears.png","Lost","0.35,0.65","9","0.35","47","9","",""
"html-keyboard-response","37","96318","0.0-11.0-1.9","63d428eb946e85527cfdf058","bdp_rwlrn","Tue Mar 14 2023 18:11:57 GMT-0700 (Pacific Daylight Time)","334689","Trustworthy,Untrustworthy","","1623","","","","decision","","<div class='trialDiv'><img src='Fruit/plums1.png'><br><font class='baseline'><strong>Plum Powerball</strong><p>Choose number of points to bet.</font><div class='respPicDiv'><img src='img/responseButtonOffersNo0L.png' class='respPic'></div></div>","5","4","Plum Powerball","Fruit/plums1.png","Won","0.35,0.8","13","0.35","52","10","",""
"html-keyboard-response","38","96584","0.0-11.0-2.9","63d428eb946e85527cfdf058","bdp_rwlrn","Tue Mar 14 2023 18:11:57 GMT-0700 (Pacific Daylight Time)","334689","Trustworthy,Untrustworthy","","null","","","","decisionFB","","<div class='trialDiv'><img src='Fruit/plums1.png'><br><font class='baseline'><strong>Plum Powerball</strong><p>Choose number of points to bet.</font><div class='respPicDiv'><img src='img/responseButtonOffersNo0L5.png' class='respPic'></div></div>","null","4","Plum Powerball","Fruit/plums1.png","Won","0.35,0.8","13","0.35","47","10","",""
"html-keyboard-response","39","97596","0.0-11.0-3.9","63d428eb946e85527cfdf058","bdp_rwlrn","Tue Mar 14 2023 18:11:57 GMT-0700 (Pacific Daylight Time)","334689","Trustworthy,Untrustworthy","","null","","","","feedback","","<div class='respPicDiv'><img src='img/responseButtonOffersNo0_wht.png' class='respPic'></div><div class='trialDiv'><img src='Fruit/plums1.png'><br><font class='baseline'><strong>Plum Powerball</strong><p><strong><font class='posOutcome'>You WON</font><p>You bet: 5</strong></font> &nbsp; &nbsp; &nbsp; &nbsp; &nbsp; &nbsp;<font class='posOutcome'>you receive: <strong>10</strong></font></div>","null","4","Plum Powerball","Fruit/plums1.png","Won","0.35,0.8","13","0.35","57","10","",""
"html-keyboard-response","40","98450","0.0-11.0-1.10","63d428eb946e85527cfdf058","bdp_rwlrn","Tue Mar 14 2023 18:11:57 GMT-0700 (Pacific Daylight Time)","334689","Trustworthy,Untrustworthy","","852","","","","decision","","<div class='trialDiv'><img src='Fruit/pears.png'><br><font class='baseline'><strong>Pears Aplenty</strong><p>Choose number of points to bet.</font><div class='respPicDiv'><img src='img/responseButtonOffersNo0L.png' class='respPic'></div></div>","4","4","Pears Aplenty","Fruit/pears.png","Won","0.35,0.65","9","0.35","62","11","",""
"html-keyboard-response","41","98713","0.0-11.0-2.10","63d428eb946e85527cfdf058","bdp_rwlrn","Tue Mar 14 2023 18:11:57 GMT-0700 (Pacific Daylight Time)","334689","Trustworthy,Untrustworthy","","null","","","","decisionFB","","<div class='trialDiv'><img src='Fruit/pears.png'><br><font class='baseline'><strong>Pears Aplenty</strong><p>Choose number of points to bet.</font><div class='respPicDiv'><img src='img/responseButtonOffersNo0L4.png' class='respPic'></div></div>","null","4","Pears Aplenty","Fruit/pears.png","Won","0.35,0.65","9","0.35","58","11","",""
"html-keyboard-response","42","99729","0.0-11.0-3.10","63d428eb946e85527cfdf058","bdp_rwlrn","Tue Mar 14 2023 18:11:57 GMT-0700 (Pacific Daylight Time)","334689","Trustworthy,Untrustworthy","","null","","","","feedback","","<div class='respPicDiv'><img src='img/responseButtonOffersNo0_wht.png' class='respPic'></div><div class='trialDiv'><img src='Fruit/pears.png'><br><font class='baseline'><strong>Pears Aplenty</strong><p><strong><font class='posOutcome'>You WON</font><p>You bet: 4</strong></font> &nbsp; &nbsp; &nbsp; &nbsp; &nbsp; &nbsp;<font class='posOutcome'>you receive: <strong>8</strong></font></div>","null","4","Pears Aplenty","Fruit/pears.png","Won","0.35,0.65","9","0.35","66","11","",""
"html-keyboard-response","43","100297","0.0-11.0-1.11","63d428eb946e85527cfdf058","bdp_rwlrn","Tue Mar 14 2023 18:11:57 GMT-0700 (Pacific Daylight Time)","334689","Trustworthy,Untrustworthy","","567","","","","decision","","<div class='trialDiv'><img src='Fruit/mixed-berries2.png'><br><font class='baseline'><strong>Berry Bla$t</strong><p>Choose number of points to bet.</font><div class='respPicDiv'><img src='img/responseButtonOffersNo0L.png' class='respPic'></div></div>","2","4","Berry Bla$t","Fruit/mixed-berries2.png","Won","0.65,0.2","11","0.65","71","12","",""
"html-keyboard-response","44","100556","0.0-11.0-2.11","63d428eb946e85527cfdf058","bdp_rwlrn","Tue Mar 14 2023 18:11:57 GMT-0700 (Pacific Daylight Time)","334689","Trustworthy,Untrustworthy","","null","","","","decisionFB","","<div class='trialDiv'><img src='Fruit/mixed-berries2.png'><br><font class='baseline'><strong>Berry Bla$t</strong><p>Choose number of points to bet.</font><div class='respPicDiv'><img src='img/responseButtonOffersNo0L2.png' class='respPic'></div></div>","null","4","Berry Bla$t","Fruit/mixed-berries2.png","Won","0.65,0.2","11","0.65","69","12","",""
"html-keyboard-response","45","101567","0.0-11.0-3.11","63d428eb946e85527cfdf058","bdp_rwlrn","Tue Mar 14 2023 18:11:57 GMT-0700 (Pacific Daylight Time)","334689","Trustworthy,Untrustworthy","","null","","","","feedback","","<div class='respPicDiv'><img src='img/responseButtonOffersNo0_wht.png' class='respPic'></div><div class='trialDiv'><img src='Fruit/mixed-berries2.png'><br><font class='baseline'><strong>Berry Bla$t</strong><p><strong><font class='posOutcome'>You WON</font><p>You bet: 2</strong></font> &nbsp; &nbsp; &nbsp; &nbsp; &nbsp; &nbsp;<font class='posOutcome'>you receive: <strong>4</strong></font></div>","null","4","Berry Bla$t","Fruit/mixed-berries2.png","Won","0.65,0.2","11","0.65","73","12","",""
"html-keyboard-response","46","101910","0.0-11.0-1.12","63d428eb946e85527cfdf058","bdp_rwlrn","Tue Mar 14 2023 18:11:57 GMT-0700 (Pacific Daylight Time)","334689","Trustworthy,Untrustworthy","","342","","","","decision","","<div class='trialDiv'><img src='Fruit/pears.png'><br><font class='baseline'><strong>Pears Aplenty</strong><p>Choose number of points to bet.</font><div class='respPicDiv'><img src='img/responseButtonOffersNo0L.png' class='respPic'></div></div>","1","5","Pears Aplenty","Fruit/pears.png","Lost","0.35,0.65","9","0.35","78","13","",""
"html-keyboard-response","47","102175","0.0-11.0-2.12","63d428eb946e85527cfdf058","bdp_rwlrn","Tue Mar 14 2023 18:11:57 GMT-0700 (Pacific Daylight Time)","334689","Trustworthy,Untrustworthy","","null","","","","decisionFB","","<div class='trialDiv'><img src='Fruit/pears.png'><br><font class='baseline'><strong>Pears Aplenty</strong><p>Choose number of points to bet.</font><div class='respPicDiv'><img src='img/responseButtonOffersNo0L1.png' class='respPic'></div></div>","null","5","Pears Aplenty","Fruit/pears.png","Lost","0.35,0.65","9","0.35","77","13","",""
"html-keyboard-response","48","103187","0.0-11.0-3.12","63d428eb946e85527cfdf058","bdp_rwlrn","Tue Mar 14 2023 18:11:57 GMT-0700 (Pacific Daylight Time)","334689","Trustworthy,Untrustworthy","","null","","","","feedback","","<div class='respPicDiv'><img src='img/responseButtonOffersNo0_wht.png' class='respPic'></div><div class='trialDiv'><img src='Fruit/pears.png'><br><font class='baseline'><strong>Pears Aplenty</strong><p><strong><font class='negOutcome'>You LOST</font><p>You bet: 1</strong></font> &nbsp; &nbsp; &nbsp; &nbsp; &nbsp; &nbsp;<font class='negOutcome'>You receive: <strong>0</strong></font></div>","null","5","Pears Aplenty","Fruit/pears.png","Lost","0.35,0.65","9","0.35","77","13","",""
"html-keyboard-response","49","104269","0.0-11.0-1.13","63d428eb946e85527cfdf058","bdp_rwlrn","Tue Mar 14 2023 18:11:57 GMT-0700 (Pacific Daylight Time)","334689","Trustworthy,Untrustworthy","","1080","","","","decision","","<div class='trialDiv'><img src='Fruit/plums1.png'><br><font class='baseline'><strong>Plum Powerball</strong><p>Choose number of points to bet.</font><div class='respPicDiv'><img src='img/responseButtonOffersNo0L.png' class='respPic'></div></div>","4","5","Plum Powerball","Fruit/plums1.png","Won","0.35,0.8","13","0.35","82","14","",""
"html-keyboard-response","50","104527","0.0-11.0-2.13","63d428eb946e85527cfdf058","bdp_rwlrn","Tue Mar 14 2023 18:11:57 GMT-0700 (Pacific Daylight Time)","334689","Trustworthy,Untrustworthy","","null","","","","decisionFB","","<div class='trialDiv'><img src='Fruit/plums1.png'><br><font class='baseline'><strong>Plum Powerball</strong><p>Choose number of points to bet.</font><div class='respPicDiv'><img src='img/responseButtonOffersNo0L4.png' class='respPic'></div></div>","null","5","Plum Powerball","Fruit/plums1.png","Won","0.35,0.8","13","0.35","78","14","",""
"html-keyboard-response","51","105530","0.0-11.0-3.13","63d428eb946e85527cfdf058","bdp_rwlrn","Tue Mar 14 2023 18:11:57 GMT-0700 (Pacific Daylight Time)","334689","Trustworthy,Untrustworthy","","null","","","","feedback","","<div class='respPicDiv'><img src='img/responseButtonOffersNo0_wht.png' class='respPic'></div><div class='trialDiv'><img src='Fruit/plums1.png'><br><font class='baseline'><strong>Plum Powerball</strong><p><strong><font class='posOutcome'>You WON</font><p>You bet: 4</strong></font> &nbsp; &nbsp; &nbsp; &nbsp; &nbsp; &nbsp;<font class='posOutcome'>you receive: <strong>8</strong></font></div>","null","5","Plum Powerball","Fruit/plums1.png","Won","0.35,0.8","13","0.35","86","14","",""
"html-keyboard-response","52","105578","0.0-11.0-1.14","63d428eb946e85527cfdf058","bdp_rwlrn","Tue Mar 14 2023 18:11:57 GMT-0700 (Pacific Daylight Time)","334689","Trustworthy,Untrustworthy","","47","","","","decision","","<div class='trialDiv'><img src='Fruit/mixed-berries2.png'><br><font class='baseline'><strong>Berry Bla$t</strong><p>Choose number of points to bet.</font><div class='respPicDiv'><img src='img/responseButtonOffersNo0L.png' class='respPic'></div></div>","5","5","Berry Bla$t","Fruit/mixed-berries2.png","Lost","0.65,0.2","11","0.65","91","15","",""
"html-keyboard-response","53","105851","0.0-11.0-2.14","63d428eb946e85527cfdf058","bdp_rwlrn","Tue Mar 14 2023 18:11:57 GMT-0700 (Pacific Daylight Time)","334689","Trustworthy,Untrustworthy","","null","","","","decisionFB","","<div class='trialDiv'><img src='Fruit/mixed-berries2.png'><br><font class='baseline'><strong>Berry Bla$t</strong><p>Choose number of points to bet.</font><div class='respPicDiv'><img src='img/responseButtonOffersNo0L5.png' class='respPic'></div></div>","null","5","Berry Bla$t","Fruit/mixed-berries2.png","Lost","0.65,0.2","11","0.65","86","15","",""
"html-keyboard-response","54","106874","0.0-11.0-3.14","63d428eb946e85527cfdf058","bdp_rwlrn","Tue Mar 14 2023 18:11:57 GMT-0700 (Pacific Daylight Time)","334689","Trustworthy,Untrustworthy","","null","","","","feedback","","<div class='respPicDiv'><img src='img/responseButtonOffersNo0_wht.png' class='respPic'></div><div class='trialDiv'><img src='Fruit/mixed-berries2.png'><br><font class='baseline'><strong>Berry Bla$t</strong><p><strong><font class='negOutcome'>You LOST</font><p>You bet: 5</strong></font> &nbsp; &nbsp; &nbsp; &nbsp; &nbsp; &nbsp;<font class='negOutcome'>You receive: <strong>0</strong></font></div>","null","5","Berry Bla$t","Fruit/mixed-berries2.png","Lost","0.65,0.2","11","0.65","86","15","",""
"html-keyboard-response","55","106937","0.0-11.0-1.15","63d428eb946e85527cfdf058","bdp_rwlrn","Tue Mar 14 2023 18:11:57 GMT-0700 (Pacific Daylight Time)","334689","Trustworthy,Untrustworthy","","62","","","","decision","","<div class='trialDiv'><img src='Fruit/plums1.png'><br><font class='baseline'><strong>Plum Powerball</strong><p>Choose number of points to bet.</font><div class='respPicDiv'><img src='img/responseButtonOffersNo0L.png' class='respPic'></div></div>","4","6","Plum Powerball","Fruit/plums1.png","Lost","0.35,0.8","13","0.35","91","16","",""
"html-keyboard-response","56","107202","0.0-11.0-2.15","63d428eb946e85527cfdf058","bdp_rwlrn","Tue Mar 14 2023 18:11:57 GMT-0700 (Pacific Daylight Time)","334689","Trustworthy,Untrustworthy","","null","","","","decisionFB","","<div class='trialDiv'><img src='Fruit/plums1.png'><br><font class='baseline'><strong>Plum Powerball</strong><p>Choose number of points to bet.</font><div class='respPicDiv'><img src='img/responseButtonOffersNo0L4.png' class='respPic'></div></div>","null","6","Plum Powerball","Fruit/plums1.png","Lost","0.35,0.8","13","0.35","87","16","",""
"html-keyboard-response","57","108216","0.0-11.0-3.15","63d428eb946e85527cfdf058","bdp_rwlrn","Tue Mar 14 2023 18:11:57 GMT-0700 (Pacific Daylight Time)","334689","Trustworthy,Untrustworthy","","null","","","","feedback","","<div class='respPicDiv'><img src='img/responseButtonOffersNo0_wht.png' class='respPic'></div><div class='trialDiv'><img src='Fruit/plums1.png'><br><font class='baseline'><strong>Plum Powerball</strong><p><strong><font class='negOutcome'>You LOST</font><p>You bet: 4</strong></font> &nbsp; &nbsp; &nbsp; &nbsp; &nbsp; &nbsp;<font class='negOutcome'>You receive: <strong>0</strong></font></div>","null","6","Plum Powerball","Fruit/plums1.png","Lost","0.35,0.8","13","0.35","87","16","",""
"html-keyboard-response","58","109725","0.0-11.0-1.16","63d428eb946e85527cfdf058","bdp_rwlrn","Tue Mar 14 2023 18:11:57 GMT-0700 (Pacific Daylight Time)","334689","Trustworthy,Untrustworthy","","1508","","","","decision","","<div class='trialDiv'><img src='Fruit/mixed-berries2.png'><br><font class='baseline'><strong>Berry Bla$t</strong><p>Choose number of points to bet.</font><div class='respPicDiv'><img src='img/responseButtonOffersNo0L.png' class='respPic'></div></div>","5","6","Berry Bla$t","Fruit/mixed-berries2.png","Lost","0.65,0.2","11","0.65","92","17","",""
"html-keyboard-response","59","109990","0.0-11.0-2.16","63d428eb946e85527cfdf058","bdp_rwlrn","Tue Mar 14 2023 18:11:57 GMT-0700 (Pacific Daylight Time)","334689","Trustworthy,Untrustworthy","","null","","","","decisionFB","","<div class='trialDiv'><img src='Fruit/mixed-berries2.png'><br><font class='baseline'><strong>Berry Bla$t</strong><p>Choose number of points to bet.</font><div class='respPicDiv'><img src='img/responseButtonOffersNo0L5.png' class='respPic'></div></div>","null","6","Berry Bla$t","Fruit/mixed-berries2.png","Lost","0.65,0.2","11","0.65","87","17","",""
"html-keyboard-response","60","111006","0.0-11.0-3.16","63d428eb946e85527cfdf058","bdp_rwlrn","Tue Mar 14 2023 18:11:57 GMT-0700 (Pacific Daylight Time)","334689","Trustworthy,Untrustworthy","","null","","","","feedback","","<div class='respPicDiv'><img src='img/responseButtonOffersNo0_wht.png' class='respPic'></div><div class='trialDiv'><img src='Fruit/mixed-berries2.png'><br><font class='baseline'><strong>Berry Bla$t</strong><p><strong><font class='negOutcome'>You LOST</font><p>You bet: 5</strong></font> &nbsp; &nbsp; &nbsp; &nbsp; &nbsp; &nbsp;<font class='negOutcome'>You receive: <strong>0</strong></font></div>","null","6","Berry Bla$t","Fruit/mixed-berries2.png","Lost","0.65,0.2","11","0.65","87","17","",""
"html-keyboard-response","61","111024","0.0-11.0-1.17","63d428eb946e85527cfdf058","bdp_rwlrn","Tue Mar 14 2023 18:11:57 GMT-0700 (Pacific Daylight Time)","334689","Trustworthy,Untrustworthy","","17","","","","decision","","<div class='trialDiv'><img src='Fruit/pears.png'><br><font class='baseline'><strong>Pears Aplenty</strong><p>Choose number of points to bet.</font><div class='respPicDiv'><img src='img/responseButtonOffersNo0L.png' class='respPic'></div></div>","5","6","Pears Aplenty","Fruit/pears.png","Lost","0.35,0.65","9","0.35","92","18","",""
"html-keyboard-response","62","111288","0.0-11.0-2.17","63d428eb946e85527cfdf058","bdp_rwlrn","Tue Mar 14 2023 18:11:57 GMT-0700 (Pacific Daylight Time)","334689","Trustworthy,Untrustworthy","","null","","","","decisionFB","","<div class='trialDiv'><img src='Fruit/pears.png'><br><font class='baseline'><strong>Pears Aplenty</strong><p>Choose number of points to bet.</font><div class='respPicDiv'><img src='img/responseButtonOffersNo0L5.png' class='respPic'></div></div>","null","6","Pears Aplenty","Fruit/pears.png","Lost","0.35,0.65","9","0.35","87","18","",""
"html-keyboard-response","63","112301","0.0-11.0-3.17","63d428eb946e85527cfdf058","bdp_rwlrn","Tue Mar 14 2023 18:11:57 GMT-0700 (Pacific Daylight Time)","334689","Trustworthy,Untrustworthy","","null","","","","feedback","","<div class='respPicDiv'><img src='img/responseButtonOffersNo0_wht.png' class='respPic'></div><div class='trialDiv'><img src='Fruit/pears.png'><br><font class='baseline'><strong>Pears Aplenty</strong><p><strong><font class='negOutcome'>You LOST</font><p>You bet: 5</strong></font> &nbsp; &nbsp; &nbsp; &nbsp; &nbsp; &nbsp;<font class='negOutcome'>You receive: <strong>0</strong></font></div>","null","6","Pears Aplenty","Fruit/pears.png","Lost","0.35,0.65","9","0.35","87","18","",""
"html-keyboard-response","64","112664","0.0-11.0-1.18","63d428eb946e85527cfdf058","bdp_rwlrn","Tue Mar 14 2023 18:11:57 GMT-0700 (Pacific Daylight Time)","334689","Trustworthy,Untrustworthy","","361","","","","decision","","<div class='trialDiv'><img src='Fruit/plums1.png'><br><font class='baseline'><strong>Plum Powerball</strong><p>Choose number of points to bet.</font><div class='respPicDiv'><img src='img/responseButtonOffersNo0L.png' class='respPic'></div></div>","3","7","Plum Powerball","Fruit/plums1.png","Won","0.35,0.8","13","0.35","92","19","",""
"html-keyboard-response","65","112926","0.0-11.0-2.18","63d428eb946e85527cfdf058","bdp_rwlrn","Tue Mar 14 2023 18:11:57 GMT-0700 (Pacific Daylight Time)","334689","Trustworthy,Untrustworthy","","null","","","","decisionFB","","<div class='trialDiv'><img src='Fruit/plums1.png'><br><font class='baseline'><strong>Plum Powerball</strong><p>Choose number of points to bet.</font><div class='respPicDiv'><img src='img/responseButtonOffersNo0L3.png' class='respPic'></div></div>","null","7","Plum Powerball","Fruit/plums1.png","Won","0.35,0.8","13","0.35","89","19","",""
"html-keyboard-response","66","113936","0.0-11.0-3.18","63d428eb946e85527cfdf058","bdp_rwlrn","Tue Mar 14 2023 18:11:57 GMT-0700 (Pacific Daylight Time)","334689","Trustworthy,Untrustworthy","","null","","","","feedback","","<div class='respPicDiv'><img src='img/responseButtonOffersNo0_wht.png' class='respPic'></div><div class='trialDiv'><img src='Fruit/plums1.png'><br><font class='baseline'><strong>Plum Powerball</strong><p><strong><font class='posOutcome'>You WON</font><p>You bet: 3</strong></font> &nbsp; &nbsp; &nbsp; &nbsp; &nbsp; &nbsp;<font class='posOutcome'>you receive: <strong>6</strong></font></div>","null","7","Plum Powerball","Fruit/plums1.png","Won","0.35,0.8","13","0.35","95","19","",""
"html-keyboard-response","67","114346","0.0-11.0-1.19","63d428eb946e85527cfdf058","bdp_rwlrn","Tue Mar 14 2023 18:11:57 GMT-0700 (Pacific Daylight Time)","334689","Trustworthy,Untrustworthy","","407","","","","decision","","<div class='trialDiv'><img src='Fruit/pears.png'><br><font class='baseline'><strong>Pears Aplenty</strong><p>Choose number of points to bet.</font><div class='respPicDiv'><img src='img/responseButtonOffersNo0L.png' class='respPic'></div></div>","4","7","Pears Aplenty","Fruit/pears.png","Lost","0.35,0.65","9","0.35","100","20","",""
"html-keyboard-response","68","114606","0.0-11.0-2.19","63d428eb946e85527cfdf058","bdp_rwlrn","Tue Mar 14 2023 18:11:57 GMT-0700 (Pacific Daylight Time)","334689","Trustworthy,Untrustworthy","","null","","","","decisionFB","","<div class='trialDiv'><img src='Fruit/pears.png'><br><font class='baseline'><strong>Pears Aplenty</strong><p>Choose number of points to bet.</font><div class='respPicDiv'><img src='img/responseButtonOffersNo0L4.png' class='respPic'></div></div>","null","7","Pears Aplenty","Fruit/pears.png","Lost","0.35,0.65","9","0.35","96","20","",""
"html-keyboard-response","69","115617","0.0-11.0-3.19","63d428eb946e85527cfdf058","bdp_rwlrn","Tue Mar 14 2023 18:11:57 GMT-0700 (Pacific Daylight Time)","334689","Trustworthy,Untrustworthy","","null","","","","feedback","","<div class='respPicDiv'><img src='img/responseButtonOffersNo0_wht.png' class='respPic'></div><div class='trialDiv'><img src='Fruit/pears.png'><br><font class='baseline'><strong>Pears Aplenty</strong><p><strong><font class='negOutcome'>You LOST</font><p>You bet: 4</strong></font> &nbsp; &nbsp; &nbsp; &nbsp; &nbsp; &nbsp;<font class='negOutcome'>You receive: <strong>0</strong></font></div>","null","7","Pears Aplenty","Fruit/pears.png","Lost","0.35,0.65","9","0.35","96","20","",""
"html-keyboard-response","70","116484","0.0-11.0-1.20","63d428eb946e85527cfdf058","bdp_rwlrn","Tue Mar 14 2023 18:11:57 GMT-0700 (Pacific Daylight Time)","334689","Trustworthy,Untrustworthy","","865","","","","decision","","<div class='trialDiv'><img src='Fruit/mixed-berries2.png'><br><font class='baseline'><strong>Berry Bla$t</strong><p>Choose number of points to bet.</font><div class='respPicDiv'><img src='img/responseButtonOffersNo0L.png' class='respPic'></div></div>","2","7","Berry Bla$t","Fruit/mixed-berries2.png","Won","0.65,0.2","11","0.65","101","21","",""
"html-keyboard-response","71","116748","0.0-11.0-2.20","63d428eb946e85527cfdf058","bdp_rwlrn","Tue Mar 14 2023 18:11:57 GMT-0700 (Pacific Daylight Time)","334689","Trustworthy,Untrustworthy","","null","","","","decisionFB","","<div class='trialDiv'><img src='Fruit/mixed-berries2.png'><br><font class='baseline'><strong>Berry Bla$t</strong><p>Choose number of points to bet.</font><div class='respPicDiv'><img src='img/responseButtonOffersNo0L2.png' class='respPic'></div></div>","null","7","Berry Bla$t","Fruit/mixed-berries2.png","Won","0.65,0.2","11","0.65","99","21","",""
"html-keyboard-response","72","117750","0.0-11.0-3.20","63d428eb946e85527cfdf058","bdp_rwlrn","Tue Mar 14 2023 18:11:57 GMT-0700 (Pacific Daylight Time)","334689","Trustworthy,Untrustworthy","","null","","","","feedback","","<div class='respPicDiv'><img src='img/responseButtonOffersNo0_wht.png' class='respPic'></div><div class='trialDiv'><img src='Fruit/mixed-berries2.png'><br><font class='baseline'><strong>Berry Bla$t</strong><p><strong><font class='posOutcome'>You WON</font><p>You bet: 2</strong></font> &nbsp; &nbsp; &nbsp; &nbsp; &nbsp; &nbsp;<font class='posOutcome'>you receive: <strong>4</strong></font></div>","null","7","Berry Bla$t","Fruit/mixed-berries2.png","Won","0.65,0.2","11","0.65","103","21","",""
"html-keyboard-response","73","118110","0.0-11.0-1.21","63d428eb946e85527cfdf058","bdp_rwlrn","Tue Mar 14 2023 18:11:57 GMT-0700 (Pacific Daylight Time)","334689","Trustworthy,Untrustworthy","","358","","","","decision","","<div class='trialDiv'><img src='Fruit/plums1.png'><br><font class='baseline'><strong>Plum Powerball</strong><p>Choose number of points to bet.</font><div class='respPicDiv'><img src='img/responseButtonOffersNo0L.png' class='respPic'></div></div>","3","8","Plum Powerball","Fruit/plums1.png","Won","0.35,0.8","13","0.35","108","22","",""
"html-keyboard-response","74","118373","0.0-11.0-2.21","63d428eb946e85527cfdf058","bdp_rwlrn","Tue Mar 14 2023 18:11:57 GMT-0700 (Pacific Daylight Time)","334689","Trustworthy,Untrustworthy","","null","","","","decisionFB","","<div class='trialDiv'><img src='Fruit/plums1.png'><br><font class='baseline'><strong>Plum Powerball</strong><p>Choose number of points to bet.</font><div class='respPicDiv'><img src='img/responseButtonOffersNo0L3.png' class='respPic'></div></div>","null","8","Plum Powerball","Fruit/plums1.png","Won","0.35,0.8","13","0.35","105","22","",""
"html-keyboard-response","75","119388","0.0-11.0-3.21","63d428eb946e85527cfdf058","bdp_rwlrn","Tue Mar 14 2023 18:11:57 GMT-0700 (Pacific Daylight Time)","334689","Trustworthy,Untrustworthy","","null","","","","feedback","","<div class='respPicDiv'><img src='img/responseButtonOffersNo0_wht.png' class='respPic'></div><div class='trialDiv'><img src='Fruit/plums1.png'><br><font class='baseline'><strong>Plum Powerball</strong><p><strong><font class='posOutcome'>You WON</font><p>You bet: 3</strong></font> &nbsp; &nbsp; &nbsp; &nbsp; &nbsp; &nbsp;<font class='posOutcome'>you receive: <strong>6</strong></font></div>","null","8","Plum Powerball","Fruit/plums1.png","Won","0.35,0.8","13","0.35","111","22","",""
"html-keyboard-response","76","119562","0.0-11.0-1.22","63d428eb946e85527cfdf058","bdp_rwlrn","Tue Mar 14 2023 18:11:57 GMT-0700 (Pacific Daylight Time)","334689","Trustworthy,Untrustworthy","","173","","","","decision","","<div class='trialDiv'><img src='Fruit/mixed-berries2.png'><br><font class='baseline'><strong>Berry Bla$t</strong><p>Choose number of points to bet.</font><div class='respPicDiv'><img src='img/responseButtonOffersNo0L.png' class='respPic'></div></div>","4","8","Berry Bla$t","Fruit/mixed-berries2.png","Won","0.65,0.2","11","0.65","116","23","",""
"html-keyboard-response","77","119827","0.0-11.0-2.22","63d428eb946e85527cfdf058","bdp_rwlrn","Tue Mar 14 2023 18:11:57 GMT-0700 (Pacific Daylight Time)","334689","Trustworthy,Untrustworthy","","null","","","","decisionFB","","<div class='trialDiv'><img src='Fruit/mixed-berries2.png'><br><font class='baseline'><strong>Berry Bla$t</strong><p>Choose number of points to bet.</font><div class='respPicDiv'><img src='img/responseButtonOffersNo0L4.png' class='respPic'></div></div>","null","8","Berry Bla$t","Fruit/mixed-berries2.png","Won","0.65,0.2","11","0.65","112","23","",""
"html-keyboard-response","78","120837","0.0-11.0-3.22","63d428eb946e85527cfdf058","bdp_rwlrn","Tue Mar 14 2023 18:11:57 GMT-0700 (Pacific Daylight Time)","334689","Trustworthy,Untrustworthy","","null","","","","feedback","","<div class='respPicDiv'><img src='img/responseButtonOffersNo0_wht.png' class='respPic'></div><div class='trialDiv'><img src='Fruit/mixed-berries2.png'><br><font class='baseline'><strong>Berry Bla$t</strong><p><strong><font class='posOutcome'>You WON</font><p>You bet: 4</strong></font> &nbsp; &nbsp; &nbsp; &nbsp; &nbsp; &nbsp;<font class='posOutcome'>you receive: <strong>8</strong></font></div>","null","8","Berry Bla$t","Fruit/mixed-berries2.png","Won","0.65,0.2","11","0.65","120","23","",""
"html-keyboard-response","79","122369","0.0-11.0-1.23","63d428eb946e85527cfdf058","bdp_rwlrn","Tue Mar 14 2023 18:11:57 GMT-0700 (Pacific Daylight Time)","334689","Trustworthy,Untrustworthy","","1530","","","","decision","","<div class='trialDiv'><img src='Fruit/pears.png'><br><font class='baseline'><strong>Pears Aplenty</strong><p>Choose number of points to bet.</font><div class='respPicDiv'><img src='img/responseButtonOffersNo0L.png' class='respPic'></div></div>","5","8","Pears Aplenty","Fruit/pears.png","Won","0.35,0.65","9","0.35","125","24","",""
"html-keyboard-response","80","122633","0.0-11.0-2.23","63d428eb946e85527cfdf058","bdp_rwlrn","Tue Mar 14 2023 18:11:57 GMT-0700 (Pacific Daylight Time)","334689","Trustworthy,Untrustworthy","","null","","","","decisionFB","","<div class='trialDiv'><img src='Fruit/pears.png'><br><font class='baseline'><strong>Pears Aplenty</strong><p>Choose number of points to bet.</font><div class='respPicDiv'><img src='img/responseButtonOffersNo0L5.png' class='respPic'></div></div>","null","8","Pears Aplenty","Fruit/pears.png","Won","0.35,0.65","9","0.35","120","24","",""
"html-keyboard-response","81","123643","0.0-11.0-3.23","63d428eb946e85527cfdf058","bdp_rwlrn","Tue Mar 14 2023 18:11:57 GMT-0700 (Pacific Daylight Time)","334689","Trustworthy,Untrustworthy","","null","","","","feedback","","<div class='respPicDiv'><img src='img/responseButtonOffersNo0_wht.png' class='respPic'></div><div class='trialDiv'><img src='Fruit/pears.png'><br><font class='baseline'><strong>Pears Aplenty</strong><p><strong><font class='posOutcome'>You WON</font><p>You bet: 5</strong></font> &nbsp; &nbsp; &nbsp; &nbsp; &nbsp; &nbsp;<font class='posOutcome'>you receive: <strong>10</strong></font></div>","null","8","Pears Aplenty","Fruit/pears.png","Won","0.35,0.65","9","0.35","130","24","",""
"html-keyboard-response","82","124380","0.0-11.0-1.24","63d428eb946e85527cfdf058","bdp_rwlrn","Tue Mar 14 2023 18:11:57 GMT-0700 (Pacific Daylight Time)","334689","Trustworthy,Untrustworthy","","736","","","","decision","","<div class='trialDiv'><img src='Fruit/plums1.png'><br><font class='baseline'><strong>Plum Powerball</strong><p>Choose number of points to bet.</font><div class='respPicDiv'><img src='img/responseButtonOffersNo0L.png' class='respPic'></div></div>","1","9","Plum Powerball","Fruit/plums1.png","Lost","0.35,0.8","13","0.35","135","25","",""
"html-keyboard-response","83","124644","0.0-11.0-2.24","63d428eb946e85527cfdf058","bdp_rwlrn","Tue Mar 14 2023 18:11:57 GMT-0700 (Pacific Daylight Time)","334689","Trustworthy,Untrustworthy","","null","","","","decisionFB","","<div class='trialDiv'><img src='Fruit/plums1.png'><br><font class='baseline'><strong>Plum Powerball</strong><p>Choose number of points to bet.</font><div class='respPicDiv'><img src='img/responseButtonOffersNo0L1.png' class='respPic'></div></div>","null","9","Plum Powerball","Fruit/plums1.png","Lost","0.35,0.8","13","0.35","134","25","",""
"html-keyboard-response","84","125656","0.0-11.0-3.24","63d428eb946e85527cfdf058","bdp_rwlrn","Tue Mar 14 2023 18:11:57 GMT-0700 (Pacific Daylight Time)","334689","Trustworthy,Untrustworthy","","null","","","","feedback","","<div class='respPicDiv'><img src='img/responseButtonOffersNo0_wht.png' class='respPic'></div><div class='trialDiv'><img src='Fruit/plums1.png'><br><font class='baseline'><strong>Plum Powerball</strong><p><strong><font class='negOutcome'>You LOST</font><p>You bet: 1</strong></font> &nbsp; &nbsp; &nbsp; &nbsp; &nbsp; &nbsp;<font class='negOutcome'>You receive: <strong>0</strong></font></div>","null","9","Plum Powerball","Fruit/plums1.png","Lost","0.35,0.8","13","0.35","134","25","",""
"html-keyboard-response","85","125830","0.0-11.0-1.25","63d428eb946e85527cfdf058","bdp_rwlrn","Tue Mar 14 2023 18:11:57 GMT-0700 (Pacific Daylight Time)","334689","Trustworthy,Untrustworthy","","172","","","","decision","","<div class='trialDiv'><img src='Fruit/pears.png'><br><font class='baseline'><strong>Pears Aplenty</strong><p>Choose number of points to bet.</font><div class='respPicDiv'><img src='img/responseButtonOffersNo0L.png' class='respPic'></div></div>","3","9","Pears Aplenty","Fruit/pears.png","Won","0.35,0.65","9","0.35","139","26","",""
"html-keyboard-response","86","126094","0.0-11.0-2.25","63d428eb946e85527cfdf058","bdp_rwlrn","Tue Mar 14 2023 18:11:57 GMT-0700 (Pacific Daylight Time)","334689","Trustworthy,Untrustworthy","","null","","","","decisionFB","","<div class='trialDiv'><img src='Fruit/pears.png'><br><font class='baseline'><strong>Pears Aplenty</strong><p>Choose number of points to bet.</font><div class='respPicDiv'><img src='img/responseButtonOffersNo0L3.png' class='respPic'></div></div>","null","9","Pears Aplenty","Fruit/pears.png","Won","0.35,0.65","9","0.35","136","26","",""
"html-keyboard-response","87","127108","0.0-11.0-3.25","63d428eb946e85527cfdf058","bdp_rwlrn","Tue Mar 14 2023 18:11:57 GMT-0700 (Pacific Daylight Time)","334689","Trustworthy,Untrustworthy","","null","","","","feedback","","<div class='respPicDiv'><img src='img/responseButtonOffersNo0_wht.png' class='respPic'></div><div class='trialDiv'><img src='Fruit/pears.png'><br><font class='baseline'><strong>Pears Aplenty</strong><p><strong><font class='posOutcome'>You WON</font><p>You bet: 3</strong></font> &nbsp; &nbsp; &nbsp; &nbsp; &nbsp; &nbsp;<font class='posOutcome'>you receive: <strong>6</strong></font></div>","null","9","Pears Aplenty","Fruit/pears.png","Won","0.35,0.65","9","0.35","142","26","",""
"html-keyboard-response","88","127389","0.0-11.0-1.26","63d428eb946e85527cfdf058","bdp_rwlrn","Tue Mar 14 2023 18:11:57 GMT-0700 (Pacific Daylight Time)","334689","Trustworthy,Untrustworthy","","280","","","","decision","","<div class='trialDiv'><img src='Fruit/mixed-berries2.png'><br><font class='baseline'><strong>Berry Bla$t</strong><p>Choose number of points to bet.</font><div class='respPicDiv'><img src='img/responseButtonOffersNo0L.png' class='respPic'></div></div>","2","9","Berry Bla$t","Fruit/mixed-berries2.png","Won","0.65,0.2","11","0.65","147","27","",""
"html-keyboard-response","89","127653","0.0-11.0-2.26","63d428eb946e85527cfdf058","bdp_rwlrn","Tue Mar 14 2023 18:11:57 GMT-0700 (Pacific Daylight Time)","334689","Trustworthy,Untrustworthy","","null","","","","decisionFB","","<div class='trialDiv'><img src='Fruit/mixed-berries2.png'><br><font class='baseline'><strong>Berry Bla$t</strong><p>Choose number of points to bet.</font><div class='respPicDiv'><img src='img/responseButtonOffersNo0L2.png' class='respPic'></div></div>","null","9","Berry Bla$t","Fruit/mixed-berries2.png","Won","0.65,0.2","11","0.65","145","27","",""
"html-keyboard-response","90","128662","0.0-11.0-3.26","63d428eb946e85527cfdf058","bdp_rwlrn","Tue Mar 14 2023 18:11:57 GMT-0700 (Pacific Daylight Time)","334689","Trustworthy,Untrustworthy","","null","","","","feedback","","<div class='respPicDiv'><img src='img/responseButtonOffersNo0_wht.png' class='respPic'></div><div class='trialDiv'><img src='Fruit/mixed-berries2.png'><br><font class='baseline'><strong>Berry Bla$t</strong><p><strong><font class='posOutcome'>You WON</font><p>You bet: 2</strong></font> &nbsp; &nbsp; &nbsp; &nbsp; &nbsp; &nbsp;<font class='posOutcome'>you receive: <strong>4</strong></font></div>","null","9","Berry Bla$t","Fruit/mixed-berries2.png","Won","0.65,0.2","11","0.65","149","27","",""
"html-keyboard-response","91","128726","0.0-11.0-1.27","63d428eb946e85527cfdf058","bdp_rwlrn","Tue Mar 14 2023 18:11:57 GMT-0700 (Pacific Daylight Time)","334689","Trustworthy,Untrustworthy","","62","","","","decision","","<div class='trialDiv'><img src='Fruit/plums1.png'><br><font class='baseline'><strong>Plum Powerball</strong><p>Choose number of points to bet.</font><div class='respPicDiv'><img src='img/responseButtonOffersNo0L.png' class='respPic'></div></div>","4","10","Plum Powerball","Fruit/plums1.png","Lost","0.35,0.8","13","0.35","154","28","",""
"html-keyboard-response","92","128990","0.0-11.0-2.27","63d428eb946e85527cfdf058","bdp_rwlrn","Tue Mar 14 2023 18:11:57 GMT-0700 (Pacific Daylight Time)","334689","Trustworthy,Untrustworthy","","null","","","","decisionFB","","<div class='trialDiv'><img src='Fruit/plums1.png'><br><font class='baseline'><strong>Plum Powerball</strong><p>Choose number of points to bet.</font><div class='respPicDiv'><img src='img/responseButtonOffersNo0L4.png' class='respPic'></div></div>","null","10","Plum Powerball","Fruit/plums1.png","Lost","0.35,0.8","13","0.35","150","28","",""
"html-keyboard-response","93","130000","0.0-11.0-3.27","63d428eb946e85527cfdf058","bdp_rwlrn","Tue Mar 14 2023 18:11:57 GMT-0700 (Pacific Daylight Time)","334689","Trustworthy,Untrustworthy","","null","","","","feedback","","<div class='respPicDiv'><img src='img/responseButtonOffersNo0_wht.png' class='respPic'></div><div class='trialDiv'><img src='Fruit/plums1.png'><br><font class='baseline'><strong>Plum Powerball</strong><p><strong><font class='negOutcome'>You LOST</font><p>You bet: 4</strong></font> &nbsp; &nbsp; &nbsp; &nbsp; &nbsp; &nbsp;<font class='negOutcome'>You receive: <strong>0</strong></font></div>","null","10","Plum Powerball","Fruit/plums1.png","Lost","0.35,0.8","13","0.35","150","28","",""
"html-keyboard-response","94","130062","0.0-11.0-1.28","63d428eb946e85527cfdf058","bdp_rwlrn","Tue Mar 14 2023 18:11:57 GMT-0700 (Pacific Daylight Time)","334689","Trustworthy,Untrustworthy","","61","","","","decision","","<div class='trialDiv'><img src='Fruit/mixed-berries2.png'><br><font class='baseline'><strong>Berry Bla$t</strong><p>Choose number of points to bet.</font><div class='respPicDiv'><img src='img/responseButtonOffersNo0L.png' class='respPic'></div></div>","3","10","Berry Bla$t","Fruit/mixed-berries2.png","Lost","0.65,0.2","11","0.65","155","29","",""
"html-keyboard-response","95","130326","0.0-11.0-2.28","63d428eb946e85527cfdf058","bdp_rwlrn","Tue Mar 14 2023 18:11:57 GMT-0700 (Pacific Daylight Time)","334689","Trustworthy,Untrustworthy","","null","","","","decisionFB","","<div class='trialDiv'><img src='Fruit/mixed-berries2.png'><br><font class='baseline'><strong>Berry Bla$t</strong><p>Choose number of points to bet.</font><div class='respPicDiv'><img src='img/responseButtonOffersNo0L3.png' class='respPic'></div></div>","null","10","Berry Bla$t","Fruit/mixed-berries2.png","Lost","0.65,0.2","11","0.65","152","29","",""
"html-keyboard-response","96","131339","0.0-11.0-3.28","63d428eb946e85527cfdf058","bdp_rwlrn","Tue Mar 14 2023 18:11:57 GMT-0700 (Pacific Daylight Time)","334689","Trustworthy,Untrustworthy","","null","","","","feedback","","<div class='respPicDiv'><img src='img/responseButtonOffersNo0_wht.png' class='respPic'></div><div class='trialDiv'><img src='Fruit/mixed-berries2.png'><br><font class='baseline'><strong>Berry Bla$t</strong><p><strong><font class='negOutcome'>You LOST</font><p>You bet: 3</strong></font> &nbsp; &nbsp; &nbsp; &nbsp; &nbsp; &nbsp;<font class='negOutcome'>You receive: <strong>0</strong></font></div>","null","10","Berry Bla$t","Fruit/mixed-berries2.png","Lost","0.65,0.2","11","0.65","152","29","",""
"html-keyboard-response","97","132772","0.0-11.0-1.29","63d428eb946e85527cfdf058","bdp_rwlrn","Tue Mar 14 2023 18:11:57 GMT-0700 (Pacific Daylight Time)","334689","Trustworthy,Untrustworthy","","1431","","","","decision","","<div class='trialDiv'><img src='Fruit/pears.png'><br><font class='baseline'><strong>Pears Aplenty</strong><p>Choose number of points to bet.</font><div class='respPicDiv'><img src='img/responseButtonOffersNo0L.png' class='respPic'></div></div>","5","10","Pears Aplenty","Fruit/pears.png","Won","0.35,0.65","9","0.35","157","30","",""
"html-keyboard-response","98","133035","0.0-11.0-2.29","63d428eb946e85527cfdf058","bdp_rwlrn","Tue Mar 14 2023 18:11:57 GMT-0700 (Pacific Daylight Time)","334689","Trustworthy,Untrustworthy","","null","","","","decisionFB","","<div class='trialDiv'><img src='Fruit/pears.png'><br><font class='baseline'><strong>Pears Aplenty</strong><p>Choose number of points to bet.</font><div class='respPicDiv'><img src='img/responseButtonOffersNo0L5.png' class='respPic'></div></div>","null","10","Pears Aplenty","Fruit/pears.png","Won","0.35,0.65","9","0.35","152","30","",""
"html-keyboard-response","99","134046","0.0-11.0-3.29","63d428eb946e85527cfdf058","bdp_rwlrn","Tue Mar 14 2023 18:11:57 GMT-0700 (Pacific Daylight Time)","334689","Trustworthy,Untrustworthy","","null","","","","feedback","","<div class='respPicDiv'><img src='img/responseButtonOffersNo0_wht.png' class='respPic'></div><div class='trialDiv'><img src='Fruit/pears.png'><br><font class='baseline'><strong>Pears Aplenty</strong><p><strong><font class='posOutcome'>You WON</font><p>You bet: 5</strong></font> &nbsp; &nbsp; &nbsp; &nbsp; &nbsp; &nbsp;<font class='posOutcome'>you receive: <strong>10</strong></font></div>","null","10","Pears Aplenty","Fruit/pears.png","Won","0.35,0.65","9","0.35","162","30","",""
"html-keyboard-response","100","134672","0.0-11.0-1.30","63d428eb946e85527cfdf058","bdp_rwlrn","Tue Mar 14 2023 18:11:57 GMT-0700 (Pacific Daylight Time)","334689","Trustworthy,Untrustworthy","","625","","","","decision","","<div class='trialDiv'><img src='Fruit/mixed-berries2.png'><br><font class='baseline'><strong>Berry Bla$t</strong><p>Choose number of points to bet.</font><div class='respPicDiv'><img src='img/responseButtonOffersNo0L.png' class='respPic'></div></div>","4","11","Berry Bla$t","Fruit/mixed-berries2.png","Lost","0.65,0.2","11","0.65","167","31","",""
"html-keyboard-response","101","134936","0.0-11.0-2.30","63d428eb946e85527cfdf058","bdp_rwlrn","Tue Mar 14 2023 18:11:57 GMT-0700 (Pacific Daylight Time)","334689","Trustworthy,Untrustworthy","","null","","","","decisionFB","","<div class='trialDiv'><img src='Fruit/mixed-berries2.png'><br><font class='baseline'><strong>Berry Bla$t</strong><p>Choose number of points to bet.</font><div class='respPicDiv'><img src='img/responseButtonOffersNo0L4.png' class='respPic'></div></div>","null","11","Berry Bla$t","Fruit/mixed-berries2.png","Lost","0.65,0.2","11","0.65","163","31","",""
"html-keyboard-response","102","135949","0.0-11.0-3.30","63d428eb946e85527cfdf058","bdp_rwlrn","Tue Mar 14 2023 18:11:57 GMT-0700 (Pacific Daylight Time)","334689","Trustworthy,Untrustworthy","","null","","","","feedback","","<div class='respPicDiv'><img src='img/responseButtonOffersNo0_wht.png' class='respPic'></div><div class='trialDiv'><img src='Fruit/mixed-berries2.png'><br><font class='baseline'><strong>Berry Bla$t</strong><p><strong><font class='negOutcome'>You LOST</font><p>You bet: 4</strong></font> &nbsp; &nbsp; &nbsp; &nbsp; &nbsp; &nbsp;<font class='negOutcome'>You receive: <strong>0</strong></font></div>","null","11","Berry Bla$t","Fruit/mixed-berries2.png","Lost","0.65,0.2","11","0.65","163","31","",""
"html-keyboard-response","103","135966","0.0-11.0-1.31","63d428eb946e85527cfdf058","bdp_rwlrn","Tue Mar 14 2023 18:11:57 GMT-0700 (Pacific Daylight Time)","334689","Trustworthy,Untrustworthy","","16","","","","decision","","<div class='trialDiv'><img src='Fruit/pears.png'><br><font class='baseline'><strong>Pears Aplenty</strong><p>Choose number of points to bet.</font><div class='respPicDiv'><img src='img/responseButtonOffersNo0L.png' class='respPic'></div></div>","3","11","Pears Aplenty","Fruit/pears.png","Won","0.35,0.65","9","0.35","168","32","",""
"html-keyboard-response","104","136230","0.0-11.0-2.31","63d428eb946e85527cfdf058","bdp_rwlrn","Tue Mar 14 2023 18:11:57 GMT-0700 (Pacific Daylight Time)","334689","Trustworthy,Untrustworthy","","null","","","","decisionFB","","<div class='trialDiv'><img src='Fruit/pears.png'><br><font class='baseline'><strong>Pears Aplenty</strong><p>Choose number of points to bet.</font><div class='respPicDiv'><img src='img/responseButtonOffersNo0L3.png' class='respPic'></div></div>","null","11","Pears Aplenty","Fruit/pears.png","Won","0.35,0.65","9","0.35","165","32","",""
"html-keyboard-response","105","137241","0.0-11.0-3.31","63d428eb946e85527cfdf058","bdp_rwlrn","Tue Mar 14 2023 18:11:57 GMT-0700 (Pacific Daylight Time)","334689","Trustworthy,Untrustworthy","","null","","","","feedback","","<div class='respPicDiv'><img src='img/responseButtonOffersNo0_wht.png' class='respPic'></div><div class='trialDiv'><img src='Fruit/pears.png'><br><font class='baseline'><strong>Pears Aplenty</strong><p><strong><font class='posOutcome'>You WON</font><p>You bet: 3</strong></font> &nbsp; &nbsp; &nbsp; &nbsp; &nbsp; &nbsp;<font class='posOutcome'>you receive: <strong>6</strong></font></div>","null","11","Pears Aplenty","Fruit/pears.png","Won","0.35,0.65","9","0.35","171","32","",""
"html-keyboard-response","106","137556","0.0-11.0-1.32","63d428eb946e85527cfdf058","bdp_rwlrn","Tue Mar 14 2023 18:11:57 GMT-0700 (Pacific Daylight Time)","334689","Trustworthy,Untrustworthy","","314","","","","decision","","<div class='trialDiv'><img src='Fruit/plums1.png'><br><font class='baseline'><strong>Plum Powerball</strong><p>Choose number of points to bet.</font><div class='respPicDiv'><img src='img/responseButtonOffersNo0L.png' class='respPic'></div></div>","2","11","Plum Powerball","Fruit/plums1.png","Lost","0.35,0.8","13","0.35","176","33","",""
"html-keyboard-response","107","137820","0.0-11.0-2.32","63d428eb946e85527cfdf058","bdp_rwlrn","Tue Mar 14 2023 18:11:57 GMT-0700 (Pacific Daylight Time)","334689","Trustworthy,Untrustworthy","","null","","","","decisionFB","","<div class='trialDiv'><img src='Fruit/plums1.png'><br><font class='baseline'><strong>Plum Powerball</strong><p>Choose number of points to bet.</font><div class='respPicDiv'><img src='img/responseButtonOffersNo0L2.png' class='respPic'></div></div>","null","11","Plum Powerball","Fruit/plums1.png","Lost","0.35,0.8","13","0.35","174","33","",""
"html-keyboard-response","108","138834","0.0-11.0-3.32","63d428eb946e85527cfdf058","bdp_rwlrn","Tue Mar 14 2023 18:11:57 GMT-0700 (Pacific Daylight Time)","334689","Trustworthy,Untrustworthy","","null","","","","feedback","","<div class='respPicDiv'><img src='img/responseButtonOffersNo0_wht.png' class='respPic'></div><div class='trialDiv'><img src='Fruit/plums1.png'><br><font class='baseline'><strong>Plum Powerball</strong><p><strong><font class='negOutcome'>You LOST</font><p>You bet: 2</strong></font> &nbsp; &nbsp; &nbsp; &nbsp; &nbsp; &nbsp;<font class='negOutcome'>You receive: <strong>0</strong></font></div>","null","11","Plum Powerball","Fruit/plums1.png","Lost","0.35,0.8","13","0.35","174","33","",""
"html-keyboard-response","109","139266","0.0-11.0-1.33","63d428eb946e85527cfdf058","bdp_rwlrn","Tue Mar 14 2023 18:11:57 GMT-0700 (Pacific Daylight Time)","334689","Trustworthy,Untrustworthy","","431","","","","decision","","<div class='trialDiv'><img src='Fruit/mixed-berries2.png'><br><font class='baseline'><strong>Berry Bla$t</strong><p>Choose number of points to bet.</font><div class='respPicDiv'><img src='img/responseButtonOffersNo0L.png' class='respPic'></div></div>","4","12","Berry Bla$t","Fruit/mixed-berries2.png","Lost","0.65,0.2","11","0.65","179","34","",""
"html-keyboard-response","110","139524","0.0-11.0-2.33","63d428eb946e85527cfdf058","bdp_rwlrn","Tue Mar 14 2023 18:11:57 GMT-0700 (Pacific Daylight Time)","334689","Trustworthy,Untrustworthy","","null","","","","decisionFB","","<div class='trialDiv'><img src='Fruit/mixed-berries2.png'><br><font class='baseline'><strong>Berry Bla$t</strong><p>Choose number of points to bet.</font><div class='respPicDiv'><img src='img/responseButtonOffersNo0L4.png' class='respPic'></div></div>","null","12","Berry Bla$t","Fruit/mixed-berries2.png","Lost","0.65,0.2","11","0.65","175","34","",""
"html-keyboard-response","111","140535","0.0-11.0-3.33","63d428eb946e85527cfdf058","bdp_rwlrn","Tue Mar 14 2023 18:11:57 GMT-0700 (Pacific Daylight Time)","334689","Trustworthy,Untrustworthy","","null","","","","feedback","","<div class='respPicDiv'><img src='img/responseButtonOffersNo0_wht.png' class='respPic'></div><div class='trialDiv'><img src='Fruit/mixed-berries2.png'><br><font class='baseline'><strong>Berry Bla$t</strong><p><strong><font class='negOutcome'>You LOST</font><p>You bet: 4</strong></font> &nbsp; &nbsp; &nbsp; &nbsp; &nbsp; &nbsp;<font class='negOutcome'>You receive: <strong>0</strong></font></div>","null","12","Berry Bla$t","Fruit/mixed-berries2.png","Lost","0.65,0.2","11","0.65","175","34","",""
"html-keyboard-response","112","140552","0.0-11.0-1.34","63d428eb946e85527cfdf058","bdp_rwlrn","Tue Mar 14 2023 18:11:57 GMT-0700 (Pacific Daylight Time)","334689","Trustworthy,Untrustworthy","","16","","","","decision","","<div class='trialDiv'><img src='Fruit/plums1.png'><br><font class='baseline'><strong>Plum Powerball</strong><p>Choose number of points to bet.</font><div class='respPicDiv'><img src='img/responseButtonOffersNo0L.png' class='respPic'></div></div>","3","12","Plum Powerball","Fruit/plums1.png","Lost","0.35,0.8","13","0.35","180","35","",""
"html-keyboard-response","113","140818","0.0-11.0-2.34","63d428eb946e85527cfdf058","bdp_rwlrn","Tue Mar 14 2023 18:11:57 GMT-0700 (Pacific Daylight Time)","334689","Trustworthy,Untrustworthy","","null","","","","decisionFB","","<div class='trialDiv'><img src='Fruit/plums1.png'><br><font class='baseline'><strong>Plum Powerball</strong><p>Choose number of points to bet.</font><div class='respPicDiv'><img src='img/responseButtonOffersNo0L3.png' class='respPic'></div></div>","null","12","Plum Powerball","Fruit/plums1.png","Lost","0.35,0.8","13","0.35","177","35","",""
"html-keyboard-response","114","141833","0.0-11.0-3.34","63d428eb946e85527cfdf058","bdp_rwlrn","Tue Mar 14 2023 18:11:57 GMT-0700 (Pacific Daylight Time)","334689","Trustworthy,Untrustworthy","","null","","","","feedback","","<div class='respPicDiv'><img src='img/responseButtonOffersNo0_wht.png' class='respPic'></div><div class='trialDiv'><img src='Fruit/plums1.png'><br><font class='baseline'><strong>Plum Powerball</strong><p><strong><font class='negOutcome'>You LOST</font><p>You bet: 3</strong></font> &nbsp; &nbsp; &nbsp; &nbsp; &nbsp; &nbsp;<font class='negOutcome'>You receive: <strong>0</strong></font></div>","null","12","Plum Powerball","Fruit/plums1.png","Lost","0.35,0.8","13","0.35","177","35","",""
"html-keyboard-response","115","142100","0.0-11.0-1.35","63d428eb946e85527cfdf058","bdp_rwlrn","Tue Mar 14 2023 18:11:57 GMT-0700 (Pacific Daylight Time)","334689","Trustworthy,Untrustworthy","","266","","","","decision","","<div class='trialDiv'><img src='Fruit/pears.png'><br><font class='baseline'><strong>Pears Aplenty</strong><p>Choose number of points to bet.</font><div class='respPicDiv'><img src='img/responseButtonOffersNo0L.png' class='respPic'></div></div>","1","12","Pears Aplenty","Fruit/pears.png","Lost","0.35,0.65","9","0.35","182","36","",""
"html-keyboard-response","116","142364","0.0-11.0-2.35","63d428eb946e85527cfdf058","bdp_rwlrn","Tue Mar 14 2023 18:11:57 GMT-0700 (Pacific Daylight Time)","334689","Trustworthy,Untrustworthy","","null","","","","decisionFB","","<div class='trialDiv'><img src='Fruit/pears.png'><br><font class='baseline'><strong>Pears Aplenty</strong><p>Choose number of points to bet.</font><div class='respPicDiv'><img src='img/responseButtonOffersNo0L1.png' class='respPic'></div></div>","null","12","Pears Aplenty","Fruit/pears.png","Lost","0.35,0.65","9","0.35","181","36","",""
"html-keyboard-response","117","143366","0.0-11.0-3.35","63d428eb946e85527cfdf058","bdp_rwlrn","Tue Mar 14 2023 18:11:57 GMT-0700 (Pacific Daylight Time)","334689","Trustworthy,Untrustworthy","","null","","","","feedback","","<div class='respPicDiv'><img src='img/responseButtonOffersNo0_wht.png' class='respPic'></div><div class='trialDiv'><img src='Fruit/pears.png'><br><font class='baseline'><strong>Pears Aplenty</strong><p><strong><font class='negOutcome'>You LOST</font><p>You bet: 1</strong></font> &nbsp; &nbsp; &nbsp; &nbsp; &nbsp; &nbsp;<font class='negOutcome'>You receive: <strong>0</strong></font></div>","null","12","Pears Aplenty","Fruit/pears.png","Lost","0.35,0.65","9","0.35","181","36","",""
"html-keyboard-response","118","143441","0.0-11.0-1.36","63d428eb946e85527cfdf058","bdp_rwlrn","Tue Mar 14 2023 18:11:57 GMT-0700 (Pacific Daylight Time)","334689","Trustworthy,Untrustworthy","","74","","","","decision","","<div class='trialDiv'><img src='Fruit/mixed-berries2.png'><br><font class='baseline'><strong>Berry Bla$t</strong><p>Choose number of points to bet.</font><div class='respPicDiv'><img src='img/responseButtonOffersNo0L.png' class='respPic'></div></div>","4","13","Berry Bla$t","Fruit/mixed-berries2.png","Lost","0.65,0.2","11","0.65","186","37","",""
"html-keyboard-response","119","143693","0.0-11.0-2.36","63d428eb946e85527cfdf058","bdp_rwlrn","Tue Mar 14 2023 18:11:57 GMT-0700 (Pacific Daylight Time)","334689","Trustworthy,Untrustworthy","","null","","","","decisionFB","","<div class='trialDiv'><img src='Fruit/mixed-berries2.png'><br><font class='baseline'><strong>Berry Bla$t</strong><p>Choose number of points to bet.</font><div class='respPicDiv'><img src='img/responseButtonOffersNo0L4.png' class='respPic'></div></div>","null","13","Berry Bla$t","Fruit/mixed-berries2.png","Lost","0.65,0.2","11","0.65","182","37","",""
"html-keyboard-response","120","144705","0.0-11.0-3.36","63d428eb946e85527cfdf058","bdp_rwlrn","Tue Mar 14 2023 18:11:57 GMT-0700 (Pacific Daylight Time)","334689","Trustworthy,Untrustworthy","","null","","","","feedback","","<div class='respPicDiv'><img src='img/responseButtonOffersNo0_wht.png' class='respPic'></div><div class='trialDiv'><img src='Fruit/mixed-berries2.png'><br><font class='baseline'><strong>Berry Bla$t</strong><p><strong><font class='negOutcome'>You LOST</font><p>You bet: 4</strong></font> &nbsp; &nbsp; &nbsp; &nbsp; &nbsp; &nbsp;<font class='negOutcome'>You receive: <strong>0</strong></font></div>","null","13","Berry Bla$t","Fruit/mixed-berries2.png","Lost","0.65,0.2","11","0.65","182","37","",""
"html-keyboard-response","121","144738","0.0-11.0-1.37","63d428eb946e85527cfdf058","bdp_rwlrn","Tue Mar 14 2023 18:11:57 GMT-0700 (Pacific Daylight Time)","334689","Trustworthy,Untrustworthy","","32","","","","decision","","<div class='trialDiv'><img src='Fruit/pears.png'><br><font class='baseline'><strong>Pears Aplenty</strong><p>Choose number of points to bet.</font><div class='respPicDiv'><img src='img/responseButtonOffersNo0L.png' class='respPic'></div></div>","4","13","Pears Aplenty","Fruit/pears.png","Won","0.35,0.65","9","0.35","187","38","",""
"html-keyboard-response","122","145001","0.0-11.0-2.37","63d428eb946e85527cfdf058","bdp_rwlrn","Tue Mar 14 2023 18:11:57 GMT-0700 (Pacific Daylight Time)","334689","Trustworthy,Untrustworthy","","null","","","","decisionFB","","<div class='trialDiv'><img src='Fruit/pears.png'><br><font class='baseline'><strong>Pears Aplenty</strong><p>Choose number of points to bet.</font><div class='respPicDiv'><img src='img/responseButtonOffersNo0L4.png' class='respPic'></div></div>","null","13","Pears Aplenty","Fruit/pears.png","Won","0.35,0.65","9","0.35","183","38","",""
"html-keyboard-response","123","146013","0.0-11.0-3.37","63d428eb946e85527cfdf058","bdp_rwlrn","Tue Mar 14 2023 18:11:57 GMT-0700 (Pacific Daylight Time)","334689","Trustworthy,Untrustworthy","","null","","","","feedback","","<div class='respPicDiv'><img src='img/responseButtonOffersNo0_wht.png' class='respPic'></div><div class='trialDiv'><img src='Fruit/pears.png'><br><font class='baseline'><strong>Pears Aplenty</strong><p><strong><font class='posOutcome'>You WON</font><p>You bet: 4</strong></font> &nbsp; &nbsp; &nbsp; &nbsp; &nbsp; &nbsp;<font class='posOutcome'>you receive: <strong>8</strong></font></div>","null","13","Pears Aplenty","Fruit/pears.png","Won","0.35,0.65","9","0.35","191","38","",""
"html-keyboard-response","124","146235","0.0-11.0-1.38","63d428eb946e85527cfdf058","bdp_rwlrn","Tue Mar 14 2023 18:11:57 GMT-0700 (Pacific Daylight Time)","334689","Trustworthy,Untrustworthy","","221","","","","decision","","<div class='trialDiv'><img src='Fruit/plums1.png'><br><font class='baseline'><strong>Plum Powerball</strong><p>Choose number of points to bet.</font><div class='respPicDiv'><img src='img/responseButtonOffersNo0L.png' class='respPic'></div></div>","5","13","Plum Powerball","Fruit/plums1.png","Won","0.35,0.8","13","0.35","196","39","",""
"html-keyboard-response","125","146498","0.0-11.0-2.38","63d428eb946e85527cfdf058","bdp_rwlrn","Tue Mar 14 2023 18:11:57 GMT-0700 (Pacific Daylight Time)","334689","Trustworthy,Untrustworthy","","null","","","","decisionFB","","<div class='trialDiv'><img src='Fruit/plums1.png'><br><font class='baseline'><strong>Plum Powerball</strong><p>Choose number of points to bet.</font><div class='respPicDiv'><img src='img/responseButtonOffersNo0L5.png' class='respPic'></div></div>","null","13","Plum Powerball","Fruit/plums1.png","Won","0.35,0.8","13","0.35","191","39","",""
"html-keyboard-response","126","147513","0.0-11.0-3.38","63d428eb946e85527cfdf058","bdp_rwlrn","Tue Mar 14 2023 18:11:57 GMT-0700 (Pacific Daylight Time)","334689","Trustworthy,Untrustworthy","","null","","","","feedback","","<div class='respPicDiv'><img src='img/responseButtonOffersNo0_wht.png' class='respPic'></div><div class='trialDiv'><img src='Fruit/plums1.png'><br><font class='baseline'><strong>Plum Powerball</strong><p><strong><font class='posOutcome'>You WON</font><p>You bet: 5</strong></font> &nbsp; &nbsp; &nbsp; &nbsp; &nbsp; &nbsp;<font class='posOutcome'>you receive: <strong>10</strong></font></div>","null","13","Plum Powerball","Fruit/plums1.png","Won","0.35,0.8","13","0.35","201","39","",""
"html-keyboard-response","127","147728","0.0-11.0-1.39","63d428eb946e85527cfdf058","bdp_rwlrn","Tue Mar 14 2023 18:11:57 GMT-0700 (Pacific Daylight Time)","334689","Trustworthy,Untrustworthy","","214","","","","decision","","<div class='trialDiv'><img src='Fruit/pears.png'><br><font class='baseline'><strong>Pears Aplenty</strong><p>Choose number of points to bet.</font><div class='respPicDiv'><img src='img/responseButtonOffersNo0L.png' class='respPic'></div></div>","4","14","Pears Aplenty","Fruit/pears.png","Won","0.35,0.65","9","0.35","206","40","",""
"html-keyboard-response","128","147980","0.0-11.0-2.39","63d428eb946e85527cfdf058","bdp_rwlrn","Tue Mar 14 2023 18:11:57 GMT-0700 (Pacific Daylight Time)","334689","Trustworthy,Untrustworthy","","null","","","","decisionFB","","<div class='trialDiv'><img src='Fruit/pears.png'><br><font class='baseline'><strong>Pears Aplenty</strong><p>Choose number of points to bet.</font><div class='respPicDiv'><img src='img/responseButtonOffersNo0L4.png' class='respPic'></div></div>","null","14","Pears Aplenty","Fruit/pears.png","Won","0.35,0.65","9","0.35","202","40","",""
"html-keyboard-response","129","148989","0.0-11.0-3.39","63d428eb946e85527cfdf058","bdp_rwlrn","Tue Mar 14 2023 18:11:57 GMT-0700 (Pacific Daylight Time)","334689","Trustworthy,Untrustworthy","","null","","","","feedback","","<div class='respPicDiv'><img src='img/responseButtonOffersNo0_wht.png' class='respPic'></div><div class='trialDiv'><img src='Fruit/pears.png'><br><font class='baseline'><strong>Pears Aplenty</strong><p><strong><font class='posOutcome'>You WON</font><p>You bet: 4</strong></font> &nbsp; &nbsp; &nbsp; &nbsp; &nbsp; &nbsp;<font class='posOutcome'>you receive: <strong>8</strong></font></div>","null","14","Pears Aplenty","Fruit/pears.png","Won","0.35,0.65","9","0.35","210","40","",""
"html-keyboard-response","130","149075","0.0-11.0-1.40","63d428eb946e85527cfdf058","bdp_rwlrn","Tue Mar 14 2023 18:11:57 GMT-0700 (Pacific Daylight Time)","334689","Trustworthy,Untrustworthy","","85","","","","decision","","<div class='trialDiv'><img src='Fruit/plums1.png'><br><font class='baseline'><strong>Plum Powerball</strong><p>Choose number of points to bet.</font><div class='respPicDiv'><img src='img/responseButtonOffersNo0L.png' class='respPic'></div></div>","5","14","Plum Powerball","Fruit/plums1.png","Won","0.35,0.8","13","0.35","215","41","",""
"html-keyboard-response","131","149333","0.0-11.0-2.40","63d428eb946e85527cfdf058","bdp_rwlrn","Tue Mar 14 2023 18:11:57 GMT-0700 (Pacific Daylight Time)","334689","Trustworthy,Untrustworthy","","null","","","","decisionFB","","<div class='trialDiv'><img src='Fruit/plums1.png'><br><font class='baseline'><strong>Plum Powerball</strong><p>Choose number of points to bet.</font><div class='respPicDiv'><img src='img/responseButtonOffersNo0L5.png' class='respPic'></div></div>","null","14","Plum Powerball","Fruit/plums1.png","Won","0.35,0.8","13","0.35","210","41","",""
"html-keyboard-response","132","150345","0.0-11.0-3.40","63d428eb946e85527cfdf058","bdp_rwlrn","Tue Mar 14 2023 18:11:57 GMT-0700 (Pacific Daylight Time)","334689","Trustworthy,Untrustworthy","","null","","","","feedback","","<div class='respPicDiv'><img src='img/responseButtonOffersNo0_wht.png' class='respPic'></div><div class='trialDiv'><img src='Fruit/plums1.png'><br><font class='baseline'><strong>Plum Powerball</strong><p><strong><font class='posOutcome'>You WON</font><p>You bet: 5</strong></font> &nbsp; &nbsp; &nbsp; &nbsp; &nbsp; &nbsp;<font class='posOutcome'>you receive: <strong>10</strong></font></div>","null","14","Plum Powerball","Fruit/plums1.png","Won","0.35,0.8","13","0.35","220","41","",""
"html-keyboard-response","133","151155","0.0-11.0-1.41","63d428eb946e85527cfdf058","bdp_rwlrn","Tue Mar 14 2023 18:11:57 GMT-0700 (Pacific Daylight Time)","334689","Trustworthy,Untrustworthy","","809","","","","decision","","<div class='trialDiv'><img src='Fruit/mixed-berries2.png'><br><font class='baseline'><strong>Berry Bla$t</strong><p>Choose number of points to bet.</font><div class='respPicDiv'><img src='img/responseButtonOffersNo0L.png' class='respPic'></div></div>","4","14","Berry Bla$t","Fruit/mixed-berries2.png","Lost","0.65,0.2","11","0.65","225","42","",""
"html-keyboard-response","134","151416","0.0-11.0-2.41","63d428eb946e85527cfdf058","bdp_rwlrn","Tue Mar 14 2023 18:11:57 GMT-0700 (Pacific Daylight Time)","334689","Trustworthy,Untrustworthy","","null","","","","decisionFB","","<div class='trialDiv'><img src='Fruit/mixed-berries2.png'><br><font class='baseline'><strong>Berry Bla$t</strong><p>Choose number of points to bet.</font><div class='respPicDiv'><img src='img/responseButtonOffersNo0L4.png' class='respPic'></div></div>","null","14","Berry Bla$t","Fruit/mixed-berries2.png","Lost","0.65,0.2","11","0.65","221","42","",""
"html-keyboard-response","135","152433","0.0-11.0-3.41","63d428eb946e85527cfdf058","bdp_rwlrn","Tue Mar 14 2023 18:11:57 GMT-0700 (Pacific Daylight Time)","334689","Trustworthy,Untrustworthy","","null","","","","feedback","","<div class='respPicDiv'><img src='img/responseButtonOffersNo0_wht.png' class='respPic'></div><div class='trialDiv'><img src='Fruit/mixed-berries2.png'><br><font class='baseline'><strong>Berry Bla$t</strong><p><strong><font class='negOutcome'>You LOST</font><p>You bet: 4</strong></font> &nbsp; &nbsp; &nbsp; &nbsp; &nbsp; &nbsp;<font class='negOutcome'>You receive: <strong>0</strong></font></div>","null","14","Berry Bla$t","Fruit/mixed-berries2.png","Lost","0.65,0.2","11","0.65","221","42","",""
"html-keyboard-response","136","152638","0.0-11.0-1.42","63d428eb946e85527cfdf058","bdp_rwlrn","Tue Mar 14 2023 18:11:57 GMT-0700 (Pacific Daylight Time)","334689","Trustworthy,Untrustworthy","","204","","","","decision","","<div class='trialDiv'><img src='Fruit/plums1.png'><br><font class='baseline'><strong>Plum Powerball</strong><p>Choose number of points to bet.</font><div class='respPicDiv'><img src='img/responseButtonOffersNo0L.png' class='respPic'></div></div>","4","15","Plum Powerball","Fruit/plums1.png","Lost","0.35,0.8","13","0.35","226","43","",""
"html-keyboard-response","137","152902","0.0-11.0-2.42","63d428eb946e85527cfdf058","bdp_rwlrn","Tue Mar 14 2023 18:11:57 GMT-0700 (Pacific Daylight Time)","334689","Trustworthy,Untrustworthy","","null","","","","decisionFB","","<div class='trialDiv'><img src='Fruit/plums1.png'><br><font class='baseline'><strong>Plum Powerball</strong><p>Choose number of points to bet.</font><div class='respPicDiv'><img src='img/responseButtonOffersNo0L4.png' class='respPic'></div></div>","null","15","Plum Powerball","Fruit/plums1.png","Lost","0.35,0.8","13","0.35","222","43","",""
"html-keyboard-response","138","153914","0.0-11.0-3.42","63d428eb946e85527cfdf058","bdp_rwlrn","Tue Mar 14 2023 18:11:57 GMT-0700 (Pacific Daylight Time)","334689","Trustworthy,Untrustworthy","","null","","","","feedback","","<div class='respPicDiv'><img src='img/responseButtonOffersNo0_wht.png' class='respPic'></div><div class='trialDiv'><img src='Fruit/plums1.png'><br><font class='baseline'><strong>Plum Powerball</strong><p><strong><font class='negOutcome'>You LOST</font><p>You bet: 4</strong></font> &nbsp; &nbsp; &nbsp; &nbsp; &nbsp; &nbsp;<font class='negOutcome'>You receive: <strong>0</strong></font></div>","null","15","Plum Powerball","Fruit/plums1.png","Lost","0.35,0.8","13","0.35","222","43","",""
"html-keyboard-response","139","154519","0.0-11.0-1.43","63d428eb946e85527cfdf058","bdp_rwlrn","Tue Mar 14 2023 18:11:57 GMT-0700 (Pacific Daylight Time)","334689","Trustworthy,Untrustworthy","","603","","","","decision","","<div class='trialDiv'><img src='Fruit/pears.png'><br><font class='baseline'><strong>Pears Aplenty</strong><p>Choose number of points to bet.</font><div class='respPicDiv'><img src='img/responseButtonOffersNo0L.png' class='respPic'></div></div>","3","15","Pears Aplenty","Fruit/pears.png","Lost","0.35,0.65","9","0.35","227","44","",""
"html-keyboard-response","140","154785","0.0-11.0-2.43","63d428eb946e85527cfdf058","bdp_rwlrn","Tue Mar 14 2023 18:11:57 GMT-0700 (Pacific Daylight Time)","334689","Trustworthy,Untrustworthy","","null","","","","decisionFB","","<div class='trialDiv'><img src='Fruit/pears.png'><br><font class='baseline'><strong>Pears Aplenty</strong><p>Choose number of points to bet.</font><div class='respPicDiv'><img src='img/responseButtonOffersNo0L3.png' class='respPic'></div></div>","null","15","Pears Aplenty","Fruit/pears.png","Lost","0.35,0.65","9","0.35","224","44","",""
"html-keyboard-response","141","155798","0.0-11.0-3.43","63d428eb946e85527cfdf058","bdp_rwlrn","Tue Mar 14 2023 18:11:57 GMT-0700 (Pacific Daylight Time)","334689","Trustworthy,Untrustworthy","","null","","","","feedback","","<div class='respPicDiv'><img src='img/responseButtonOffersNo0_wht.png' class='respPic'></div><div class='trialDiv'><img src='Fruit/pears.png'><br><font class='baseline'><strong>Pears Aplenty</strong><p><strong><font class='negOutcome'>You LOST</font><p>You bet: 3</strong></font> &nbsp; &nbsp; &nbsp; &nbsp; &nbsp; &nbsp;<font class='negOutcome'>You receive: <strong>0</strong></font></div>","null","15","Pears Aplenty","Fruit/pears.png","Lost","0.35,0.65","9","0.35","224","44","",""
"html-keyboard-response","142","158074","0.0-11.0-1.44","63d428eb946e85527cfdf058","bdp_rwlrn","Tue Mar 14 2023 18:11:57 GMT-0700 (Pacific Daylight Time)","334689","Trustworthy,Untrustworthy","","2275","","","","decision","","<div class='trialDiv'><img src='Fruit/mixed-berries2.png'><br><font class='baseline'><strong>Berry Bla$t</strong><p>Choose number of points to bet.</font><div class='respPicDiv'><img src='img/responseButtonOffersNo0L.png' class='respPic'></div></div>","5","15","Berry Bla$t","Fruit/mixed-berries2.png","Lost","0.65,0.2","11","0.65","229","45","",""
"html-keyboard-response","143","158337","0.0-11.0-2.44","63d428eb946e85527cfdf058","bdp_rwlrn","Tue Mar 14 2023 18:11:57 GMT-0700 (Pacific Daylight Time)","334689","Trustworthy,Untrustworthy","","null","","","","decisionFB","","<div class='trialDiv'><img src='Fruit/mixed-berries2.png'><br><font class='baseline'><strong>Berry Bla$t</strong><p>Choose number of points to bet.</font><div class='respPicDiv'><img src='img/responseButtonOffersNo0L5.png' class='respPic'></div></div>","null","15","Berry Bla$t","Fruit/mixed-berries2.png","Lost","0.65,0.2","11","0.65","224","45","",""
"html-keyboard-response","144","159344","0.0-11.0-3.44","63d428eb946e85527cfdf058","bdp_rwlrn","Tue Mar 14 2023 18:11:57 GMT-0700 (Pacific Daylight Time)","334689","Trustworthy,Untrustworthy","","null","","","","feedback","","<div class='respPicDiv'><img src='img/responseButtonOffersNo0_wht.png' class='respPic'></div><div class='trialDiv'><img src='Fruit/mixed-berries2.png'><br><font class='baseline'><strong>Berry Bla$t</strong><p><strong><font class='negOutcome'>You LOST</font><p>You bet: 5</strong></font> &nbsp; &nbsp; &nbsp; &nbsp; &nbsp; &nbsp;<font class='negOutcome'>You receive: <strong>0</strong></font></div>","null","15","Berry Bla$t","Fruit/mixed-berries2.png","Lost","0.65,0.2","11","0.65","224","45","",""
"html-keyboard-response","145","159424","0.0-11.0-1.45","63d428eb946e85527cfdf058","bdp_rwlrn","Tue Mar 14 2023 18:11:57 GMT-0700 (Pacific Daylight Time)","334689","Trustworthy,Untrustworthy","","79","","","","decision","","<div class='trialDiv'><img src='Fruit/pears.png'><br><font class='baseline'><strong>Pears Aplenty</strong><p>Choose number of points to bet.</font><div class='respPicDiv'><img src='img/responseButtonOffersNo0L.png' class='respPic'></div></div>","4","16","Pears Aplenty","Fruit/pears.png","Won","0.35,0.65","9","0.35","229","46","",""
"html-keyboard-response","146","159687","0.0-11.0-2.45","63d428eb946e85527cfdf058","bdp_rwlrn","Tue Mar 14 2023 18:11:57 GMT-0700 (Pacific Daylight Time)","334689","Trustworthy,Untrustworthy","","null","","","","decisionFB","","<div class='trialDiv'><img src='Fruit/pears.png'><br><font class='baseline'><strong>Pears Aplenty</strong><p>Choose number of points to bet.</font><div class='respPicDiv'><img src='img/responseButtonOffersNo0L4.png' class='respPic'></div></div>","null","16","Pears Aplenty","Fruit/pears.png","Won","0.35,0.65","9","0.35","225","46","",""
"html-keyboard-response","147","160704","0.0-11.0-3.45","63d428eb946e85527cfdf058","bdp_rwlrn","Tue Mar 14 2023 18:11:57 GMT-0700 (Pacific Daylight Time)","334689","Trustworthy,Untrustworthy","","null","","","","feedback","","<div class='respPicDiv'><img src='img/responseButtonOffersNo0_wht.png' class='respPic'></div><div class='trialDiv'><img src='Fruit/pears.png'><br><font class='baseline'><strong>Pears Aplenty</strong><p><strong><font class='posOutcome'>You WON</font><p>You bet: 4</strong></font> &nbsp; &nbsp; &nbsp; &nbsp; &nbsp; &nbsp;<font class='posOutcome'>you receive: <strong>8</strong></font></div>","null","16","Pears Aplenty","Fruit/pears.png","Won","0.35,0.65","9","0.35","233","46","",""
"html-keyboard-response","148","160768","0.0-11.0-1.46","63d428eb946e85527cfdf058","bdp_rwlrn","Tue Mar 14 2023 18:11:57 GMT-0700 (Pacific Daylight Time)","334689","Trustworthy,Untrustworthy","","63","","","","decision","","<div class='trialDiv'><img src='Fruit/mixed-berries2.png'><br><font class='baseline'><strong>Berry Bla$t</strong><p>Choose number of points to bet.</font><div class='respPicDiv'><img src='img/responseButtonOffersNo0L.png' class='respPic'></div></div>","3","16","Berry Bla$t","Fruit/mixed-berries2.png","Won","0.65,0.2","11","0.65","238","47","",""
"html-keyboard-response","149","161032","0.0-11.0-2.46","63d428eb946e85527cfdf058","bdp_rwlrn","Tue Mar 14 2023 18:11:57 GMT-0700 (Pacific Daylight Time)","334689","Trustworthy,Untrustworthy","","null","","","","decisionFB","","<div class='trialDiv'><img src='Fruit/mixed-berries2.png'><br><font class='baseline'><strong>Berry Bla$t</strong><p>Choose number of points to bet.</font><div class='respPicDiv'><img src='img/responseButtonOffersNo0L3.png' class='respPic'></div></div>","null","16","Berry Bla$t","Fruit/mixed-berries2.png","Won","0.65,0.2","11","0.65","235","47","",""
"html-keyboard-response","150","162034","0.0-11.0-3.46","63d428eb946e85527cfdf058","bdp_rwlrn","Tue Mar 14 2023 18:11:57 GMT-0700 (Pacific Daylight Time)","334689","Trustworthy,Untrustworthy","","null","","","","feedback","","<div class='respPicDiv'><img src='img/responseButtonOffersNo0_wht.png' class='respPic'></div><div class='trialDiv'><img src='Fruit/mixed-berries2.png'><br><font class='baseline'><strong>Berry Bla$t</strong><p><strong><font class='posOutcome'>You WON</font><p>You bet: 3</strong></font> &nbsp; &nbsp; &nbsp; &nbsp; &nbsp; &nbsp;<font class='posOutcome'>you receive: <strong>6</strong></font></div>","null","16","Berry Bla$t","Fruit/mixed-berries2.png","Won","0.65,0.2","11","0.65","241","47","",""
"html-keyboard-response","151","162301","0.0-11.0-1.47","63d428eb946e85527cfdf058","bdp_rwlrn","Tue Mar 14 2023 18:11:57 GMT-0700 (Pacific Daylight Time)","334689","Trustworthy,Untrustworthy","","264","","","","decision","","<div class='trialDiv'><img src='Fruit/plums1.png'><br><font class='baseline'><strong>Plum Powerball</strong><p>Choose number of points to bet.</font><div class='respPicDiv'><img src='img/responseButtonOffersNo0L.png' class='respPic'></div></div>","4","16","Plum Powerball","Fruit/plums1.png","Won","0.35,0.8","13","0.35","246","48","",""
"html-keyboard-response","152","162564","0.0-11.0-2.47","63d428eb946e85527cfdf058","bdp_rwlrn","Tue Mar 14 2023 18:11:57 GMT-0700 (Pacific Daylight Time)","334689","Trustworthy,Untrustworthy","","null","","","","decisionFB","","<div class='trialDiv'><img src='Fruit/plums1.png'><br><font class='baseline'><strong>Plum Powerball</strong><p>Choose number of points to bet.</font><div class='respPicDiv'><img src='img/responseButtonOffersNo0L4.png' class='respPic'></div></div>","null","16","Plum Powerball","Fruit/plums1.png","Won","0.35,0.8","13","0.35","242","48","",""
"html-keyboard-response","153","163574","0.0-11.0-3.47","63d428eb946e85527cfdf058","bdp_rwlrn","Tue Mar 14 2023 18:11:57 GMT-0700 (Pacific Daylight Time)","334689","Trustworthy,Untrustworthy","","null","","","","feedback","","<div class='respPicDiv'><img src='img/responseButtonOffersNo0_wht.png' class='respPic'></div><div class='trialDiv'><img src='Fruit/plums1.png'><br><font class='baseline'><strong>Plum Powerball</strong><p><strong><font class='posOutcome'>You WON</font><p>You bet: 4</strong></font> &nbsp; &nbsp; &nbsp; &nbsp; &nbsp; &nbsp;<font class='posOutcome'>you receive: <strong>8</strong></font></div>","null","16","Plum Powerball","Fruit/plums1.png","Won","0.35,0.8","13","0.35","250","48","",""
"html-keyboard-response","154","163906","0.0-11.0-1.48","63d428eb946e85527cfdf058","bdp_rwlrn","Tue Mar 14 2023 18:11:57 GMT-0700 (Pacific Daylight Time)","334689","Trustworthy,Untrustworthy","","330","","","","decision","","<div class='trialDiv'><img src='Fruit/pears.png'><br><font class='baseline'><strong>Pears Aplenty</strong><p>Choose number of points to bet.</font><div class='respPicDiv'><img src='img/responseButtonOffersNo0L.png' class='respPic'></div></div>","2","17","Pears Aplenty","Fruit/pears.png","Won","0.35,0.65","9","0.35","255","49","",""
"html-keyboard-response","155","164157","0.0-11.0-2.48","63d428eb946e85527cfdf058","bdp_rwlrn","Tue Mar 14 2023 18:11:57 GMT-0700 (Pacific Daylight Time)","334689","Trustworthy,Untrustworthy","","null","","","","decisionFB","","<div class='trialDiv'><img src='Fruit/pears.png'><br><font class='baseline'><strong>Pears Aplenty</strong><p>Choose number of points to bet.</font><div class='respPicDiv'><img src='img/responseButtonOffersNo0L2.png' class='respPic'></div></div>","null","17","Pears Aplenty","Fruit/pears.png","Won","0.35,0.65","9","0.35","253","49","",""
"html-keyboard-response","156","165167","0.0-11.0-3.48","63d428eb946e85527cfdf058","bdp_rwlrn","Tue Mar 14 2023 18:11:57 GMT-0700 (Pacific Daylight Time)","334689","Trustworthy,Untrustworthy","","null","","","","feedback","","<div class='respPicDiv'><img src='img/responseButtonOffersNo0_wht.png' class='respPic'></div><div class='trialDiv'><img src='Fruit/pears.png'><br><font class='baseline'><strong>Pears Aplenty</strong><p><strong><font class='posOutcome'>You WON</font><p>You bet: 2</strong></font> &nbsp; &nbsp; &nbsp; &nbsp; &nbsp; &nbsp;<font class='posOutcome'>you receive: <strong>4</strong></font></div>","null","17","Pears Aplenty","Fruit/pears.png","Won","0.35,0.65","9","0.35","257","49","",""
"html-keyboard-response","157","165216","0.0-11.0-1.49","63d428eb946e85527cfdf058","bdp_rwlrn","Tue Mar 14 2023 18:11:57 GMT-0700 (Pacific Daylight Time)","334689","Trustworthy,Untrustworthy","","47","","","","decision","","<div class='trialDiv'><img src='Fruit/mixed-berries2.png'><br><font class='baseline'><strong>Berry Bla$t</strong><p>Choose number of points to bet.</font><div class='respPicDiv'><img src='img/responseButtonOffersNo0L.png' class='respPic'></div></div>","4","17","Berry Bla$t","Fruit/mixed-berries2.png","Lost","0.65,0.2","11","0.65","262","50","",""
"html-keyboard-response","158","165482","0.0-11.0-2.49","63d428eb946e85527cfdf058","bdp_rwlrn","Tue Mar 14 2023 18:11:57 GMT-0700 (Pacific Daylight Time)","334689","Trustworthy,Untrustworthy","","null","","","","decisionFB","","<div class='trialDiv'><img src='Fruit/mixed-berries2.png'><br><font class='baseline'><strong>Berry Bla$t</strong><p>Choose number of points to bet.</font><div class='respPicDiv'><img src='img/responseButtonOffersNo0L4.png' class='respPic'></div></div>","null","17","Berry Bla$t","Fruit/mixed-berries2.png","Lost","0.65,0.2","11","0.65","258","50","",""
"html-keyboard-response","159","166493","0.0-11.0-3.49","63d428eb946e85527cfdf058","bdp_rwlrn","Tue Mar 14 2023 18:11:57 GMT-0700 (Pacific Daylight Time)","334689","Trustworthy,Untrustworthy","","null","","","","feedback","","<div class='respPicDiv'><img src='img/responseButtonOffersNo0_wht.png' class='respPic'></div><div class='trialDiv'><img src='Fruit/mixed-berries2.png'><br><font class='baseline'><strong>Berry Bla$t</strong><p><strong><font class='negOutcome'>You LOST</font><p>You bet: 4</strong></font> &nbsp; &nbsp; &nbsp; &nbsp; &nbsp; &nbsp;<font class='negOutcome'>You receive: <strong>0</strong></font></div>","null","17","Berry Bla$t","Fruit/mixed-berries2.png","Lost","0.65,0.2","11","0.65","258","50","",""
"html-keyboard-response","160","167211","0.0-11.0-1.50","63d428eb946e85527cfdf058","bdp_rwlrn","Tue Mar 14 2023 18:11:57 GMT-0700 (Pacific Daylight Time)","334689","Trustworthy,Untrustworthy","","717","","","","decision","","<div class='trialDiv'><img src='Fruit/plums1.png'><br><font class='baseline'><strong>Plum Powerball</strong><p>Choose number of points to bet.</font><div class='respPicDiv'><img src='img/responseButtonOffersNo0L.png' class='respPic'></div></div>","5","17","Plum Powerball","Fruit/plums1.png","Won","0.35,0.8","13","0.35","263","51","",""
"html-keyboard-response","161","167474","0.0-11.0-2.50","63d428eb946e85527cfdf058","bdp_rwlrn","Tue Mar 14 2023 18:11:57 GMT-0700 (Pacific Daylight Time)","334689","Trustworthy,Untrustworthy","","null","","","","decisionFB","","<div class='trialDiv'><img src='Fruit/plums1.png'><br><font class='baseline'><strong>Plum Powerball</strong><p>Choose number of points to bet.</font><div class='respPicDiv'><img src='img/responseButtonOffersNo0L5.png' class='respPic'></div></div>","null","17","Plum Powerball","Fruit/plums1.png","Won","0.35,0.8","13","0.35","258","51","",""
