"event","trial","time","trialtype","numBlurs","subject_id","task","startTime","totalTime","labels","trial_type","trial_index","time_elapsed","internal_node_id","view_history","rt","success","stimulus","key_press","ltround","name","fileID","outcome","lottotype","lottoswpt","lottocurrpshare","point_total","round","faceID","face"
"blur","0","0","blurevent","1","5ecbd383243b3438410dae19","bdp_rwlrn","Tue Mar 14 2023 19:25:05 GMT-0500 (Central Daylight Time)","494369","Trustworthy,Untrustworthy","","","","","","","","","","","","","","","","","","","",""
"","","","","","5ecbd383243b3438410dae19","bdp_rwlrn","Tue Mar 14 2023 19:25:05 GMT-0500 (Central Daylight Time)","494369","Trustworthy,Untrustworthy","pavlovia","0","1","0.0-0.0","","","","","","","","","","","","","","","",""
"focus","1","1144","focusevent","","5ecbd383243b3438410dae19","bdp_rwlrn","Tue Mar 14 2023 19:25:05 GMT-0500 (Central Daylight Time)","494369","Trustworthy,Untrustworthy","","","","","","","","","","","","","","","","","","","",""
"","","","","","5ecbd383243b3438410dae19","bdp_rwlrn","Tue Mar 14 2023 19:25:05 GMT-0500 (Central Daylight Time)","494369","Trustworthy,Untrustworthy","instructions","1","6274","0.0-1.0","[{""page_index"":0,""viewing_time"":6273}]","6273","","","","","","","","","","","","","",""
"fullscreenenter","2","10110","fullscreenenter","","5ecbd383243b3438410dae19","bdp_rwlrn","Tue Mar 14 2023 19:25:05 GMT-0500 (Central Daylight Time)","494369","Trustworthy,Untrustworthy","","","","","","","","","","","","","","","","","","","",""
"","","","","","5ecbd383243b3438410dae19","bdp_rwlrn","Tue Mar 14 2023 19:25:05 GMT-0500 (Central Daylight Time)","494369","Trustworthy,Untrustworthy","fullscreen","2","11111","0.0-2.0","","","true","","","","","","","","","","","","",""
"","","","","","5ecbd383243b3438410dae19","bdp_rwlrn","Tue Mar 14 2023 19:25:05 GMT-0500 (Central Daylight Time)","494369","Trustworthy,Untrustworthy","instructions","3","97422","0.0-4.0","[{""page_index"":0,""viewing_time"":6718},{""page_index"":1,""viewing_time"":20450},{""page_index"":2,""viewing_time"":12904},{""page_index"":3,""viewing_time"":2},{""page_index"":4,""viewing_time"":35578},{""page_index"":5,""viewing_time"":10658}]","86310","","","","","","","","","","","","","",""
"","","","","","5ecbd383243b3438410dae19","bdp_rwlrn","Tue Mar 14 2023 19:25:05 GMT-0500 (Central Daylight Time)","494369","Trustworthy,Untrustworthy","html-keyboard-response","4","101742","0.0-5.0","","4318","","<div class='header' style='text-align:left; position: absolute; top: 5%; left: 5%;'><small>Task 1 of 5</small></div><div class='instruxDiv'><p><strong>1) What is the maximum number of points you can choose to bet on a lottery?</strong></p><p>a) 0</p><p>b) 1</p><p>c) 5</p>","C","","","","","","","","","","",""
"","","","","","5ecbd383243b3438410dae19","bdp_rwlrn","Tue Mar 14 2023 19:25:05 GMT-0500 (Central Daylight Time)","494369","Trustworthy,Untrustworthy","html-keyboard-response","5","105993","0.0-6.0","","4135","","<div class='header' style='text-align:left; position: absolute; top: 5%; left: 5%;'><small>Task 1 of 5</small></div><div class='instruxDiv'><p><strong>1) What is the maximum number of points you can choose to bet on a lottery?</strong></p><p>a) 1</p><p>b) 1</p><p style='color:#00FF00'>c) 5</p><h3 style='color:#00FF00'>Correct!</h3><h3 class='center-content'>The correct response is c).</h3><h3 class='center-content'>The maximum number of points you can choose to bet on a lottery is 5 points.</h3><p><em>Press SPACEBAR to continue</em></p></div>"," ","","","","","","","","","","",""
"","","","","","5ecbd383243b3438410dae19","bdp_rwlrn","Tue Mar 14 2023 19:25:05 GMT-0500 (Central Daylight Time)","494369","Trustworthy,Untrustworthy","html-keyboard-response","6","112854","0.0-7.0","","6755","","<div class='header' style='text-align:left; position: absolute; top: 5%; left: 5%;'><small>Task 1 of 5</small></div><div class='instruxDiv'><p><strong>2) How many points can you win each round?</strong></p><p>a) 10 points</p><p>b) Double what you bet</p><p>c) Quadruple what you bet</p>","B","","","","","","","","","","",""
"","","","","","5ecbd383243b3438410dae19","bdp_rwlrn","Tue Mar 14 2023 19:25:05 GMT-0500 (Central Daylight Time)","494369","Trustworthy,Untrustworthy","html-keyboard-response","7","114989","0.0-8.0","","2029","","<div class='header' style='text-align:left; position: absolute; top: 5%; left: 5%;'><small>Task 1 of 5</small></div><div class='instruxDiv'><p><strong>2) How many points can you win each round?</strong></p><p>a) 10 points</p><p style='color:#00FF00'>b) Double what you bet</p><p>c) Quadruple what you bet</p><h3 style='color:#00FF00'>Correct!</h3><h3 class='center-content'>The correct response is b).</h3><h3 class='center-content'>You can win double the amount of points you bet.</h3><p><em>Press SPACEBAR to continue</em></p></div>"," ","","","","","","","","","","",""
"","","","","","5ecbd383243b3438410dae19","bdp_rwlrn","Tue Mar 14 2023 19:25:05 GMT-0500 (Central Daylight Time)","494369","Trustworthy,Untrustworthy","html-keyboard-response","8","120099","0.0-9.0","","null","","<div class='header' style='text-align:left; position: absolute; top: 5%; left: 5%;'><small>Task 1 of 5</small></div><div class='instruxDiv'><p>Thank you for completing the quiz<p>These are the actual lotteries you will be playing in the next block:<p><div class='tc' align='center'><img class='introPic' src='Fruit/orange.png'><br><strong>Odds are Orange</strong></div><div class='bl' align='center'><img class='introPic' src='Fruit/apple.png'><br><strong>Awesome Apples</strong></div><div class='br' align='center'><img class='introPic' src='Fruit/mango.png'><br><strong>Mega Mangos</strong></div></div><p>Across <strong>66 rounds</strong> you will play each lottery <strong>22 times</strong> (in random order).<p style='align:center; color:white'><font <em>Press SPACEBAR to continue</em></p>","null","","","","","","","","","","",""
"","","","","","5ecbd383243b3438410dae19","bdp_rwlrn","Tue Mar 14 2023 19:25:05 GMT-0500 (Central Daylight Time)","494369","Trustworthy,Untrustworthy","instructions","9","132150","0.0-10.0","[{""page_index"":0,""viewing_time"":5369},{""page_index"":1,""viewing_time"":6681}]","12050","","","","","","","","","","","","","",""
"","","","decision","","5ecbd383243b3438410dae19","bdp_rwlrn","Tue Mar 14 2023 19:25:05 GMT-0500 (Central Daylight Time)","494369","Trustworthy,Untrustworthy","html-keyboard-response","10","136283","0.0-11.0-1.0","","4028","","<div class='trialDiv'><img src='Fruit/apple.png'><br><font class='baseline'><strong>Awesome Apples</strong><p>Choose number of points to bet.</font><div class='respPicDiv'><img src='img/responseButtonOffersNo0L.png' class='respPic'></div></div>","3","1","Awesome Apples","Fruit/apple.png","Won","0.8,0.35","9","0.8","5","1","",""
"","","","decisionFB","","5ecbd383243b3438410dae19","bdp_rwlrn","Tue Mar 14 2023 19:25:05 GMT-0500 (Central Daylight Time)","494369","Trustworthy,Untrustworthy","html-keyboard-response","11","136534","0.0-11.0-2.0","","null","","<div class='trialDiv'><img src='Fruit/apple.png'><br><font class='baseline'><strong>Awesome Apples</strong><p>Choose number of points to bet.</font><div class='respPicDiv'><img src='img/responseButtonOffersNo0L3.png' class='respPic'></div></div>","null","1","Awesome Apples","Fruit/apple.png","Won","0.8,0.35","9","0.8","2","1","",""
"","","","feedback","","5ecbd383243b3438410dae19","bdp_rwlrn","Tue Mar 14 2023 19:25:05 GMT-0500 (Central Daylight Time)","494369","Trustworthy,Untrustworthy","html-keyboard-response","12","137545","0.0-11.0-3.0","","null","","<div class='respPicDiv'><img src='img/responseButtonOffersNo0_wht.png' class='respPic'></div><div class='trialDiv'><img src='Fruit/apple.png'><br><font class='baseline'><strong>Awesome Apples</strong><p><strong><font class='posOutcome'>You WON</font><p>You bet: 3</strong></font> &nbsp; &nbsp; &nbsp; &nbsp; &nbsp; &nbsp;<font class='posOutcome'>you receive: <strong>6</strong></font></div>","null","1","Awesome Apples","Fruit/apple.png","Won","0.8,0.35","9","0.8","8","1","",""
"","","","decision","","5ecbd383243b3438410dae19","bdp_rwlrn","Tue Mar 14 2023 19:25:05 GMT-0500 (Central Daylight Time)","494369","Trustworthy,Untrustworthy","html-keyboard-response","13","139642","0.0-11.0-1.1","","2095","","<div class='trialDiv'><img src='Fruit/mango.png'><br><font class='baseline'><strong>Mega Mangos</strong><p>Choose number of points to bet.</font><div class='respPicDiv'><img src='img/responseButtonOffersNo0L.png' class='respPic'></div></div>","5","1","Mega Mangos","Fruit/mango.png","Lost","0.35,0.8","12","0.35","13","2","",""
"","","","decisionFB","","5ecbd383243b3438410dae19","bdp_rwlrn","Tue Mar 14 2023 19:25:05 GMT-0500 (Central Daylight Time)","494369","Trustworthy,Untrustworthy","html-keyboard-response","14","139895","0.0-11.0-2.1","","null","","<div class='trialDiv'><img src='Fruit/mango.png'><br><font class='baseline'><strong>Mega Mangos</strong><p>Choose number of points to bet.</font><div class='respPicDiv'><img src='img/responseButtonOffersNo0L5.png' class='respPic'></div></div>","null","1","Mega Mangos","Fruit/mango.png","Lost","0.35,0.8","12","0.35","8","2","",""
"","","","feedback","","5ecbd383243b3438410dae19","bdp_rwlrn","Tue Mar 14 2023 19:25:05 GMT-0500 (Central Daylight Time)","494369","Trustworthy,Untrustworthy","html-keyboard-response","15","140906","0.0-11.0-3.1","","null","","<div class='respPicDiv'><img src='img/responseButtonOffersNo0_wht.png' class='respPic'></div><div class='trialDiv'><img src='Fruit/mango.png'><br><font class='baseline'><strong>Mega Mangos</strong><p><strong><font class='negOutcome'>You LOST</font><p>You bet: 5</strong></font> &nbsp; &nbsp; &nbsp; &nbsp; &nbsp; &nbsp;<font class='negOutcome'>You receive: <strong>0</strong></font></div>","null","1","Mega Mangos","Fruit/mango.png","Lost","0.35,0.8","12","0.35","8","2","",""
"","","","decision","","5ecbd383243b3438410dae19","bdp_rwlrn","Tue Mar 14 2023 19:25:05 GMT-0500 (Central Daylight Time)","494369","Trustworthy,Untrustworthy","html-keyboard-response","16","142389","0.0-11.0-1.2","","1483","","<div class='trialDiv'><img src='Fruit/orange.png'><br><font class='baseline'><strong>Odds are Orange</strong><p>Choose number of points to bet.</font><div class='respPicDiv'><img src='img/responseButtonOffersNo0L.png' class='respPic'></div></div>","3","1","Odds are Orange","Fruit/orange.png","Lost","0.35,0.65","14","0.35","13","3","",""
"","","","decisionFB","","5ecbd383243b3438410dae19","bdp_rwlrn","Tue Mar 14 2023 19:25:05 GMT-0500 (Central Daylight Time)","494369","Trustworthy,Untrustworthy","html-keyboard-response","17","142647","0.0-11.0-2.2","","null","","<div class='trialDiv'><img src='Fruit/orange.png'><br><font class='baseline'><strong>Odds are Orange</strong><p>Choose number of points to bet.</font><div class='respPicDiv'><img src='img/responseButtonOffersNo0L3.png' class='respPic'></div></div>","null","1","Odds are Orange","Fruit/orange.png","Lost","0.35,0.65","14","0.35","10","3","",""
"","","","feedback","","5ecbd383243b3438410dae19","bdp_rwlrn","Tue Mar 14 2023 19:25:05 GMT-0500 (Central Daylight Time)","494369","Trustworthy,Untrustworthy","html-keyboard-response","18","143657","0.0-11.0-3.2","","null","","<div class='respPicDiv'><img src='img/responseButtonOffersNo0_wht.png' class='respPic'></div><div class='trialDiv'><img src='Fruit/orange.png'><br><font class='baseline'><strong>Odds are Orange</strong><p><strong><font class='negOutcome'>You LOST</font><p>You bet: 3</strong></font> &nbsp; &nbsp; &nbsp; &nbsp; &nbsp; &nbsp;<font class='negOutcome'>You receive: <strong>0</strong></font></div>","null","1","Odds are Orange","Fruit/orange.png","Lost","0.35,0.65","14","0.35","10","3","",""
"","","","decision","","5ecbd383243b3438410dae19","bdp_rwlrn","Tue Mar 14 2023 19:25:05 GMT-0500 (Central Daylight Time)","494369","Trustworthy,Untrustworthy","html-keyboard-response","19","143795","0.0-11.0-1.3","","138","","<div class='trialDiv'><img src='Fruit/apple.png'><br><font class='baseline'><strong>Awesome Apples</strong><p>Choose number of points to bet.</font><div class='respPicDiv'><img src='img/responseButtonOffersNo0L.png' class='respPic'></div></div>","5","2","Awesome Apples","Fruit/apple.png","Won","0.8,0.35","9","0.8","15","4","",""
"","","","decisionFB","","5ecbd383243b3438410dae19","bdp_rwlrn","Tue Mar 14 2023 19:25:05 GMT-0500 (Central Daylight Time)","494369","Trustworthy,Untrustworthy","html-keyboard-response","20","144057","0.0-11.0-2.3","","null","","<div class='trialDiv'><img src='Fruit/apple.png'><br><font class='baseline'><strong>Awesome Apples</strong><p>Choose number of points to bet.</font><div class='respPicDiv'><img src='img/responseButtonOffersNo0L5.png' class='respPic'></div></div>","null","2","Awesome Apples","Fruit/apple.png","Won","0.8,0.35","9","0.8","10","4","",""
"","","","feedback","","5ecbd383243b3438410dae19","bdp_rwlrn","Tue Mar 14 2023 19:25:05 GMT-0500 (Central Daylight Time)","494369","Trustworthy,Untrustworthy","html-keyboard-response","21","145064","0.0-11.0-3.3","","null","","<div class='respPicDiv'><img src='img/responseButtonOffersNo0_wht.png' class='respPic'></div><div class='trialDiv'><img src='Fruit/apple.png'><br><font class='baseline'><strong>Awesome Apples</strong><p><strong><font class='posOutcome'>You WON</font><p>You bet: 5</strong></font> &nbsp; &nbsp; &nbsp; &nbsp; &nbsp; &nbsp;<font class='posOutcome'>you receive: <strong>10</strong></font></div>","null","2","Awesome Apples","Fruit/apple.png","Won","0.8,0.35","9","0.8","20","4","",""
"","","","decision","","5ecbd383243b3438410dae19","bdp_rwlrn","Tue Mar 14 2023 19:25:05 GMT-0500 (Central Daylight Time)","494369","Trustworthy,Untrustworthy","html-keyboard-response","22","147817","0.0-11.0-1.4","","2752","","<div class='trialDiv'><img src='Fruit/mango.png'><br><font class='baseline'><strong>Mega Mangos</strong><p>Choose number of points to bet.</font><div class='respPicDiv'><img src='img/responseButtonOffersNo0L.png' class='respPic'></div></div>","3","2","Mega Mangos","Fruit/mango.png","Lost","0.35,0.8","12","0.35","25","5","",""
"","","","decisionFB","","5ecbd383243b3438410dae19","bdp_rwlrn","Tue Mar 14 2023 19:25:05 GMT-0500 (Central Daylight Time)","494369","Trustworthy,Untrustworthy","html-keyboard-response","23","148079","0.0-11.0-2.4","","null","","<div class='trialDiv'><img src='Fruit/mango.png'><br><font class='baseline'><strong>Mega Mangos</strong><p>Choose number of points to bet.</font><div class='respPicDiv'><img src='img/responseButtonOffersNo0L3.png' class='respPic'></div></div>","null","2","Mega Mangos","Fruit/mango.png","Lost","0.35,0.8","12","0.35","22","5","",""
"","","","feedback","","5ecbd383243b3438410dae19","bdp_rwlrn","Tue Mar 14 2023 19:25:05 GMT-0500 (Central Daylight Time)","494369","Trustworthy,Untrustworthy","html-keyboard-response","24","149092","0.0-11.0-3.4","","null","","<div class='respPicDiv'><img src='img/responseButtonOffersNo0_wht.png' class='respPic'></div><div class='trialDiv'><img src='Fruit/mango.png'><br><font class='baseline'><strong>Mega Mangos</strong><p><strong><font class='negOutcome'>You LOST</font><p>You bet: 3</strong></font> &nbsp; &nbsp; &nbsp; &nbsp; &nbsp; &nbsp;<font class='negOutcome'>You receive: <strong>0</strong></font></div>","null","2","Mega Mangos","Fruit/mango.png","Lost","0.35,0.8","12","0.35","22","5","",""
"","","","decision","","5ecbd383243b3438410dae19","bdp_rwlrn","Tue Mar 14 2023 19:25:05 GMT-0500 (Central Daylight Time)","494369","Trustworthy,Untrustworthy","html-keyboard-response","25","149120","0.0-11.0-1.5","","28","","<div class='trialDiv'><img src='Fruit/orange.png'><br><font class='baseline'><strong>Odds are Orange</strong><p>Choose number of points to bet.</font><div class='respPicDiv'><img src='img/responseButtonOffersNo0L.png' class='respPic'></div></div>","5","2","Odds are Orange","Fruit/orange.png","Won","0.35,0.65","14","0.35","27","6","",""
"","","","decisionFB","","5ecbd383243b3438410dae19","bdp_rwlrn","Tue Mar 14 2023 19:25:05 GMT-0500 (Central Daylight Time)","494369","Trustworthy,Untrustworthy","html-keyboard-response","26","149371","0.0-11.0-2.5","","null","","<div class='trialDiv'><img src='Fruit/orange.png'><br><font class='baseline'><strong>Odds are Orange</strong><p>Choose number of points to bet.</font><div class='respPicDiv'><img src='img/responseButtonOffersNo0L5.png' class='respPic'></div></div>","null","2","Odds are Orange","Fruit/orange.png","Won","0.35,0.65","14","0.35","22","6","",""
"","","","feedback","","5ecbd383243b3438410dae19","bdp_rwlrn","Tue Mar 14 2023 19:25:05 GMT-0500 (Central Daylight Time)","494369","Trustworthy,Untrustworthy","html-keyboard-response","27","150380","0.0-11.0-3.5","","null","","<div class='respPicDiv'><img src='img/responseButtonOffersNo0_wht.png' class='respPic'></div><div class='trialDiv'><img src='Fruit/orange.png'><br><font class='baseline'><strong>Odds are Orange</strong><p><strong><font class='posOutcome'>You WON</font><p>You bet: 5</strong></font> &nbsp; &nbsp; &nbsp; &nbsp; &nbsp; &nbsp;<font class='posOutcome'>you receive: <strong>10</strong></font></div>","null","2","Odds are Orange","Fruit/orange.png","Won","0.35,0.65","14","0.35","32","6","",""
"","","","decision","","5ecbd383243b3438410dae19","bdp_rwlrn","Tue Mar 14 2023 19:25:05 GMT-0500 (Central Daylight Time)","494369","Trustworthy,Untrustworthy","html-keyboard-response","28","153041","0.0-11.0-1.6","","2661","","<div class='trialDiv'><img src='Fruit/apple.png'><br><font class='baseline'><strong>Awesome Apples</strong><p>Choose number of points to bet.</font><div class='respPicDiv'><img src='img/responseButtonOffersNo0L.png' class='respPic'></div></div>","1","3","Awesome Apples","Fruit/apple.png","Lost","0.8,0.35","9","0.8","37","7","",""
"","","","decisionFB","","5ecbd383243b3438410dae19","bdp_rwlrn","Tue Mar 14 2023 19:25:05 GMT-0500 (Central Daylight Time)","494369","Trustworthy,Untrustworthy","html-keyboard-response","29","153299","0.0-11.0-2.6","","null","","<div class='trialDiv'><img src='Fruit/apple.png'><br><font class='baseline'><strong>Awesome Apples</strong><p>Choose number of points to bet.</font><div class='respPicDiv'><img src='img/responseButtonOffersNo0L1.png' class='respPic'></div></div>","null","3","Awesome Apples","Fruit/apple.png","Lost","0.8,0.35","9","0.8","36","7","",""
"","","","feedback","","5ecbd383243b3438410dae19","bdp_rwlrn","Tue Mar 14 2023 19:25:05 GMT-0500 (Central Daylight Time)","494369","Trustworthy,Untrustworthy","html-keyboard-response","30","154307","0.0-11.0-3.6","","null","","<div class='respPicDiv'><img src='img/responseButtonOffersNo0_wht.png' class='respPic'></div><div class='trialDiv'><img src='Fruit/apple.png'><br><font class='baseline'><strong>Awesome Apples</strong><p><strong><font class='negOutcome'>You LOST</font><p>You bet: 1</strong></font> &nbsp; &nbsp; &nbsp; &nbsp; &nbsp; &nbsp;<font class='negOutcome'>You receive: <strong>0</strong></font></div>","null","3","Awesome Apples","Fruit/apple.png","Lost","0.8,0.35","9","0.8","36","7","",""
"","","","decision","","5ecbd383243b3438410dae19","bdp_rwlrn","Tue Mar 14 2023 19:25:05 GMT-0500 (Central Daylight Time)","494369","Trustworthy,Untrustworthy","html-keyboard-response","31","156851","0.0-11.0-1.7","","2543","","<div class='trialDiv'><img src='Fruit/orange.png'><br><font class='baseline'><strong>Odds are Orange</strong><p>Choose number of points to bet.</font><div class='respPicDiv'><img src='img/responseButtonOffersNo0L.png' class='respPic'></div></div>","5","3","Odds are Orange","Fruit/orange.png","Lost","0.35,0.65","14","0.35","41","8","",""
"","","","decisionFB","","5ecbd383243b3438410dae19","bdp_rwlrn","Tue Mar 14 2023 19:25:05 GMT-0500 (Central Daylight Time)","494369","Trustworthy,Untrustworthy","html-keyboard-response","32","157117","0.0-11.0-2.7","","null","","<div class='trialDiv'><img src='Fruit/orange.png'><br><font class='baseline'><strong>Odds are Orange</strong><p>Choose number of points to bet.</font><div class='respPicDiv'><img src='img/responseButtonOffersNo0L5.png' class='respPic'></div></div>","null","3","Odds are Orange","Fruit/orange.png","Lost","0.35,0.65","14","0.35","36","8","",""
"","","","feedback","","5ecbd383243b3438410dae19","bdp_rwlrn","Tue Mar 14 2023 19:25:05 GMT-0500 (Central Daylight Time)","494369","Trustworthy,Untrustworthy","html-keyboard-response","33","158122","0.0-11.0-3.7","","null","","<div class='respPicDiv'><img src='img/responseButtonOffersNo0_wht.png' class='respPic'></div><div class='trialDiv'><img src='Fruit/orange.png'><br><font class='baseline'><strong>Odds are Orange</strong><p><strong><font class='negOutcome'>You LOST</font><p>You bet: 5</strong></font> &nbsp; &nbsp; &nbsp; &nbsp; &nbsp; &nbsp;<font class='negOutcome'>You receive: <strong>0</strong></font></div>","null","3","Odds are Orange","Fruit/orange.png","Lost","0.35,0.65","14","0.35","36","8","",""
"","","","decision","","5ecbd383243b3438410dae19","bdp_rwlrn","Tue Mar 14 2023 19:25:05 GMT-0500 (Central Daylight Time)","494369","Trustworthy,Untrustworthy","html-keyboard-response","34","158761","0.0-11.0-1.8","","639","","<div class='trialDiv'><img src='Fruit/mango.png'><br><font class='baseline'><strong>Mega Mangos</strong><p>Choose number of points to bet.</font><div class='respPicDiv'><img src='img/responseButtonOffersNo0L.png' class='respPic'></div></div>","3","3","Mega Mangos","Fruit/mango.png","Won","0.35,0.8","12","0.35","41","9","",""
"","","","decisionFB","","5ecbd383243b3438410dae19","bdp_rwlrn","Tue Mar 14 2023 19:25:05 GMT-0500 (Central Daylight Time)","494369","Trustworthy,Untrustworthy","html-keyboard-response","35","159025","0.0-11.0-2.8","","null","","<div class='trialDiv'><img src='Fruit/mango.png'><br><font class='baseline'><strong>Mega Mangos</strong><p>Choose number of points to bet.</font><div class='respPicDiv'><img src='img/responseButtonOffersNo0L3.png' class='respPic'></div></div>","null","3","Mega Mangos","Fruit/mango.png","Won","0.35,0.8","12","0.35","38","9","",""
"","","","feedback","","5ecbd383243b3438410dae19","bdp_rwlrn","Tue Mar 14 2023 19:25:05 GMT-0500 (Central Daylight Time)","494369","Trustworthy,Untrustworthy","html-keyboard-response","36","160035","0.0-11.0-3.8","","null","","<div class='respPicDiv'><img src='img/responseButtonOffersNo0_wht.png' class='respPic'></div><div class='trialDiv'><img src='Fruit/mango.png'><br><font class='baseline'><strong>Mega Mangos</strong><p><strong><font class='posOutcome'>You WON</font><p>You bet: 3</strong></font> &nbsp; &nbsp; &nbsp; &nbsp; &nbsp; &nbsp;<font class='posOutcome'>you receive: <strong>6</strong></font></div>","null","3","Mega Mangos","Fruit/mango.png","Won","0.35,0.8","12","0.35","44","9","",""
"","","","decision","","5ecbd383243b3438410dae19","bdp_rwlrn","Tue Mar 14 2023 19:25:05 GMT-0500 (Central Daylight Time)","494369","Trustworthy,Untrustworthy","html-keyboard-response","37","162289","0.0-11.0-1.9","","2254","","<div class='trialDiv'><img src='Fruit/apple.png'><br><font class='baseline'><strong>Awesome Apples</strong><p>Choose number of points to bet.</font><div class='respPicDiv'><img src='img/responseButtonOffersNo0L.png' class='respPic'></div></div>","2","4","Awesome Apples","Fruit/apple.png","Won","0.8,0.35","9","0.8","49","10","",""
"","","","decisionFB","","5ecbd383243b3438410dae19","bdp_rwlrn","Tue Mar 14 2023 19:25:05 GMT-0500 (Central Daylight Time)","494369","Trustworthy,Untrustworthy","html-keyboard-response","38","162543","0.0-11.0-2.9","","null","","<div class='trialDiv'><img src='Fruit/apple.png'><br><font class='baseline'><strong>Awesome Apples</strong><p>Choose number of points to bet.</font><div class='respPicDiv'><img src='img/responseButtonOffersNo0L2.png' class='respPic'></div></div>","null","4","Awesome Apples","Fruit/apple.png","Won","0.8,0.35","9","0.8","47","10","",""
"","","","feedback","","5ecbd383243b3438410dae19","bdp_rwlrn","Tue Mar 14 2023 19:25:05 GMT-0500 (Central Daylight Time)","494369","Trustworthy,Untrustworthy","html-keyboard-response","39","163553","0.0-11.0-3.9","","null","","<div class='respPicDiv'><img src='img/responseButtonOffersNo0_wht.png' class='respPic'></div><div class='trialDiv'><img src='Fruit/apple.png'><br><font class='baseline'><strong>Awesome Apples</strong><p><strong><font class='posOutcome'>You WON</font><p>You bet: 2</strong></font> &nbsp; &nbsp; &nbsp; &nbsp; &nbsp; &nbsp;<font class='posOutcome'>you receive: <strong>4</strong></font></div>","null","4","Awesome Apples","Fruit/apple.png","Won","0.8,0.35","9","0.8","51","10","",""
"","","","decision","","5ecbd383243b3438410dae19","bdp_rwlrn","Tue Mar 14 2023 19:25:05 GMT-0500 (Central Daylight Time)","494369","Trustworthy,Untrustworthy","html-keyboard-response","40","165459","0.0-11.0-1.10","","1906","","<div class='trialDiv'><img src='Fruit/orange.png'><br><font class='baseline'><strong>Odds are Orange</strong><p>Choose number of points to bet.</font><div class='respPicDiv'><img src='img/responseButtonOffersNo0L.png' class='respPic'></div></div>","4","4","Odds are Orange","Fruit/orange.png","Lost","0.35,0.65","14","0.35","56","11","",""
"","","","decisionFB","","5ecbd383243b3438410dae19","bdp_rwlrn","Tue Mar 14 2023 19:25:05 GMT-0500 (Central Daylight Time)","494369","Trustworthy,Untrustworthy","html-keyboard-response","41","165712","0.0-11.0-2.10","","null","","<div class='trialDiv'><img src='Fruit/orange.png'><br><font class='baseline'><strong>Odds are Orange</strong><p>Choose number of points to bet.</font><div class='respPicDiv'><img src='img/responseButtonOffersNo0L4.png' class='respPic'></div></div>","null","4","Odds are Orange","Fruit/orange.png","Lost","0.35,0.65","14","0.35","52","11","",""
"","","","feedback","","5ecbd383243b3438410dae19","bdp_rwlrn","Tue Mar 14 2023 19:25:05 GMT-0500 (Central Daylight Time)","494369","Trustworthy,Untrustworthy","html-keyboard-response","42","166723","0.0-11.0-3.10","","null","","<div class='respPicDiv'><img src='img/responseButtonOffersNo0_wht.png' class='respPic'></div><div class='trialDiv'><img src='Fruit/orange.png'><br><font class='baseline'><strong>Odds are Orange</strong><p><strong><font class='negOutcome'>You LOST</font><p>You bet: 4</strong></font> &nbsp; &nbsp; &nbsp; &nbsp; &nbsp; &nbsp;<font class='negOutcome'>You receive: <strong>0</strong></font></div>","null","4","Odds are Orange","Fruit/orange.png","Lost","0.35,0.65","14","0.35","52","11","",""
"","","","decision","","5ecbd383243b3438410dae19","bdp_rwlrn","Tue Mar 14 2023 19:25:05 GMT-0500 (Central Daylight Time)","494369","Trustworthy,Untrustworthy","html-keyboard-response","43","167655","0.0-11.0-1.11","","931","","<div class='trialDiv'><img src='Fruit/mango.png'><br><font class='baseline'><strong>Mega Mangos</strong><p>Choose number of points to bet.</font><div class='respPicDiv'><img src='img/responseButtonOffersNo0L.png' class='respPic'></div></div>","5","4","Mega Mangos","Fruit/mango.png","Won","0.35,0.8","12","0.35","57","12","",""
"","","","decisionFB","","5ecbd383243b3438410dae19","bdp_rwlrn","Tue Mar 14 2023 19:25:05 GMT-0500 (Central Daylight Time)","494369","Trustworthy,Untrustworthy","html-keyboard-response","44","167919","0.0-11.0-2.11","","null","","<div class='trialDiv'><img src='Fruit/mango.png'><br><font class='baseline'><strong>Mega Mangos</strong><p>Choose number of points to bet.</font><div class='respPicDiv'><img src='img/responseButtonOffersNo0L5.png' class='respPic'></div></div>","null","4","Mega Mangos","Fruit/mango.png","Won","0.35,0.8","12","0.35","52","12","",""
"","","","feedback","","5ecbd383243b3438410dae19","bdp_rwlrn","Tue Mar 14 2023 19:25:05 GMT-0500 (Central Daylight Time)","494369","Trustworthy,Untrustworthy","html-keyboard-response","45","168930","0.0-11.0-3.11","","null","","<div class='respPicDiv'><img src='img/responseButtonOffersNo0_wht.png' class='respPic'></div><div class='trialDiv'><img src='Fruit/mango.png'><br><font class='baseline'><strong>Mega Mangos</strong><p><strong><font class='posOutcome'>You WON</font><p>You bet: 5</strong></font> &nbsp; &nbsp; &nbsp; &nbsp; &nbsp; &nbsp;<font class='posOutcome'>you receive: <strong>10</strong></font></div>","null","4","Mega Mangos","Fruit/mango.png","Won","0.35,0.8","12","0.35","62","12","",""
"","","","decision","","5ecbd383243b3438410dae19","bdp_rwlrn","Tue Mar 14 2023 19:25:05 GMT-0500 (Central Daylight Time)","494369","Trustworthy,Untrustworthy","html-keyboard-response","46","170628","0.0-11.0-1.12","","1697","","<div class='trialDiv'><img src='Fruit/apple.png'><br><font class='baseline'><strong>Awesome Apples</strong><p>Choose number of points to bet.</font><div class='respPicDiv'><img src='img/responseButtonOffersNo0L.png' class='respPic'></div></div>","2","5","Awesome Apples","Fruit/apple.png","Won","0.8,0.35","9","0.8","67","13","",""
"","","","decisionFB","","5ecbd383243b3438410dae19","bdp_rwlrn","Tue Mar 14 2023 19:25:05 GMT-0500 (Central Daylight Time)","494369","Trustworthy,Untrustworthy","html-keyboard-response","47","170889","0.0-11.0-2.12","","null","","<div class='trialDiv'><img src='Fruit/apple.png'><br><font class='baseline'><strong>Awesome Apples</strong><p>Choose number of points to bet.</font><div class='respPicDiv'><img src='img/responseButtonOffersNo0L2.png' class='respPic'></div></div>","null","5","Awesome Apples","Fruit/apple.png","Won","0.8,0.35","9","0.8","65","13","",""
"","","","feedback","","5ecbd383243b3438410dae19","bdp_rwlrn","Tue Mar 14 2023 19:25:05 GMT-0500 (Central Daylight Time)","494369","Trustworthy,Untrustworthy","html-keyboard-response","48","171901","0.0-11.0-3.12","","null","","<div class='respPicDiv'><img src='img/responseButtonOffersNo0_wht.png' class='respPic'></div><div class='trialDiv'><img src='Fruit/apple.png'><br><font class='baseline'><strong>Awesome Apples</strong><p><strong><font class='posOutcome'>You WON</font><p>You bet: 2</strong></font> &nbsp; &nbsp; &nbsp; &nbsp; &nbsp; &nbsp;<font class='posOutcome'>you receive: <strong>4</strong></font></div>","null","5","Awesome Apples","Fruit/apple.png","Won","0.8,0.35","9","0.8","69","13","",""
"","","","decision","","5ecbd383243b3438410dae19","bdp_rwlrn","Tue Mar 14 2023 19:25:05 GMT-0500 (Central Daylight Time)","494369","Trustworthy,Untrustworthy","html-keyboard-response","49","173176","0.0-11.0-1.13","","1274","","<div class='trialDiv'><img src='Fruit/mango.png'><br><font class='baseline'><strong>Mega Mangos</strong><p>Choose number of points to bet.</font><div class='respPicDiv'><img src='img/responseButtonOffersNo0L.png' class='respPic'></div></div>","2","5","Mega Mangos","Fruit/mango.png","Won","0.35,0.8","12","0.35","74","14","",""
"","","","decisionFB","","5ecbd383243b3438410dae19","bdp_rwlrn","Tue Mar 14 2023 19:25:05 GMT-0500 (Central Daylight Time)","494369","Trustworthy,Untrustworthy","html-keyboard-response","50","173441","0.0-11.0-2.13","","null","","<div class='trialDiv'><img src='Fruit/mango.png'><br><font class='baseline'><strong>Mega Mangos</strong><p>Choose number of points to bet.</font><div class='respPicDiv'><img src='img/responseButtonOffersNo0L2.png' class='respPic'></div></div>","null","5","Mega Mangos","Fruit/mango.png","Won","0.35,0.8","12","0.35","72","14","",""
"","","","feedback","","5ecbd383243b3438410dae19","bdp_rwlrn","Tue Mar 14 2023 19:25:05 GMT-0500 (Central Daylight Time)","494369","Trustworthy,Untrustworthy","html-keyboard-response","51","174449","0.0-11.0-3.13","","null","","<div class='respPicDiv'><img src='img/responseButtonOffersNo0_wht.png' class='respPic'></div><div class='trialDiv'><img src='Fruit/mango.png'><br><font class='baseline'><strong>Mega Mangos</strong><p><strong><font class='posOutcome'>You WON</font><p>You bet: 2</strong></font> &nbsp; &nbsp; &nbsp; &nbsp; &nbsp; &nbsp;<font class='posOutcome'>you receive: <strong>4</strong></font></div>","null","5","Mega Mangos","Fruit/mango.png","Won","0.35,0.8","12","0.35","76","14","",""
"","","","decision","","5ecbd383243b3438410dae19","bdp_rwlrn","Tue Mar 14 2023 19:25:05 GMT-0500 (Central Daylight Time)","494369","Trustworthy,Untrustworthy","html-keyboard-response","52","175390","0.0-11.0-1.14","","941","","<div class='trialDiv'><img src='Fruit/orange.png'><br><font class='baseline'><strong>Odds are Orange</strong><p>Choose number of points to bet.</font><div class='respPicDiv'><img src='img/responseButtonOffersNo0L.png' class='respPic'></div></div>","3","5","Odds are Orange","Fruit/orange.png","Lost","0.35,0.65","14","0.35","81","15","",""
"","","","decisionFB","","5ecbd383243b3438410dae19","bdp_rwlrn","Tue Mar 14 2023 19:25:05 GMT-0500 (Central Daylight Time)","494369","Trustworthy,Untrustworthy","html-keyboard-response","53","175644","0.0-11.0-2.14","","null","","<div class='trialDiv'><img src='Fruit/orange.png'><br><font class='baseline'><strong>Odds are Orange</strong><p>Choose number of points to bet.</font><div class='respPicDiv'><img src='img/responseButtonOffersNo0L3.png' class='respPic'></div></div>","null","5","Odds are Orange","Fruit/orange.png","Lost","0.35,0.65","14","0.35","78","15","",""
"","","","feedback","","5ecbd383243b3438410dae19","bdp_rwlrn","Tue Mar 14 2023 19:25:05 GMT-0500 (Central Daylight Time)","494369","Trustworthy,Untrustworthy","html-keyboard-response","54","176654","0.0-11.0-3.14","","null","","<div class='respPicDiv'><img src='img/responseButtonOffersNo0_wht.png' class='respPic'></div><div class='trialDiv'><img src='Fruit/orange.png'><br><font class='baseline'><strong>Odds are Orange</strong><p><strong><font class='negOutcome'>You LOST</font><p>You bet: 3</strong></font> &nbsp; &nbsp; &nbsp; &nbsp; &nbsp; &nbsp;<font class='negOutcome'>You receive: <strong>0</strong></font></div>","null","5","Odds are Orange","Fruit/orange.png","Lost","0.35,0.65","14","0.35","78","15","",""
"","","","decision","","5ecbd383243b3438410dae19","bdp_rwlrn","Tue Mar 14 2023 19:25:05 GMT-0500 (Central Daylight Time)","494369","Trustworthy,Untrustworthy","html-keyboard-response","55","177671","0.0-11.0-1.15","","1017","","<div class='trialDiv'><img src='Fruit/apple.png'><br><font class='baseline'><strong>Awesome Apples</strong><p>Choose number of points to bet.</font><div class='respPicDiv'><img src='img/responseButtonOffersNo0L.png' class='respPic'></div></div>","4","6","Awesome Apples","Fruit/apple.png","Won","0.8,0.35","9","0.8","83","16","",""
"","","","decisionFB","","5ecbd383243b3438410dae19","bdp_rwlrn","Tue Mar 14 2023 19:25:05 GMT-0500 (Central Daylight Time)","494369","Trustworthy,Untrustworthy","html-keyboard-response","56","177930","0.0-11.0-2.15","","null","","<div class='trialDiv'><img src='Fruit/apple.png'><br><font class='baseline'><strong>Awesome Apples</strong><p>Choose number of points to bet.</font><div class='respPicDiv'><img src='img/responseButtonOffersNo0L4.png' class='respPic'></div></div>","null","6","Awesome Apples","Fruit/apple.png","Won","0.8,0.35","9","0.8","79","16","",""
"","","","feedback","","5ecbd383243b3438410dae19","bdp_rwlrn","Tue Mar 14 2023 19:25:05 GMT-0500 (Central Daylight Time)","494369","Trustworthy,Untrustworthy","html-keyboard-response","57","178936","0.0-11.0-3.15","","null","","<div class='respPicDiv'><img src='img/responseButtonOffersNo0_wht.png' class='respPic'></div><div class='trialDiv'><img src='Fruit/apple.png'><br><font class='baseline'><strong>Awesome Apples</strong><p><strong><font class='posOutcome'>You WON</font><p>You bet: 4</strong></font> &nbsp; &nbsp; &nbsp; &nbsp; &nbsp; &nbsp;<font class='posOutcome'>you receive: <strong>8</strong></font></div>","null","6","Awesome Apples","Fruit/apple.png","Won","0.8,0.35","9","0.8","87","16","",""
"","","","decision","","5ecbd383243b3438410dae19","bdp_rwlrn","Tue Mar 14 2023 19:25:05 GMT-0500 (Central Daylight Time)","494369","Trustworthy,Untrustworthy","html-keyboard-response","58","180113","0.0-11.0-1.16","","1175","","<div class='trialDiv'><img src='Fruit/orange.png'><br><font class='baseline'><strong>Odds are Orange</strong><p>Choose number of points to bet.</font><div class='respPicDiv'><img src='img/responseButtonOffersNo0L.png' class='respPic'></div></div>","5","6","Odds are Orange","Fruit/orange.png","Lost","0.35,0.65","14","0.35","92","17","",""
"","","","decisionFB","","5ecbd383243b3438410dae19","bdp_rwlrn","Tue Mar 14 2023 19:25:05 GMT-0500 (Central Daylight Time)","494369","Trustworthy,Untrustworthy","html-keyboard-response","59","180378","0.0-11.0-2.16","","null","","<div class='trialDiv'><img src='Fruit/orange.png'><br><font class='baseline'><strong>Odds are Orange</strong><p>Choose number of points to bet.</font><div class='respPicDiv'><img src='img/responseButtonOffersNo0L5.png' class='respPic'></div></div>","null","6","Odds are Orange","Fruit/orange.png","Lost","0.35,0.65","14","0.35","87","17","",""
"","","","feedback","","5ecbd383243b3438410dae19","bdp_rwlrn","Tue Mar 14 2023 19:25:05 GMT-0500 (Central Daylight Time)","494369","Trustworthy,Untrustworthy","html-keyboard-response","60","181391","0.0-11.0-3.16","","null","","<div class='respPicDiv'><img src='img/responseButtonOffersNo0_wht.png' class='respPic'></div><div class='trialDiv'><img src='Fruit/orange.png'><br><font class='baseline'><strong>Odds are Orange</strong><p><strong><font class='negOutcome'>You LOST</font><p>You bet: 5</strong></font> &nbsp; &nbsp; &nbsp; &nbsp; &nbsp; &nbsp;<font class='negOutcome'>You receive: <strong>0</strong></font></div>","null","6","Odds are Orange","Fruit/orange.png","Lost","0.35,0.65","14","0.35","87","17","",""
"","","","decision","","5ecbd383243b3438410dae19","bdp_rwlrn","Tue Mar 14 2023 19:25:05 GMT-0500 (Central Daylight Time)","494369","Trustworthy,Untrustworthy","html-keyboard-response","61","181887","0.0-11.0-1.17","","495","","<div class='trialDiv'><img src='Fruit/mango.png'><br><font class='baseline'><strong>Mega Mangos</strong><p>Choose number of points to bet.</font><div class='respPicDiv'><img src='img/responseButtonOffersNo0L.png' class='respPic'></div></div>","3","6","Mega Mangos","Fruit/mango.png","Lost","0.35,0.8","12","0.35","92","18","",""
"","","","decisionFB","","5ecbd383243b3438410dae19","bdp_rwlrn","Tue Mar 14 2023 19:25:05 GMT-0500 (Central Daylight Time)","494369","Trustworthy,Untrustworthy","html-keyboard-response","62","182150","0.0-11.0-2.17","","null","","<div class='trialDiv'><img src='Fruit/mango.png'><br><font class='baseline'><strong>Mega Mangos</strong><p>Choose number of points to bet.</font><div class='respPicDiv'><img src='img/responseButtonOffersNo0L3.png' class='respPic'></div></div>","null","6","Mega Mangos","Fruit/mango.png","Lost","0.35,0.8","12","0.35","89","18","",""
"","","","feedback","","5ecbd383243b3438410dae19","bdp_rwlrn","Tue Mar 14 2023 19:25:05 GMT-0500 (Central Daylight Time)","494369","Trustworthy,Untrustworthy","html-keyboard-response","63","183161","0.0-11.0-3.17","","null","","<div class='respPicDiv'><img src='img/responseButtonOffersNo0_wht.png' class='respPic'></div><div class='trialDiv'><img src='Fruit/mango.png'><br><font class='baseline'><strong>Mega Mangos</strong><p><strong><font class='negOutcome'>You LOST</font><p>You bet: 3</strong></font> &nbsp; &nbsp; &nbsp; &nbsp; &nbsp; &nbsp;<font class='negOutcome'>You receive: <strong>0</strong></font></div>","null","6","Mega Mangos","Fruit/mango.png","Lost","0.35,0.8","12","0.35","89","18","",""
"","","","decision","","5ecbd383243b3438410dae19","bdp_rwlrn","Tue Mar 14 2023 19:25:05 GMT-0500 (Central Daylight Time)","494369","Trustworthy,Untrustworthy","html-keyboard-response","64","185216","0.0-11.0-1.18","","2053","","<div class='trialDiv'><img src='Fruit/apple.png'><br><font class='baseline'><strong>Awesome Apples</strong><p>Choose number of points to bet.</font><div class='respPicDiv'><img src='img/responseButtonOffersNo0L.png' class='respPic'></div></div>","4","7","Awesome Apples","Fruit/apple.png","Won","0.8,0.35","9","0.8","94","19","",""
"","","","decisionFB","","5ecbd383243b3438410dae19","bdp_rwlrn","Tue Mar 14 2023 19:25:05 GMT-0500 (Central Daylight Time)","494369","Trustworthy,Untrustworthy","html-keyboard-response","65","185475","0.0-11.0-2.18","","null","","<div class='trialDiv'><img src='Fruit/apple.png'><br><font class='baseline'><strong>Awesome Apples</strong><p>Choose number of points to bet.</font><div class='respPicDiv'><img src='img/responseButtonOffersNo0L4.png' class='respPic'></div></div>","null","7","Awesome Apples","Fruit/apple.png","Won","0.8,0.35","9","0.8","90","19","",""
"","","","feedback","","5ecbd383243b3438410dae19","bdp_rwlrn","Tue Mar 14 2023 19:25:05 GMT-0500 (Central Daylight Time)","494369","Trustworthy,Untrustworthy","html-keyboard-response","66","186488","0.0-11.0-3.18","","null","","<div class='respPicDiv'><img src='img/responseButtonOffersNo0_wht.png' class='respPic'></div><div class='trialDiv'><img src='Fruit/apple.png'><br><font class='baseline'><strong>Awesome Apples</strong><p><strong><font class='posOutcome'>You WON</font><p>You bet: 4</strong></font> &nbsp; &nbsp; &nbsp; &nbsp; &nbsp; &nbsp;<font class='posOutcome'>you receive: <strong>8</strong></font></div>","null","7","Awesome Apples","Fruit/apple.png","Won","0.8,0.35","9","0.8","98","19","",""
"","","","decision","","5ecbd383243b3438410dae19","bdp_rwlrn","Tue Mar 14 2023 19:25:05 GMT-0500 (Central Daylight Time)","494369","Trustworthy,Untrustworthy","html-keyboard-response","67","187421","0.0-11.0-1.19","","932","","<div class='trialDiv'><img src='Fruit/mango.png'><br><font class='baseline'><strong>Mega Mangos</strong><p>Choose number of points to bet.</font><div class='respPicDiv'><img src='img/responseButtonOffersNo0L.png' class='respPic'></div></div>","2","7","Mega Mangos","Fruit/mango.png","Lost","0.35,0.8","12","0.35","103","20","",""
"","","","decisionFB","","5ecbd383243b3438410dae19","bdp_rwlrn","Tue Mar 14 2023 19:25:05 GMT-0500 (Central Daylight Time)","494369","Trustworthy,Untrustworthy","html-keyboard-response","68","187678","0.0-11.0-2.19","","null","","<div class='trialDiv'><img src='Fruit/mango.png'><br><font class='baseline'><strong>Mega Mangos</strong><p>Choose number of points to bet.</font><div class='respPicDiv'><img src='img/responseButtonOffersNo0L2.png' class='respPic'></div></div>","null","7","Mega Mangos","Fruit/mango.png","Lost","0.35,0.8","12","0.35","101","20","",""
"","","","feedback","","5ecbd383243b3438410dae19","bdp_rwlrn","Tue Mar 14 2023 19:25:05 GMT-0500 (Central Daylight Time)","494369","Trustworthy,Untrustworthy","html-keyboard-response","69","188692","0.0-11.0-3.19","","null","","<div class='respPicDiv'><img src='img/responseButtonOffersNo0_wht.png' class='respPic'></div><div class='trialDiv'><img src='Fruit/mango.png'><br><font class='baseline'><strong>Mega Mangos</strong><p><strong><font class='negOutcome'>You LOST</font><p>You bet: 2</strong></font> &nbsp; &nbsp; &nbsp; &nbsp; &nbsp; &nbsp;<font class='negOutcome'>You receive: <strong>0</strong></font></div>","null","7","Mega Mangos","Fruit/mango.png","Lost","0.35,0.8","12","0.35","101","20","",""
"","","","decision","","5ecbd383243b3438410dae19","bdp_rwlrn","Tue Mar 14 2023 19:25:05 GMT-0500 (Central Daylight Time)","494369","Trustworthy,Untrustworthy","html-keyboard-response","70","189285","0.0-11.0-1.20","","592","","<div class='trialDiv'><img src='Fruit/orange.png'><br><font class='baseline'><strong>Odds are Orange</strong><p>Choose number of points to bet.</font><div class='respPicDiv'><img src='img/responseButtonOffersNo0L.png' class='respPic'></div></div>","5","7","Odds are Orange","Fruit/orange.png","Lost","0.35,0.65","14","0.35","106","21","",""
"","","","decisionFB","","5ecbd383243b3438410dae19","bdp_rwlrn","Tue Mar 14 2023 19:25:05 GMT-0500 (Central Daylight Time)","494369","Trustworthy,Untrustworthy","html-keyboard-response","71","189541","0.0-11.0-2.20","","null","","<div class='trialDiv'><img src='Fruit/orange.png'><br><font class='baseline'><strong>Odds are Orange</strong><p>Choose number of points to bet.</font><div class='respPicDiv'><img src='img/responseButtonOffersNo0L5.png' class='respPic'></div></div>","null","7","Odds are Orange","Fruit/orange.png","Lost","0.35,0.65","14","0.35","101","21","",""
"","","","feedback","","5ecbd383243b3438410dae19","bdp_rwlrn","Tue Mar 14 2023 19:25:05 GMT-0500 (Central Daylight Time)","494369","Trustworthy,Untrustworthy","html-keyboard-response","72","190548","0.0-11.0-3.20","","null","","<div class='respPicDiv'><img src='img/responseButtonOffersNo0_wht.png' class='respPic'></div><div class='trialDiv'><img src='Fruit/orange.png'><br><font class='baseline'><strong>Odds are Orange</strong><p><strong><font class='negOutcome'>You LOST</font><p>You bet: 5</strong></font> &nbsp; &nbsp; &nbsp; &nbsp; &nbsp; &nbsp;<font class='negOutcome'>You receive: <strong>0</strong></font></div>","null","7","Odds are Orange","Fruit/orange.png","Lost","0.35,0.65","14","0.35","101","21","",""
"","","","decision","","5ecbd383243b3438410dae19","bdp_rwlrn","Tue Mar 14 2023 19:25:05 GMT-0500 (Central Daylight Time)","494369","Trustworthy,Untrustworthy","html-keyboard-response","73","191069","0.0-11.0-1.21","","520","","<div class='trialDiv'><img src='Fruit/apple.png'><br><font class='baseline'><strong>Awesome Apples</strong><p>Choose number of points to bet.</font><div class='respPicDiv'><img src='img/responseButtonOffersNo0L.png' class='respPic'></div></div>","3","8","Awesome Apples","Fruit/apple.png","Won","0.8,0.35","9","0.8","106","22","",""
"","","","decisionFB","","5ecbd383243b3438410dae19","bdp_rwlrn","Tue Mar 14 2023 19:25:05 GMT-0500 (Central Daylight Time)","494369","Trustworthy,Untrustworthy","html-keyboard-response","74","191325","0.0-11.0-2.21","","null","","<div class='trialDiv'><img src='Fruit/apple.png'><br><font class='baseline'><strong>Awesome Apples</strong><p>Choose number of points to bet.</font><div class='respPicDiv'><img src='img/responseButtonOffersNo0L3.png' class='respPic'></div></div>","null","8","Awesome Apples","Fruit/apple.png","Won","0.8,0.35","9","0.8","103","22","",""
"","","","feedback","","5ecbd383243b3438410dae19","bdp_rwlrn","Tue Mar 14 2023 19:25:05 GMT-0500 (Central Daylight Time)","494369","Trustworthy,Untrustworthy","html-keyboard-response","75","192340","0.0-11.0-3.21","","null","","<div class='respPicDiv'><img src='img/responseButtonOffersNo0_wht.png' class='respPic'></div><div class='trialDiv'><img src='Fruit/apple.png'><br><font class='baseline'><strong>Awesome Apples</strong><p><strong><font class='posOutcome'>You WON</font><p>You bet: 3</strong></font> &nbsp; &nbsp; &nbsp; &nbsp; &nbsp; &nbsp;<font class='posOutcome'>you receive: <strong>6</strong></font></div>","null","8","Awesome Apples","Fruit/apple.png","Won","0.8,0.35","9","0.8","109","22","",""
"","","","decision","","5ecbd383243b3438410dae19","bdp_rwlrn","Tue Mar 14 2023 19:25:05 GMT-0500 (Central Daylight Time)","494369","Trustworthy,Untrustworthy","html-keyboard-response","76","193017","0.0-11.0-1.22","","676","","<div class='trialDiv'><img src='Fruit/orange.png'><br><font class='baseline'><strong>Odds are Orange</strong><p>Choose number of points to bet.</font><div class='respPicDiv'><img src='img/responseButtonOffersNo0L.png' class='respPic'></div></div>","3","8","Odds are Orange","Fruit/orange.png","Lost","0.35,0.65","14","0.35","114","23","",""
"","","","decisionFB","","5ecbd383243b3438410dae19","bdp_rwlrn","Tue Mar 14 2023 19:25:05 GMT-0500 (Central Daylight Time)","494369","Trustworthy,Untrustworthy","html-keyboard-response","77","193272","0.0-11.0-2.22","","null","","<div class='trialDiv'><img src='Fruit/orange.png'><br><font class='baseline'><strong>Odds are Orange</strong><p>Choose number of points to bet.</font><div class='respPicDiv'><img src='img/responseButtonOffersNo0L3.png' class='respPic'></div></div>","null","8","Odds are Orange","Fruit/orange.png","Lost","0.35,0.65","14","0.35","111","23","",""
"","","","feedback","","5ecbd383243b3438410dae19","bdp_rwlrn","Tue Mar 14 2023 19:25:05 GMT-0500 (Central Daylight Time)","494369","Trustworthy,Untrustworthy","html-keyboard-response","78","194280","0.0-11.0-3.22","","null","","<div class='respPicDiv'><img src='img/responseButtonOffersNo0_wht.png' class='respPic'></div><div class='trialDiv'><img src='Fruit/orange.png'><br><font class='baseline'><strong>Odds are Orange</strong><p><strong><font class='negOutcome'>You LOST</font><p>You bet: 3</strong></font> &nbsp; &nbsp; &nbsp; &nbsp; &nbsp; &nbsp;<font class='negOutcome'>You receive: <strong>0</strong></font></div>","null","8","Odds are Orange","Fruit/orange.png","Lost","0.35,0.65","14","0.35","111","23","",""
"","","","decision","","5ecbd383243b3438410dae19","bdp_rwlrn","Tue Mar 14 2023 19:25:05 GMT-0500 (Central Daylight Time)","494369","Trustworthy,Untrustworthy","html-keyboard-response","79","196014","0.0-11.0-1.23","","1734","","<div class='trialDiv'><img src='Fruit/mango.png'><br><font class='baseline'><strong>Mega Mangos</strong><p>Choose number of points to bet.</font><div class='respPicDiv'><img src='img/responseButtonOffersNo0L.png' class='respPic'></div></div>","2","8","Mega Mangos","Fruit/mango.png","Won","0.35,0.8","12","0.35","116","24","",""
"","","","decisionFB","","5ecbd383243b3438410dae19","bdp_rwlrn","Tue Mar 14 2023 19:25:05 GMT-0500 (Central Daylight Time)","494369","Trustworthy,Untrustworthy","html-keyboard-response","80","196265","0.0-11.0-2.23","","null","","<div class='trialDiv'><img src='Fruit/mango.png'><br><font class='baseline'><strong>Mega Mangos</strong><p>Choose number of points to bet.</font><div class='respPicDiv'><img src='img/responseButtonOffersNo0L2.png' class='respPic'></div></div>","null","8","Mega Mangos","Fruit/mango.png","Won","0.35,0.8","12","0.35","114","24","",""
"","","","feedback","","5ecbd383243b3438410dae19","bdp_rwlrn","Tue Mar 14 2023 19:25:05 GMT-0500 (Central Daylight Time)","494369","Trustworthy,Untrustworthy","html-keyboard-response","81","197274","0.0-11.0-3.23","","null","","<div class='respPicDiv'><img src='img/responseButtonOffersNo0_wht.png' class='respPic'></div><div class='trialDiv'><img src='Fruit/mango.png'><br><font class='baseline'><strong>Mega Mangos</strong><p><strong><font class='posOutcome'>You WON</font><p>You bet: 2</strong></font> &nbsp; &nbsp; &nbsp; &nbsp; &nbsp; &nbsp;<font class='posOutcome'>you receive: <strong>4</strong></font></div>","null","8","Mega Mangos","Fruit/mango.png","Won","0.35,0.8","12","0.35","118","24","",""
"","","","decision","","5ecbd383243b3438410dae19","bdp_rwlrn","Tue Mar 14 2023 19:25:05 GMT-0500 (Central Daylight Time)","494369","Trustworthy,Untrustworthy","html-keyboard-response","82","198062","0.0-11.0-1.24","","787","","<div class='trialDiv'><img src='Fruit/apple.png'><br><font class='baseline'><strong>Awesome Apples</strong><p>Choose number of points to bet.</font><div class='respPicDiv'><img src='img/responseButtonOffersNo0L.png' class='respPic'></div></div>","3","9","Awesome Apples","Fruit/apple.png","Won","0.8,0.35","9","0.8","123","25","",""
"","","","decisionFB","","5ecbd383243b3438410dae19","bdp_rwlrn","Tue Mar 14 2023 19:25:05 GMT-0500 (Central Daylight Time)","494369","Trustworthy,Untrustworthy","html-keyboard-response","83","198317","0.0-11.0-2.24","","null","","<div class='trialDiv'><img src='Fruit/apple.png'><br><font class='baseline'><strong>Awesome Apples</strong><p>Choose number of points to bet.</font><div class='respPicDiv'><img src='img/responseButtonOffersNo0L3.png' class='respPic'></div></div>","null","9","Awesome Apples","Fruit/apple.png","Won","0.8,0.35","9","0.8","120","25","",""
"","","","feedback","","5ecbd383243b3438410dae19","bdp_rwlrn","Tue Mar 14 2023 19:25:05 GMT-0500 (Central Daylight Time)","494369","Trustworthy,Untrustworthy","html-keyboard-response","84","199332","0.0-11.0-3.24","","null","","<div class='respPicDiv'><img src='img/responseButtonOffersNo0_wht.png' class='respPic'></div><div class='trialDiv'><img src='Fruit/apple.png'><br><font class='baseline'><strong>Awesome Apples</strong><p><strong><font class='posOutcome'>You WON</font><p>You bet: 3</strong></font> &nbsp; &nbsp; &nbsp; &nbsp; &nbsp; &nbsp;<font class='posOutcome'>you receive: <strong>6</strong></font></div>","null","9","Awesome Apples","Fruit/apple.png","Won","0.8,0.35","9","0.8","126","25","",""
"","","","decision","","5ecbd383243b3438410dae19","bdp_rwlrn","Tue Mar 14 2023 19:25:05 GMT-0500 (Central Daylight Time)","494369","Trustworthy,Untrustworthy","html-keyboard-response","85","200366","0.0-11.0-1.25","","1034","","<div class='trialDiv'><img src='Fruit/orange.png'><br><font class='baseline'><strong>Odds are Orange</strong><p>Choose number of points to bet.</font><div class='respPicDiv'><img src='img/responseButtonOffersNo0L.png' class='respPic'></div></div>","1","9","Odds are Orange","Fruit/orange.png","Lost","0.35,0.65","14","0.35","131","26","",""
"","","","decisionFB","","5ecbd383243b3438410dae19","bdp_rwlrn","Tue Mar 14 2023 19:25:05 GMT-0500 (Central Daylight Time)","494369","Trustworthy,Untrustworthy","html-keyboard-response","86","200623","0.0-11.0-2.25","","null","","<div class='trialDiv'><img src='Fruit/orange.png'><br><font class='baseline'><strong>Odds are Orange</strong><p>Choose number of points to bet.</font><div class='respPicDiv'><img src='img/responseButtonOffersNo0L1.png' class='respPic'></div></div>","null","9","Odds are Orange","Fruit/orange.png","Lost","0.35,0.65","14","0.35","130","26","",""
"","","","feedback","","5ecbd383243b3438410dae19","bdp_rwlrn","Tue Mar 14 2023 19:25:05 GMT-0500 (Central Daylight Time)","494369","Trustworthy,Untrustworthy","html-keyboard-response","87","201634","0.0-11.0-3.25","","null","","<div class='respPicDiv'><img src='img/responseButtonOffersNo0_wht.png' class='respPic'></div><div class='trialDiv'><img src='Fruit/orange.png'><br><font class='baseline'><strong>Odds are Orange</strong><p><strong><font class='negOutcome'>You LOST</font><p>You bet: 1</strong></font> &nbsp; &nbsp; &nbsp; &nbsp; &nbsp; &nbsp;<font class='negOutcome'>You receive: <strong>0</strong></font></div>","null","9","Odds are Orange","Fruit/orange.png","Lost","0.35,0.65","14","0.35","130","26","",""
"","","","decision","","5ecbd383243b3438410dae19","bdp_rwlrn","Tue Mar 14 2023 19:25:05 GMT-0500 (Central Daylight Time)","494369","Trustworthy,Untrustworthy","html-keyboard-response","88","202811","0.0-11.0-1.26","","1176","","<div class='trialDiv'><img src='Fruit/mango.png'><br><font class='baseline'><strong>Mega Mangos</strong><p>Choose number of points to bet.</font><div class='respPicDiv'><img src='img/responseButtonOffersNo0L.png' class='respPic'></div></div>","3","9","Mega Mangos","Fruit/mango.png","Lost","0.35,0.8","12","0.35","135","27","",""
"","","","decisionFB","","5ecbd383243b3438410dae19","bdp_rwlrn","Tue Mar 14 2023 19:25:05 GMT-0500 (Central Daylight Time)","494369","Trustworthy,Untrustworthy","html-keyboard-response","89","203074","0.0-11.0-2.26","","null","","<div class='trialDiv'><img src='Fruit/mango.png'><br><font class='baseline'><strong>Mega Mangos</strong><p>Choose number of points to bet.</font><div class='respPicDiv'><img src='img/responseButtonOffersNo0L3.png' class='respPic'></div></div>","null","9","Mega Mangos","Fruit/mango.png","Lost","0.35,0.8","12","0.35","132","27","",""
"","","","feedback","","5ecbd383243b3438410dae19","bdp_rwlrn","Tue Mar 14 2023 19:25:05 GMT-0500 (Central Daylight Time)","494369","Trustworthy,Untrustworthy","html-keyboard-response","90","204083","0.0-11.0-3.26","","null","","<div class='respPicDiv'><img src='img/responseButtonOffersNo0_wht.png' class='respPic'></div><div class='trialDiv'><img src='Fruit/mango.png'><br><font class='baseline'><strong>Mega Mangos</strong><p><strong><font class='negOutcome'>You LOST</font><p>You bet: 3</strong></font> &nbsp; &nbsp; &nbsp; &nbsp; &nbsp; &nbsp;<font class='negOutcome'>You receive: <strong>0</strong></font></div>","null","9","Mega Mangos","Fruit/mango.png","Lost","0.35,0.8","12","0.35","132","27","",""
"","","","decision","","5ecbd383243b3438410dae19","bdp_rwlrn","Tue Mar 14 2023 19:25:05 GMT-0500 (Central Daylight Time)","494369","Trustworthy,Untrustworthy","html-keyboard-response","91","204594","0.0-11.0-1.27","","511","","<div class='trialDiv'><img src='Fruit/orange.png'><br><font class='baseline'><strong>Odds are Orange</strong><p>Choose number of points to bet.</font><div class='respPicDiv'><img src='img/responseButtonOffersNo0L.png' class='respPic'></div></div>","2","10","Odds are Orange","Fruit/orange.png","Lost","0.35,0.65","14","0.35","137","28","",""
"","","","decisionFB","","5ecbd383243b3438410dae19","bdp_rwlrn","Tue Mar 14 2023 19:25:05 GMT-0500 (Central Daylight Time)","494369","Trustworthy,Untrustworthy","html-keyboard-response","92","204860","0.0-11.0-2.27","","null","","<div class='trialDiv'><img src='Fruit/orange.png'><br><font class='baseline'><strong>Odds are Orange</strong><p>Choose number of points to bet.</font><div class='respPicDiv'><img src='img/responseButtonOffersNo0L2.png' class='respPic'></div></div>","null","10","Odds are Orange","Fruit/orange.png","Lost","0.35,0.65","14","0.35","135","28","",""
"","","","feedback","","5ecbd383243b3438410dae19","bdp_rwlrn","Tue Mar 14 2023 19:25:05 GMT-0500 (Central Daylight Time)","494369","Trustworthy,Untrustworthy","html-keyboard-response","93","205866","0.0-11.0-3.27","","null","","<div class='respPicDiv'><img src='img/responseButtonOffersNo0_wht.png' class='respPic'></div><div class='trialDiv'><img src='Fruit/orange.png'><br><font class='baseline'><strong>Odds are Orange</strong><p><strong><font class='negOutcome'>You LOST</font><p>You bet: 2</strong></font> &nbsp; &nbsp; &nbsp; &nbsp; &nbsp; &nbsp;<font class='negOutcome'>You receive: <strong>0</strong></font></div>","null","10","Odds are Orange","Fruit/orange.png","Lost","0.35,0.65","14","0.35","135","28","",""
"","","","decision","","5ecbd383243b3438410dae19","bdp_rwlrn","Tue Mar 14 2023 19:25:05 GMT-0500 (Central Daylight Time)","494369","Trustworthy,Untrustworthy","html-keyboard-response","94","206418","0.0-11.0-1.28","","552","","<div class='trialDiv'><img src='Fruit/mango.png'><br><font class='baseline'><strong>Mega Mangos</strong><p>Choose number of points to bet.</font><div class='respPicDiv'><img src='img/responseButtonOffersNo0L.png' class='respPic'></div></div>","4","10","Mega Mangos","Fruit/mango.png","Lost","0.35,0.8","12","0.35","140","29","",""
"","","","decisionFB","","5ecbd383243b3438410dae19","bdp_rwlrn","Tue Mar 14 2023 19:25:05 GMT-0500 (Central Daylight Time)","494369","Trustworthy,Untrustworthy","html-keyboard-response","95","206674","0.0-11.0-2.28","","null","","<div class='trialDiv'><img src='Fruit/mango.png'><br><font class='baseline'><strong>Mega Mangos</strong><p>Choose number of points to bet.</font><div class='respPicDiv'><img src='img/responseButtonOffersNo0L4.png' class='respPic'></div></div>","null","10","Mega Mangos","Fruit/mango.png","Lost","0.35,0.8","12","0.35","136","29","",""
"","","","feedback","","5ecbd383243b3438410dae19","bdp_rwlrn","Tue Mar 14 2023 19:25:05 GMT-0500 (Central Daylight Time)","494369","Trustworthy,Untrustworthy","html-keyboard-response","96","207684","0.0-11.0-3.28","","null","","<div class='respPicDiv'><img src='img/responseButtonOffersNo0_wht.png' class='respPic'></div><div class='trialDiv'><img src='Fruit/mango.png'><br><font class='baseline'><strong>Mega Mangos</strong><p><strong><font class='negOutcome'>You LOST</font><p>You bet: 4</strong></font> &nbsp; &nbsp; &nbsp; &nbsp; &nbsp; &nbsp;<font class='negOutcome'>You receive: <strong>0</strong></font></div>","null","10","Mega Mangos","Fruit/mango.png","Lost","0.35,0.8","12","0.35","136","29","",""
"","","","decision","","5ecbd383243b3438410dae19","bdp_rwlrn","Tue Mar 14 2023 19:25:05 GMT-0500 (Central Daylight Time)","494369","Trustworthy,Untrustworthy","html-keyboard-response","97","208783","0.0-11.0-1.29","","1097","","<div class='trialDiv'><img src='Fruit/apple.png'><br><font class='baseline'><strong>Awesome Apples</strong><p>Choose number of points to bet.</font><div class='respPicDiv'><img src='img/responseButtonOffersNo0L.png' class='respPic'></div></div>","5","10","Awesome Apples","Fruit/apple.png","Won","0.8,0.35","9","0.8","141","30","",""
"","","","decisionFB","","5ecbd383243b3438410dae19","bdp_rwlrn","Tue Mar 14 2023 19:25:05 GMT-0500 (Central Daylight Time)","494369","Trustworthy,Untrustworthy","html-keyboard-response","98","209034","0.0-11.0-2.29","","null","","<div class='trialDiv'><img src='Fruit/apple.png'><br><font class='baseline'><strong>Awesome Apples</strong><p>Choose number of points to bet.</font><div class='respPicDiv'><img src='img/responseButtonOffersNo0L5.png' class='respPic'></div></div>","null","10","Awesome Apples","Fruit/apple.png","Won","0.8,0.35","9","0.8","136","30","",""
"","","","feedback","","5ecbd383243b3438410dae19","bdp_rwlrn","Tue Mar 14 2023 19:25:05 GMT-0500 (Central Daylight Time)","494369","Trustworthy,Untrustworthy","html-keyboard-response","99","210045","0.0-11.0-3.29","","null","","<div class='respPicDiv'><img src='img/responseButtonOffersNo0_wht.png' class='respPic'></div><div class='trialDiv'><img src='Fruit/apple.png'><br><font class='baseline'><strong>Awesome Apples</strong><p><strong><font class='posOutcome'>You WON</font><p>You bet: 5</strong></font> &nbsp; &nbsp; &nbsp; &nbsp; &nbsp; &nbsp;<font class='posOutcome'>you receive: <strong>10</strong></font></div>","null","10","Awesome Apples","Fruit/apple.png","Won","0.8,0.35","9","0.8","146","30","",""
"","","","decision","","5ecbd383243b3438410dae19","bdp_rwlrn","Tue Mar 14 2023 19:25:05 GMT-0500 (Central Daylight Time)","494369","Trustworthy,Untrustworthy","html-keyboard-response","100","211091","0.0-11.0-1.30","","1045","","<div class='trialDiv'><img src='Fruit/mango.png'><br><font class='baseline'><strong>Mega Mangos</strong><p>Choose number of points to bet.</font><div class='respPicDiv'><img src='img/responseButtonOffersNo0L.png' class='respPic'></div></div>","1","11","Mega Mangos","Fruit/mango.png","Won","0.35,0.8","12","0.35","151","31","",""
"","","","decisionFB","","5ecbd383243b3438410dae19","bdp_rwlrn","Tue Mar 14 2023 19:25:05 GMT-0500 (Central Daylight Time)","494369","Trustworthy,Untrustworthy","html-keyboard-response","101","211349","0.0-11.0-2.30","","null","","<div class='trialDiv'><img src='Fruit/mango.png'><br><font class='baseline'><strong>Mega Mangos</strong><p>Choose number of points to bet.</font><div class='respPicDiv'><img src='img/responseButtonOffersNo0L1.png' class='respPic'></div></div>","null","11","Mega Mangos","Fruit/mango.png","Won","0.35,0.8","12","0.35","150","31","",""
"","","","feedback","","5ecbd383243b3438410dae19","bdp_rwlrn","Tue Mar 14 2023 19:25:05 GMT-0500 (Central Daylight Time)","494369","Trustworthy,Untrustworthy","html-keyboard-response","102","212362","0.0-11.0-3.30","","null","","<div class='respPicDiv'><img src='img/responseButtonOffersNo0_wht.png' class='respPic'></div><div class='trialDiv'><img src='Fruit/mango.png'><br><font class='baseline'><strong>Mega Mangos</strong><p><strong><font class='posOutcome'>You WON</font><p>You bet: 1</strong></font> &nbsp; &nbsp; &nbsp; &nbsp; &nbsp; &nbsp;<font class='posOutcome'>you receive: <strong>2</strong></font></div>","null","11","Mega Mangos","Fruit/mango.png","Won","0.35,0.8","12","0.35","152","31","",""
"","","","decision","","5ecbd383243b3438410dae19","bdp_rwlrn","Tue Mar 14 2023 19:25:05 GMT-0500 (Central Daylight Time)","494369","Trustworthy,Untrustworthy","html-keyboard-response","103","212886","0.0-11.0-1.31","","522","","<div class='trialDiv'><img src='Fruit/orange.png'><br><font class='baseline'><strong>Odds are Orange</strong><p>Choose number of points to bet.</font><div class='respPicDiv'><img src='img/responseButtonOffersNo0L.png' class='respPic'></div></div>","2","11","Odds are Orange","Fruit/orange.png","Lost","0.35,0.65","14","0.35","157","32","",""
"","","","decisionFB","","5ecbd383243b3438410dae19","bdp_rwlrn","Tue Mar 14 2023 19:25:05 GMT-0500 (Central Daylight Time)","494369","Trustworthy,Untrustworthy","html-keyboard-response","104","213137","0.0-11.0-2.31","","null","","<div class='trialDiv'><img src='Fruit/orange.png'><br><font class='baseline'><strong>Odds are Orange</strong><p>Choose number of points to bet.</font><div class='respPicDiv'><img src='img/responseButtonOffersNo0L2.png' class='respPic'></div></div>","null","11","Odds are Orange","Fruit/orange.png","Lost","0.35,0.65","14","0.35","155","32","",""
"","","","feedback","","5ecbd383243b3438410dae19","bdp_rwlrn","Tue Mar 14 2023 19:25:05 GMT-0500 (Central Daylight Time)","494369","Trustworthy,Untrustworthy","html-keyboard-response","105","214149","0.0-11.0-3.31","","null","","<div class='respPicDiv'><img src='img/responseButtonOffersNo0_wht.png' class='respPic'></div><div class='trialDiv'><img src='Fruit/orange.png'><br><font class='baseline'><strong>Odds are Orange</strong><p><strong><font class='negOutcome'>You LOST</font><p>You bet: 2</strong></font> &nbsp; &nbsp; &nbsp; &nbsp; &nbsp; &nbsp;<font class='negOutcome'>You receive: <strong>0</strong></font></div>","null","11","Odds are Orange","Fruit/orange.png","Lost","0.35,0.65","14","0.35","155","32","",""
"","","","decision","","5ecbd383243b3438410dae19","bdp_rwlrn","Tue Mar 14 2023 19:25:05 GMT-0500 (Central Daylight Time)","494369","Trustworthy,Untrustworthy","html-keyboard-response","106","214685","0.0-11.0-1.32","","535","","<div class='trialDiv'><img src='Fruit/apple.png'><br><font class='baseline'><strong>Awesome Apples</strong><p>Choose number of points to bet.</font><div class='respPicDiv'><img src='img/responseButtonOffersNo0L.png' class='respPic'></div></div>","2","11","Awesome Apples","Fruit/apple.png","Lost","0.8,0.35","9","0.8","160","33","",""
"","","","decisionFB","","5ecbd383243b3438410dae19","bdp_rwlrn","Tue Mar 14 2023 19:25:05 GMT-0500 (Central Daylight Time)","494369","Trustworthy,Untrustworthy","html-keyboard-response","107","214942","0.0-11.0-2.32","","null","","<div class='trialDiv'><img src='Fruit/apple.png'><br><font class='baseline'><strong>Awesome Apples</strong><p>Choose number of points to bet.</font><div class='respPicDiv'><img src='img/responseButtonOffersNo0L2.png' class='respPic'></div></div>","null","11","Awesome Apples","Fruit/apple.png","Lost","0.8,0.35","9","0.8","158","33","",""
"","","","feedback","","5ecbd383243b3438410dae19","bdp_rwlrn","Tue Mar 14 2023 19:25:05 GMT-0500 (Central Daylight Time)","494369","Trustworthy,Untrustworthy","html-keyboard-response","108","215952","0.0-11.0-3.32","","null","","<div class='respPicDiv'><img src='img/responseButtonOffersNo0_wht.png' class='respPic'></div><div class='trialDiv'><img src='Fruit/apple.png'><br><font class='baseline'><strong>Awesome Apples</strong><p><strong><font class='negOutcome'>You LOST</font><p>You bet: 2</strong></font> &nbsp; &nbsp; &nbsp; &nbsp; &nbsp; &nbsp;<font class='negOutcome'>You receive: <strong>0</strong></font></div>","null","11","Awesome Apples","Fruit/apple.png","Lost","0.8,0.35","9","0.8","158","33","",""
"","","","decision","","5ecbd383243b3438410dae19","bdp_rwlrn","Tue Mar 14 2023 19:25:05 GMT-0500 (Central Daylight Time)","494369","Trustworthy,Untrustworthy","html-keyboard-response","109","216521","0.0-11.0-1.33","","569","","<div class='trialDiv'><img src='Fruit/mango.png'><br><font class='baseline'><strong>Mega Mangos</strong><p>Choose number of points to bet.</font><div class='respPicDiv'><img src='img/responseButtonOffersNo0L.png' class='respPic'></div></div>","4","12","Mega Mangos","Fruit/mango.png","Won","0.35,0.8","12","0.35","163","34","",""
"","","","decisionFB","","5ecbd383243b3438410dae19","bdp_rwlrn","Tue Mar 14 2023 19:25:05 GMT-0500 (Central Daylight Time)","494369","Trustworthy,Untrustworthy","html-keyboard-response","110","216776","0.0-11.0-2.33","","null","","<div class='trialDiv'><img src='Fruit/mango.png'><br><font class='baseline'><strong>Mega Mangos</strong><p>Choose number of points to bet.</font><div class='respPicDiv'><img src='img/responseButtonOffersNo0L4.png' class='respPic'></div></div>","null","12","Mega Mangos","Fruit/mango.png","Won","0.35,0.8","12","0.35","159","34","",""
"","","","feedback","","5ecbd383243b3438410dae19","bdp_rwlrn","Tue Mar 14 2023 19:25:05 GMT-0500 (Central Daylight Time)","494369","Trustworthy,Untrustworthy","html-keyboard-response","111","217788","0.0-11.0-3.33","","null","","<div class='respPicDiv'><img src='img/responseButtonOffersNo0_wht.png' class='respPic'></div><div class='trialDiv'><img src='Fruit/mango.png'><br><font class='baseline'><strong>Mega Mangos</strong><p><strong><font class='posOutcome'>You WON</font><p>You bet: 4</strong></font> &nbsp; &nbsp; &nbsp; &nbsp; &nbsp; &nbsp;<font class='posOutcome'>you receive: <strong>8</strong></font></div>","null","12","Mega Mangos","Fruit/mango.png","Won","0.35,0.8","12","0.35","167","34","",""
"","","","decision","","5ecbd383243b3438410dae19","bdp_rwlrn","Tue Mar 14 2023 19:25:05 GMT-0500 (Central Daylight Time)","494369","Trustworthy,Untrustworthy","html-keyboard-response","112","218622","0.0-11.0-1.34","","833","","<div class='trialDiv'><img src='Fruit/orange.png'><br><font class='baseline'><strong>Odds are Orange</strong><p>Choose number of points to bet.</font><div class='respPicDiv'><img src='img/responseButtonOffersNo0L.png' class='respPic'></div></div>","1","12","Odds are Orange","Fruit/orange.png","Lost","0.35,0.65","14","0.35","172","35","",""
"","","","decisionFB","","5ecbd383243b3438410dae19","bdp_rwlrn","Tue Mar 14 2023 19:25:05 GMT-0500 (Central Daylight Time)","494369","Trustworthy,Untrustworthy","html-keyboard-response","113","218888","0.0-11.0-2.34","","null","","<div class='trialDiv'><img src='Fruit/orange.png'><br><font class='baseline'><strong>Odds are Orange</strong><p>Choose number of points to bet.</font><div class='respPicDiv'><img src='img/responseButtonOffersNo0L1.png' class='respPic'></div></div>","null","12","Odds are Orange","Fruit/orange.png","Lost","0.35,0.65","14","0.35","171","35","",""
"","","","feedback","","5ecbd383243b3438410dae19","bdp_rwlrn","Tue Mar 14 2023 19:25:05 GMT-0500 (Central Daylight Time)","494369","Trustworthy,Untrustworthy","html-keyboard-response","114","219898","0.0-11.0-3.34","","null","","<div class='respPicDiv'><img src='img/responseButtonOffersNo0_wht.png' class='respPic'></div><div class='trialDiv'><img src='Fruit/orange.png'><br><font class='baseline'><strong>Odds are Orange</strong><p><strong><font class='negOutcome'>You LOST</font><p>You bet: 1</strong></font> &nbsp; &nbsp; &nbsp; &nbsp; &nbsp; &nbsp;<font class='negOutcome'>You receive: <strong>0</strong></font></div>","null","12","Odds are Orange","Fruit/orange.png","Lost","0.35,0.65","14","0.35","171","35","",""
"","","","decision","","5ecbd383243b3438410dae19","bdp_rwlrn","Tue Mar 14 2023 19:25:05 GMT-0500 (Central Daylight Time)","494369","Trustworthy,Untrustworthy","html-keyboard-response","115","220960","0.0-11.0-1.35","","1062","","<div class='trialDiv'><img src='Fruit/apple.png'><br><font class='baseline'><strong>Awesome Apples</strong><p>Choose number of points to bet.</font><div class='respPicDiv'><img src='img/responseButtonOffersNo0L.png' class='respPic'></div></div>","2","12","Awesome Apples","Fruit/apple.png","Won","0.8,0.35","9","0.8","176","36","",""
"","","","decisionFB","","5ecbd383243b3438410dae19","bdp_rwlrn","Tue Mar 14 2023 19:25:05 GMT-0500 (Central Daylight Time)","494369","Trustworthy,Untrustworthy","html-keyboard-response","116","221219","0.0-11.0-2.35","","null","","<div class='trialDiv'><img src='Fruit/apple.png'><br><font class='baseline'><strong>Awesome Apples</strong><p>Choose number of points to bet.</font><div class='respPicDiv'><img src='img/responseButtonOffersNo0L2.png' class='respPic'></div></div>","null","12","Awesome Apples","Fruit/apple.png","Won","0.8,0.35","9","0.8","174","36","",""
"","","","feedback","","5ecbd383243b3438410dae19","bdp_rwlrn","Tue Mar 14 2023 19:25:05 GMT-0500 (Central Daylight Time)","494369","Trustworthy,Untrustworthy","html-keyboard-response","117","222227","0.0-11.0-3.35","","null","","<div class='respPicDiv'><img src='img/responseButtonOffersNo0_wht.png' class='respPic'></div><div class='trialDiv'><img src='Fruit/apple.png'><br><font class='baseline'><strong>Awesome Apples</strong><p><strong><font class='posOutcome'>You WON</font><p>You bet: 2</strong></font> &nbsp; &nbsp; &nbsp; &nbsp; &nbsp; &nbsp;<font class='posOutcome'>you receive: <strong>4</strong></font></div>","null","12","Awesome Apples","Fruit/apple.png","Won","0.8,0.35","9","0.8","178","36","",""
"","","","decision","","5ecbd383243b3438410dae19","bdp_rwlrn","Tue Mar 14 2023 19:25:05 GMT-0500 (Central Daylight Time)","494369","Trustworthy,Untrustworthy","html-keyboard-response","118","223978","0.0-11.0-1.36","","1750","","<div class='trialDiv'><img src='Fruit/mango.png'><br><font class='baseline'><strong>Mega Mangos</strong><p>Choose number of points to bet.</font><div class='respPicDiv'><img src='img/responseButtonOffersNo0L.png' class='respPic'></div></div>","4","13","Mega Mangos","Fruit/mango.png","Won","0.35,0.8","12","0.35","183","37","",""
"","","","decisionFB","","5ecbd383243b3438410dae19","bdp_rwlrn","Tue Mar 14 2023 19:25:05 GMT-0500 (Central Daylight Time)","494369","Trustworthy,Untrustworthy","html-keyboard-response","119","224230","0.0-11.0-2.36","","null","","<div class='trialDiv'><img src='Fruit/mango.png'><br><font class='baseline'><strong>Mega Mangos</strong><p>Choose number of points to bet.</font><div class='respPicDiv'><img src='img/responseButtonOffersNo0L4.png' class='respPic'></div></div>","null","13","Mega Mangos","Fruit/mango.png","Won","0.35,0.8","12","0.35","179","37","",""
"","","","feedback","","5ecbd383243b3438410dae19","bdp_rwlrn","Tue Mar 14 2023 19:25:05 GMT-0500 (Central Daylight Time)","494369","Trustworthy,Untrustworthy","html-keyboard-response","120","225240","0.0-11.0-3.36","","null","","<div class='respPicDiv'><img src='img/responseButtonOffersNo0_wht.png' class='respPic'></div><div class='trialDiv'><img src='Fruit/mango.png'><br><font class='baseline'><strong>Mega Mangos</strong><p><strong><font class='posOutcome'>You WON</font><p>You bet: 4</strong></font> &nbsp; &nbsp; &nbsp; &nbsp; &nbsp; &nbsp;<font class='posOutcome'>you receive: <strong>8</strong></font></div>","null","13","Mega Mangos","Fruit/mango.png","Won","0.35,0.8","12","0.35","187","37","",""
"","","","decision","","5ecbd383243b3438410dae19","bdp_rwlrn","Tue Mar 14 2023 19:25:05 GMT-0500 (Central Daylight Time)","494369","Trustworthy,Untrustworthy","html-keyboard-response","121","226205","0.0-11.0-1.37","","964","","<div class='trialDiv'><img src='Fruit/orange.png'><br><font class='baseline'><strong>Odds are Orange</strong><p>Choose number of points to bet.</font><div class='respPicDiv'><img src='img/responseButtonOffersNo0L.png' class='respPic'></div></div>","1","13","Odds are Orange","Fruit/orange.png","Lost","0.35,0.65","14","0.35","192","38","",""
"","","","decisionFB","","5ecbd383243b3438410dae19","bdp_rwlrn","Tue Mar 14 2023 19:25:05 GMT-0500 (Central Daylight Time)","494369","Trustworthy,Untrustworthy","html-keyboard-response","122","226468","0.0-11.0-2.37","","null","","<div class='trialDiv'><img src='Fruit/orange.png'><br><font class='baseline'><strong>Odds are Orange</strong><p>Choose number of points to bet.</font><div class='respPicDiv'><img src='img/responseButtonOffersNo0L1.png' class='respPic'></div></div>","null","13","Odds are Orange","Fruit/orange.png","Lost","0.35,0.65","14","0.35","191","38","",""
"","","","feedback","","5ecbd383243b3438410dae19","bdp_rwlrn","Tue Mar 14 2023 19:25:05 GMT-0500 (Central Daylight Time)","494369","Trustworthy,Untrustworthy","html-keyboard-response","123","227481","0.0-11.0-3.37","","null","","<div class='respPicDiv'><img src='img/responseButtonOffersNo0_wht.png' class='respPic'></div><div class='trialDiv'><img src='Fruit/orange.png'><br><font class='baseline'><strong>Odds are Orange</strong><p><strong><font class='negOutcome'>You LOST</font><p>You bet: 1</strong></font> &nbsp; &nbsp; &nbsp; &nbsp; &nbsp; &nbsp;<font class='negOutcome'>You receive: <strong>0</strong></font></div>","null","13","Odds are Orange","Fruit/orange.png","Lost","0.35,0.65","14","0.35","191","38","",""
"","","","decision","","5ecbd383243b3438410dae19","bdp_rwlrn","Tue Mar 14 2023 19:25:05 GMT-0500 (Central Daylight Time)","494369","Trustworthy,Untrustworthy","html-keyboard-response","124","228638","0.0-11.0-1.38","","1156","","<div class='trialDiv'><img src='Fruit/apple.png'><br><font class='baseline'><strong>Awesome Apples</strong><p>Choose number of points to bet.</font><div class='respPicDiv'><img src='img/responseButtonOffersNo0L.png' class='respPic'></div></div>","5","13","Awesome Apples","Fruit/apple.png","Won","0.8,0.35","9","0.8","196","39","",""
"","","","decisionFB","","5ecbd383243b3438410dae19","bdp_rwlrn","Tue Mar 14 2023 19:25:05 GMT-0500 (Central Daylight Time)","494369","Trustworthy,Untrustworthy","html-keyboard-response","125","228900","0.0-11.0-2.38","","null","","<div class='trialDiv'><img src='Fruit/apple.png'><br><font class='baseline'><strong>Awesome Apples</strong><p>Choose number of points to bet.</font><div class='respPicDiv'><img src='img/responseButtonOffersNo0L5.png' class='respPic'></div></div>","null","13","Awesome Apples","Fruit/apple.png","Won","0.8,0.35","9","0.8","191","39","",""
"","","","feedback","","5ecbd383243b3438410dae19","bdp_rwlrn","Tue Mar 14 2023 19:25:05 GMT-0500 (Central Daylight Time)","494369","Trustworthy,Untrustworthy","html-keyboard-response","126","229912","0.0-11.0-3.38","","null","","<div class='respPicDiv'><img src='img/responseButtonOffersNo0_wht.png' class='respPic'></div><div class='trialDiv'><img src='Fruit/apple.png'><br><font class='baseline'><strong>Awesome Apples</strong><p><strong><font class='posOutcome'>You WON</font><p>You bet: 5</strong></font> &nbsp; &nbsp; &nbsp; &nbsp; &nbsp; &nbsp;<font class='posOutcome'>you receive: <strong>10</strong></font></div>","null","13","Awesome Apples","Fruit/apple.png","Won","0.8,0.35","9","0.8","201","39","",""
"","","","decision","","5ecbd383243b3438410dae19","bdp_rwlrn","Tue Mar 14 2023 19:25:05 GMT-0500 (Central Daylight Time)","494369","Trustworthy,Untrustworthy","html-keyboard-response","127","231171","0.0-11.0-1.39","","1258","","<div class='trialDiv'><img src='Fruit/orange.png'><br><font class='baseline'><strong>Odds are Orange</strong><p>Choose number of points to bet.</font><div class='respPicDiv'><img src='img/responseButtonOffersNo0L.png' class='respPic'></div></div>","1","14","Odds are Orange","Fruit/orange.png","Won","0.35,0.65","14","0.35","206","40","",""
"","","","decisionFB","","5ecbd383243b3438410dae19","bdp_rwlrn","Tue Mar 14 2023 19:25:05 GMT-0500 (Central Daylight Time)","494369","Trustworthy,Untrustworthy","html-keyboard-response","128","231437","0.0-11.0-2.39","","null","","<div class='trialDiv'><img src='Fruit/orange.png'><br><font class='baseline'><strong>Odds are Orange</strong><p>Choose number of points to bet.</font><div class='respPicDiv'><img src='img/responseButtonOffersNo0L1.png' class='respPic'></div></div>","null","14","Odds are Orange","Fruit/orange.png","Won","0.35,0.65","14","0.35","205","40","",""
"","","","feedback","","5ecbd383243b3438410dae19","bdp_rwlrn","Tue Mar 14 2023 19:25:05 GMT-0500 (Central Daylight Time)","494369","Trustworthy,Untrustworthy","html-keyboard-response","129","232449","0.0-11.0-3.39","","null","","<div class='respPicDiv'><img src='img/responseButtonOffersNo0_wht.png' class='respPic'></div><div class='trialDiv'><img src='Fruit/orange.png'><br><font class='baseline'><strong>Odds are Orange</strong><p><strong><font class='posOutcome'>You WON</font><p>You bet: 1</strong></font> &nbsp; &nbsp; &nbsp; &nbsp; &nbsp; &nbsp;<font class='posOutcome'>you receive: <strong>2</strong></font></div>","null","14","Odds are Orange","Fruit/orange.png","Won","0.35,0.65","14","0.35","207","40","",""
"","","","decision","","5ecbd383243b3438410dae19","bdp_rwlrn","Tue Mar 14 2023 19:25:05 GMT-0500 (Central Daylight Time)","494369","Trustworthy,Untrustworthy","html-keyboard-response","130","233344","0.0-11.0-1.40","","895","","<div class='trialDiv'><img src='Fruit/mango.png'><br><font class='baseline'><strong>Mega Mangos</strong><p>Choose number of points to bet.</font><div class='respPicDiv'><img src='img/responseButtonOffersNo0L.png' class='respPic'></div></div>","3","14","Mega Mangos","Fruit/mango.png","Won","0.35,0.8","12","0.35","212","41","",""
"","","","decisionFB","","5ecbd383243b3438410dae19","bdp_rwlrn","Tue Mar 14 2023 19:25:05 GMT-0500 (Central Daylight Time)","494369","Trustworthy,Untrustworthy","html-keyboard-response","131","233597","0.0-11.0-2.40","","null","","<div class='trialDiv'><img src='Fruit/mango.png'><br><font class='baseline'><strong>Mega Mangos</strong><p>Choose number of points to bet.</font><div class='respPicDiv'><img src='img/responseButtonOffersNo0L3.png' class='respPic'></div></div>","null","14","Mega Mangos","Fruit/mango.png","Won","0.35,0.8","12","0.35","209","41","",""
"","","","feedback","","5ecbd383243b3438410dae19","bdp_rwlrn","Tue Mar 14 2023 19:25:05 GMT-0500 (Central Daylight Time)","494369","Trustworthy,Untrustworthy","html-keyboard-response","132","234609","0.0-11.0-3.40","","null","","<div class='respPicDiv'><img src='img/responseButtonOffersNo0_wht.png' class='respPic'></div><div class='trialDiv'><img src='Fruit/mango.png'><br><font class='baseline'><strong>Mega Mangos</strong><p><strong><font class='posOutcome'>You WON</font><p>You bet: 3</strong></font> &nbsp; &nbsp; &nbsp; &nbsp; &nbsp; &nbsp;<font class='posOutcome'>you receive: <strong>6</strong></font></div>","null","14","Mega Mangos","Fruit/mango.png","Won","0.35,0.8","12","0.35","215","41","",""
"","","","decision","","5ecbd383243b3438410dae19","bdp_rwlrn","Tue Mar 14 2023 19:25:05 GMT-0500 (Central Daylight Time)","494369","Trustworthy,Untrustworthy","html-keyboard-response","133","235435","0.0-11.0-1.41","","825","","<div class='trialDiv'><img src='Fruit/apple.png'><br><font class='baseline'><strong>Awesome Apples</strong><p>Choose number of points to bet.</font><div class='respPicDiv'><img src='img/responseButtonOffersNo0L.png' class='respPic'></div></div>","2","14","Awesome Apples","Fruit/apple.png","Lost","0.8,0.35","9","0.8","220","42","",""
"","","","decisionFB","","5ecbd383243b3438410dae19","bdp_rwlrn","Tue Mar 14 2023 19:25:05 GMT-0500 (Central Daylight Time)","494369","Trustworthy,Untrustworthy","html-keyboard-response","134","235696","0.0-11.0-2.41","","null","","<div class='trialDiv'><img src='Fruit/apple.png'><br><font class='baseline'><strong>Awesome Apples</strong><p>Choose number of points to bet.</font><div class='respPicDiv'><img src='img/responseButtonOffersNo0L2.png' class='respPic'></div></div>","null","14","Awesome Apples","Fruit/apple.png","Lost","0.8,0.35","9","0.8","218","42","",""
"","","","feedback","","5ecbd383243b3438410dae19","bdp_rwlrn","Tue Mar 14 2023 19:25:05 GMT-0500 (Central Daylight Time)","494369","Trustworthy,Untrustworthy","html-keyboard-response","135","236702","0.0-11.0-3.41","","null","","<div class='respPicDiv'><img src='img/responseButtonOffersNo0_wht.png' class='respPic'></div><div class='trialDiv'><img src='Fruit/apple.png'><br><font class='baseline'><strong>Awesome Apples</strong><p><strong><font class='negOutcome'>You LOST</font><p>You bet: 2</strong></font> &nbsp; &nbsp; &nbsp; &nbsp; &nbsp; &nbsp;<font class='negOutcome'>You receive: <strong>0</strong></font></div>","null","14","Awesome Apples","Fruit/apple.png","Lost","0.8,0.35","9","0.8","218","42","",""
"","","","decision","","5ecbd383243b3438410dae19","bdp_rwlrn","Tue Mar 14 2023 19:25:05 GMT-0500 (Central Daylight Time)","494369","Trustworthy,Untrustworthy","html-keyboard-response","136","237553","0.0-11.0-1.42","","850","","<div class='trialDiv'><img src='Fruit/orange.png'><br><font class='baseline'><strong>Odds are Orange</strong><p>Choose number of points to bet.</font><div class='respPicDiv'><img src='img/responseButtonOffersNo0L.png' class='respPic'></div></div>","4","15","Odds are Orange","Fruit/orange.png","Won","0.35,0.65","14","0.35","223","43","",""
"","","","decisionFB","","5ecbd383243b3438410dae19","bdp_rwlrn","Tue Mar 14 2023 19:25:05 GMT-0500 (Central Daylight Time)","494369","Trustworthy,Untrustworthy","html-keyboard-response","137","237805","0.0-11.0-2.42","","null","","<div class='trialDiv'><img src='Fruit/orange.png'><br><font class='baseline'><strong>Odds are Orange</strong><p>Choose number of points to bet.</font><div class='respPicDiv'><img src='img/responseButtonOffersNo0L4.png' class='respPic'></div></div>","null","15","Odds are Orange","Fruit/orange.png","Won","0.35,0.65","14","0.35","219","43","",""
"","","","feedback","","5ecbd383243b3438410dae19","bdp_rwlrn","Tue Mar 14 2023 19:25:05 GMT-0500 (Central Daylight Time)","494369","Trustworthy,Untrustworthy","html-keyboard-response","138","238811","0.0-11.0-3.42","","null","","<div class='respPicDiv'><img src='img/responseButtonOffersNo0_wht.png' class='respPic'></div><div class='trialDiv'><img src='Fruit/orange.png'><br><font class='baseline'><strong>Odds are Orange</strong><p><strong><font class='posOutcome'>You WON</font><p>You bet: 4</strong></font> &nbsp; &nbsp; &nbsp; &nbsp; &nbsp; &nbsp;<font class='posOutcome'>you receive: <strong>8</strong></font></div>","null","15","Odds are Orange","Fruit/orange.png","Won","0.35,0.65","14","0.35","227","43","",""
"","","","decision","","5ecbd383243b3438410dae19","bdp_rwlrn","Tue Mar 14 2023 19:25:05 GMT-0500 (Central Daylight Time)","494369","Trustworthy,Untrustworthy","html-keyboard-response","139","239697","0.0-11.0-1.43","","885","","<div class='trialDiv'><img src='Fruit/apple.png'><br><font class='baseline'><strong>Awesome Apples</strong><p>Choose number of points to bet.</font><div class='respPicDiv'><img src='img/responseButtonOffersNo0L.png' class='respPic'></div></div>","2","15","Awesome Apples","Fruit/apple.png","Won","0.8,0.35","9","0.8","232","44","",""
"","","","decisionFB","","5ecbd383243b3438410dae19","bdp_rwlrn","Tue Mar 14 2023 19:25:05 GMT-0500 (Central Daylight Time)","494369","Trustworthy,Untrustworthy","html-keyboard-response","140","239961","0.0-11.0-2.43","","null","","<div class='trialDiv'><img src='Fruit/apple.png'><br><font class='baseline'><strong>Awesome Apples</strong><p>Choose number of points to bet.</font><div class='respPicDiv'><img src='img/responseButtonOffersNo0L2.png' class='respPic'></div></div>","null","15","Awesome Apples","Fruit/apple.png","Won","0.8,0.35","9","0.8","230","44","",""
"","","","feedback","","5ecbd383243b3438410dae19","bdp_rwlrn","Tue Mar 14 2023 19:25:05 GMT-0500 (Central Daylight Time)","494369","Trustworthy,Untrustworthy","html-keyboard-response","141","240970","0.0-11.0-3.43","","null","","<div class='respPicDiv'><img src='img/responseButtonOffersNo0_wht.png' class='respPic'></div><div class='trialDiv'><img src='Fruit/apple.png'><br><font class='baseline'><strong>Awesome Apples</strong><p><strong><font class='posOutcome'>You WON</font><p>You bet: 2</strong></font> &nbsp; &nbsp; &nbsp; &nbsp; &nbsp; &nbsp;<font class='posOutcome'>you receive: <strong>4</strong></font></div>","null","15","Awesome Apples","Fruit/apple.png","Won","0.8,0.35","9","0.8","234","44","",""
"","","","decision","","5ecbd383243b3438410dae19","bdp_rwlrn","Tue Mar 14 2023 19:25:05 GMT-0500 (Central Daylight Time)","494369","Trustworthy,Untrustworthy","html-keyboard-response","142","241446","0.0-11.0-1.44","","476","","<div class='trialDiv'><img src='Fruit/mango.png'><br><font class='baseline'><strong>Mega Mangos</strong><p>Choose number of points to bet.</font><div class='respPicDiv'><img src='img/responseButtonOffersNo0L.png' class='respPic'></div></div>","3","15","Mega Mangos","Fruit/mango.png","Lost","0.35,0.8","12","0.35","239","45","",""
"","","","decisionFB","","5ecbd383243b3438410dae19","bdp_rwlrn","Tue Mar 14 2023 19:25:05 GMT-0500 (Central Daylight Time)","494369","Trustworthy,Untrustworthy","html-keyboard-response","143","241697","0.0-11.0-2.44","","null","","<div class='trialDiv'><img src='Fruit/mango.png'><br><font class='baseline'><strong>Mega Mangos</strong><p>Choose number of points to bet.</font><div class='respPicDiv'><img src='img/responseButtonOffersNo0L3.png' class='respPic'></div></div>","null","15","Mega Mangos","Fruit/mango.png","Lost","0.35,0.8","12","0.35","236","45","",""
"","","","feedback","","5ecbd383243b3438410dae19","bdp_rwlrn","Tue Mar 14 2023 19:25:05 GMT-0500 (Central Daylight Time)","494369","Trustworthy,Untrustworthy","html-keyboard-response","144","242708","0.0-11.0-3.44","","null","","<div class='respPicDiv'><img src='img/responseButtonOffersNo0_wht.png' class='respPic'></div><div class='trialDiv'><img src='Fruit/mango.png'><br><font class='baseline'><strong>Mega Mangos</strong><p><strong><font class='negOutcome'>You LOST</font><p>You bet: 3</strong></font> &nbsp; &nbsp; &nbsp; &nbsp; &nbsp; &nbsp;<font class='negOutcome'>You receive: <strong>0</strong></font></div>","null","15","Mega Mangos","Fruit/mango.png","Lost","0.35,0.8","12","0.35","236","45","",""
"","","","decision","","5ecbd383243b3438410dae19","bdp_rwlrn","Tue Mar 14 2023 19:25:05 GMT-0500 (Central Daylight Time)","494369","Trustworthy,Untrustworthy","html-keyboard-response","145","243311","0.0-11.0-1.45","","602","","<div class='trialDiv'><img src='Fruit/orange.png'><br><font class='baseline'><strong>Odds are Orange</strong><p>Choose number of points to bet.</font><div class='respPicDiv'><img src='img/responseButtonOffersNo0L.png' class='respPic'></div></div>","4","16","Odds are Orange","Fruit/orange.png","Won","0.35,0.65","14","0.35","241","46","",""
"","","","decisionFB","","5ecbd383243b3438410dae19","bdp_rwlrn","Tue Mar 14 2023 19:25:05 GMT-0500 (Central Daylight Time)","494369","Trustworthy,Untrustworthy","html-keyboard-response","146","243575","0.0-11.0-2.45","","null","","<div class='trialDiv'><img src='Fruit/orange.png'><br><font class='baseline'><strong>Odds are Orange</strong><p>Choose number of points to bet.</font><div class='respPicDiv'><img src='img/responseButtonOffersNo0L4.png' class='respPic'></div></div>","null","16","Odds are Orange","Fruit/orange.png","Won","0.35,0.65","14","0.35","237","46","",""
"","","","feedback","","5ecbd383243b3438410dae19","bdp_rwlrn","Tue Mar 14 2023 19:25:05 GMT-0500 (Central Daylight Time)","494369","Trustworthy,Untrustworthy","html-keyboard-response","147","244588","0.0-11.0-3.45","","null","","<div class='respPicDiv'><img src='img/responseButtonOffersNo0_wht.png' class='respPic'></div><div class='trialDiv'><img src='Fruit/orange.png'><br><font class='baseline'><strong>Odds are Orange</strong><p><strong><font class='posOutcome'>You WON</font><p>You bet: 4</strong></font> &nbsp; &nbsp; &nbsp; &nbsp; &nbsp; &nbsp;<font class='posOutcome'>you receive: <strong>8</strong></font></div>","null","16","Odds are Orange","Fruit/orange.png","Won","0.35,0.65","14","0.35","245","46","",""
"","","","decision","","5ecbd383243b3438410dae19","bdp_rwlrn","Tue Mar 14 2023 19:25:05 GMT-0500 (Central Daylight Time)","494369","Trustworthy,Untrustworthy","html-keyboard-response","148","244955","0.0-11.0-1.46","","366","","<div class='trialDiv'><img src='Fruit/mango.png'><br><font class='baseline'><strong>Mega Mangos</strong><p>Choose number of points to bet.</font><div class='respPicDiv'><img src='img/responseButtonOffersNo0L.png' class='respPic'></div></div>","5","16","Mega Mangos","Fruit/mango.png","Lost","0.35,0.8","12","0.35","250","47","",""
"","","","decisionFB","","5ecbd383243b3438410dae19","bdp_rwlrn","Tue Mar 14 2023 19:25:05 GMT-0500 (Central Daylight Time)","494369","Trustworthy,Untrustworthy","html-keyboard-response","149","245210","0.0-11.0-2.46","","null","","<div class='trialDiv'><img src='Fruit/mango.png'><br><font class='baseline'><strong>Mega Mangos</strong><p>Choose number of points to bet.</font><div class='respPicDiv'><img src='img/responseButtonOffersNo0L5.png' class='respPic'></div></div>","null","16","Mega Mangos","Fruit/mango.png","Lost","0.35,0.8","12","0.35","245","47","",""
"","","","feedback","","5ecbd383243b3438410dae19","bdp_rwlrn","Tue Mar 14 2023 19:25:05 GMT-0500 (Central Daylight Time)","494369","Trustworthy,Untrustworthy","html-keyboard-response","150","246218","0.0-11.0-3.46","","null","","<div class='respPicDiv'><img src='img/responseButtonOffersNo0_wht.png' class='respPic'></div><div class='trialDiv'><img src='Fruit/mango.png'><br><font class='baseline'><strong>Mega Mangos</strong><p><strong><font class='negOutcome'>You LOST</font><p>You bet: 5</strong></font> &nbsp; &nbsp; &nbsp; &nbsp; &nbsp; &nbsp;<font class='negOutcome'>You receive: <strong>0</strong></font></div>","null","16","Mega Mangos","Fruit/mango.png","Lost","0.35,0.8","12","0.35","245","47","",""
"","","","decision","","5ecbd383243b3438410dae19","bdp_rwlrn","Tue Mar 14 2023 19:25:05 GMT-0500 (Central Daylight Time)","494369","Trustworthy,Untrustworthy","html-keyboard-response","151","246702","0.0-11.0-1.47","","484","","<div class='trialDiv'><img src='Fruit/apple.png'><br><font class='baseline'><strong>Awesome Apples</strong><p>Choose number of points to bet.</font><div class='respPicDiv'><img src='img/responseButtonOffersNo0L.png' class='respPic'></div></div>","1","16","Awesome Apples","Fruit/apple.png","Won","0.8,0.35","9","0.8","250","48","",""
"","","","decisionFB","","5ecbd383243b3438410dae19","bdp_rwlrn","Tue Mar 14 2023 19:25:05 GMT-0500 (Central Daylight Time)","494369","Trustworthy,Untrustworthy","html-keyboard-response","152","246963","0.0-11.0-2.47","","null","","<div class='trialDiv'><img src='Fruit/apple.png'><br><font class='baseline'><strong>Awesome Apples</strong><p>Choose number of points to bet.</font><div class='respPicDiv'><img src='img/responseButtonOffersNo0L1.png' class='respPic'></div></div>","null","16","Awesome Apples","Fruit/apple.png","Won","0.8,0.35","9","0.8","249","48","",""
"","","","feedback","","5ecbd383243b3438410dae19","bdp_rwlrn","Tue Mar 14 2023 19:25:05 GMT-0500 (Central Daylight Time)","494369","Trustworthy,Untrustworthy","html-keyboard-response","153","247971","0.0-11.0-3.47","","null","","<div class='respPicDiv'><img src='img/responseButtonOffersNo0_wht.png' class='respPic'></div><div class='trialDiv'><img src='Fruit/apple.png'><br><font class='baseline'><strong>Awesome Apples</strong><p><strong><font class='posOutcome'>You WON</font><p>You bet: 1</strong></font> &nbsp; &nbsp; &nbsp; &nbsp; &nbsp; &nbsp;<font class='posOutcome'>you receive: <strong>2</strong></font></div>","null","16","Awesome Apples","Fruit/apple.png","Won","0.8,0.35","9","0.8","251","48","",""
"","","","decision","","5ecbd383243b3438410dae19","bdp_rwlrn","Tue Mar 14 2023 19:25:05 GMT-0500 (Central Daylight Time)","494369","Trustworthy,Untrustworthy","html-keyboard-response","154","248943","0.0-11.0-1.48","","971","","<div class='trialDiv'><img src='Fruit/orange.png'><br><font class='baseline'><strong>Odds are Orange</strong><p>Choose number of points to bet.</font><div class='respPicDiv'><img src='img/responseButtonOffersNo0L.png' class='respPic'></div></div>","4","17","Odds are Orange","Fruit/orange.png","Won","0.35,0.65","14","0.35","256","49","",""
"","","","decisionFB","","5ecbd383243b3438410dae19","bdp_rwlrn","Tue Mar 14 2023 19:25:05 GMT-0500 (Central Daylight Time)","494369","Trustworthy,Untrustworthy","html-keyboard-response","155","249197","0.0-11.0-2.48","","null","","<div class='trialDiv'><img src='Fruit/orange.png'><br><font class='baseline'><strong>Odds are Orange</strong><p>Choose number of points to bet.</font><div class='respPicDiv'><img src='img/responseButtonOffersNo0L4.png' class='respPic'></div></div>","null","17","Odds are Orange","Fruit/orange.png","Won","0.35,0.65","14","0.35","252","49","",""
"","","","feedback","","5ecbd383243b3438410dae19","bdp_rwlrn","Tue Mar 14 2023 19:25:05 GMT-0500 (Central Daylight Time)","494369","Trustworthy,Untrustworthy","html-keyboard-response","156","250209","0.0-11.0-3.48","","null","","<div class='respPicDiv'><img src='img/responseButtonOffersNo0_wht.png' class='respPic'></div><div class='trialDiv'><img src='Fruit/orange.png'><br><font class='baseline'><strong>Odds are Orange</strong><p><strong><font class='posOutcome'>You WON</font><p>You bet: 4</strong></font> &nbsp; &nbsp; &nbsp; &nbsp; &nbsp; &nbsp;<font class='posOutcome'>you receive: <strong>8</strong></font></div>","null","17","Odds are Orange","Fruit/orange.png","Won","0.35,0.65","14","0.35","260","49","",""
"","","","decision","","5ecbd383243b3438410dae19","bdp_rwlrn","Tue Mar 14 2023 19:25:05 GMT-0500 (Central Daylight Time)","494369","Trustworthy,Untrustworthy","html-keyboard-response","157","250757","0.0-11.0-1.49","","548","","<div class='trialDiv'><img src='Fruit/apple.png'><br><font class='baseline'><strong>Awesome Apples</strong><p>Choose number of points to bet.</font><div class='respPicDiv'><img src='img/responseButtonOffersNo0L.png' class='respPic'></div></div>","5","17","Awesome Apples","Fruit/apple.png","Lost","0.8,0.35","9","0.8","265","50","",""
"","","","decisionFB","","5ecbd383243b3438410dae19","bdp_rwlrn","Tue Mar 14 2023 19:25:05 GMT-0500 (Central Daylight Time)","494369","Trustworthy,Untrustworthy","html-keyboard-response","158","251018","0.0-11.0-2.49","","null","","<div class='trialDiv'><img src='Fruit/apple.png'><br><font class='baseline'><strong>Awesome Apples</strong><p>Choose number of points to bet.</font><div class='respPicDiv'><img src='img/responseButtonOffersNo0L5.png' class='respPic'></div></div>","null","17","Awesome Apples","Fruit/apple.png","Lost","0.8,0.35","9","0.8","260","50","",""
"","","","feedback","","5ecbd383243b3438410dae19","bdp_rwlrn","Tue Mar 14 2023 19:25:05 GMT-0500 (Central Daylight Time)","494369","Trustworthy,Untrustworthy","html-keyboard-response","159","252025","0.0-11.0-3.49","","null","","<div class='respPicDiv'><img src='img/responseButtonOffersNo0_wht.png' class='respPic'></div><div class='trialDiv'><img src='Fruit/apple.png'><br><font class='baseline'><strong>Awesome Apples</strong><p><strong><font class='negOutcome'>You LOST</font><p>You bet: 5</strong></font> &nbsp; &nbsp; &nbsp; &nbsp; &nbsp; &nbsp;<font class='negOutcome'>You receive: <strong>0</strong></font></div>","null","17","Awesome Apples","Fruit/apple.png","Lost","0.8,0.35","9","0.8","260","50","",""
"","","","decision","","5ecbd383243b3438410dae19","bdp_rwlrn","Tue Mar 14 2023 19:25:05 GMT-0500 (Central Daylight Time)","494369","Trustworthy,Untrustworthy","html-keyboard-response","160","252487","0.0-11.0-1.50","","461","","<div class='trialDiv'><img src='Fruit/mango.png'><br><font class='baseline'><strong>Mega Mangos</strong><p>Choose number of points to bet.</font><div class='respPicDiv'><img src='img/responseButtonOffersNo0L.png' class='respPic'></div></div>","5","17","Mega Mangos","Fruit/mango.png","Lost","0.35,0.8","12","0.35","265","51","",""
"","","","decisionFB","","5ecbd383243b3438410dae19","bdp_rwlrn","Tue Mar 14 2023 19:25:05 GMT-0500 (Central Daylight Time)","494369","Trustworthy,Untrustworthy","html-keyboard-response","161","252738","0.0-11.0-2.50","","null","","<div class='trialDiv'><img src='Fruit/mango.png'><br><font class='baseline'><strong>Mega Mangos</strong><p>Choose number of points to bet.</font><div class='respPicDiv'><img src='img/responseButtonOffersNo0L5.png' class='respPic'></div></div>","null","17","Mega Mangos","Fruit/mango.png","Lost","0.35,0.8","12","0.35","260","51","",""
