"trial_type","trial_index","time_elapsed","internal_node_id","subject_id","task","startTime","totalTime","labels","view_history","rt","event","trial","time","trialtype","success","stimulus","key_press","ltround","name","fileID","outcome","lottotype","lottoswpt","lottocurrpshare","point_total","round","faceID","face"
"pavlovia","0","7","0.0-0.0","60fd933d5461857048f9e74c","bdp_rwlrn","Sun Mar 12 2023 19:48:56 GMT-0700 (Pacific Daylight Time)","439649","Trustworthy,Untrustworthy","","","","","","","","","","","","","","","","","","","",""
"instructions","1","7015","0.0-1.0","60fd933d5461857048f9e74c","bdp_rwlrn","Sun Mar 12 2023 19:48:56 GMT-0700 (Pacific Daylight Time)","439649","Trustworthy,Untrustworthy","[{""page_index"":0,""viewing_time"":7006}]","7007","","","","","","","","","","","","","","","","","",""
"","","","","60fd933d5461857048f9e74c","bdp_rwlrn","Sun Mar 12 2023 19:48:56 GMT-0700 (Pacific Daylight Time)","439649","Trustworthy,Untrustworthy","","","fullscreenenter","2","9175","fullscreenenter","","","","","","","","","","","","","",""
"fullscreen","2","10172","0.0-2.0","60fd933d5461857048f9e74c","bdp_rwlrn","Sun Mar 12 2023 19:48:56 GMT-0700 (Pacific Daylight Time)","439649","Trustworthy,Untrustworthy","","","","","","","true","","","","","","","","","","","","",""
"instructions","3","94640","0.0-4.0","60fd933d5461857048f9e74c","bdp_rwlrn","Sun Mar 12 2023 19:48:56 GMT-0700 (Pacific Daylight Time)","439649","Trustworthy,Untrustworthy","[{""page_index"":0,""viewing_time"":10644},{""page_index"":1,""viewing_time"":16800},{""page_index"":2,""viewing_time"":11780},{""page_index"":3,""viewing_time"":11482},{""page_index"":4,""viewing_time"":25552},{""page_index"":5,""viewing_time"":8207}]","84465","","","","","","","","","","","","","","","","","",""
"html-keyboard-response","4","99465","0.0-5.0","60fd933d5461857048f9e74c","bdp_rwlrn","Sun Mar 12 2023 19:48:56 GMT-0700 (Pacific Daylight Time)","439649","Trustworthy,Untrustworthy","","4821","","","","","","<div class='header' style='text-align:left; position: absolute; top: 5%; left: 5%;'><small>Task 1 of 5</small></div><div class='instruxDiv'><p><strong>1) What is the maximum number of points you can choose to bet on a lottery?</strong></p><p>a) 0</p><p>b) 1</p><p>c) 5</p>","C","","","","","","","","","","",""
"html-keyboard-response","5","102091","0.0-6.0","60fd933d5461857048f9e74c","bdp_rwlrn","Sun Mar 12 2023 19:48:56 GMT-0700 (Pacific Daylight Time)","439649","Trustworthy,Untrustworthy","","2520","","","","","","<div class='header' style='text-align:left; position: absolute; top: 5%; left: 5%;'><small>Task 1 of 5</small></div><div class='instruxDiv'><p><strong>1) What is the maximum number of points you can choose to bet on a lottery?</strong></p><p>a) 1</p><p>b) 1</p><p style='color:#00FF00'>c) 5</p><h3 style='color:#00FF00'>Correct!</h3><h3 class='center-content'>The correct response is c).</h3><h3 class='center-content'>The maximum number of points you can choose to bet on a lottery is 5 points.</h3><p><em>Press SPACEBAR to continue</em></p></div>"," ","","","","","","","","","","",""
"html-keyboard-response","6","107231","0.0-7.0","60fd933d5461857048f9e74c","bdp_rwlrn","Sun Mar 12 2023 19:48:56 GMT-0700 (Pacific Daylight Time)","439649","Trustworthy,Untrustworthy","","5029","","","","","","<div class='header' style='text-align:left; position: absolute; top: 5%; left: 5%;'><small>Task 1 of 5</small></div><div class='instruxDiv'><p><strong>2) How many points can you win each round?</strong></p><p>a) 10 points</p><p>b) Double what you bet</p><p>c) Quadruple what you bet</p>","B","","","","","","","","","","",""
"html-keyboard-response","7","110003","0.0-8.0","60fd933d5461857048f9e74c","bdp_rwlrn","Sun Mar 12 2023 19:48:56 GMT-0700 (Pacific Daylight Time)","439649","Trustworthy,Untrustworthy","","2667","","","","","","<div class='header' style='text-align:left; position: absolute; top: 5%; left: 5%;'><small>Task 1 of 5</small></div><div class='instruxDiv'><p><strong>2) How many points can you win each round?</strong></p><p>a) 10 points</p><p style='color:#00FF00'>b) Double what you bet</p><p>c) Quadruple what you bet</p><h3 style='color:#00FF00'>Correct!</h3><h3 class='center-content'>The correct response is b).</h3><h3 class='center-content'>You can win double the amount of points you bet.</h3><p><em>Press SPACEBAR to continue</em></p></div>"," ","","","","","","","","","","",""
"html-keyboard-response","8","115127","0.0-9.0","60fd933d5461857048f9e74c","bdp_rwlrn","Sun Mar 12 2023 19:48:56 GMT-0700 (Pacific Daylight Time)","439649","Trustworthy,Untrustworthy","","null","","","","","","<div class='header' style='text-align:left; position: absolute; top: 5%; left: 5%;'><small>Task 1 of 5</small></div><div class='instruxDiv'><p>Thank you for completing the quiz<p>These are the actual lotteries you will be playing in the next block:<p><div class='tc' align='center'><img class='introPic' src='Fruit/plums1.png'><br><strong>Plum Powerball</strong></div><div class='bl' align='center'><img class='introPic' src='Fruit/apple.png'><br><strong>Awesome Apples</strong></div><div class='br' align='center'><img class='introPic' src='Fruit/mango.png'><br><strong>Mega Mangos</strong></div></div><p>Across <strong>66 rounds</strong> you will play each lottery <strong>22 times</strong> (in random order).<p style='align:center; color:white'><font <em>Press SPACEBAR to continue</em></p>","null","","","","","","","","","","",""
"instructions","9","122299","0.0-10.0","60fd933d5461857048f9e74c","bdp_rwlrn","Sun Mar 12 2023 19:48:56 GMT-0700 (Pacific Daylight Time)","439649","Trustworthy,Untrustworthy","[{""page_index"":0,""viewing_time"":3588},{""page_index"":1,""viewing_time"":3582}]","7170","","","","","","","","","","","","","","","","","",""
"html-keyboard-response","10","124735","0.0-11.0-1.0","60fd933d5461857048f9e74c","bdp_rwlrn","Sun Mar 12 2023 19:48:56 GMT-0700 (Pacific Daylight Time)","439649","Trustworthy,Untrustworthy","","2331","","","","decision","","<div class='trialDiv'><img src='Fruit/apple.png'><br><font class='baseline'><strong>Awesome Apples</strong><p>Choose number of points to bet.</font><div class='respPicDiv'><img src='img/responseButtonOffersNo0L.png' class='respPic'></div></div>","3","1","Awesome Apples","Fruit/apple.png","Lost","0.35,0.8","9","0.35","5","1","",""
"html-keyboard-response","11","124993","0.0-11.0-2.0","60fd933d5461857048f9e74c","bdp_rwlrn","Sun Mar 12 2023 19:48:56 GMT-0700 (Pacific Daylight Time)","439649","Trustworthy,Untrustworthy","","null","","","","decisionFB","","<div class='trialDiv'><img src='Fruit/apple.png'><br><font class='baseline'><strong>Awesome Apples</strong><p>Choose number of points to bet.</font><div class='respPicDiv'><img src='img/responseButtonOffersNo0L3.png' class='respPic'></div></div>","null","1","Awesome Apples","Fruit/apple.png","Lost","0.35,0.8","9","0.35","2","1","",""
"html-keyboard-response","12","126009","0.0-11.0-3.0","60fd933d5461857048f9e74c","bdp_rwlrn","Sun Mar 12 2023 19:48:56 GMT-0700 (Pacific Daylight Time)","439649","Trustworthy,Untrustworthy","","null","","","","feedback","","<div class='respPicDiv'><img src='img/responseButtonOffersNo0_wht.png' class='respPic'></div><div class='trialDiv'><img src='Fruit/apple.png'><br><font class='baseline'><strong>Awesome Apples</strong><p><strong><font class='negOutcome'>You LOST</font><p>You bet: 3</strong></font> &nbsp; &nbsp; &nbsp; &nbsp; &nbsp; &nbsp;<font class='negOutcome'>You receive: <strong>0</strong></font></div>","null","1","Awesome Apples","Fruit/apple.png","Lost","0.35,0.8","9","0.35","2","1","",""
"html-keyboard-response","13","127728","0.0-11.0-1.1","60fd933d5461857048f9e74c","bdp_rwlrn","Sun Mar 12 2023 19:48:56 GMT-0700 (Pacific Daylight Time)","439649","Trustworthy,Untrustworthy","","1716","","","","decision","","<div class='trialDiv'><img src='Fruit/mango.png'><br><font class='baseline'><strong>Mega Mangos</strong><p>Choose number of points to bet.</font><div class='respPicDiv'><img src='img/responseButtonOffersNo0L.png' class='respPic'></div></div>","2","1","Mega Mangos","Fruit/mango.png","Won","0.65,0.2","13","0.65","7","2","",""
"html-keyboard-response","14","127991","0.0-11.0-2.1","60fd933d5461857048f9e74c","bdp_rwlrn","Sun Mar 12 2023 19:48:56 GMT-0700 (Pacific Daylight Time)","439649","Trustworthy,Untrustworthy","","null","","","","decisionFB","","<div class='trialDiv'><img src='Fruit/mango.png'><br><font class='baseline'><strong>Mega Mangos</strong><p>Choose number of points to bet.</font><div class='respPicDiv'><img src='img/responseButtonOffersNo0L2.png' class='respPic'></div></div>","null","1","Mega Mangos","Fruit/mango.png","Won","0.65,0.2","13","0.65","5","2","",""
"html-keyboard-response","15","129006","0.0-11.0-3.1","60fd933d5461857048f9e74c","bdp_rwlrn","Sun Mar 12 2023 19:48:56 GMT-0700 (Pacific Daylight Time)","439649","Trustworthy,Untrustworthy","","null","","","","feedback","","<div class='respPicDiv'><img src='img/responseButtonOffersNo0_wht.png' class='respPic'></div><div class='trialDiv'><img src='Fruit/mango.png'><br><font class='baseline'><strong>Mega Mangos</strong><p><strong><font class='posOutcome'>You WON</font><p>You bet: 2</strong></font> &nbsp; &nbsp; &nbsp; &nbsp; &nbsp; &nbsp;<font class='posOutcome'>you receive: <strong>4</strong></font></div>","null","1","Mega Mangos","Fruit/mango.png","Won","0.65,0.2","13","0.65","9","2","",""
"html-keyboard-response","16","130448","0.0-11.0-1.2","60fd933d5461857048f9e74c","bdp_rwlrn","Sun Mar 12 2023 19:48:56 GMT-0700 (Pacific Daylight Time)","439649","Trustworthy,Untrustworthy","","1439","","","","decision","","<div class='trialDiv'><img src='Fruit/plums1.png'><br><font class='baseline'><strong>Plum Powerball</strong><p>Choose number of points to bet.</font><div class='respPicDiv'><img src='img/responseButtonOffersNo0L.png' class='respPic'></div></div>","4","1","Plum Powerball","Fruit/plums1.png","Won","0.8,0.2","8","0.8","14","3","",""
"html-keyboard-response","17","130707","0.0-11.0-2.2","60fd933d5461857048f9e74c","bdp_rwlrn","Sun Mar 12 2023 19:48:56 GMT-0700 (Pacific Daylight Time)","439649","Trustworthy,Untrustworthy","","null","","","","decisionFB","","<div class='trialDiv'><img src='Fruit/plums1.png'><br><font class='baseline'><strong>Plum Powerball</strong><p>Choose number of points to bet.</font><div class='respPicDiv'><img src='img/responseButtonOffersNo0L4.png' class='respPic'></div></div>","null","1","Plum Powerball","Fruit/plums1.png","Won","0.8,0.2","8","0.8","10","3","",""
"html-keyboard-response","18","131722","0.0-11.0-3.2","60fd933d5461857048f9e74c","bdp_rwlrn","Sun Mar 12 2023 19:48:56 GMT-0700 (Pacific Daylight Time)","439649","Trustworthy,Untrustworthy","","null","","","","feedback","","<div class='respPicDiv'><img src='img/responseButtonOffersNo0_wht.png' class='respPic'></div><div class='trialDiv'><img src='Fruit/plums1.png'><br><font class='baseline'><strong>Plum Powerball</strong><p><strong><font class='posOutcome'>You WON</font><p>You bet: 4</strong></font> &nbsp; &nbsp; &nbsp; &nbsp; &nbsp; &nbsp;<font class='posOutcome'>you receive: <strong>8</strong></font></div>","null","1","Plum Powerball","Fruit/plums1.png","Won","0.8,0.2","8","0.8","18","3","",""
"html-keyboard-response","19","134336","0.0-11.0-1.3","60fd933d5461857048f9e74c","bdp_rwlrn","Sun Mar 12 2023 19:48:56 GMT-0700 (Pacific Daylight Time)","439649","Trustworthy,Untrustworthy","","2611","","","","decision","","<div class='trialDiv'><img src='Fruit/apple.png'><br><font class='baseline'><strong>Awesome Apples</strong><p>Choose number of points to bet.</font><div class='respPicDiv'><img src='img/responseButtonOffersNo0L.png' class='respPic'></div></div>","1","2","Awesome Apples","Fruit/apple.png","Won","0.35,0.8","9","0.35","23","4","",""
"html-keyboard-response","20","134591","0.0-11.0-2.3","60fd933d5461857048f9e74c","bdp_rwlrn","Sun Mar 12 2023 19:48:56 GMT-0700 (Pacific Daylight Time)","439649","Trustworthy,Untrustworthy","","null","","","","decisionFB","","<div class='trialDiv'><img src='Fruit/apple.png'><br><font class='baseline'><strong>Awesome Apples</strong><p>Choose number of points to bet.</font><div class='respPicDiv'><img src='img/responseButtonOffersNo0L1.png' class='respPic'></div></div>","null","2","Awesome Apples","Fruit/apple.png","Won","0.35,0.8","9","0.35","22","4","",""
"html-keyboard-response","21","135604","0.0-11.0-3.3","60fd933d5461857048f9e74c","bdp_rwlrn","Sun Mar 12 2023 19:48:56 GMT-0700 (Pacific Daylight Time)","439649","Trustworthy,Untrustworthy","","null","","","","feedback","","<div class='respPicDiv'><img src='img/responseButtonOffersNo0_wht.png' class='respPic'></div><div class='trialDiv'><img src='Fruit/apple.png'><br><font class='baseline'><strong>Awesome Apples</strong><p><strong><font class='posOutcome'>You WON</font><p>You bet: 1</strong></font> &nbsp; &nbsp; &nbsp; &nbsp; &nbsp; &nbsp;<font class='posOutcome'>you receive: <strong>2</strong></font></div>","null","2","Awesome Apples","Fruit/apple.png","Won","0.35,0.8","9","0.35","24","4","",""
"html-keyboard-response","22","138895","0.0-11.0-1.4","60fd933d5461857048f9e74c","bdp_rwlrn","Sun Mar 12 2023 19:48:56 GMT-0700 (Pacific Daylight Time)","439649","Trustworthy,Untrustworthy","","3290","","","","decision","","<div class='trialDiv'><img src='Fruit/plums1.png'><br><font class='baseline'><strong>Plum Powerball</strong><p>Choose number of points to bet.</font><div class='respPicDiv'><img src='img/responseButtonOffersNo0L.png' class='respPic'></div></div>","5","2","Plum Powerball","Fruit/plums1.png","Won","0.8,0.2","8","0.8","29","5","",""
"html-keyboard-response","23","139155","0.0-11.0-2.4","60fd933d5461857048f9e74c","bdp_rwlrn","Sun Mar 12 2023 19:48:56 GMT-0700 (Pacific Daylight Time)","439649","Trustworthy,Untrustworthy","","null","","","","decisionFB","","<div class='trialDiv'><img src='Fruit/plums1.png'><br><font class='baseline'><strong>Plum Powerball</strong><p>Choose number of points to bet.</font><div class='respPicDiv'><img src='img/responseButtonOffersNo0L5.png' class='respPic'></div></div>","null","2","Plum Powerball","Fruit/plums1.png","Won","0.8,0.2","8","0.8","24","5","",""
"html-keyboard-response","24","140169","0.0-11.0-3.4","60fd933d5461857048f9e74c","bdp_rwlrn","Sun Mar 12 2023 19:48:56 GMT-0700 (Pacific Daylight Time)","439649","Trustworthy,Untrustworthy","","null","","","","feedback","","<div class='respPicDiv'><img src='img/responseButtonOffersNo0_wht.png' class='respPic'></div><div class='trialDiv'><img src='Fruit/plums1.png'><br><font class='baseline'><strong>Plum Powerball</strong><p><strong><font class='posOutcome'>You WON</font><p>You bet: 5</strong></font> &nbsp; &nbsp; &nbsp; &nbsp; &nbsp; &nbsp;<font class='posOutcome'>you receive: <strong>10</strong></font></div>","null","2","Plum Powerball","Fruit/plums1.png","Won","0.8,0.2","8","0.8","34","5","",""
"html-keyboard-response","25","141055","0.0-11.0-1.5","60fd933d5461857048f9e74c","bdp_rwlrn","Sun Mar 12 2023 19:48:56 GMT-0700 (Pacific Daylight Time)","439649","Trustworthy,Untrustworthy","","884","","","","decision","","<div class='trialDiv'><img src='Fruit/mango.png'><br><font class='baseline'><strong>Mega Mangos</strong><p>Choose number of points to bet.</font><div class='respPicDiv'><img src='img/responseButtonOffersNo0L.png' class='respPic'></div></div>","5","2","Mega Mangos","Fruit/mango.png","Lost","0.65,0.2","13","0.65","39","6","",""
"html-keyboard-response","26","141319","0.0-11.0-2.5","60fd933d5461857048f9e74c","bdp_rwlrn","Sun Mar 12 2023 19:48:56 GMT-0700 (Pacific Daylight Time)","439649","Trustworthy,Untrustworthy","","null","","","","decisionFB","","<div class='trialDiv'><img src='Fruit/mango.png'><br><font class='baseline'><strong>Mega Mangos</strong><p>Choose number of points to bet.</font><div class='respPicDiv'><img src='img/responseButtonOffersNo0L5.png' class='respPic'></div></div>","null","2","Mega Mangos","Fruit/mango.png","Lost","0.65,0.2","13","0.65","34","6","",""
"html-keyboard-response","27","142335","0.0-11.0-3.5","60fd933d5461857048f9e74c","bdp_rwlrn","Sun Mar 12 2023 19:48:56 GMT-0700 (Pacific Daylight Time)","439649","Trustworthy,Untrustworthy","","null","","","","feedback","","<div class='respPicDiv'><img src='img/responseButtonOffersNo0_wht.png' class='respPic'></div><div class='trialDiv'><img src='Fruit/mango.png'><br><font class='baseline'><strong>Mega Mangos</strong><p><strong><font class='negOutcome'>You LOST</font><p>You bet: 5</strong></font> &nbsp; &nbsp; &nbsp; &nbsp; &nbsp; &nbsp;<font class='negOutcome'>You receive: <strong>0</strong></font></div>","null","2","Mega Mangos","Fruit/mango.png","Lost","0.65,0.2","13","0.65","34","6","",""
"html-keyboard-response","28","144198","0.0-11.0-1.6","60fd933d5461857048f9e74c","bdp_rwlrn","Sun Mar 12 2023 19:48:56 GMT-0700 (Pacific Daylight Time)","439649","Trustworthy,Untrustworthy","","1860","","","","decision","","<div class='trialDiv'><img src='Fruit/apple.png'><br><font class='baseline'><strong>Awesome Apples</strong><p>Choose number of points to bet.</font><div class='respPicDiv'><img src='img/responseButtonOffersNo0L.png' class='respPic'></div></div>","2","3","Awesome Apples","Fruit/apple.png","Won","0.35,0.8","9","0.35","39","7","",""
"html-keyboard-response","29","144453","0.0-11.0-2.6","60fd933d5461857048f9e74c","bdp_rwlrn","Sun Mar 12 2023 19:48:56 GMT-0700 (Pacific Daylight Time)","439649","Trustworthy,Untrustworthy","","null","","","","decisionFB","","<div class='trialDiv'><img src='Fruit/apple.png'><br><font class='baseline'><strong>Awesome Apples</strong><p>Choose number of points to bet.</font><div class='respPicDiv'><img src='img/responseButtonOffersNo0L2.png' class='respPic'></div></div>","null","3","Awesome Apples","Fruit/apple.png","Won","0.35,0.8","9","0.35","37","7","",""
"html-keyboard-response","30","145469","0.0-11.0-3.6","60fd933d5461857048f9e74c","bdp_rwlrn","Sun Mar 12 2023 19:48:56 GMT-0700 (Pacific Daylight Time)","439649","Trustworthy,Untrustworthy","","null","","","","feedback","","<div class='respPicDiv'><img src='img/responseButtonOffersNo0_wht.png' class='respPic'></div><div class='trialDiv'><img src='Fruit/apple.png'><br><font class='baseline'><strong>Awesome Apples</strong><p><strong><font class='posOutcome'>You WON</font><p>You bet: 2</strong></font> &nbsp; &nbsp; &nbsp; &nbsp; &nbsp; &nbsp;<font class='posOutcome'>you receive: <strong>4</strong></font></div>","null","3","Awesome Apples","Fruit/apple.png","Won","0.35,0.8","9","0.35","41","7","",""
"html-keyboard-response","31","149339","0.0-11.0-1.7","60fd933d5461857048f9e74c","bdp_rwlrn","Sun Mar 12 2023 19:48:56 GMT-0700 (Pacific Daylight Time)","439649","Trustworthy,Untrustworthy","","3867","","","","decision","","<div class='trialDiv'><img src='Fruit/plums1.png'><br><font class='baseline'><strong>Plum Powerball</strong><p>Choose number of points to bet.</font><div class='respPicDiv'><img src='img/responseButtonOffersNo0L.png' class='respPic'></div></div>","5","3","Plum Powerball","Fruit/plums1.png","Won","0.8,0.2","8","0.8","46","8","",""
"html-keyboard-response","32","149602","0.0-11.0-2.7","60fd933d5461857048f9e74c","bdp_rwlrn","Sun Mar 12 2023 19:48:56 GMT-0700 (Pacific Daylight Time)","439649","Trustworthy,Untrustworthy","","null","","","","decisionFB","","<div class='trialDiv'><img src='Fruit/plums1.png'><br><font class='baseline'><strong>Plum Powerball</strong><p>Choose number of points to bet.</font><div class='respPicDiv'><img src='img/responseButtonOffersNo0L5.png' class='respPic'></div></div>","null","3","Plum Powerball","Fruit/plums1.png","Won","0.8,0.2","8","0.8","41","8","",""
"html-keyboard-response","33","150617","0.0-11.0-3.7","60fd933d5461857048f9e74c","bdp_rwlrn","Sun Mar 12 2023 19:48:56 GMT-0700 (Pacific Daylight Time)","439649","Trustworthy,Untrustworthy","","null","","","","feedback","","<div class='respPicDiv'><img src='img/responseButtonOffersNo0_wht.png' class='respPic'></div><div class='trialDiv'><img src='Fruit/plums1.png'><br><font class='baseline'><strong>Plum Powerball</strong><p><strong><font class='posOutcome'>You WON</font><p>You bet: 5</strong></font> &nbsp; &nbsp; &nbsp; &nbsp; &nbsp; &nbsp;<font class='posOutcome'>you receive: <strong>10</strong></font></div>","null","3","Plum Powerball","Fruit/plums1.png","Won","0.8,0.2","8","0.8","51","8","",""
"html-keyboard-response","34","151578","0.0-11.0-1.8","60fd933d5461857048f9e74c","bdp_rwlrn","Sun Mar 12 2023 19:48:56 GMT-0700 (Pacific Daylight Time)","439649","Trustworthy,Untrustworthy","","958","","","","decision","","<div class='trialDiv'><img src='Fruit/mango.png'><br><font class='baseline'><strong>Mega Mangos</strong><p>Choose number of points to bet.</font><div class='respPicDiv'><img src='img/responseButtonOffersNo0L.png' class='respPic'></div></div>","4","3","Mega Mangos","Fruit/mango.png","Won","0.65,0.2","13","0.65","56","9","",""
"html-keyboard-response","35","151834","0.0-11.0-2.8","60fd933d5461857048f9e74c","bdp_rwlrn","Sun Mar 12 2023 19:48:56 GMT-0700 (Pacific Daylight Time)","439649","Trustworthy,Untrustworthy","","null","","","","decisionFB","","<div class='trialDiv'><img src='Fruit/mango.png'><br><font class='baseline'><strong>Mega Mangos</strong><p>Choose number of points to bet.</font><div class='respPicDiv'><img src='img/responseButtonOffersNo0L4.png' class='respPic'></div></div>","null","3","Mega Mangos","Fruit/mango.png","Won","0.65,0.2","13","0.65","52","9","",""
"html-keyboard-response","36","152850","0.0-11.0-3.8","60fd933d5461857048f9e74c","bdp_rwlrn","Sun Mar 12 2023 19:48:56 GMT-0700 (Pacific Daylight Time)","439649","Trustworthy,Untrustworthy","","null","","","","feedback","","<div class='respPicDiv'><img src='img/responseButtonOffersNo0_wht.png' class='respPic'></div><div class='trialDiv'><img src='Fruit/mango.png'><br><font class='baseline'><strong>Mega Mangos</strong><p><strong><font class='posOutcome'>You WON</font><p>You bet: 4</strong></font> &nbsp; &nbsp; &nbsp; &nbsp; &nbsp; &nbsp;<font class='posOutcome'>you receive: <strong>8</strong></font></div>","null","3","Mega Mangos","Fruit/mango.png","Won","0.65,0.2","13","0.65","60","9","",""
"html-keyboard-response","37","154359","0.0-11.0-1.9","60fd933d5461857048f9e74c","bdp_rwlrn","Sun Mar 12 2023 19:48:56 GMT-0700 (Pacific Daylight Time)","439649","Trustworthy,Untrustworthy","","1507","","","","decision","","<div class='trialDiv'><img src='Fruit/plums1.png'><br><font class='baseline'><strong>Plum Powerball</strong><p>Choose number of points to bet.</font><div class='respPicDiv'><img src='img/responseButtonOffersNo0L.png' class='respPic'></div></div>","5","4","Plum Powerball","Fruit/plums1.png","Won","0.8,0.2","8","0.8","65","10","",""
"html-keyboard-response","38","154617","0.0-11.0-2.9","60fd933d5461857048f9e74c","bdp_rwlrn","Sun Mar 12 2023 19:48:56 GMT-0700 (Pacific Daylight Time)","439649","Trustworthy,Untrustworthy","","null","","","","decisionFB","","<div class='trialDiv'><img src='Fruit/plums1.png'><br><font class='baseline'><strong>Plum Powerball</strong><p>Choose number of points to bet.</font><div class='respPicDiv'><img src='img/responseButtonOffersNo0L5.png' class='respPic'></div></div>","null","4","Plum Powerball","Fruit/plums1.png","Won","0.8,0.2","8","0.8","60","10","",""
"html-keyboard-response","39","155633","0.0-11.0-3.9","60fd933d5461857048f9e74c","bdp_rwlrn","Sun Mar 12 2023 19:48:56 GMT-0700 (Pacific Daylight Time)","439649","Trustworthy,Untrustworthy","","null","","","","feedback","","<div class='respPicDiv'><img src='img/responseButtonOffersNo0_wht.png' class='respPic'></div><div class='trialDiv'><img src='Fruit/plums1.png'><br><font class='baseline'><strong>Plum Powerball</strong><p><strong><font class='posOutcome'>You WON</font><p>You bet: 5</strong></font> &nbsp; &nbsp; &nbsp; &nbsp; &nbsp; &nbsp;<font class='posOutcome'>you receive: <strong>10</strong></font></div>","null","4","Plum Powerball","Fruit/plums1.png","Won","0.8,0.2","8","0.8","70","10","",""
"html-keyboard-response","40","159451","0.0-11.0-1.10","60fd933d5461857048f9e74c","bdp_rwlrn","Sun Mar 12 2023 19:48:56 GMT-0700 (Pacific Daylight Time)","439649","Trustworthy,Untrustworthy","","3816","","","","decision","","<div class='trialDiv'><img src='Fruit/apple.png'><br><font class='baseline'><strong>Awesome Apples</strong><p>Choose number of points to bet.</font><div class='respPicDiv'><img src='img/responseButtonOffersNo0L.png' class='respPic'></div></div>","3","4","Awesome Apples","Fruit/apple.png","Lost","0.35,0.8","9","0.35","75","11","",""
"html-keyboard-response","41","159714","0.0-11.0-2.10","60fd933d5461857048f9e74c","bdp_rwlrn","Sun Mar 12 2023 19:48:56 GMT-0700 (Pacific Daylight Time)","439649","Trustworthy,Untrustworthy","","null","","","","decisionFB","","<div class='trialDiv'><img src='Fruit/apple.png'><br><font class='baseline'><strong>Awesome Apples</strong><p>Choose number of points to bet.</font><div class='respPicDiv'><img src='img/responseButtonOffersNo0L3.png' class='respPic'></div></div>","null","4","Awesome Apples","Fruit/apple.png","Lost","0.35,0.8","9","0.35","72","11","",""
"html-keyboard-response","42","160731","0.0-11.0-3.10","60fd933d5461857048f9e74c","bdp_rwlrn","Sun Mar 12 2023 19:48:56 GMT-0700 (Pacific Daylight Time)","439649","Trustworthy,Untrustworthy","","null","","","","feedback","","<div class='respPicDiv'><img src='img/responseButtonOffersNo0_wht.png' class='respPic'></div><div class='trialDiv'><img src='Fruit/apple.png'><br><font class='baseline'><strong>Awesome Apples</strong><p><strong><font class='negOutcome'>You LOST</font><p>You bet: 3</strong></font> &nbsp; &nbsp; &nbsp; &nbsp; &nbsp; &nbsp;<font class='negOutcome'>You receive: <strong>0</strong></font></div>","null","4","Awesome Apples","Fruit/apple.png","Lost","0.35,0.8","9","0.35","72","11","",""
"html-keyboard-response","43","162826","0.0-11.0-1.11","60fd933d5461857048f9e74c","bdp_rwlrn","Sun Mar 12 2023 19:48:56 GMT-0700 (Pacific Daylight Time)","439649","Trustworthy,Untrustworthy","","2092","","","","decision","","<div class='trialDiv'><img src='Fruit/mango.png'><br><font class='baseline'><strong>Mega Mangos</strong><p>Choose number of points to bet.</font><div class='respPicDiv'><img src='img/responseButtonOffersNo0L.png' class='respPic'></div></div>","5","4","Mega Mangos","Fruit/mango.png","Won","0.65,0.2","13","0.65","77","12","",""
"html-keyboard-response","44","163081","0.0-11.0-2.11","60fd933d5461857048f9e74c","bdp_rwlrn","Sun Mar 12 2023 19:48:56 GMT-0700 (Pacific Daylight Time)","439649","Trustworthy,Untrustworthy","","null","","","","decisionFB","","<div class='trialDiv'><img src='Fruit/mango.png'><br><font class='baseline'><strong>Mega Mangos</strong><p>Choose number of points to bet.</font><div class='respPicDiv'><img src='img/responseButtonOffersNo0L5.png' class='respPic'></div></div>","null","4","Mega Mangos","Fruit/mango.png","Won","0.65,0.2","13","0.65","72","12","",""
"html-keyboard-response","45","164096","0.0-11.0-3.11","60fd933d5461857048f9e74c","bdp_rwlrn","Sun Mar 12 2023 19:48:56 GMT-0700 (Pacific Daylight Time)","439649","Trustworthy,Untrustworthy","","null","","","","feedback","","<div class='respPicDiv'><img src='img/responseButtonOffersNo0_wht.png' class='respPic'></div><div class='trialDiv'><img src='Fruit/mango.png'><br><font class='baseline'><strong>Mega Mangos</strong><p><strong><font class='posOutcome'>You WON</font><p>You bet: 5</strong></font> &nbsp; &nbsp; &nbsp; &nbsp; &nbsp; &nbsp;<font class='posOutcome'>you receive: <strong>10</strong></font></div>","null","4","Mega Mangos","Fruit/mango.png","Won","0.65,0.2","13","0.65","82","12","",""
"html-keyboard-response","46","164822","0.0-11.0-1.12","60fd933d5461857048f9e74c","bdp_rwlrn","Sun Mar 12 2023 19:48:56 GMT-0700 (Pacific Daylight Time)","439649","Trustworthy,Untrustworthy","","723","","","","decision","","<div class='trialDiv'><img src='Fruit/plums1.png'><br><font class='baseline'><strong>Plum Powerball</strong><p>Choose number of points to bet.</font><div class='respPicDiv'><img src='img/responseButtonOffersNo0L.png' class='respPic'></div></div>","5","5","Plum Powerball","Fruit/plums1.png","Won","0.8,0.2","8","0.8","87","13","",""
"html-keyboard-response","47","165081","0.0-11.0-2.12","60fd933d5461857048f9e74c","bdp_rwlrn","Sun Mar 12 2023 19:48:56 GMT-0700 (Pacific Daylight Time)","439649","Trustworthy,Untrustworthy","","null","","","","decisionFB","","<div class='trialDiv'><img src='Fruit/plums1.png'><br><font class='baseline'><strong>Plum Powerball</strong><p>Choose number of points to bet.</font><div class='respPicDiv'><img src='img/responseButtonOffersNo0L5.png' class='respPic'></div></div>","null","5","Plum Powerball","Fruit/plums1.png","Won","0.8,0.2","8","0.8","82","13","",""
"html-keyboard-response","48","166098","0.0-11.0-3.12","60fd933d5461857048f9e74c","bdp_rwlrn","Sun Mar 12 2023 19:48:56 GMT-0700 (Pacific Daylight Time)","439649","Trustworthy,Untrustworthy","","null","","","","feedback","","<div class='respPicDiv'><img src='img/responseButtonOffersNo0_wht.png' class='respPic'></div><div class='trialDiv'><img src='Fruit/plums1.png'><br><font class='baseline'><strong>Plum Powerball</strong><p><strong><font class='posOutcome'>You WON</font><p>You bet: 5</strong></font> &nbsp; &nbsp; &nbsp; &nbsp; &nbsp; &nbsp;<font class='posOutcome'>you receive: <strong>10</strong></font></div>","null","5","Plum Powerball","Fruit/plums1.png","Won","0.8,0.2","8","0.8","92","13","",""
"html-keyboard-response","49","167242","0.0-11.0-1.13","60fd933d5461857048f9e74c","bdp_rwlrn","Sun Mar 12 2023 19:48:56 GMT-0700 (Pacific Daylight Time)","439649","Trustworthy,Untrustworthy","","1141","","","","decision","","<div class='trialDiv'><img src='Fruit/mango.png'><br><font class='baseline'><strong>Mega Mangos</strong><p>Choose number of points to bet.</font><div class='respPicDiv'><img src='img/responseButtonOffersNo0L.png' class='respPic'></div></div>","5","5","Mega Mangos","Fruit/mango.png","Lost","0.65,0.2","13","0.65","97","14","",""
"html-keyboard-response","50","167498","0.0-11.0-2.13","60fd933d5461857048f9e74c","bdp_rwlrn","Sun Mar 12 2023 19:48:56 GMT-0700 (Pacific Daylight Time)","439649","Trustworthy,Untrustworthy","","null","","","","decisionFB","","<div class='trialDiv'><img src='Fruit/mango.png'><br><font class='baseline'><strong>Mega Mangos</strong><p>Choose number of points to bet.</font><div class='respPicDiv'><img src='img/responseButtonOffersNo0L5.png' class='respPic'></div></div>","null","5","Mega Mangos","Fruit/mango.png","Lost","0.65,0.2","13","0.65","92","14","",""
"html-keyboard-response","51","168514","0.0-11.0-3.13","60fd933d5461857048f9e74c","bdp_rwlrn","Sun Mar 12 2023 19:48:56 GMT-0700 (Pacific Daylight Time)","439649","Trustworthy,Untrustworthy","","null","","","","feedback","","<div class='respPicDiv'><img src='img/responseButtonOffersNo0_wht.png' class='respPic'></div><div class='trialDiv'><img src='Fruit/mango.png'><br><font class='baseline'><strong>Mega Mangos</strong><p><strong><font class='negOutcome'>You LOST</font><p>You bet: 5</strong></font> &nbsp; &nbsp; &nbsp; &nbsp; &nbsp; &nbsp;<font class='negOutcome'>You receive: <strong>0</strong></font></div>","null","5","Mega Mangos","Fruit/mango.png","Lost","0.65,0.2","13","0.65","92","14","",""
"html-keyboard-response","52","169851","0.0-11.0-1.14","60fd933d5461857048f9e74c","bdp_rwlrn","Sun Mar 12 2023 19:48:56 GMT-0700 (Pacific Daylight Time)","439649","Trustworthy,Untrustworthy","","1334","","","","decision","","<div class='trialDiv'><img src='Fruit/apple.png'><br><font class='baseline'><strong>Awesome Apples</strong><p>Choose number of points to bet.</font><div class='respPicDiv'><img src='img/responseButtonOffersNo0L.png' class='respPic'></div></div>","5","5","Awesome Apples","Fruit/apple.png","Won","0.35,0.8","9","0.35","97","15","",""
"html-keyboard-response","53","170112","0.0-11.0-2.14","60fd933d5461857048f9e74c","bdp_rwlrn","Sun Mar 12 2023 19:48:56 GMT-0700 (Pacific Daylight Time)","439649","Trustworthy,Untrustworthy","","null","","","","decisionFB","","<div class='trialDiv'><img src='Fruit/apple.png'><br><font class='baseline'><strong>Awesome Apples</strong><p>Choose number of points to bet.</font><div class='respPicDiv'><img src='img/responseButtonOffersNo0L5.png' class='respPic'></div></div>","null","5","Awesome Apples","Fruit/apple.png","Won","0.35,0.8","9","0.35","92","15","",""
"html-keyboard-response","54","171128","0.0-11.0-3.14","60fd933d5461857048f9e74c","bdp_rwlrn","Sun Mar 12 2023 19:48:56 GMT-0700 (Pacific Daylight Time)","439649","Trustworthy,Untrustworthy","","null","","","","feedback","","<div class='respPicDiv'><img src='img/responseButtonOffersNo0_wht.png' class='respPic'></div><div class='trialDiv'><img src='Fruit/apple.png'><br><font class='baseline'><strong>Awesome Apples</strong><p><strong><font class='posOutcome'>You WON</font><p>You bet: 5</strong></font> &nbsp; &nbsp; &nbsp; &nbsp; &nbsp; &nbsp;<font class='posOutcome'>you receive: <strong>10</strong></font></div>","null","5","Awesome Apples","Fruit/apple.png","Won","0.35,0.8","9","0.35","102","15","",""
"html-keyboard-response","55","171974","0.0-11.0-1.15","60fd933d5461857048f9e74c","bdp_rwlrn","Sun Mar 12 2023 19:48:56 GMT-0700 (Pacific Daylight Time)","439649","Trustworthy,Untrustworthy","","844","","","","decision","","<div class='trialDiv'><img src='Fruit/plums1.png'><br><font class='baseline'><strong>Plum Powerball</strong><p>Choose number of points to bet.</font><div class='respPicDiv'><img src='img/responseButtonOffersNo0L.png' class='respPic'></div></div>","5","6","Plum Powerball","Fruit/plums1.png","Won","0.8,0.2","8","0.8","107","16","",""
"html-keyboard-response","56","172230","0.0-11.0-2.15","60fd933d5461857048f9e74c","bdp_rwlrn","Sun Mar 12 2023 19:48:56 GMT-0700 (Pacific Daylight Time)","439649","Trustworthy,Untrustworthy","","null","","","","decisionFB","","<div class='trialDiv'><img src='Fruit/plums1.png'><br><font class='baseline'><strong>Plum Powerball</strong><p>Choose number of points to bet.</font><div class='respPicDiv'><img src='img/responseButtonOffersNo0L5.png' class='respPic'></div></div>","null","6","Plum Powerball","Fruit/plums1.png","Won","0.8,0.2","8","0.8","102","16","",""
"html-keyboard-response","57","173244","0.0-11.0-3.15","60fd933d5461857048f9e74c","bdp_rwlrn","Sun Mar 12 2023 19:48:56 GMT-0700 (Pacific Daylight Time)","439649","Trustworthy,Untrustworthy","","null","","","","feedback","","<div class='respPicDiv'><img src='img/responseButtonOffersNo0_wht.png' class='respPic'></div><div class='trialDiv'><img src='Fruit/plums1.png'><br><font class='baseline'><strong>Plum Powerball</strong><p><strong><font class='posOutcome'>You WON</font><p>You bet: 5</strong></font> &nbsp; &nbsp; &nbsp; &nbsp; &nbsp; &nbsp;<font class='posOutcome'>you receive: <strong>10</strong></font></div>","null","6","Plum Powerball","Fruit/plums1.png","Won","0.8,0.2","8","0.8","112","16","",""
"html-keyboard-response","58","176303","0.0-11.0-1.16","60fd933d5461857048f9e74c","bdp_rwlrn","Sun Mar 12 2023 19:48:56 GMT-0700 (Pacific Daylight Time)","439649","Trustworthy,Untrustworthy","","3056","","","","decision","","<div class='trialDiv'><img src='Fruit/mango.png'><br><font class='baseline'><strong>Mega Mangos</strong><p>Choose number of points to bet.</font><div class='respPicDiv'><img src='img/responseButtonOffersNo0L.png' class='respPic'></div></div>","4","6","Mega Mangos","Fruit/mango.png","Lost","0.65,0.2","13","0.65","117","17","",""
"html-keyboard-response","59","176561","0.0-11.0-2.16","60fd933d5461857048f9e74c","bdp_rwlrn","Sun Mar 12 2023 19:48:56 GMT-0700 (Pacific Daylight Time)","439649","Trustworthy,Untrustworthy","","null","","","","decisionFB","","<div class='trialDiv'><img src='Fruit/mango.png'><br><font class='baseline'><strong>Mega Mangos</strong><p>Choose number of points to bet.</font><div class='respPicDiv'><img src='img/responseButtonOffersNo0L4.png' class='respPic'></div></div>","null","6","Mega Mangos","Fruit/mango.png","Lost","0.65,0.2","13","0.65","113","17","",""
"html-keyboard-response","60","177578","0.0-11.0-3.16","60fd933d5461857048f9e74c","bdp_rwlrn","Sun Mar 12 2023 19:48:56 GMT-0700 (Pacific Daylight Time)","439649","Trustworthy,Untrustworthy","","null","","","","feedback","","<div class='respPicDiv'><img src='img/responseButtonOffersNo0_wht.png' class='respPic'></div><div class='trialDiv'><img src='Fruit/mango.png'><br><font class='baseline'><strong>Mega Mangos</strong><p><strong><font class='negOutcome'>You LOST</font><p>You bet: 4</strong></font> &nbsp; &nbsp; &nbsp; &nbsp; &nbsp; &nbsp;<font class='negOutcome'>You receive: <strong>0</strong></font></div>","null","6","Mega Mangos","Fruit/mango.png","Lost","0.65,0.2","13","0.65","113","17","",""
"html-keyboard-response","61","178463","0.0-11.0-1.17","60fd933d5461857048f9e74c","bdp_rwlrn","Sun Mar 12 2023 19:48:56 GMT-0700 (Pacific Daylight Time)","439649","Trustworthy,Untrustworthy","","883","","","","decision","","<div class='trialDiv'><img src='Fruit/apple.png'><br><font class='baseline'><strong>Awesome Apples</strong><p>Choose number of points to bet.</font><div class='respPicDiv'><img src='img/responseButtonOffersNo0L.png' class='respPic'></div></div>","5","6","Awesome Apples","Fruit/apple.png","Won","0.35,0.8","9","0.35","118","18","",""
"html-keyboard-response","62","178738","0.0-11.0-2.17","60fd933d5461857048f9e74c","bdp_rwlrn","Sun Mar 12 2023 19:48:56 GMT-0700 (Pacific Daylight Time)","439649","Trustworthy,Untrustworthy","","null","","","","decisionFB","","<div class='trialDiv'><img src='Fruit/apple.png'><br><font class='baseline'><strong>Awesome Apples</strong><p>Choose number of points to bet.</font><div class='respPicDiv'><img src='img/responseButtonOffersNo0L5.png' class='respPic'></div></div>","null","6","Awesome Apples","Fruit/apple.png","Won","0.35,0.8","9","0.35","113","18","",""
"html-keyboard-response","63","179754","0.0-11.0-3.17","60fd933d5461857048f9e74c","bdp_rwlrn","Sun Mar 12 2023 19:48:56 GMT-0700 (Pacific Daylight Time)","439649","Trustworthy,Untrustworthy","","null","","","","feedback","","<div class='respPicDiv'><img src='img/responseButtonOffersNo0_wht.png' class='respPic'></div><div class='trialDiv'><img src='Fruit/apple.png'><br><font class='baseline'><strong>Awesome Apples</strong><p><strong><font class='posOutcome'>You WON</font><p>You bet: 5</strong></font> &nbsp; &nbsp; &nbsp; &nbsp; &nbsp; &nbsp;<font class='posOutcome'>you receive: <strong>10</strong></font></div>","null","6","Awesome Apples","Fruit/apple.png","Won","0.35,0.8","9","0.35","123","18","",""
"html-keyboard-response","64","180395","0.0-11.0-1.18","60fd933d5461857048f9e74c","bdp_rwlrn","Sun Mar 12 2023 19:48:56 GMT-0700 (Pacific Daylight Time)","439649","Trustworthy,Untrustworthy","","638","","","","decision","","<div class='trialDiv'><img src='Fruit/mango.png'><br><font class='baseline'><strong>Mega Mangos</strong><p>Choose number of points to bet.</font><div class='respPicDiv'><img src='img/responseButtonOffersNo0L.png' class='respPic'></div></div>","5","7","Mega Mangos","Fruit/mango.png","Lost","0.65,0.2","13","0.65","128","19","",""
"html-keyboard-response","65","180654","0.0-11.0-2.18","60fd933d5461857048f9e74c","bdp_rwlrn","Sun Mar 12 2023 19:48:56 GMT-0700 (Pacific Daylight Time)","439649","Trustworthy,Untrustworthy","","null","","","","decisionFB","","<div class='trialDiv'><img src='Fruit/mango.png'><br><font class='baseline'><strong>Mega Mangos</strong><p>Choose number of points to bet.</font><div class='respPicDiv'><img src='img/responseButtonOffersNo0L5.png' class='respPic'></div></div>","null","7","Mega Mangos","Fruit/mango.png","Lost","0.65,0.2","13","0.65","123","19","",""
"html-keyboard-response","66","181670","0.0-11.0-3.18","60fd933d5461857048f9e74c","bdp_rwlrn","Sun Mar 12 2023 19:48:56 GMT-0700 (Pacific Daylight Time)","439649","Trustworthy,Untrustworthy","","null","","","","feedback","","<div class='respPicDiv'><img src='img/responseButtonOffersNo0_wht.png' class='respPic'></div><div class='trialDiv'><img src='Fruit/mango.png'><br><font class='baseline'><strong>Mega Mangos</strong><p><strong><font class='negOutcome'>You LOST</font><p>You bet: 5</strong></font> &nbsp; &nbsp; &nbsp; &nbsp; &nbsp; &nbsp;<font class='negOutcome'>You receive: <strong>0</strong></font></div>","null","7","Mega Mangos","Fruit/mango.png","Lost","0.65,0.2","13","0.65","123","19","",""
"html-keyboard-response","67","182170","0.0-11.0-1.19","60fd933d5461857048f9e74c","bdp_rwlrn","Sun Mar 12 2023 19:48:56 GMT-0700 (Pacific Daylight Time)","439649","Trustworthy,Untrustworthy","","498","","","","decision","","<div class='trialDiv'><img src='Fruit/apple.png'><br><font class='baseline'><strong>Awesome Apples</strong><p>Choose number of points to bet.</font><div class='respPicDiv'><img src='img/responseButtonOffersNo0L.png' class='respPic'></div></div>","5","7","Awesome Apples","Fruit/apple.png","Won","0.35,0.8","9","0.35","128","20","",""
"html-keyboard-response","68","182437","0.0-11.0-2.19","60fd933d5461857048f9e74c","bdp_rwlrn","Sun Mar 12 2023 19:48:56 GMT-0700 (Pacific Daylight Time)","439649","Trustworthy,Untrustworthy","","null","","","","decisionFB","","<div class='trialDiv'><img src='Fruit/apple.png'><br><font class='baseline'><strong>Awesome Apples</strong><p>Choose number of points to bet.</font><div class='respPicDiv'><img src='img/responseButtonOffersNo0L5.png' class='respPic'></div></div>","null","7","Awesome Apples","Fruit/apple.png","Won","0.35,0.8","9","0.35","123","20","",""
"html-keyboard-response","69","183453","0.0-11.0-3.19","60fd933d5461857048f9e74c","bdp_rwlrn","Sun Mar 12 2023 19:48:56 GMT-0700 (Pacific Daylight Time)","439649","Trustworthy,Untrustworthy","","null","","","","feedback","","<div class='respPicDiv'><img src='img/responseButtonOffersNo0_wht.png' class='respPic'></div><div class='trialDiv'><img src='Fruit/apple.png'><br><font class='baseline'><strong>Awesome Apples</strong><p><strong><font class='posOutcome'>You WON</font><p>You bet: 5</strong></font> &nbsp; &nbsp; &nbsp; &nbsp; &nbsp; &nbsp;<font class='posOutcome'>you receive: <strong>10</strong></font></div>","null","7","Awesome Apples","Fruit/apple.png","Won","0.35,0.8","9","0.35","133","20","",""
"html-keyboard-response","70","184182","0.0-11.0-1.20","60fd933d5461857048f9e74c","bdp_rwlrn","Sun Mar 12 2023 19:48:56 GMT-0700 (Pacific Daylight Time)","439649","Trustworthy,Untrustworthy","","726","","","","decision","","<div class='trialDiv'><img src='Fruit/plums1.png'><br><font class='baseline'><strong>Plum Powerball</strong><p>Choose number of points to bet.</font><div class='respPicDiv'><img src='img/responseButtonOffersNo0L.png' class='respPic'></div></div>","5","7","Plum Powerball","Fruit/plums1.png","Won","0.8,0.2","8","0.8","138","21","",""
"html-keyboard-response","71","184439","0.0-11.0-2.20","60fd933d5461857048f9e74c","bdp_rwlrn","Sun Mar 12 2023 19:48:56 GMT-0700 (Pacific Daylight Time)","439649","Trustworthy,Untrustworthy","","null","","","","decisionFB","","<div class='trialDiv'><img src='Fruit/plums1.png'><br><font class='baseline'><strong>Plum Powerball</strong><p>Choose number of points to bet.</font><div class='respPicDiv'><img src='img/responseButtonOffersNo0L5.png' class='respPic'></div></div>","null","7","Plum Powerball","Fruit/plums1.png","Won","0.8,0.2","8","0.8","133","21","",""
"html-keyboard-response","72","185453","0.0-11.0-3.20","60fd933d5461857048f9e74c","bdp_rwlrn","Sun Mar 12 2023 19:48:56 GMT-0700 (Pacific Daylight Time)","439649","Trustworthy,Untrustworthy","","null","","","","feedback","","<div class='respPicDiv'><img src='img/responseButtonOffersNo0_wht.png' class='respPic'></div><div class='trialDiv'><img src='Fruit/plums1.png'><br><font class='baseline'><strong>Plum Powerball</strong><p><strong><font class='posOutcome'>You WON</font><p>You bet: 5</strong></font> &nbsp; &nbsp; &nbsp; &nbsp; &nbsp; &nbsp;<font class='posOutcome'>you receive: <strong>10</strong></font></div>","null","7","Plum Powerball","Fruit/plums1.png","Won","0.8,0.2","8","0.8","143","21","",""
"html-keyboard-response","73","185871","0.0-11.0-1.21","60fd933d5461857048f9e74c","bdp_rwlrn","Sun Mar 12 2023 19:48:56 GMT-0700 (Pacific Daylight Time)","439649","Trustworthy,Untrustworthy","","417","","","","decision","","<div class='trialDiv'><img src='Fruit/apple.png'><br><font class='baseline'><strong>Awesome Apples</strong><p>Choose number of points to bet.</font><div class='respPicDiv'><img src='img/responseButtonOffersNo0L.png' class='respPic'></div></div>","5","8","Awesome Apples","Fruit/apple.png","Won","0.35,0.8","9","0.35","148","22","",""
"html-keyboard-response","74","186135","0.0-11.0-2.21","60fd933d5461857048f9e74c","bdp_rwlrn","Sun Mar 12 2023 19:48:56 GMT-0700 (Pacific Daylight Time)","439649","Trustworthy,Untrustworthy","","null","","","","decisionFB","","<div class='trialDiv'><img src='Fruit/apple.png'><br><font class='baseline'><strong>Awesome Apples</strong><p>Choose number of points to bet.</font><div class='respPicDiv'><img src='img/responseButtonOffersNo0L5.png' class='respPic'></div></div>","null","8","Awesome Apples","Fruit/apple.png","Won","0.35,0.8","9","0.35","143","22","",""
"html-keyboard-response","75","187153","0.0-11.0-3.21","60fd933d5461857048f9e74c","bdp_rwlrn","Sun Mar 12 2023 19:48:56 GMT-0700 (Pacific Daylight Time)","439649","Trustworthy,Untrustworthy","","null","","","","feedback","","<div class='respPicDiv'><img src='img/responseButtonOffersNo0_wht.png' class='respPic'></div><div class='trialDiv'><img src='Fruit/apple.png'><br><font class='baseline'><strong>Awesome Apples</strong><p><strong><font class='posOutcome'>You WON</font><p>You bet: 5</strong></font> &nbsp; &nbsp; &nbsp; &nbsp; &nbsp; &nbsp;<font class='posOutcome'>you receive: <strong>10</strong></font></div>","null","8","Awesome Apples","Fruit/apple.png","Won","0.35,0.8","9","0.35","153","22","",""
"html-keyboard-response","76","188614","0.0-11.0-1.22","60fd933d5461857048f9e74c","bdp_rwlrn","Sun Mar 12 2023 19:48:56 GMT-0700 (Pacific Daylight Time)","439649","Trustworthy,Untrustworthy","","1459","","","","decision","","<div class='trialDiv'><img src='Fruit/plums1.png'><br><font class='baseline'><strong>Plum Powerball</strong><p>Choose number of points to bet.</font><div class='respPicDiv'><img src='img/responseButtonOffersNo0L.png' class='respPic'></div></div>","3","8","Plum Powerball","Fruit/plums1.png","Lost","0.8,0.2","8","0.8","158","23","",""
"html-keyboard-response","77","188869","0.0-11.0-2.22","60fd933d5461857048f9e74c","bdp_rwlrn","Sun Mar 12 2023 19:48:56 GMT-0700 (Pacific Daylight Time)","439649","Trustworthy,Untrustworthy","","null","","","","decisionFB","","<div class='trialDiv'><img src='Fruit/plums1.png'><br><font class='baseline'><strong>Plum Powerball</strong><p>Choose number of points to bet.</font><div class='respPicDiv'><img src='img/responseButtonOffersNo0L3.png' class='respPic'></div></div>","null","8","Plum Powerball","Fruit/plums1.png","Lost","0.8,0.2","8","0.8","155","23","",""
"html-keyboard-response","78","189881","0.0-11.0-3.22","60fd933d5461857048f9e74c","bdp_rwlrn","Sun Mar 12 2023 19:48:56 GMT-0700 (Pacific Daylight Time)","439649","Trustworthy,Untrustworthy","","null","","","","feedback","","<div class='respPicDiv'><img src='img/responseButtonOffersNo0_wht.png' class='respPic'></div><div class='trialDiv'><img src='Fruit/plums1.png'><br><font class='baseline'><strong>Plum Powerball</strong><p><strong><font class='negOutcome'>You LOST</font><p>You bet: 3</strong></font> &nbsp; &nbsp; &nbsp; &nbsp; &nbsp; &nbsp;<font class='negOutcome'>You receive: <strong>0</strong></font></div>","null","8","Plum Powerball","Fruit/plums1.png","Lost","0.8,0.2","8","0.8","155","23","",""
"html-keyboard-response","79","190625","0.0-11.0-1.23","60fd933d5461857048f9e74c","bdp_rwlrn","Sun Mar 12 2023 19:48:56 GMT-0700 (Pacific Daylight Time)","439649","Trustworthy,Untrustworthy","","742","","","","decision","","<div class='trialDiv'><img src='Fruit/mango.png'><br><font class='baseline'><strong>Mega Mangos</strong><p>Choose number of points to bet.</font><div class='respPicDiv'><img src='img/responseButtonOffersNo0L.png' class='respPic'></div></div>","5","8","Mega Mangos","Fruit/mango.png","Lost","0.65,0.2","13","0.65","160","24","",""
"html-keyboard-response","80","190884","0.0-11.0-2.23","60fd933d5461857048f9e74c","bdp_rwlrn","Sun Mar 12 2023 19:48:56 GMT-0700 (Pacific Daylight Time)","439649","Trustworthy,Untrustworthy","","null","","","","decisionFB","","<div class='trialDiv'><img src='Fruit/mango.png'><br><font class='baseline'><strong>Mega Mangos</strong><p>Choose number of points to bet.</font><div class='respPicDiv'><img src='img/responseButtonOffersNo0L5.png' class='respPic'></div></div>","null","8","Mega Mangos","Fruit/mango.png","Lost","0.65,0.2","13","0.65","155","24","",""
"html-keyboard-response","81","191902","0.0-11.0-3.23","60fd933d5461857048f9e74c","bdp_rwlrn","Sun Mar 12 2023 19:48:56 GMT-0700 (Pacific Daylight Time)","439649","Trustworthy,Untrustworthy","","null","","","","feedback","","<div class='respPicDiv'><img src='img/responseButtonOffersNo0_wht.png' class='respPic'></div><div class='trialDiv'><img src='Fruit/mango.png'><br><font class='baseline'><strong>Mega Mangos</strong><p><strong><font class='negOutcome'>You LOST</font><p>You bet: 5</strong></font> &nbsp; &nbsp; &nbsp; &nbsp; &nbsp; &nbsp;<font class='negOutcome'>You receive: <strong>0</strong></font></div>","null","8","Mega Mangos","Fruit/mango.png","Lost","0.65,0.2","13","0.65","155","24","",""
"html-keyboard-response","82","192992","0.0-11.0-1.24","60fd933d5461857048f9e74c","bdp_rwlrn","Sun Mar 12 2023 19:48:56 GMT-0700 (Pacific Daylight Time)","439649","Trustworthy,Untrustworthy","","1088","","","","decision","","<div class='trialDiv'><img src='Fruit/apple.png'><br><font class='baseline'><strong>Awesome Apples</strong><p>Choose number of points to bet.</font><div class='respPicDiv'><img src='img/responseButtonOffersNo0L.png' class='respPic'></div></div>","4","9","Awesome Apples","Fruit/apple.png","Lost","0.35,0.8","9","0.35","160","25","",""
"html-keyboard-response","83","193250","0.0-11.0-2.24","60fd933d5461857048f9e74c","bdp_rwlrn","Sun Mar 12 2023 19:48:56 GMT-0700 (Pacific Daylight Time)","439649","Trustworthy,Untrustworthy","","null","","","","decisionFB","","<div class='trialDiv'><img src='Fruit/apple.png'><br><font class='baseline'><strong>Awesome Apples</strong><p>Choose number of points to bet.</font><div class='respPicDiv'><img src='img/responseButtonOffersNo0L4.png' class='respPic'></div></div>","null","9","Awesome Apples","Fruit/apple.png","Lost","0.35,0.8","9","0.35","156","25","",""
"html-keyboard-response","84","194267","0.0-11.0-3.24","60fd933d5461857048f9e74c","bdp_rwlrn","Sun Mar 12 2023 19:48:56 GMT-0700 (Pacific Daylight Time)","439649","Trustworthy,Untrustworthy","","null","","","","feedback","","<div class='respPicDiv'><img src='img/responseButtonOffersNo0_wht.png' class='respPic'></div><div class='trialDiv'><img src='Fruit/apple.png'><br><font class='baseline'><strong>Awesome Apples</strong><p><strong><font class='negOutcome'>You LOST</font><p>You bet: 4</strong></font> &nbsp; &nbsp; &nbsp; &nbsp; &nbsp; &nbsp;<font class='negOutcome'>You receive: <strong>0</strong></font></div>","null","9","Awesome Apples","Fruit/apple.png","Lost","0.35,0.8","9","0.35","156","25","",""
"html-keyboard-response","85","194592","0.0-11.0-1.25","60fd933d5461857048f9e74c","bdp_rwlrn","Sun Mar 12 2023 19:48:56 GMT-0700 (Pacific Daylight Time)","439649","Trustworthy,Untrustworthy","","322","","","","decision","","<div class='trialDiv'><img src='Fruit/mango.png'><br><font class='baseline'><strong>Mega Mangos</strong><p>Choose number of points to bet.</font><div class='respPicDiv'><img src='img/responseButtonOffersNo0L.png' class='respPic'></div></div>","5","9","Mega Mangos","Fruit/mango.png","Won","0.65,0.2","13","0.65","161","26","",""
"html-keyboard-response","86","194852","0.0-11.0-2.25","60fd933d5461857048f9e74c","bdp_rwlrn","Sun Mar 12 2023 19:48:56 GMT-0700 (Pacific Daylight Time)","439649","Trustworthy,Untrustworthy","","null","","","","decisionFB","","<div class='trialDiv'><img src='Fruit/mango.png'><br><font class='baseline'><strong>Mega Mangos</strong><p>Choose number of points to bet.</font><div class='respPicDiv'><img src='img/responseButtonOffersNo0L5.png' class='respPic'></div></div>","null","9","Mega Mangos","Fruit/mango.png","Won","0.65,0.2","13","0.65","156","26","",""
"html-keyboard-response","87","195867","0.0-11.0-3.25","60fd933d5461857048f9e74c","bdp_rwlrn","Sun Mar 12 2023 19:48:56 GMT-0700 (Pacific Daylight Time)","439649","Trustworthy,Untrustworthy","","null","","","","feedback","","<div class='respPicDiv'><img src='img/responseButtonOffersNo0_wht.png' class='respPic'></div><div class='trialDiv'><img src='Fruit/mango.png'><br><font class='baseline'><strong>Mega Mangos</strong><p><strong><font class='posOutcome'>You WON</font><p>You bet: 5</strong></font> &nbsp; &nbsp; &nbsp; &nbsp; &nbsp; &nbsp;<font class='posOutcome'>you receive: <strong>10</strong></font></div>","null","9","Mega Mangos","Fruit/mango.png","Won","0.65,0.2","13","0.65","166","26","",""
"html-keyboard-response","88","196490","0.0-11.0-1.26","60fd933d5461857048f9e74c","bdp_rwlrn","Sun Mar 12 2023 19:48:56 GMT-0700 (Pacific Daylight Time)","439649","Trustworthy,Untrustworthy","","620","","","","decision","","<div class='trialDiv'><img src='Fruit/plums1.png'><br><font class='baseline'><strong>Plum Powerball</strong><p>Choose number of points to bet.</font><div class='respPicDiv'><img src='img/responseButtonOffersNo0L.png' class='respPic'></div></div>","5","9","Plum Powerball","Fruit/plums1.png","Won","0.8,0.2","8","0.8","171","27","",""
"html-keyboard-response","89","196749","0.0-11.0-2.26","60fd933d5461857048f9e74c","bdp_rwlrn","Sun Mar 12 2023 19:48:56 GMT-0700 (Pacific Daylight Time)","439649","Trustworthy,Untrustworthy","","null","","","","decisionFB","","<div class='trialDiv'><img src='Fruit/plums1.png'><br><font class='baseline'><strong>Plum Powerball</strong><p>Choose number of points to bet.</font><div class='respPicDiv'><img src='img/responseButtonOffersNo0L5.png' class='respPic'></div></div>","null","9","Plum Powerball","Fruit/plums1.png","Won","0.8,0.2","8","0.8","166","27","",""
"html-keyboard-response","90","197766","0.0-11.0-3.26","60fd933d5461857048f9e74c","bdp_rwlrn","Sun Mar 12 2023 19:48:56 GMT-0700 (Pacific Daylight Time)","439649","Trustworthy,Untrustworthy","","null","","","","feedback","","<div class='respPicDiv'><img src='img/responseButtonOffersNo0_wht.png' class='respPic'></div><div class='trialDiv'><img src='Fruit/plums1.png'><br><font class='baseline'><strong>Plum Powerball</strong><p><strong><font class='posOutcome'>You WON</font><p>You bet: 5</strong></font> &nbsp; &nbsp; &nbsp; &nbsp; &nbsp; &nbsp;<font class='posOutcome'>you receive: <strong>10</strong></font></div>","null","9","Plum Powerball","Fruit/plums1.png","Won","0.8,0.2","8","0.8","176","27","",""
"html-keyboard-response","91","198442","0.0-11.0-1.27","60fd933d5461857048f9e74c","bdp_rwlrn","Sun Mar 12 2023 19:48:56 GMT-0700 (Pacific Daylight Time)","439649","Trustworthy,Untrustworthy","","674","","","","decision","","<div class='trialDiv'><img src='Fruit/mango.png'><br><font class='baseline'><strong>Mega Mangos</strong><p>Choose number of points to bet.</font><div class='respPicDiv'><img src='img/responseButtonOffersNo0L.png' class='respPic'></div></div>","5","10","Mega Mangos","Fruit/mango.png","Won","0.65,0.2","13","0.65","181","28","",""
"html-keyboard-response","92","198700","0.0-11.0-2.27","60fd933d5461857048f9e74c","bdp_rwlrn","Sun Mar 12 2023 19:48:56 GMT-0700 (Pacific Daylight Time)","439649","Trustworthy,Untrustworthy","","null","","","","decisionFB","","<div class='trialDiv'><img src='Fruit/mango.png'><br><font class='baseline'><strong>Mega Mangos</strong><p>Choose number of points to bet.</font><div class='respPicDiv'><img src='img/responseButtonOffersNo0L5.png' class='respPic'></div></div>","null","10","Mega Mangos","Fruit/mango.png","Won","0.65,0.2","13","0.65","176","28","",""
"html-keyboard-response","93","199716","0.0-11.0-3.27","60fd933d5461857048f9e74c","bdp_rwlrn","Sun Mar 12 2023 19:48:56 GMT-0700 (Pacific Daylight Time)","439649","Trustworthy,Untrustworthy","","null","","","","feedback","","<div class='respPicDiv'><img src='img/responseButtonOffersNo0_wht.png' class='respPic'></div><div class='trialDiv'><img src='Fruit/mango.png'><br><font class='baseline'><strong>Mega Mangos</strong><p><strong><font class='posOutcome'>You WON</font><p>You bet: 5</strong></font> &nbsp; &nbsp; &nbsp; &nbsp; &nbsp; &nbsp;<font class='posOutcome'>you receive: <strong>10</strong></font></div>","null","10","Mega Mangos","Fruit/mango.png","Won","0.65,0.2","13","0.65","186","28","",""
"html-keyboard-response","94","200112","0.0-11.0-1.28","60fd933d5461857048f9e74c","bdp_rwlrn","Sun Mar 12 2023 19:48:56 GMT-0700 (Pacific Daylight Time)","439649","Trustworthy,Untrustworthy","","393","","","","decision","","<div class='trialDiv'><img src='Fruit/apple.png'><br><font class='baseline'><strong>Awesome Apples</strong><p>Choose number of points to bet.</font><div class='respPicDiv'><img src='img/responseButtonOffersNo0L.png' class='respPic'></div></div>","5","10","Awesome Apples","Fruit/apple.png","Won","0.35,0.8","9","0.35","191","29","",""
"html-keyboard-response","95","200369","0.0-11.0-2.28","60fd933d5461857048f9e74c","bdp_rwlrn","Sun Mar 12 2023 19:48:56 GMT-0700 (Pacific Daylight Time)","439649","Trustworthy,Untrustworthy","","null","","","","decisionFB","","<div class='trialDiv'><img src='Fruit/apple.png'><br><font class='baseline'><strong>Awesome Apples</strong><p>Choose number of points to bet.</font><div class='respPicDiv'><img src='img/responseButtonOffersNo0L5.png' class='respPic'></div></div>","null","10","Awesome Apples","Fruit/apple.png","Won","0.35,0.8","9","0.35","186","29","",""
"html-keyboard-response","96","201382","0.0-11.0-3.28","60fd933d5461857048f9e74c","bdp_rwlrn","Sun Mar 12 2023 19:48:56 GMT-0700 (Pacific Daylight Time)","439649","Trustworthy,Untrustworthy","","null","","","","feedback","","<div class='respPicDiv'><img src='img/responseButtonOffersNo0_wht.png' class='respPic'></div><div class='trialDiv'><img src='Fruit/apple.png'><br><font class='baseline'><strong>Awesome Apples</strong><p><strong><font class='posOutcome'>You WON</font><p>You bet: 5</strong></font> &nbsp; &nbsp; &nbsp; &nbsp; &nbsp; &nbsp;<font class='posOutcome'>you receive: <strong>10</strong></font></div>","null","10","Awesome Apples","Fruit/apple.png","Won","0.35,0.8","9","0.35","196","29","",""
"html-keyboard-response","97","201895","0.0-11.0-1.29","60fd933d5461857048f9e74c","bdp_rwlrn","Sun Mar 12 2023 19:48:56 GMT-0700 (Pacific Daylight Time)","439649","Trustworthy,Untrustworthy","","511","","","","decision","","<div class='trialDiv'><img src='Fruit/plums1.png'><br><font class='baseline'><strong>Plum Powerball</strong><p>Choose number of points to bet.</font><div class='respPicDiv'><img src='img/responseButtonOffersNo0L.png' class='respPic'></div></div>","5","10","Plum Powerball","Fruit/plums1.png","Lost","0.8,0.2","8","0.8","201","30","",""
"html-keyboard-response","98","202150","0.0-11.0-2.29","60fd933d5461857048f9e74c","bdp_rwlrn","Sun Mar 12 2023 19:48:56 GMT-0700 (Pacific Daylight Time)","439649","Trustworthy,Untrustworthy","","null","","","","decisionFB","","<div class='trialDiv'><img src='Fruit/plums1.png'><br><font class='baseline'><strong>Plum Powerball</strong><p>Choose number of points to bet.</font><div class='respPicDiv'><img src='img/responseButtonOffersNo0L5.png' class='respPic'></div></div>","null","10","Plum Powerball","Fruit/plums1.png","Lost","0.8,0.2","8","0.8","196","30","",""
"html-keyboard-response","99","203165","0.0-11.0-3.29","60fd933d5461857048f9e74c","bdp_rwlrn","Sun Mar 12 2023 19:48:56 GMT-0700 (Pacific Daylight Time)","439649","Trustworthy,Untrustworthy","","null","","","","feedback","","<div class='respPicDiv'><img src='img/responseButtonOffersNo0_wht.png' class='respPic'></div><div class='trialDiv'><img src='Fruit/plums1.png'><br><font class='baseline'><strong>Plum Powerball</strong><p><strong><font class='negOutcome'>You LOST</font><p>You bet: 5</strong></font> &nbsp; &nbsp; &nbsp; &nbsp; &nbsp; &nbsp;<font class='negOutcome'>You receive: <strong>0</strong></font></div>","null","10","Plum Powerball","Fruit/plums1.png","Lost","0.8,0.2","8","0.8","196","30","",""
"html-keyboard-response","100","203482","0.0-11.0-1.30","60fd933d5461857048f9e74c","bdp_rwlrn","Sun Mar 12 2023 19:48:56 GMT-0700 (Pacific Daylight Time)","439649","Trustworthy,Untrustworthy","","315","","","","decision","","<div class='trialDiv'><img src='Fruit/apple.png'><br><font class='baseline'><strong>Awesome Apples</strong><p>Choose number of points to bet.</font><div class='respPicDiv'><img src='img/responseButtonOffersNo0L.png' class='respPic'></div></div>","5","11","Awesome Apples","Fruit/apple.png","Lost","0.35,0.8","9","0.35","201","31","",""
"html-keyboard-response","101","203748","0.0-11.0-2.30","60fd933d5461857048f9e74c","bdp_rwlrn","Sun Mar 12 2023 19:48:56 GMT-0700 (Pacific Daylight Time)","439649","Trustworthy,Untrustworthy","","null","","","","decisionFB","","<div class='trialDiv'><img src='Fruit/apple.png'><br><font class='baseline'><strong>Awesome Apples</strong><p>Choose number of points to bet.</font><div class='respPicDiv'><img src='img/responseButtonOffersNo0L5.png' class='respPic'></div></div>","null","11","Awesome Apples","Fruit/apple.png","Lost","0.35,0.8","9","0.35","196","31","",""
"html-keyboard-response","102","204764","0.0-11.0-3.30","60fd933d5461857048f9e74c","bdp_rwlrn","Sun Mar 12 2023 19:48:56 GMT-0700 (Pacific Daylight Time)","439649","Trustworthy,Untrustworthy","","null","","","","feedback","","<div class='respPicDiv'><img src='img/responseButtonOffersNo0_wht.png' class='respPic'></div><div class='trialDiv'><img src='Fruit/apple.png'><br><font class='baseline'><strong>Awesome Apples</strong><p><strong><font class='negOutcome'>You LOST</font><p>You bet: 5</strong></font> &nbsp; &nbsp; &nbsp; &nbsp; &nbsp; &nbsp;<font class='negOutcome'>You receive: <strong>0</strong></font></div>","null","11","Awesome Apples","Fruit/apple.png","Lost","0.35,0.8","9","0.35","196","31","",""
"html-keyboard-response","103","205143","0.0-11.0-1.31","60fd933d5461857048f9e74c","bdp_rwlrn","Sun Mar 12 2023 19:48:56 GMT-0700 (Pacific Daylight Time)","439649","Trustworthy,Untrustworthy","","376","","","","decision","","<div class='trialDiv'><img src='Fruit/plums1.png'><br><font class='baseline'><strong>Plum Powerball</strong><p>Choose number of points to bet.</font><div class='respPicDiv'><img src='img/responseButtonOffersNo0L.png' class='respPic'></div></div>","5","11","Plum Powerball","Fruit/plums1.png","Won","0.8,0.2","8","0.8","201","32","",""
"html-keyboard-response","104","205399","0.0-11.0-2.31","60fd933d5461857048f9e74c","bdp_rwlrn","Sun Mar 12 2023 19:48:56 GMT-0700 (Pacific Daylight Time)","439649","Trustworthy,Untrustworthy","","null","","","","decisionFB","","<div class='trialDiv'><img src='Fruit/plums1.png'><br><font class='baseline'><strong>Plum Powerball</strong><p>Choose number of points to bet.</font><div class='respPicDiv'><img src='img/responseButtonOffersNo0L5.png' class='respPic'></div></div>","null","11","Plum Powerball","Fruit/plums1.png","Won","0.8,0.2","8","0.8","196","32","",""
"html-keyboard-response","105","206414","0.0-11.0-3.31","60fd933d5461857048f9e74c","bdp_rwlrn","Sun Mar 12 2023 19:48:56 GMT-0700 (Pacific Daylight Time)","439649","Trustworthy,Untrustworthy","","null","","","","feedback","","<div class='respPicDiv'><img src='img/responseButtonOffersNo0_wht.png' class='respPic'></div><div class='trialDiv'><img src='Fruit/plums1.png'><br><font class='baseline'><strong>Plum Powerball</strong><p><strong><font class='posOutcome'>You WON</font><p>You bet: 5</strong></font> &nbsp; &nbsp; &nbsp; &nbsp; &nbsp; &nbsp;<font class='posOutcome'>you receive: <strong>10</strong></font></div>","null","11","Plum Powerball","Fruit/plums1.png","Won","0.8,0.2","8","0.8","206","32","",""
"html-keyboard-response","106","206812","0.0-11.0-1.32","60fd933d5461857048f9e74c","bdp_rwlrn","Sun Mar 12 2023 19:48:56 GMT-0700 (Pacific Daylight Time)","439649","Trustworthy,Untrustworthy","","396","","","","decision","","<div class='trialDiv'><img src='Fruit/mango.png'><br><font class='baseline'><strong>Mega Mangos</strong><p>Choose number of points to bet.</font><div class='respPicDiv'><img src='img/responseButtonOffersNo0L.png' class='respPic'></div></div>","5","11","Mega Mangos","Fruit/mango.png","Won","0.65,0.2","13","0.65","211","33","",""
"html-keyboard-response","107","207064","0.0-11.0-2.32","60fd933d5461857048f9e74c","bdp_rwlrn","Sun Mar 12 2023 19:48:56 GMT-0700 (Pacific Daylight Time)","439649","Trustworthy,Untrustworthy","","null","","","","decisionFB","","<div class='trialDiv'><img src='Fruit/mango.png'><br><font class='baseline'><strong>Mega Mangos</strong><p>Choose number of points to bet.</font><div class='respPicDiv'><img src='img/responseButtonOffersNo0L5.png' class='respPic'></div></div>","null","11","Mega Mangos","Fruit/mango.png","Won","0.65,0.2","13","0.65","206","33","",""
"html-keyboard-response","108","208080","0.0-11.0-3.32","60fd933d5461857048f9e74c","bdp_rwlrn","Sun Mar 12 2023 19:48:56 GMT-0700 (Pacific Daylight Time)","439649","Trustworthy,Untrustworthy","","null","","","","feedback","","<div class='respPicDiv'><img src='img/responseButtonOffersNo0_wht.png' class='respPic'></div><div class='trialDiv'><img src='Fruit/mango.png'><br><font class='baseline'><strong>Mega Mangos</strong><p><strong><font class='posOutcome'>You WON</font><p>You bet: 5</strong></font> &nbsp; &nbsp; &nbsp; &nbsp; &nbsp; &nbsp;<font class='posOutcome'>you receive: <strong>10</strong></font></div>","null","11","Mega Mangos","Fruit/mango.png","Won","0.65,0.2","13","0.65","216","33","",""
"html-keyboard-response","109","210354","0.0-11.0-1.33","60fd933d5461857048f9e74c","bdp_rwlrn","Sun Mar 12 2023 19:48:56 GMT-0700 (Pacific Daylight Time)","439649","Trustworthy,Untrustworthy","","2271","","","","decision","","<div class='trialDiv'><img src='Fruit/apple.png'><br><font class='baseline'><strong>Awesome Apples</strong><p>Choose number of points to bet.</font><div class='respPicDiv'><img src='img/responseButtonOffersNo0L.png' class='respPic'></div></div>","3","12","Awesome Apples","Fruit/apple.png","Won","0.35,0.8","9","0.35","221","34","",""
"html-keyboard-response","110","210615","0.0-11.0-2.33","60fd933d5461857048f9e74c","bdp_rwlrn","Sun Mar 12 2023 19:48:56 GMT-0700 (Pacific Daylight Time)","439649","Trustworthy,Untrustworthy","","null","","","","decisionFB","","<div class='trialDiv'><img src='Fruit/apple.png'><br><font class='baseline'><strong>Awesome Apples</strong><p>Choose number of points to bet.</font><div class='respPicDiv'><img src='img/responseButtonOffersNo0L3.png' class='respPic'></div></div>","null","12","Awesome Apples","Fruit/apple.png","Won","0.35,0.8","9","0.35","218","34","",""
"html-keyboard-response","111","211629","0.0-11.0-3.33","60fd933d5461857048f9e74c","bdp_rwlrn","Sun Mar 12 2023 19:48:56 GMT-0700 (Pacific Daylight Time)","439649","Trustworthy,Untrustworthy","","null","","","","feedback","","<div class='respPicDiv'><img src='img/responseButtonOffersNo0_wht.png' class='respPic'></div><div class='trialDiv'><img src='Fruit/apple.png'><br><font class='baseline'><strong>Awesome Apples</strong><p><strong><font class='posOutcome'>You WON</font><p>You bet: 3</strong></font> &nbsp; &nbsp; &nbsp; &nbsp; &nbsp; &nbsp;<font class='posOutcome'>you receive: <strong>6</strong></font></div>","null","12","Awesome Apples","Fruit/apple.png","Won","0.35,0.8","9","0.35","224","34","",""
"html-keyboard-response","112","214136","0.0-11.0-1.34","60fd933d5461857048f9e74c","bdp_rwlrn","Sun Mar 12 2023 19:48:56 GMT-0700 (Pacific Daylight Time)","439649","Trustworthy,Untrustworthy","","2504","","","","decision","","<div class='trialDiv'><img src='Fruit/plums1.png'><br><font class='baseline'><strong>Plum Powerball</strong><p>Choose number of points to bet.</font><div class='respPicDiv'><img src='img/responseButtonOffersNo0L.png' class='respPic'></div></div>","3","12","Plum Powerball","Fruit/plums1.png","Lost","0.8,0.2","8","0.8","229","35","",""
"html-keyboard-response","113","214398","0.0-11.0-2.34","60fd933d5461857048f9e74c","bdp_rwlrn","Sun Mar 12 2023 19:48:56 GMT-0700 (Pacific Daylight Time)","439649","Trustworthy,Untrustworthy","","null","","","","decisionFB","","<div class='trialDiv'><img src='Fruit/plums1.png'><br><font class='baseline'><strong>Plum Powerball</strong><p>Choose number of points to bet.</font><div class='respPicDiv'><img src='img/responseButtonOffersNo0L3.png' class='respPic'></div></div>","null","12","Plum Powerball","Fruit/plums1.png","Lost","0.8,0.2","8","0.8","226","35","",""
"html-keyboard-response","114","215412","0.0-11.0-3.34","60fd933d5461857048f9e74c","bdp_rwlrn","Sun Mar 12 2023 19:48:56 GMT-0700 (Pacific Daylight Time)","439649","Trustworthy,Untrustworthy","","null","","","","feedback","","<div class='respPicDiv'><img src='img/responseButtonOffersNo0_wht.png' class='respPic'></div><div class='trialDiv'><img src='Fruit/plums1.png'><br><font class='baseline'><strong>Plum Powerball</strong><p><strong><font class='negOutcome'>You LOST</font><p>You bet: 3</strong></font> &nbsp; &nbsp; &nbsp; &nbsp; &nbsp; &nbsp;<font class='negOutcome'>You receive: <strong>0</strong></font></div>","null","12","Plum Powerball","Fruit/plums1.png","Lost","0.8,0.2","8","0.8","226","35","",""
"html-keyboard-response","115","217543","0.0-11.0-1.35","60fd933d5461857048f9e74c","bdp_rwlrn","Sun Mar 12 2023 19:48:56 GMT-0700 (Pacific Daylight Time)","439649","Trustworthy,Untrustworthy","","2128","","","","decision","","<div class='trialDiv'><img src='Fruit/mango.png'><br><font class='baseline'><strong>Mega Mangos</strong><p>Choose number of points to bet.</font><div class='respPicDiv'><img src='img/responseButtonOffersNo0L.png' class='respPic'></div></div>","5","12","Mega Mangos","Fruit/mango.png","Lost","0.65,0.2","13","0.65","231","36","",""
"html-keyboard-response","116","217795","0.0-11.0-2.35","60fd933d5461857048f9e74c","bdp_rwlrn","Sun Mar 12 2023 19:48:56 GMT-0700 (Pacific Daylight Time)","439649","Trustworthy,Untrustworthy","","null","","","","decisionFB","","<div class='trialDiv'><img src='Fruit/mango.png'><br><font class='baseline'><strong>Mega Mangos</strong><p>Choose number of points to bet.</font><div class='respPicDiv'><img src='img/responseButtonOffersNo0L5.png' class='respPic'></div></div>","null","12","Mega Mangos","Fruit/mango.png","Lost","0.65,0.2","13","0.65","226","36","",""
"html-keyboard-response","117","218804","0.0-11.0-3.35","60fd933d5461857048f9e74c","bdp_rwlrn","Sun Mar 12 2023 19:48:56 GMT-0700 (Pacific Daylight Time)","439649","Trustworthy,Untrustworthy","","null","","","","feedback","","<div class='respPicDiv'><img src='img/responseButtonOffersNo0_wht.png' class='respPic'></div><div class='trialDiv'><img src='Fruit/mango.png'><br><font class='baseline'><strong>Mega Mangos</strong><p><strong><font class='negOutcome'>You LOST</font><p>You bet: 5</strong></font> &nbsp; &nbsp; &nbsp; &nbsp; &nbsp; &nbsp;<font class='negOutcome'>You receive: <strong>0</strong></font></div>","null","12","Mega Mangos","Fruit/mango.png","Lost","0.65,0.2","13","0.65","226","36","",""
"html-keyboard-response","118","219288","0.0-11.0-1.36","60fd933d5461857048f9e74c","bdp_rwlrn","Sun Mar 12 2023 19:48:56 GMT-0700 (Pacific Daylight Time)","439649","Trustworthy,Untrustworthy","","481","","","","decision","","<div class='trialDiv'><img src='Fruit/plums1.png'><br><font class='baseline'><strong>Plum Powerball</strong><p>Choose number of points to bet.</font><div class='respPicDiv'><img src='img/responseButtonOffersNo0L.png' class='respPic'></div></div>","5","13","Plum Powerball","Fruit/plums1.png","Lost","0.8,0.2","8","0.8","231","37","",""
"html-keyboard-response","119","219545","0.0-11.0-2.36","60fd933d5461857048f9e74c","bdp_rwlrn","Sun Mar 12 2023 19:48:56 GMT-0700 (Pacific Daylight Time)","439649","Trustworthy,Untrustworthy","","null","","","","decisionFB","","<div class='trialDiv'><img src='Fruit/plums1.png'><br><font class='baseline'><strong>Plum Powerball</strong><p>Choose number of points to bet.</font><div class='respPicDiv'><img src='img/responseButtonOffersNo0L5.png' class='respPic'></div></div>","null","13","Plum Powerball","Fruit/plums1.png","Lost","0.8,0.2","8","0.8","226","37","",""
"html-keyboard-response","120","220560","0.0-11.0-3.36","60fd933d5461857048f9e74c","bdp_rwlrn","Sun Mar 12 2023 19:48:56 GMT-0700 (Pacific Daylight Time)","439649","Trustworthy,Untrustworthy","","null","","","","feedback","","<div class='respPicDiv'><img src='img/responseButtonOffersNo0_wht.png' class='respPic'></div><div class='trialDiv'><img src='Fruit/plums1.png'><br><font class='baseline'><strong>Plum Powerball</strong><p><strong><font class='negOutcome'>You LOST</font><p>You bet: 5</strong></font> &nbsp; &nbsp; &nbsp; &nbsp; &nbsp; &nbsp;<font class='negOutcome'>You receive: <strong>0</strong></font></div>","null","13","Plum Powerball","Fruit/plums1.png","Lost","0.8,0.2","8","0.8","226","37","",""
"html-keyboard-response","121","220957","0.0-11.0-1.37","60fd933d5461857048f9e74c","bdp_rwlrn","Sun Mar 12 2023 19:48:56 GMT-0700 (Pacific Daylight Time)","439649","Trustworthy,Untrustworthy","","394","","","","decision","","<div class='trialDiv'><img src='Fruit/mango.png'><br><font class='baseline'><strong>Mega Mangos</strong><p>Choose number of points to bet.</font><div class='respPicDiv'><img src='img/responseButtonOffersNo0L.png' class='respPic'></div></div>","5","13","Mega Mangos","Fruit/mango.png","Lost","0.65,0.2","13","0.65","231","38","",""
"html-keyboard-response","122","221214","0.0-11.0-2.37","60fd933d5461857048f9e74c","bdp_rwlrn","Sun Mar 12 2023 19:48:56 GMT-0700 (Pacific Daylight Time)","439649","Trustworthy,Untrustworthy","","null","","","","decisionFB","","<div class='trialDiv'><img src='Fruit/mango.png'><br><font class='baseline'><strong>Mega Mangos</strong><p>Choose number of points to bet.</font><div class='respPicDiv'><img src='img/responseButtonOffersNo0L5.png' class='respPic'></div></div>","null","13","Mega Mangos","Fruit/mango.png","Lost","0.65,0.2","13","0.65","226","38","",""
"html-keyboard-response","123","222226","0.0-11.0-3.37","60fd933d5461857048f9e74c","bdp_rwlrn","Sun Mar 12 2023 19:48:56 GMT-0700 (Pacific Daylight Time)","439649","Trustworthy,Untrustworthy","","null","","","","feedback","","<div class='respPicDiv'><img src='img/responseButtonOffersNo0_wht.png' class='respPic'></div><div class='trialDiv'><img src='Fruit/mango.png'><br><font class='baseline'><strong>Mega Mangos</strong><p><strong><font class='negOutcome'>You LOST</font><p>You bet: 5</strong></font> &nbsp; &nbsp; &nbsp; &nbsp; &nbsp; &nbsp;<font class='negOutcome'>You receive: <strong>0</strong></font></div>","null","13","Mega Mangos","Fruit/mango.png","Lost","0.65,0.2","13","0.65","226","38","",""
"html-keyboard-response","124","222419","0.0-11.0-1.38","60fd933d5461857048f9e74c","bdp_rwlrn","Sun Mar 12 2023 19:48:56 GMT-0700 (Pacific Daylight Time)","439649","Trustworthy,Untrustworthy","","190","","","","decision","","<div class='trialDiv'><img src='Fruit/apple.png'><br><font class='baseline'><strong>Awesome Apples</strong><p>Choose number of points to bet.</font><div class='respPicDiv'><img src='img/responseButtonOffersNo0L.png' class='respPic'></div></div>","3","13","Awesome Apples","Fruit/apple.png","Won","0.35,0.8","9","0.35","231","39","",""
"html-keyboard-response","125","222678","0.0-11.0-2.38","60fd933d5461857048f9e74c","bdp_rwlrn","Sun Mar 12 2023 19:48:56 GMT-0700 (Pacific Daylight Time)","439649","Trustworthy,Untrustworthy","","null","","","","decisionFB","","<div class='trialDiv'><img src='Fruit/apple.png'><br><font class='baseline'><strong>Awesome Apples</strong><p>Choose number of points to bet.</font><div class='respPicDiv'><img src='img/responseButtonOffersNo0L3.png' class='respPic'></div></div>","null","13","Awesome Apples","Fruit/apple.png","Won","0.35,0.8","9","0.35","228","39","",""
"html-keyboard-response","126","223694","0.0-11.0-3.38","60fd933d5461857048f9e74c","bdp_rwlrn","Sun Mar 12 2023 19:48:56 GMT-0700 (Pacific Daylight Time)","439649","Trustworthy,Untrustworthy","","null","","","","feedback","","<div class='respPicDiv'><img src='img/responseButtonOffersNo0_wht.png' class='respPic'></div><div class='trialDiv'><img src='Fruit/apple.png'><br><font class='baseline'><strong>Awesome Apples</strong><p><strong><font class='posOutcome'>You WON</font><p>You bet: 3</strong></font> &nbsp; &nbsp; &nbsp; &nbsp; &nbsp; &nbsp;<font class='posOutcome'>you receive: <strong>6</strong></font></div>","null","13","Awesome Apples","Fruit/apple.png","Won","0.35,0.8","9","0.35","234","39","",""
"html-keyboard-response","127","223944","0.0-11.0-1.39","60fd933d5461857048f9e74c","bdp_rwlrn","Sun Mar 12 2023 19:48:56 GMT-0700 (Pacific Daylight Time)","439649","Trustworthy,Untrustworthy","","248","","","","decision","","<div class='trialDiv'><img src='Fruit/plums1.png'><br><font class='baseline'><strong>Plum Powerball</strong><p>Choose number of points to bet.</font><div class='respPicDiv'><img src='img/responseButtonOffersNo0L.png' class='respPic'></div></div>","4","14","Plum Powerball","Fruit/plums1.png","Lost","0.8,0.2","8","0.8","239","40","",""
"html-keyboard-response","128","224210","0.0-11.0-2.39","60fd933d5461857048f9e74c","bdp_rwlrn","Sun Mar 12 2023 19:48:56 GMT-0700 (Pacific Daylight Time)","439649","Trustworthy,Untrustworthy","","null","","","","decisionFB","","<div class='trialDiv'><img src='Fruit/plums1.png'><br><font class='baseline'><strong>Plum Powerball</strong><p>Choose number of points to bet.</font><div class='respPicDiv'><img src='img/responseButtonOffersNo0L4.png' class='respPic'></div></div>","null","14","Plum Powerball","Fruit/plums1.png","Lost","0.8,0.2","8","0.8","235","40","",""
"html-keyboard-response","129","225226","0.0-11.0-3.39","60fd933d5461857048f9e74c","bdp_rwlrn","Sun Mar 12 2023 19:48:56 GMT-0700 (Pacific Daylight Time)","439649","Trustworthy,Untrustworthy","","null","","","","feedback","","<div class='respPicDiv'><img src='img/responseButtonOffersNo0_wht.png' class='respPic'></div><div class='trialDiv'><img src='Fruit/plums1.png'><br><font class='baseline'><strong>Plum Powerball</strong><p><strong><font class='negOutcome'>You LOST</font><p>You bet: 4</strong></font> &nbsp; &nbsp; &nbsp; &nbsp; &nbsp; &nbsp;<font class='negOutcome'>You receive: <strong>0</strong></font></div>","null","14","Plum Powerball","Fruit/plums1.png","Lost","0.8,0.2","8","0.8","235","40","",""
"html-keyboard-response","130","225795","0.0-11.0-1.40","60fd933d5461857048f9e74c","bdp_rwlrn","Sun Mar 12 2023 19:48:56 GMT-0700 (Pacific Daylight Time)","439649","Trustworthy,Untrustworthy","","568","","","","decision","","<div class='trialDiv'><img src='Fruit/mango.png'><br><font class='baseline'><strong>Mega Mangos</strong><p>Choose number of points to bet.</font><div class='respPicDiv'><img src='img/responseButtonOffersNo0L.png' class='respPic'></div></div>","5","14","Mega Mangos","Fruit/mango.png","Lost","0.65,0.2","13","0.65","240","41","",""
"html-keyboard-response","131","226060","0.0-11.0-2.40","60fd933d5461857048f9e74c","bdp_rwlrn","Sun Mar 12 2023 19:48:56 GMT-0700 (Pacific Daylight Time)","439649","Trustworthy,Untrustworthy","","null","","","","decisionFB","","<div class='trialDiv'><img src='Fruit/mango.png'><br><font class='baseline'><strong>Mega Mangos</strong><p>Choose number of points to bet.</font><div class='respPicDiv'><img src='img/responseButtonOffersNo0L5.png' class='respPic'></div></div>","null","14","Mega Mangos","Fruit/mango.png","Lost","0.65,0.2","13","0.65","235","41","",""
"html-keyboard-response","132","227075","0.0-11.0-3.40","60fd933d5461857048f9e74c","bdp_rwlrn","Sun Mar 12 2023 19:48:56 GMT-0700 (Pacific Daylight Time)","439649","Trustworthy,Untrustworthy","","null","","","","feedback","","<div class='respPicDiv'><img src='img/responseButtonOffersNo0_wht.png' class='respPic'></div><div class='trialDiv'><img src='Fruit/mango.png'><br><font class='baseline'><strong>Mega Mangos</strong><p><strong><font class='negOutcome'>You LOST</font><p>You bet: 5</strong></font> &nbsp; &nbsp; &nbsp; &nbsp; &nbsp; &nbsp;<font class='negOutcome'>You receive: <strong>0</strong></font></div>","null","14","Mega Mangos","Fruit/mango.png","Lost","0.65,0.2","13","0.65","235","41","",""
"html-keyboard-response","133","227415","0.0-11.0-1.41","60fd933d5461857048f9e74c","bdp_rwlrn","Sun Mar 12 2023 19:48:56 GMT-0700 (Pacific Daylight Time)","439649","Trustworthy,Untrustworthy","","338","","","","decision","","<div class='trialDiv'><img src='Fruit/apple.png'><br><font class='baseline'><strong>Awesome Apples</strong><p>Choose number of points to bet.</font><div class='respPicDiv'><img src='img/responseButtonOffersNo0L.png' class='respPic'></div></div>","2","14","Awesome Apples","Fruit/apple.png","Won","0.35,0.8","9","0.35","240","42","",""
"html-keyboard-response","134","227675","0.0-11.0-2.41","60fd933d5461857048f9e74c","bdp_rwlrn","Sun Mar 12 2023 19:48:56 GMT-0700 (Pacific Daylight Time)","439649","Trustworthy,Untrustworthy","","null","","","","decisionFB","","<div class='trialDiv'><img src='Fruit/apple.png'><br><font class='baseline'><strong>Awesome Apples</strong><p>Choose number of points to bet.</font><div class='respPicDiv'><img src='img/responseButtonOffersNo0L2.png' class='respPic'></div></div>","null","14","Awesome Apples","Fruit/apple.png","Won","0.35,0.8","9","0.35","238","42","",""
"html-keyboard-response","135","228691","0.0-11.0-3.41","60fd933d5461857048f9e74c","bdp_rwlrn","Sun Mar 12 2023 19:48:56 GMT-0700 (Pacific Daylight Time)","439649","Trustworthy,Untrustworthy","","null","","","","feedback","","<div class='respPicDiv'><img src='img/responseButtonOffersNo0_wht.png' class='respPic'></div><div class='trialDiv'><img src='Fruit/apple.png'><br><font class='baseline'><strong>Awesome Apples</strong><p><strong><font class='posOutcome'>You WON</font><p>You bet: 2</strong></font> &nbsp; &nbsp; &nbsp; &nbsp; &nbsp; &nbsp;<font class='posOutcome'>you receive: <strong>4</strong></font></div>","null","14","Awesome Apples","Fruit/apple.png","Won","0.35,0.8","9","0.35","242","42","",""
"html-keyboard-response","136","228915","0.0-11.0-1.42","60fd933d5461857048f9e74c","bdp_rwlrn","Sun Mar 12 2023 19:48:56 GMT-0700 (Pacific Daylight Time)","439649","Trustworthy,Untrustworthy","","221","","","","decision","","<div class='trialDiv'><img src='Fruit/plums1.png'><br><font class='baseline'><strong>Plum Powerball</strong><p>Choose number of points to bet.</font><div class='respPicDiv'><img src='img/responseButtonOffersNo0L.png' class='respPic'></div></div>","5","15","Plum Powerball","Fruit/plums1.png","Lost","0.8,0.2","8","0.8","247","43","",""
"html-keyboard-response","137","229175","0.0-11.0-2.42","60fd933d5461857048f9e74c","bdp_rwlrn","Sun Mar 12 2023 19:48:56 GMT-0700 (Pacific Daylight Time)","439649","Trustworthy,Untrustworthy","","null","","","","decisionFB","","<div class='trialDiv'><img src='Fruit/plums1.png'><br><font class='baseline'><strong>Plum Powerball</strong><p>Choose number of points to bet.</font><div class='respPicDiv'><img src='img/responseButtonOffersNo0L5.png' class='respPic'></div></div>","null","15","Plum Powerball","Fruit/plums1.png","Lost","0.8,0.2","8","0.8","242","43","",""
"html-keyboard-response","138","230192","0.0-11.0-3.42","60fd933d5461857048f9e74c","bdp_rwlrn","Sun Mar 12 2023 19:48:56 GMT-0700 (Pacific Daylight Time)","439649","Trustworthy,Untrustworthy","","null","","","","feedback","","<div class='respPicDiv'><img src='img/responseButtonOffersNo0_wht.png' class='respPic'></div><div class='trialDiv'><img src='Fruit/plums1.png'><br><font class='baseline'><strong>Plum Powerball</strong><p><strong><font class='negOutcome'>You LOST</font><p>You bet: 5</strong></font> &nbsp; &nbsp; &nbsp; &nbsp; &nbsp; &nbsp;<font class='negOutcome'>You receive: <strong>0</strong></font></div>","null","15","Plum Powerball","Fruit/plums1.png","Lost","0.8,0.2","8","0.8","242","43","",""
"html-keyboard-response","139","230467","0.0-11.0-1.43","60fd933d5461857048f9e74c","bdp_rwlrn","Sun Mar 12 2023 19:48:56 GMT-0700 (Pacific Daylight Time)","439649","Trustworthy,Untrustworthy","","272","","","","decision","","<div class='trialDiv'><img src='Fruit/mango.png'><br><font class='baseline'><strong>Mega Mangos</strong><p>Choose number of points to bet.</font><div class='respPicDiv'><img src='img/responseButtonOffersNo0L.png' class='respPic'></div></div>","4","15","Mega Mangos","Fruit/mango.png","Lost","0.65,0.2","13","0.65","247","44","",""
"html-keyboard-response","140","230726","0.0-11.0-2.43","60fd933d5461857048f9e74c","bdp_rwlrn","Sun Mar 12 2023 19:48:56 GMT-0700 (Pacific Daylight Time)","439649","Trustworthy,Untrustworthy","","null","","","","decisionFB","","<div class='trialDiv'><img src='Fruit/mango.png'><br><font class='baseline'><strong>Mega Mangos</strong><p>Choose number of points to bet.</font><div class='respPicDiv'><img src='img/responseButtonOffersNo0L4.png' class='respPic'></div></div>","null","15","Mega Mangos","Fruit/mango.png","Lost","0.65,0.2","13","0.65","243","44","",""
"html-keyboard-response","141","231742","0.0-11.0-3.43","60fd933d5461857048f9e74c","bdp_rwlrn","Sun Mar 12 2023 19:48:56 GMT-0700 (Pacific Daylight Time)","439649","Trustworthy,Untrustworthy","","null","","","","feedback","","<div class='respPicDiv'><img src='img/responseButtonOffersNo0_wht.png' class='respPic'></div><div class='trialDiv'><img src='Fruit/mango.png'><br><font class='baseline'><strong>Mega Mangos</strong><p><strong><font class='negOutcome'>You LOST</font><p>You bet: 4</strong></font> &nbsp; &nbsp; &nbsp; &nbsp; &nbsp; &nbsp;<font class='negOutcome'>You receive: <strong>0</strong></font></div>","null","15","Mega Mangos","Fruit/mango.png","Lost","0.65,0.2","13","0.65","243","44","",""
"html-keyboard-response","142","232227","0.0-11.0-1.44","60fd933d5461857048f9e74c","bdp_rwlrn","Sun Mar 12 2023 19:48:56 GMT-0700 (Pacific Daylight Time)","439649","Trustworthy,Untrustworthy","","482","","","","decision","","<div class='trialDiv'><img src='Fruit/apple.png'><br><font class='baseline'><strong>Awesome Apples</strong><p>Choose number of points to bet.</font><div class='respPicDiv'><img src='img/responseButtonOffersNo0L.png' class='respPic'></div></div>","3","15","Awesome Apples","Fruit/apple.png","Lost","0.35,0.8","9","0.35","248","45","",""
"html-keyboard-response","143","232490","0.0-11.0-2.44","60fd933d5461857048f9e74c","bdp_rwlrn","Sun Mar 12 2023 19:48:56 GMT-0700 (Pacific Daylight Time)","439649","Trustworthy,Untrustworthy","","null","","","","decisionFB","","<div class='trialDiv'><img src='Fruit/apple.png'><br><font class='baseline'><strong>Awesome Apples</strong><p>Choose number of points to bet.</font><div class='respPicDiv'><img src='img/responseButtonOffersNo0L3.png' class='respPic'></div></div>","null","15","Awesome Apples","Fruit/apple.png","Lost","0.35,0.8","9","0.35","245","45","",""
"html-keyboard-response","144","233508","0.0-11.0-3.44","60fd933d5461857048f9e74c","bdp_rwlrn","Sun Mar 12 2023 19:48:56 GMT-0700 (Pacific Daylight Time)","439649","Trustworthy,Untrustworthy","","null","","","","feedback","","<div class='respPicDiv'><img src='img/responseButtonOffersNo0_wht.png' class='respPic'></div><div class='trialDiv'><img src='Fruit/apple.png'><br><font class='baseline'><strong>Awesome Apples</strong><p><strong><font class='negOutcome'>You LOST</font><p>You bet: 3</strong></font> &nbsp; &nbsp; &nbsp; &nbsp; &nbsp; &nbsp;<font class='negOutcome'>You receive: <strong>0</strong></font></div>","null","15","Awesome Apples","Fruit/apple.png","Lost","0.35,0.8","9","0.35","245","45","",""
"html-keyboard-response","145","233885","0.0-11.0-1.45","60fd933d5461857048f9e74c","bdp_rwlrn","Sun Mar 12 2023 19:48:56 GMT-0700 (Pacific Daylight Time)","439649","Trustworthy,Untrustworthy","","374","","","","decision","","<div class='trialDiv'><img src='Fruit/plums1.png'><br><font class='baseline'><strong>Plum Powerball</strong><p>Choose number of points to bet.</font><div class='respPicDiv'><img src='img/responseButtonOffersNo0L.png' class='respPic'></div></div>","5","16","Plum Powerball","Fruit/plums1.png","Lost","0.8,0.2","8","0.8","250","46","",""
"html-keyboard-response","146","234147","0.0-11.0-2.45","60fd933d5461857048f9e74c","bdp_rwlrn","Sun Mar 12 2023 19:48:56 GMT-0700 (Pacific Daylight Time)","439649","Trustworthy,Untrustworthy","","null","","","","decisionFB","","<div class='trialDiv'><img src='Fruit/plums1.png'><br><font class='baseline'><strong>Plum Powerball</strong><p>Choose number of points to bet.</font><div class='respPicDiv'><img src='img/responseButtonOffersNo0L5.png' class='respPic'></div></div>","null","16","Plum Powerball","Fruit/plums1.png","Lost","0.8,0.2","8","0.8","245","46","",""
"html-keyboard-response","147","235156","0.0-11.0-3.45","60fd933d5461857048f9e74c","bdp_rwlrn","Sun Mar 12 2023 19:48:56 GMT-0700 (Pacific Daylight Time)","439649","Trustworthy,Untrustworthy","","null","","","","feedback","","<div class='respPicDiv'><img src='img/responseButtonOffersNo0_wht.png' class='respPic'></div><div class='trialDiv'><img src='Fruit/plums1.png'><br><font class='baseline'><strong>Plum Powerball</strong><p><strong><font class='negOutcome'>You LOST</font><p>You bet: 5</strong></font> &nbsp; &nbsp; &nbsp; &nbsp; &nbsp; &nbsp;<font class='negOutcome'>You receive: <strong>0</strong></font></div>","null","16","Plum Powerball","Fruit/plums1.png","Lost","0.8,0.2","8","0.8","245","46","",""
"html-keyboard-response","148","235496","0.0-11.0-1.46","60fd933d5461857048f9e74c","bdp_rwlrn","Sun Mar 12 2023 19:48:56 GMT-0700 (Pacific Daylight Time)","439649","Trustworthy,Untrustworthy","","337","","","","decision","","<div class='trialDiv'><img src='Fruit/apple.png'><br><font class='baseline'><strong>Awesome Apples</strong><p>Choose number of points to bet.</font><div class='respPicDiv'><img src='img/responseButtonOffersNo0L.png' class='respPic'></div></div>","5","16","Awesome Apples","Fruit/apple.png","Won","0.35,0.8","9","0.35","250","47","",""
"html-keyboard-response","149","235756","0.0-11.0-2.46","60fd933d5461857048f9e74c","bdp_rwlrn","Sun Mar 12 2023 19:48:56 GMT-0700 (Pacific Daylight Time)","439649","Trustworthy,Untrustworthy","","null","","","","decisionFB","","<div class='trialDiv'><img src='Fruit/apple.png'><br><font class='baseline'><strong>Awesome Apples</strong><p>Choose number of points to bet.</font><div class='respPicDiv'><img src='img/responseButtonOffersNo0L5.png' class='respPic'></div></div>","null","16","Awesome Apples","Fruit/apple.png","Won","0.35,0.8","9","0.35","245","47","",""
"html-keyboard-response","150","236772","0.0-11.0-3.46","60fd933d5461857048f9e74c","bdp_rwlrn","Sun Mar 12 2023 19:48:56 GMT-0700 (Pacific Daylight Time)","439649","Trustworthy,Untrustworthy","","null","","","","feedback","","<div class='respPicDiv'><img src='img/responseButtonOffersNo0_wht.png' class='respPic'></div><div class='trialDiv'><img src='Fruit/apple.png'><br><font class='baseline'><strong>Awesome Apples</strong><p><strong><font class='posOutcome'>You WON</font><p>You bet: 5</strong></font> &nbsp; &nbsp; &nbsp; &nbsp; &nbsp; &nbsp;<font class='posOutcome'>you receive: <strong>10</strong></font></div>","null","16","Awesome Apples","Fruit/apple.png","Won","0.35,0.8","9","0.35","255","47","",""
"html-keyboard-response","151","237176","0.0-11.0-1.47","60fd933d5461857048f9e74c","bdp_rwlrn","Sun Mar 12 2023 19:48:56 GMT-0700 (Pacific Daylight Time)","439649","Trustworthy,Untrustworthy","","401","","","","decision","","<div class='trialDiv'><img src='Fruit/mango.png'><br><font class='baseline'><strong>Mega Mangos</strong><p>Choose number of points to bet.</font><div class='respPicDiv'><img src='img/responseButtonOffersNo0L.png' class='respPic'></div></div>","5","16","Mega Mangos","Fruit/mango.png","Lost","0.65,0.2","13","0.65","260","48","",""
"html-keyboard-response","152","237439","0.0-11.0-2.47","60fd933d5461857048f9e74c","bdp_rwlrn","Sun Mar 12 2023 19:48:56 GMT-0700 (Pacific Daylight Time)","439649","Trustworthy,Untrustworthy","","null","","","","decisionFB","","<div class='trialDiv'><img src='Fruit/mango.png'><br><font class='baseline'><strong>Mega Mangos</strong><p>Choose number of points to bet.</font><div class='respPicDiv'><img src='img/responseButtonOffersNo0L5.png' class='respPic'></div></div>","null","16","Mega Mangos","Fruit/mango.png","Lost","0.65,0.2","13","0.65","255","48","",""
"html-keyboard-response","153","238456","0.0-11.0-3.47","60fd933d5461857048f9e74c","bdp_rwlrn","Sun Mar 12 2023 19:48:56 GMT-0700 (Pacific Daylight Time)","439649","Trustworthy,Untrustworthy","","null","","","","feedback","","<div class='respPicDiv'><img src='img/responseButtonOffersNo0_wht.png' class='respPic'></div><div class='trialDiv'><img src='Fruit/mango.png'><br><font class='baseline'><strong>Mega Mangos</strong><p><strong><font class='negOutcome'>You LOST</font><p>You bet: 5</strong></font> &nbsp; &nbsp; &nbsp; &nbsp; &nbsp; &nbsp;<font class='negOutcome'>You receive: <strong>0</strong></font></div>","null","16","Mega Mangos","Fruit/mango.png","Lost","0.65,0.2","13","0.65","255","48","",""
"html-keyboard-response","154","238727","0.0-11.0-1.48","60fd933d5461857048f9e74c","bdp_rwlrn","Sun Mar 12 2023 19:48:56 GMT-0700 (Pacific Daylight Time)","439649","Trustworthy,Untrustworthy","","270","","","","decision","","<div class='trialDiv'><img src='Fruit/plums1.png'><br><font class='baseline'><strong>Plum Powerball</strong><p>Choose number of points to bet.</font><div class='respPicDiv'><img src='img/responseButtonOffersNo0L.png' class='respPic'></div></div>","5","17","Plum Powerball","Fruit/plums1.png","Won","0.8,0.2","8","0.8","260","49","",""
"html-keyboard-response","155","238989","0.0-11.0-2.48","60fd933d5461857048f9e74c","bdp_rwlrn","Sun Mar 12 2023 19:48:56 GMT-0700 (Pacific Daylight Time)","439649","Trustworthy,Untrustworthy","","null","","","","decisionFB","","<div class='trialDiv'><img src='Fruit/plums1.png'><br><font class='baseline'><strong>Plum Powerball</strong><p>Choose number of points to bet.</font><div class='respPicDiv'><img src='img/responseButtonOffersNo0L5.png' class='respPic'></div></div>","null","17","Plum Powerball","Fruit/plums1.png","Won","0.8,0.2","8","0.8","255","49","",""
"html-keyboard-response","156","240006","0.0-11.0-3.48","60fd933d5461857048f9e74c","bdp_rwlrn","Sun Mar 12 2023 19:48:56 GMT-0700 (Pacific Daylight Time)","439649","Trustworthy,Untrustworthy","","null","","","","feedback","","<div class='respPicDiv'><img src='img/responseButtonOffersNo0_wht.png' class='respPic'></div><div class='trialDiv'><img src='Fruit/plums1.png'><br><font class='baseline'><strong>Plum Powerball</strong><p><strong><font class='posOutcome'>You WON</font><p>You bet: 5</strong></font> &nbsp; &nbsp; &nbsp; &nbsp; &nbsp; &nbsp;<font class='posOutcome'>you receive: <strong>10</strong></font></div>","null","17","Plum Powerball","Fruit/plums1.png","Won","0.8,0.2","8","0.8","265","49","",""
"html-keyboard-response","157","241300","0.0-11.0-1.49","60fd933d5461857048f9e74c","bdp_rwlrn","Sun Mar 12 2023 19:48:56 GMT-0700 (Pacific Daylight Time)","439649","Trustworthy,Untrustworthy","","1292","","","","decision","","<div class='trialDiv'><img src='Fruit/mango.png'><br><font class='baseline'><strong>Mega Mangos</strong><p>Choose number of points to bet.</font><div class='respPicDiv'><img src='img/responseButtonOffersNo0L.png' class='respPic'></div></div>","4","17","Mega Mangos","Fruit/mango.png","Lost","0.65,0.2","13","0.65","270","50","",""
"html-keyboard-response","158","241556","0.0-11.0-2.49","60fd933d5461857048f9e74c","bdp_rwlrn","Sun Mar 12 2023 19:48:56 GMT-0700 (Pacific Daylight Time)","439649","Trustworthy,Untrustworthy","","null","","","","decisionFB","","<div class='trialDiv'><img src='Fruit/mango.png'><br><font class='baseline'><strong>Mega Mangos</strong><p>Choose number of points to bet.</font><div class='respPicDiv'><img src='img/responseButtonOffersNo0L4.png' class='respPic'></div></div>","null","17","Mega Mangos","Fruit/mango.png","Lost","0.65,0.2","13","0.65","266","50","",""
"html-keyboard-response","159","242571","0.0-11.0-3.49","60fd933d5461857048f9e74c","bdp_rwlrn","Sun Mar 12 2023 19:48:56 GMT-0700 (Pacific Daylight Time)","439649","Trustworthy,Untrustworthy","","null","","","","feedback","","<div class='respPicDiv'><img src='img/responseButtonOffersNo0_wht.png' class='respPic'></div><div class='trialDiv'><img src='Fruit/mango.png'><br><font class='baseline'><strong>Mega Mangos</strong><p><strong><font class='negOutcome'>You LOST</font><p>You bet: 4</strong></font> &nbsp; &nbsp; &nbsp; &nbsp; &nbsp; &nbsp;<font class='negOutcome'>You receive: <strong>0</strong></font></div>","null","17","Mega Mangos","Fruit/mango.png","Lost","0.65,0.2","13","0.65","266","50","",""
"html-keyboard-response","160","242820","0.0-11.0-1.50","60fd933d5461857048f9e74c","bdp_rwlrn","Sun Mar 12 2023 19:48:56 GMT-0700 (Pacific Daylight Time)","439649","Trustworthy,Untrustworthy","","246","","","","decision","","<div class='trialDiv'><img src='Fruit/apple.png'><br><font class='baseline'><strong>Awesome Apples</strong><p>Choose number of points to bet.</font><div class='respPicDiv'><img src='img/responseButtonOffersNo0L.png' class='respPic'></div></div>","2","17","Awesome Apples","Fruit/apple.png","Won","0.35,0.8","9","0.35","271","51","",""
"html-keyboard-response","161","243073","0.0-11.0-2.50","60fd933d5461857048f9e74c","bdp_rwlrn","Sun Mar 12 2023 19:48:56 GMT-0700 (Pacific Daylight Time)","439649","Trustworthy,Untrustworthy","","null","","","","decisionFB","","<div class='trialDiv'><img src='Fruit/apple.png'><br><font class='baseline'><strong>Awesome Apples</strong><p>Choose number of points to bet.</font><div class='respPicDiv'><img src='img/responseButtonOffersNo0L2.png' class='respPic'></div></div>","null","17","Awesome Apples","Fruit/apple.png","Won","0.35,0.8","9","0.35","269","51","",""
"html-keyboard-response","162","244088","0.0-11.0-3.50","60fd933d5461857048f9e74c","bdp_rwlrn","Sun Mar 12 2023 19:48:56 GMT-0700 (Pacific Daylight Time)","439649","Trustworthy,Untrustworthy","","null","","","","feedback","","<div class='respPicDiv'><img src='img/responseButtonOffersNo0_wht.png' class='respPic'></div><div class='trialDiv'><img src='Fruit/apple.png'><br><font class='baseline'><strong>Awesome Apples</strong><p><strong><font class='posOutcome'>You WON</font><p>You bet: 2</strong></font> &nbsp; &nbsp; &nbsp; &nbsp; &nbsp; &nbsp;<font class='posOutcome'>you receive: <strong>4</strong></font></div>","null","17","Awesome Apples","Fruit/apple.png","Won","0.35,0.8","9","0.35","273","51","",""
"html-keyboard-response","163","244376","0.0-11.0-1.51","60fd933d5461857048f9e74c","bdp_rwlrn","Sun Mar 12 2023 19:48:56 GMT-0700 (Pacific Daylight Time)","439649","Trustworthy,Untrustworthy","","285","","","","decision","","<div class='trialDiv'><img src='Fruit/mango.png'><br><font class='baseline'><strong>Mega Mangos</strong><p>Choose number of points to bet.</font><div class='respPicDiv'><img src='img/responseButtonOffersNo0L.png' class='respPic'></div></div>","3","18","Mega Mangos","Fruit/mango.png","Lost","0.65,0.2","13","0.65","278","52","",""
