"event","trial","time","trialtype","subject_id","task","startTime","totalTime","labels","trial_type","trial_index","time_elapsed","internal_node_id","view_history","rt","success","stimulus","key_press","ltround","name","fileID","outcome","lottotype","lottoswpt","lottocurrpshare","point_total","round","faceID","face"
"focus","0","0","focusevent","63f969ceb2a0b028aa612b33","bdp_rwlrn","Tue Mar 14 2023 21:26:58 GMT-0400 (Eastern Daylight Time)","457381","Untrustworthy,Trustworthy","","","","","","","","","","","","","","","","","","","",""
"","","","","63f969ceb2a0b028aa612b33","bdp_rwlrn","Tue Mar 14 2023 21:26:58 GMT-0400 (Eastern Daylight Time)","457381","Untrustworthy,Trustworthy","pavlovia","0","6","0.0-0.0","","","","","","","","","","","","","","","",""
"","","","","63f969ceb2a0b028aa612b33","bdp_rwlrn","Tue Mar 14 2023 21:26:58 GMT-0400 (Eastern Daylight Time)","457381","Untrustworthy,Trustworthy","instructions","1","4774","0.0-1.0","[{""page_index"":0,""viewing_time"":4766}]","4766","","","","","","","","","","","","","",""
"fullscreenexit","2","10262","fullscreenexit","63f969ceb2a0b028aa612b33","bdp_rwlrn","Tue Mar 14 2023 21:26:58 GMT-0400 (Eastern Daylight Time)","457381","Untrustworthy,Trustworthy","","","","","","","","","","","","","","","","","","","",""
"","","","","63f969ceb2a0b028aa612b33","bdp_rwlrn","Tue Mar 14 2023 21:26:58 GMT-0400 (Eastern Daylight Time)","457381","Untrustworthy,Trustworthy","fullscreen","2","11017","0.0-2.0","","","true","","","","","","","","","","","","",""
"","","","fullscreenfail","63f969ceb2a0b028aa612b33","bdp_rwlrn","Tue Mar 14 2023 21:26:58 GMT-0400 (Eastern Daylight Time)","457381","Untrustworthy,Trustworthy","image-keyboard-response","3","15132","0.0-3.0-0.0","","4111","","","32","","","","","","","","","","",""
"","","","","63f969ceb2a0b028aa612b33","bdp_rwlrn","Tue Mar 14 2023 21:26:58 GMT-0400 (Eastern Daylight Time)","457381","Untrustworthy,Trustworthy","instructions","4","65467","0.0-4.0","[{""page_index"":0,""viewing_time"":7414},{""page_index"":1,""viewing_time"":15165},{""page_index"":2,""viewing_time"":2762},{""page_index"":3,""viewing_time"":9242},{""page_index"":4,""viewing_time"":12921},{""page_index"":5,""viewing_time"":2567}]","50071","","","","","","","","","","","","","",""
"","","","","63f969ceb2a0b028aa612b33","bdp_rwlrn","Tue Mar 14 2023 21:26:58 GMT-0400 (Eastern Daylight Time)","457381","Untrustworthy,Trustworthy","html-keyboard-response","5","69100","0.0-5.0","","3628","","<div class='header' style='text-align:left; position: absolute; top: 5%; left: 5%;'><small>Task 3 of 5</small></div><div class='instruxDiv'><p><strong>1) What is the maximum number of points you can choose to bet on a lottery?</strong></p><p>a) 0</p><p>b) 1</p><p>c) 5</p>","C","","","","","","","","","","",""
"","","","","63f969ceb2a0b028aa612b33","bdp_rwlrn","Tue Mar 14 2023 21:26:58 GMT-0400 (Eastern Daylight Time)","457381","Untrustworthy,Trustworthy","html-keyboard-response","6","70511","0.0-6.0","","1299","","<div class='header' style='text-align:left; position: absolute; top: 5%; left: 5%;'><small>Task 3 of 5</small></div><div class='instruxDiv'><p><strong>1) What is the maximum number of points you can choose to bet on a lottery?</strong></p><p>a) 1</p><p>b) 1</p><p style='color:#00FF00'>c) 5</p><h3 style='color:#00FF00'>Correct!</h3><h3 class='center-content'>The correct response is c).</h3><h3 class='center-content'>The maximum number of points you can choose to bet on a lottery is 5 points.</h3><p><em>Press SPACEBAR to continue</em></p></div>"," ","","","","","","","","","","",""
"","","","","63f969ceb2a0b028aa612b33","bdp_rwlrn","Tue Mar 14 2023 21:26:58 GMT-0400 (Eastern Daylight Time)","457381","Untrustworthy,Trustworthy","html-keyboard-response","7","78302","0.0-7.0","","7684","","<div class='header' style='text-align:left; position: absolute; top: 5%; left: 5%;'><small>Task 3 of 5</small></div><div class='instruxDiv'><p><strong>2) How many points can you win each round?</strong></p><p>a) 10 points</p><p>b) Double what you bet</p><p>c) Quadruple what you bet</p>","B","","","","","","","","","","",""
"","","","","63f969ceb2a0b028aa612b33","bdp_rwlrn","Tue Mar 14 2023 21:26:58 GMT-0400 (Eastern Daylight Time)","457381","Untrustworthy,Trustworthy","html-keyboard-response","8","80827","0.0-8.0","","2420","","<div class='header' style='text-align:left; position: absolute; top: 5%; left: 5%;'><small>Task 3 of 5</small></div><div class='instruxDiv'><p><strong>2) How many points can you win each round?</strong></p><p>a) 10 points</p><p style='color:#00FF00'>b) Double what you bet</p><p>c) Quadruple what you bet</p><h3 style='color:#00FF00'>Correct!</h3><h3 class='center-content'>The correct response is b).</h3><h3 class='center-content'>You can win double the amount of points you bet.</h3><p><em>Press SPACEBAR to continue</em></p></div>"," ","","","","","","","","","","",""
"","","","","63f969ceb2a0b028aa612b33","bdp_rwlrn","Tue Mar 14 2023 21:26:58 GMT-0400 (Eastern Daylight Time)","457381","Untrustworthy,Trustworthy","html-keyboard-response","9","85938","0.0-9.0","","null","","<div class='header' style='text-align:left; position: absolute; top: 5%; left: 5%;'><small>Task 3 of 5</small></div><div class='instruxDiv'><p>Thank you for completing the quiz<p>These are the actual lotteries you will be playing in the next block:<p><div class='tc' align='center'><img class='introPic' src='Fruit/pears.png'><br><strong>Pears Aplenty</strong></div><div class='bl' align='center'><img class='introPic' src='Fruit/melon.png'><br><strong>Melon Millions</strong></div><div class='br' align='center'><img class='introPic' src='Fruit/pineapple.png'><br><strong>Primo Pineapple</strong></div></div><p>Across <strong>66 rounds</strong> you will play each lottery <strong>22 times</strong> (in random order).<p style='align:center; color:white'><font <em>Press SPACEBAR to continue</em></p>","null","","","","","","","","","","",""
"","","","","63f969ceb2a0b028aa612b33","bdp_rwlrn","Tue Mar 14 2023 21:26:58 GMT-0400 (Eastern Daylight Time)","457381","Untrustworthy,Trustworthy","instructions","10","86935","0.0-10.0","[{""page_index"":0,""viewing_time"":14},{""page_index"":1,""viewing_time"":981}]","995","","","","","","","","","","","","","",""
"","","","decision","63f969ceb2a0b028aa612b33","bdp_rwlrn","Tue Mar 14 2023 21:26:58 GMT-0400 (Eastern Daylight Time)","457381","Untrustworthy,Trustworthy","html-keyboard-response","11","90697","0.0-11.0-1.0","","3647","","<div class='trialDiv'><img src='Fruit/melon.png'><br><font class='baseline'><strong>Melon Millions</strong><p>Choose number of points to bet.</font><div class='respPicDiv'><img src='img/responseButtonOffersNo0L.png' class='respPic'></div></div>","3","1","Melon Millions","Fruit/melon.png","Lost","0.2,0.8","10","0.2","5","1","",""
"","","","decisionFB","63f969ceb2a0b028aa612b33","bdp_rwlrn","Tue Mar 14 2023 21:26:58 GMT-0400 (Eastern Daylight Time)","457381","Untrustworthy,Trustworthy","html-keyboard-response","12","90953","0.0-11.0-2.0","","null","","<div class='trialDiv'><img src='Fruit/melon.png'><br><font class='baseline'><strong>Melon Millions</strong><p>Choose number of points to bet.</font><div class='respPicDiv'><img src='img/responseButtonOffersNo0L3.png' class='respPic'></div></div>","null","1","Melon Millions","Fruit/melon.png","Lost","0.2,0.8","10","0.2","2","1","",""
"","","","feedback","63f969ceb2a0b028aa612b33","bdp_rwlrn","Tue Mar 14 2023 21:26:58 GMT-0400 (Eastern Daylight Time)","457381","Untrustworthy,Trustworthy","html-keyboard-response","13","91969","0.0-11.0-3.0","","null","","<div class='respPicDiv'><img src='img/responseButtonOffersNo0_wht.png' class='respPic'></div><div class='trialDiv'><img src='Fruit/melon.png'><br><font class='baseline'><strong>Melon Millions</strong><p><strong><font class='negOutcome'>You LOST</font><p>You bet: 3</strong></font> &nbsp; &nbsp; &nbsp; &nbsp; &nbsp; &nbsp;<font class='negOutcome'>You receive: <strong>0</strong></font></div>","null","1","Melon Millions","Fruit/melon.png","Lost","0.2,0.8","10","0.2","2","1","",""
"","","","decision","63f969ceb2a0b028aa612b33","bdp_rwlrn","Tue Mar 14 2023 21:26:58 GMT-0400 (Eastern Daylight Time)","457381","Untrustworthy,Trustworthy","html-keyboard-response","14","94582","0.0-11.0-1.1","","2612","","<div class='trialDiv'><img src='Fruit/pears.png'><br><font class='baseline'><strong>Pears Aplenty</strong><p>Choose number of points to bet.</font><div class='respPicDiv'><img src='img/responseButtonOffersNo0L.png' class='respPic'></div></div>","3","1","Pears Aplenty","Fruit/pears.png","Won","0.8,0.35","13","0.8","7","2","",""
"","","","decisionFB","63f969ceb2a0b028aa612b33","bdp_rwlrn","Tue Mar 14 2023 21:26:58 GMT-0400 (Eastern Daylight Time)","457381","Untrustworthy,Trustworthy","html-keyboard-response","15","94838","0.0-11.0-2.1","","null","","<div class='trialDiv'><img src='Fruit/pears.png'><br><font class='baseline'><strong>Pears Aplenty</strong><p>Choose number of points to bet.</font><div class='respPicDiv'><img src='img/responseButtonOffersNo0L3.png' class='respPic'></div></div>","null","1","Pears Aplenty","Fruit/pears.png","Won","0.8,0.35","13","0.8","4","2","",""
"","","","feedback","63f969ceb2a0b028aa612b33","bdp_rwlrn","Tue Mar 14 2023 21:26:58 GMT-0400 (Eastern Daylight Time)","457381","Untrustworthy,Trustworthy","html-keyboard-response","16","95852","0.0-11.0-3.1","","null","","<div class='respPicDiv'><img src='img/responseButtonOffersNo0_wht.png' class='respPic'></div><div class='trialDiv'><img src='Fruit/pears.png'><br><font class='baseline'><strong>Pears Aplenty</strong><p><strong><font class='posOutcome'>You WON</font><p>You bet: 3</strong></font> &nbsp; &nbsp; &nbsp; &nbsp; &nbsp; &nbsp;<font class='posOutcome'>you receive: <strong>6</strong></font></div>","null","1","Pears Aplenty","Fruit/pears.png","Won","0.8,0.35","13","0.8","10","2","",""
"","","","decision","63f969ceb2a0b028aa612b33","bdp_rwlrn","Tue Mar 14 2023 21:26:58 GMT-0400 (Eastern Daylight Time)","457381","Untrustworthy,Trustworthy","html-keyboard-response","17","98905","0.0-11.0-1.2","","3052","","<div class='trialDiv'><img src='Fruit/pineapple.png'><br><font class='baseline'><strong>Primo Pineapple</strong><p>Choose number of points to bet.</font><div class='respPicDiv'><img src='img/responseButtonOffersNo0L.png' class='respPic'></div></div>","3","1","Primo Pineapple","Fruit/pineapple.png","Lost","0.35,0.8","14","0.35","15","3","",""
"","","","decisionFB","63f969ceb2a0b028aa612b33","bdp_rwlrn","Tue Mar 14 2023 21:26:58 GMT-0400 (Eastern Daylight Time)","457381","Untrustworthy,Trustworthy","html-keyboard-response","18","99161","0.0-11.0-2.2","","null","","<div class='trialDiv'><img src='Fruit/pineapple.png'><br><font class='baseline'><strong>Primo Pineapple</strong><p>Choose number of points to bet.</font><div class='respPicDiv'><img src='img/responseButtonOffersNo0L3.png' class='respPic'></div></div>","null","1","Primo Pineapple","Fruit/pineapple.png","Lost","0.35,0.8","14","0.35","12","3","",""
"","","","feedback","63f969ceb2a0b028aa612b33","bdp_rwlrn","Tue Mar 14 2023 21:26:58 GMT-0400 (Eastern Daylight Time)","457381","Untrustworthy,Trustworthy","html-keyboard-response","19","100173","0.0-11.0-3.2","","null","","<div class='respPicDiv'><img src='img/responseButtonOffersNo0_wht.png' class='respPic'></div><div class='trialDiv'><img src='Fruit/pineapple.png'><br><font class='baseline'><strong>Primo Pineapple</strong><p><strong><font class='negOutcome'>You LOST</font><p>You bet: 3</strong></font> &nbsp; &nbsp; &nbsp; &nbsp; &nbsp; &nbsp;<font class='negOutcome'>You receive: <strong>0</strong></font></div>","null","1","Primo Pineapple","Fruit/pineapple.png","Lost","0.35,0.8","14","0.35","12","3","",""
"","","","decision","63f969ceb2a0b028aa612b33","bdp_rwlrn","Tue Mar 14 2023 21:26:58 GMT-0400 (Eastern Daylight Time)","457381","Untrustworthy,Trustworthy","html-keyboard-response","20","102204","0.0-11.0-1.3","","2030","","<div class='trialDiv'><img src='Fruit/melon.png'><br><font class='baseline'><strong>Melon Millions</strong><p>Choose number of points to bet.</font><div class='respPicDiv'><img src='img/responseButtonOffersNo0L.png' class='respPic'></div></div>","2","2","Melon Millions","Fruit/melon.png","Lost","0.2,0.8","10","0.2","17","4","",""
"","","","decisionFB","63f969ceb2a0b028aa612b33","bdp_rwlrn","Tue Mar 14 2023 21:26:58 GMT-0400 (Eastern Daylight Time)","457381","Untrustworthy,Trustworthy","html-keyboard-response","21","102469","0.0-11.0-2.3","","null","","<div class='trialDiv'><img src='Fruit/melon.png'><br><font class='baseline'><strong>Melon Millions</strong><p>Choose number of points to bet.</font><div class='respPicDiv'><img src='img/responseButtonOffersNo0L2.png' class='respPic'></div></div>","null","2","Melon Millions","Fruit/melon.png","Lost","0.2,0.8","10","0.2","15","4","",""
"","","","feedback","63f969ceb2a0b028aa612b33","bdp_rwlrn","Tue Mar 14 2023 21:26:58 GMT-0400 (Eastern Daylight Time)","457381","Untrustworthy,Trustworthy","html-keyboard-response","22","103471","0.0-11.0-3.3","","null","","<div class='respPicDiv'><img src='img/responseButtonOffersNo0_wht.png' class='respPic'></div><div class='trialDiv'><img src='Fruit/melon.png'><br><font class='baseline'><strong>Melon Millions</strong><p><strong><font class='negOutcome'>You LOST</font><p>You bet: 2</strong></font> &nbsp; &nbsp; &nbsp; &nbsp; &nbsp; &nbsp;<font class='negOutcome'>You receive: <strong>0</strong></font></div>","null","2","Melon Millions","Fruit/melon.png","Lost","0.2,0.8","10","0.2","15","4","",""
"","","","decision","63f969ceb2a0b028aa612b33","bdp_rwlrn","Tue Mar 14 2023 21:26:58 GMT-0400 (Eastern Daylight Time)","457381","Untrustworthy,Trustworthy","html-keyboard-response","23","107294","0.0-11.0-1.4","","3823","","<div class='trialDiv'><img src='Fruit/pineapple.png'><br><font class='baseline'><strong>Primo Pineapple</strong><p>Choose number of points to bet.</font><div class='respPicDiv'><img src='img/responseButtonOffersNo0L.png' class='respPic'></div></div>","2","2","Primo Pineapple","Fruit/pineapple.png","Lost","0.35,0.8","14","0.35","20","5","",""
"","","","decisionFB","63f969ceb2a0b028aa612b33","bdp_rwlrn","Tue Mar 14 2023 21:26:58 GMT-0400 (Eastern Daylight Time)","457381","Untrustworthy,Trustworthy","html-keyboard-response","24","107553","0.0-11.0-2.4","","null","","<div class='trialDiv'><img src='Fruit/pineapple.png'><br><font class='baseline'><strong>Primo Pineapple</strong><p>Choose number of points to bet.</font><div class='respPicDiv'><img src='img/responseButtonOffersNo0L2.png' class='respPic'></div></div>","null","2","Primo Pineapple","Fruit/pineapple.png","Lost","0.35,0.8","14","0.35","18","5","",""
"","","","feedback","63f969ceb2a0b028aa612b33","bdp_rwlrn","Tue Mar 14 2023 21:26:58 GMT-0400 (Eastern Daylight Time)","457381","Untrustworthy,Trustworthy","html-keyboard-response","25","108561","0.0-11.0-3.4","","null","","<div class='respPicDiv'><img src='img/responseButtonOffersNo0_wht.png' class='respPic'></div><div class='trialDiv'><img src='Fruit/pineapple.png'><br><font class='baseline'><strong>Primo Pineapple</strong><p><strong><font class='negOutcome'>You LOST</font><p>You bet: 2</strong></font> &nbsp; &nbsp; &nbsp; &nbsp; &nbsp; &nbsp;<font class='negOutcome'>You receive: <strong>0</strong></font></div>","null","2","Primo Pineapple","Fruit/pineapple.png","Lost","0.35,0.8","14","0.35","18","5","",""
"","","","decision","63f969ceb2a0b028aa612b33","bdp_rwlrn","Tue Mar 14 2023 21:26:58 GMT-0400 (Eastern Daylight Time)","457381","Untrustworthy,Trustworthy","html-keyboard-response","26","111314","0.0-11.0-1.5","","2752","","<div class='trialDiv'><img src='Fruit/pears.png'><br><font class='baseline'><strong>Pears Aplenty</strong><p>Choose number of points to bet.</font><div class='respPicDiv'><img src='img/responseButtonOffersNo0L.png' class='respPic'></div></div>","5","2","Pears Aplenty","Fruit/pears.png","Won","0.8,0.35","13","0.8","23","6","",""
"","","","decisionFB","63f969ceb2a0b028aa612b33","bdp_rwlrn","Tue Mar 14 2023 21:26:58 GMT-0400 (Eastern Daylight Time)","457381","Untrustworthy,Trustworthy","html-keyboard-response","27","111571","0.0-11.0-2.5","","null","","<div class='trialDiv'><img src='Fruit/pears.png'><br><font class='baseline'><strong>Pears Aplenty</strong><p>Choose number of points to bet.</font><div class='respPicDiv'><img src='img/responseButtonOffersNo0L5.png' class='respPic'></div></div>","null","2","Pears Aplenty","Fruit/pears.png","Won","0.8,0.35","13","0.8","18","6","",""
"","","","feedback","63f969ceb2a0b028aa612b33","bdp_rwlrn","Tue Mar 14 2023 21:26:58 GMT-0400 (Eastern Daylight Time)","457381","Untrustworthy,Trustworthy","html-keyboard-response","28","112579","0.0-11.0-3.5","","null","","<div class='respPicDiv'><img src='img/responseButtonOffersNo0_wht.png' class='respPic'></div><div class='trialDiv'><img src='Fruit/pears.png'><br><font class='baseline'><strong>Pears Aplenty</strong><p><strong><font class='posOutcome'>You WON</font><p>You bet: 5</strong></font> &nbsp; &nbsp; &nbsp; &nbsp; &nbsp; &nbsp;<font class='posOutcome'>you receive: <strong>10</strong></font></div>","null","2","Pears Aplenty","Fruit/pears.png","Won","0.8,0.35","13","0.8","28","6","",""
"","","","decision","63f969ceb2a0b028aa612b33","bdp_rwlrn","Tue Mar 14 2023 21:26:58 GMT-0400 (Eastern Daylight Time)","457381","Untrustworthy,Trustworthy","html-keyboard-response","29","114141","0.0-11.0-1.6","","1561","","<div class='trialDiv'><img src='Fruit/melon.png'><br><font class='baseline'><strong>Melon Millions</strong><p>Choose number of points to bet.</font><div class='respPicDiv'><img src='img/responseButtonOffersNo0L.png' class='respPic'></div></div>","1","3","Melon Millions","Fruit/melon.png","Lost","0.2,0.8","10","0.2","33","7","",""
"","","","decisionFB","63f969ceb2a0b028aa612b33","bdp_rwlrn","Tue Mar 14 2023 21:26:58 GMT-0400 (Eastern Daylight Time)","457381","Untrustworthy,Trustworthy","html-keyboard-response","30","114399","0.0-11.0-2.6","","null","","<div class='trialDiv'><img src='Fruit/melon.png'><br><font class='baseline'><strong>Melon Millions</strong><p>Choose number of points to bet.</font><div class='respPicDiv'><img src='img/responseButtonOffersNo0L1.png' class='respPic'></div></div>","null","3","Melon Millions","Fruit/melon.png","Lost","0.2,0.8","10","0.2","32","7","",""
"","","","feedback","63f969ceb2a0b028aa612b33","bdp_rwlrn","Tue Mar 14 2023 21:26:58 GMT-0400 (Eastern Daylight Time)","457381","Untrustworthy,Trustworthy","html-keyboard-response","31","115410","0.0-11.0-3.6","","null","","<div class='respPicDiv'><img src='img/responseButtonOffersNo0_wht.png' class='respPic'></div><div class='trialDiv'><img src='Fruit/melon.png'><br><font class='baseline'><strong>Melon Millions</strong><p><strong><font class='negOutcome'>You LOST</font><p>You bet: 1</strong></font> &nbsp; &nbsp; &nbsp; &nbsp; &nbsp; &nbsp;<font class='negOutcome'>You receive: <strong>0</strong></font></div>","null","3","Melon Millions","Fruit/melon.png","Lost","0.2,0.8","10","0.2","32","7","",""
"","","","decision","63f969ceb2a0b028aa612b33","bdp_rwlrn","Tue Mar 14 2023 21:26:58 GMT-0400 (Eastern Daylight Time)","457381","Untrustworthy,Trustworthy","html-keyboard-response","32","117574","0.0-11.0-1.7","","2163","","<div class='trialDiv'><img src='Fruit/pears.png'><br><font class='baseline'><strong>Pears Aplenty</strong><p>Choose number of points to bet.</font><div class='respPicDiv'><img src='img/responseButtonOffersNo0L.png' class='respPic'></div></div>","5","3","Pears Aplenty","Fruit/pears.png","Won","0.8,0.35","13","0.8","37","8","",""
"","","","decisionFB","63f969ceb2a0b028aa612b33","bdp_rwlrn","Tue Mar 14 2023 21:26:58 GMT-0400 (Eastern Daylight Time)","457381","Untrustworthy,Trustworthy","html-keyboard-response","33","117834","0.0-11.0-2.7","","null","","<div class='trialDiv'><img src='Fruit/pears.png'><br><font class='baseline'><strong>Pears Aplenty</strong><p>Choose number of points to bet.</font><div class='respPicDiv'><img src='img/responseButtonOffersNo0L5.png' class='respPic'></div></div>","null","3","Pears Aplenty","Fruit/pears.png","Won","0.8,0.35","13","0.8","32","8","",""
"","","","feedback","63f969ceb2a0b028aa612b33","bdp_rwlrn","Tue Mar 14 2023 21:26:58 GMT-0400 (Eastern Daylight Time)","457381","Untrustworthy,Trustworthy","html-keyboard-response","34","118850","0.0-11.0-3.7","","null","","<div class='respPicDiv'><img src='img/responseButtonOffersNo0_wht.png' class='respPic'></div><div class='trialDiv'><img src='Fruit/pears.png'><br><font class='baseline'><strong>Pears Aplenty</strong><p><strong><font class='posOutcome'>You WON</font><p>You bet: 5</strong></font> &nbsp; &nbsp; &nbsp; &nbsp; &nbsp; &nbsp;<font class='posOutcome'>you receive: <strong>10</strong></font></div>","null","3","Pears Aplenty","Fruit/pears.png","Won","0.8,0.35","13","0.8","42","8","",""
"","","","decision","63f969ceb2a0b028aa612b33","bdp_rwlrn","Tue Mar 14 2023 21:26:58 GMT-0400 (Eastern Daylight Time)","457381","Untrustworthy,Trustworthy","html-keyboard-response","35","120225","0.0-11.0-1.8","","1373","","<div class='trialDiv'><img src='Fruit/pineapple.png'><br><font class='baseline'><strong>Primo Pineapple</strong><p>Choose number of points to bet.</font><div class='respPicDiv'><img src='img/responseButtonOffersNo0L.png' class='respPic'></div></div>","1","3","Primo Pineapple","Fruit/pineapple.png","Lost","0.35,0.8","14","0.35","47","9","",""
"","","","decisionFB","63f969ceb2a0b028aa612b33","bdp_rwlrn","Tue Mar 14 2023 21:26:58 GMT-0400 (Eastern Daylight Time)","457381","Untrustworthy,Trustworthy","html-keyboard-response","36","120488","0.0-11.0-2.8","","null","","<div class='trialDiv'><img src='Fruit/pineapple.png'><br><font class='baseline'><strong>Primo Pineapple</strong><p>Choose number of points to bet.</font><div class='respPicDiv'><img src='img/responseButtonOffersNo0L1.png' class='respPic'></div></div>","null","3","Primo Pineapple","Fruit/pineapple.png","Lost","0.35,0.8","14","0.35","46","9","",""
"","","","feedback","63f969ceb2a0b028aa612b33","bdp_rwlrn","Tue Mar 14 2023 21:26:58 GMT-0400 (Eastern Daylight Time)","457381","Untrustworthy,Trustworthy","html-keyboard-response","37","121495","0.0-11.0-3.8","","null","","<div class='respPicDiv'><img src='img/responseButtonOffersNo0_wht.png' class='respPic'></div><div class='trialDiv'><img src='Fruit/pineapple.png'><br><font class='baseline'><strong>Primo Pineapple</strong><p><strong><font class='negOutcome'>You LOST</font><p>You bet: 1</strong></font> &nbsp; &nbsp; &nbsp; &nbsp; &nbsp; &nbsp;<font class='negOutcome'>You receive: <strong>0</strong></font></div>","null","3","Primo Pineapple","Fruit/pineapple.png","Lost","0.35,0.8","14","0.35","46","9","",""
"","","","decision","63f969ceb2a0b028aa612b33","bdp_rwlrn","Tue Mar 14 2023 21:26:58 GMT-0400 (Eastern Daylight Time)","457381","Untrustworthy,Trustworthy","html-keyboard-response","38","123170","0.0-11.0-1.9","","1673","","<div class='trialDiv'><img src='Fruit/melon.png'><br><font class='baseline'><strong>Melon Millions</strong><p>Choose number of points to bet.</font><div class='respPicDiv'><img src='img/responseButtonOffersNo0L.png' class='respPic'></div></div>","1","4","Melon Millions","Fruit/melon.png","Won","0.2,0.8","10","0.2","51","10","",""
"","","","decisionFB","63f969ceb2a0b028aa612b33","bdp_rwlrn","Tue Mar 14 2023 21:26:58 GMT-0400 (Eastern Daylight Time)","457381","Untrustworthy,Trustworthy","html-keyboard-response","39","123426","0.0-11.0-2.9","","null","","<div class='trialDiv'><img src='Fruit/melon.png'><br><font class='baseline'><strong>Melon Millions</strong><p>Choose number of points to bet.</font><div class='respPicDiv'><img src='img/responseButtonOffersNo0L1.png' class='respPic'></div></div>","null","4","Melon Millions","Fruit/melon.png","Won","0.2,0.8","10","0.2","50","10","",""
"","","","feedback","63f969ceb2a0b028aa612b33","bdp_rwlrn","Tue Mar 14 2023 21:26:58 GMT-0400 (Eastern Daylight Time)","457381","Untrustworthy,Trustworthy","html-keyboard-response","40","124443","0.0-11.0-3.9","","null","","<div class='respPicDiv'><img src='img/responseButtonOffersNo0_wht.png' class='respPic'></div><div class='trialDiv'><img src='Fruit/melon.png'><br><font class='baseline'><strong>Melon Millions</strong><p><strong><font class='posOutcome'>You WON</font><p>You bet: 1</strong></font> &nbsp; &nbsp; &nbsp; &nbsp; &nbsp; &nbsp;<font class='posOutcome'>you receive: <strong>2</strong></font></div>","null","4","Melon Millions","Fruit/melon.png","Won","0.2,0.8","10","0.2","52","10","",""
"","","","decision","63f969ceb2a0b028aa612b33","bdp_rwlrn","Tue Mar 14 2023 21:26:58 GMT-0400 (Eastern Daylight Time)","457381","Untrustworthy,Trustworthy","html-keyboard-response","41","128643","0.0-11.0-1.10","","4198","","<div class='trialDiv'><img src='Fruit/pineapple.png'><br><font class='baseline'><strong>Primo Pineapple</strong><p>Choose number of points to bet.</font><div class='respPicDiv'><img src='img/responseButtonOffersNo0L.png' class='respPic'></div></div>","2","4","Primo Pineapple","Fruit/pineapple.png","Won","0.35,0.8","14","0.35","57","11","",""
"","","","decisionFB","63f969ceb2a0b028aa612b33","bdp_rwlrn","Tue Mar 14 2023 21:26:58 GMT-0400 (Eastern Daylight Time)","457381","Untrustworthy,Trustworthy","html-keyboard-response","42","128901","0.0-11.0-2.10","","null","","<div class='trialDiv'><img src='Fruit/pineapple.png'><br><font class='baseline'><strong>Primo Pineapple</strong><p>Choose number of points to bet.</font><div class='respPicDiv'><img src='img/responseButtonOffersNo0L2.png' class='respPic'></div></div>","null","4","Primo Pineapple","Fruit/pineapple.png","Won","0.35,0.8","14","0.35","55","11","",""
"","","","feedback","63f969ceb2a0b028aa612b33","bdp_rwlrn","Tue Mar 14 2023 21:26:58 GMT-0400 (Eastern Daylight Time)","457381","Untrustworthy,Trustworthy","html-keyboard-response","43","129911","0.0-11.0-3.10","","null","","<div class='respPicDiv'><img src='img/responseButtonOffersNo0_wht.png' class='respPic'></div><div class='trialDiv'><img src='Fruit/pineapple.png'><br><font class='baseline'><strong>Primo Pineapple</strong><p><strong><font class='posOutcome'>You WON</font><p>You bet: 2</strong></font> &nbsp; &nbsp; &nbsp; &nbsp; &nbsp; &nbsp;<font class='posOutcome'>you receive: <strong>4</strong></font></div>","null","4","Primo Pineapple","Fruit/pineapple.png","Won","0.35,0.8","14","0.35","59","11","",""
"","","","decision","63f969ceb2a0b028aa612b33","bdp_rwlrn","Tue Mar 14 2023 21:26:58 GMT-0400 (Eastern Daylight Time)","457381","Untrustworthy,Trustworthy","html-keyboard-response","44","132073","0.0-11.0-1.11","","2160","","<div class='trialDiv'><img src='Fruit/pears.png'><br><font class='baseline'><strong>Pears Aplenty</strong><p>Choose number of points to bet.</font><div class='respPicDiv'><img src='img/responseButtonOffersNo0L.png' class='respPic'></div></div>","5","4","Pears Aplenty","Fruit/pears.png","Lost","0.8,0.35","13","0.8","64","12","",""
"","","","decisionFB","63f969ceb2a0b028aa612b33","bdp_rwlrn","Tue Mar 14 2023 21:26:58 GMT-0400 (Eastern Daylight Time)","457381","Untrustworthy,Trustworthy","html-keyboard-response","45","132334","0.0-11.0-2.11","","null","","<div class='trialDiv'><img src='Fruit/pears.png'><br><font class='baseline'><strong>Pears Aplenty</strong><p>Choose number of points to bet.</font><div class='respPicDiv'><img src='img/responseButtonOffersNo0L5.png' class='respPic'></div></div>","null","4","Pears Aplenty","Fruit/pears.png","Lost","0.8,0.35","13","0.8","59","12","",""
"","","","feedback","63f969ceb2a0b028aa612b33","bdp_rwlrn","Tue Mar 14 2023 21:26:58 GMT-0400 (Eastern Daylight Time)","457381","Untrustworthy,Trustworthy","html-keyboard-response","46","133347","0.0-11.0-3.11","","null","","<div class='respPicDiv'><img src='img/responseButtonOffersNo0_wht.png' class='respPic'></div><div class='trialDiv'><img src='Fruit/pears.png'><br><font class='baseline'><strong>Pears Aplenty</strong><p><strong><font class='negOutcome'>You LOST</font><p>You bet: 5</strong></font> &nbsp; &nbsp; &nbsp; &nbsp; &nbsp; &nbsp;<font class='negOutcome'>You receive: <strong>0</strong></font></div>","null","4","Pears Aplenty","Fruit/pears.png","Lost","0.8,0.35","13","0.8","59","12","",""
"","","","decision","63f969ceb2a0b028aa612b33","bdp_rwlrn","Tue Mar 14 2023 21:26:58 GMT-0400 (Eastern Daylight Time)","457381","Untrustworthy,Trustworthy","html-keyboard-response","47","134759","0.0-11.0-1.12","","1410","","<div class='trialDiv'><img src='Fruit/melon.png'><br><font class='baseline'><strong>Melon Millions</strong><p>Choose number of points to bet.</font><div class='respPicDiv'><img src='img/responseButtonOffersNo0L.png' class='respPic'></div></div>","2","5","Melon Millions","Fruit/melon.png","Lost","0.2,0.8","10","0.2","64","13","",""
"","","","decisionFB","63f969ceb2a0b028aa612b33","bdp_rwlrn","Tue Mar 14 2023 21:26:58 GMT-0400 (Eastern Daylight Time)","457381","Untrustworthy,Trustworthy","html-keyboard-response","48","135022","0.0-11.0-2.12","","null","","<div class='trialDiv'><img src='Fruit/melon.png'><br><font class='baseline'><strong>Melon Millions</strong><p>Choose number of points to bet.</font><div class='respPicDiv'><img src='img/responseButtonOffersNo0L2.png' class='respPic'></div></div>","null","5","Melon Millions","Fruit/melon.png","Lost","0.2,0.8","10","0.2","62","13","",""
"","","","feedback","63f969ceb2a0b028aa612b33","bdp_rwlrn","Tue Mar 14 2023 21:26:58 GMT-0400 (Eastern Daylight Time)","457381","Untrustworthy,Trustworthy","html-keyboard-response","49","136034","0.0-11.0-3.12","","null","","<div class='respPicDiv'><img src='img/responseButtonOffersNo0_wht.png' class='respPic'></div><div class='trialDiv'><img src='Fruit/melon.png'><br><font class='baseline'><strong>Melon Millions</strong><p><strong><font class='negOutcome'>You LOST</font><p>You bet: 2</strong></font> &nbsp; &nbsp; &nbsp; &nbsp; &nbsp; &nbsp;<font class='negOutcome'>You receive: <strong>0</strong></font></div>","null","5","Melon Millions","Fruit/melon.png","Lost","0.2,0.8","10","0.2","62","13","",""
"","","","decision","63f969ceb2a0b028aa612b33","bdp_rwlrn","Tue Mar 14 2023 21:26:58 GMT-0400 (Eastern Daylight Time)","457381","Untrustworthy,Trustworthy","html-keyboard-response","50","137005","0.0-11.0-1.13","","970","","<div class='trialDiv'><img src='Fruit/pineapple.png'><br><font class='baseline'><strong>Primo Pineapple</strong><p>Choose number of points to bet.</font><div class='respPicDiv'><img src='img/responseButtonOffersNo0L.png' class='respPic'></div></div>","2","5","Primo Pineapple","Fruit/pineapple.png","Won","0.35,0.8","14","0.35","67","14","",""
"","","","decisionFB","63f969ceb2a0b028aa612b33","bdp_rwlrn","Tue Mar 14 2023 21:26:58 GMT-0400 (Eastern Daylight Time)","457381","Untrustworthy,Trustworthy","html-keyboard-response","51","137265","0.0-11.0-2.13","","null","","<div class='trialDiv'><img src='Fruit/pineapple.png'><br><font class='baseline'><strong>Primo Pineapple</strong><p>Choose number of points to bet.</font><div class='respPicDiv'><img src='img/responseButtonOffersNo0L2.png' class='respPic'></div></div>","null","5","Primo Pineapple","Fruit/pineapple.png","Won","0.35,0.8","14","0.35","65","14","",""
"","","","feedback","63f969ceb2a0b028aa612b33","bdp_rwlrn","Tue Mar 14 2023 21:26:58 GMT-0400 (Eastern Daylight Time)","457381","Untrustworthy,Trustworthy","html-keyboard-response","52","138269","0.0-11.0-3.13","","null","","<div class='respPicDiv'><img src='img/responseButtonOffersNo0_wht.png' class='respPic'></div><div class='trialDiv'><img src='Fruit/pineapple.png'><br><font class='baseline'><strong>Primo Pineapple</strong><p><strong><font class='posOutcome'>You WON</font><p>You bet: 2</strong></font> &nbsp; &nbsp; &nbsp; &nbsp; &nbsp; &nbsp;<font class='posOutcome'>you receive: <strong>4</strong></font></div>","null","5","Primo Pineapple","Fruit/pineapple.png","Won","0.35,0.8","14","0.35","69","14","",""
"","","","decision","63f969ceb2a0b028aa612b33","bdp_rwlrn","Tue Mar 14 2023 21:26:58 GMT-0400 (Eastern Daylight Time)","457381","Untrustworthy,Trustworthy","html-keyboard-response","53","140534","0.0-11.0-1.14","","2264","","<div class='trialDiv'><img src='Fruit/pears.png'><br><font class='baseline'><strong>Pears Aplenty</strong><p>Choose number of points to bet.</font><div class='respPicDiv'><img src='img/responseButtonOffersNo0L.png' class='respPic'></div></div>","3","5","Pears Aplenty","Fruit/pears.png","Won","0.8,0.35","13","0.8","74","15","",""
"","","","decisionFB","63f969ceb2a0b028aa612b33","bdp_rwlrn","Tue Mar 14 2023 21:26:58 GMT-0400 (Eastern Daylight Time)","457381","Untrustworthy,Trustworthy","html-keyboard-response","54","140786","0.0-11.0-2.14","","null","","<div class='trialDiv'><img src='Fruit/pears.png'><br><font class='baseline'><strong>Pears Aplenty</strong><p>Choose number of points to bet.</font><div class='respPicDiv'><img src='img/responseButtonOffersNo0L3.png' class='respPic'></div></div>","null","5","Pears Aplenty","Fruit/pears.png","Won","0.8,0.35","13","0.8","71","15","",""
"","","","feedback","63f969ceb2a0b028aa612b33","bdp_rwlrn","Tue Mar 14 2023 21:26:58 GMT-0400 (Eastern Daylight Time)","457381","Untrustworthy,Trustworthy","html-keyboard-response","55","141791","0.0-11.0-3.14","","null","","<div class='respPicDiv'><img src='img/responseButtonOffersNo0_wht.png' class='respPic'></div><div class='trialDiv'><img src='Fruit/pears.png'><br><font class='baseline'><strong>Pears Aplenty</strong><p><strong><font class='posOutcome'>You WON</font><p>You bet: 3</strong></font> &nbsp; &nbsp; &nbsp; &nbsp; &nbsp; &nbsp;<font class='posOutcome'>you receive: <strong>6</strong></font></div>","null","5","Pears Aplenty","Fruit/pears.png","Won","0.8,0.35","13","0.8","77","15","",""
"","","","decision","63f969ceb2a0b028aa612b33","bdp_rwlrn","Tue Mar 14 2023 21:26:58 GMT-0400 (Eastern Daylight Time)","457381","Untrustworthy,Trustworthy","html-keyboard-response","56","143296","0.0-11.0-1.15","","1503","","<div class='trialDiv'><img src='Fruit/melon.png'><br><font class='baseline'><strong>Melon Millions</strong><p>Choose number of points to bet.</font><div class='respPicDiv'><img src='img/responseButtonOffersNo0L.png' class='respPic'></div></div>","1","6","Melon Millions","Fruit/melon.png","Lost","0.2,0.8","10","0.2","82","16","",""
"","","","decisionFB","63f969ceb2a0b028aa612b33","bdp_rwlrn","Tue Mar 14 2023 21:26:58 GMT-0400 (Eastern Daylight Time)","457381","Untrustworthy,Trustworthy","html-keyboard-response","57","143560","0.0-11.0-2.15","","null","","<div class='trialDiv'><img src='Fruit/melon.png'><br><font class='baseline'><strong>Melon Millions</strong><p>Choose number of points to bet.</font><div class='respPicDiv'><img src='img/responseButtonOffersNo0L1.png' class='respPic'></div></div>","null","6","Melon Millions","Fruit/melon.png","Lost","0.2,0.8","10","0.2","81","16","",""
"","","","feedback","63f969ceb2a0b028aa612b33","bdp_rwlrn","Tue Mar 14 2023 21:26:58 GMT-0400 (Eastern Daylight Time)","457381","Untrustworthy,Trustworthy","html-keyboard-response","58","144570","0.0-11.0-3.15","","null","","<div class='respPicDiv'><img src='img/responseButtonOffersNo0_wht.png' class='respPic'></div><div class='trialDiv'><img src='Fruit/melon.png'><br><font class='baseline'><strong>Melon Millions</strong><p><strong><font class='negOutcome'>You LOST</font><p>You bet: 1</strong></font> &nbsp; &nbsp; &nbsp; &nbsp; &nbsp; &nbsp;<font class='negOutcome'>You receive: <strong>0</strong></font></div>","null","6","Melon Millions","Fruit/melon.png","Lost","0.2,0.8","10","0.2","81","16","",""
"","","","decision","63f969ceb2a0b028aa612b33","bdp_rwlrn","Tue Mar 14 2023 21:26:58 GMT-0400 (Eastern Daylight Time)","457381","Untrustworthy,Trustworthy","html-keyboard-response","59","146180","0.0-11.0-1.16","","1608","","<div class='trialDiv'><img src='Fruit/pineapple.png'><br><font class='baseline'><strong>Primo Pineapple</strong><p>Choose number of points to bet.</font><div class='respPicDiv'><img src='img/responseButtonOffersNo0L.png' class='respPic'></div></div>","2","6","Primo Pineapple","Fruit/pineapple.png","Lost","0.35,0.8","14","0.35","86","17","",""
"","","","decisionFB","63f969ceb2a0b028aa612b33","bdp_rwlrn","Tue Mar 14 2023 21:26:58 GMT-0400 (Eastern Daylight Time)","457381","Untrustworthy,Trustworthy","html-keyboard-response","60","146445","0.0-11.0-2.16","","null","","<div class='trialDiv'><img src='Fruit/pineapple.png'><br><font class='baseline'><strong>Primo Pineapple</strong><p>Choose number of points to bet.</font><div class='respPicDiv'><img src='img/responseButtonOffersNo0L2.png' class='respPic'></div></div>","null","6","Primo Pineapple","Fruit/pineapple.png","Lost","0.35,0.8","14","0.35","84","17","",""
"","","","feedback","63f969ceb2a0b028aa612b33","bdp_rwlrn","Tue Mar 14 2023 21:26:58 GMT-0400 (Eastern Daylight Time)","457381","Untrustworthy,Trustworthy","html-keyboard-response","61","147458","0.0-11.0-3.16","","null","","<div class='respPicDiv'><img src='img/responseButtonOffersNo0_wht.png' class='respPic'></div><div class='trialDiv'><img src='Fruit/pineapple.png'><br><font class='baseline'><strong>Primo Pineapple</strong><p><strong><font class='negOutcome'>You LOST</font><p>You bet: 2</strong></font> &nbsp; &nbsp; &nbsp; &nbsp; &nbsp; &nbsp;<font class='negOutcome'>You receive: <strong>0</strong></font></div>","null","6","Primo Pineapple","Fruit/pineapple.png","Lost","0.35,0.8","14","0.35","84","17","",""
"","","","decision","63f969ceb2a0b028aa612b33","bdp_rwlrn","Tue Mar 14 2023 21:26:58 GMT-0400 (Eastern Daylight Time)","457381","Untrustworthy,Trustworthy","html-keyboard-response","62","149941","0.0-11.0-1.17","","2482","","<div class='trialDiv'><img src='Fruit/pears.png'><br><font class='baseline'><strong>Pears Aplenty</strong><p>Choose number of points to bet.</font><div class='respPicDiv'><img src='img/responseButtonOffersNo0L.png' class='respPic'></div></div>","4","6","Pears Aplenty","Fruit/pears.png","Won","0.8,0.35","13","0.8","89","18","",""
"","","","decisionFB","63f969ceb2a0b028aa612b33","bdp_rwlrn","Tue Mar 14 2023 21:26:58 GMT-0400 (Eastern Daylight Time)","457381","Untrustworthy,Trustworthy","html-keyboard-response","63","150205","0.0-11.0-2.17","","null","","<div class='trialDiv'><img src='Fruit/pears.png'><br><font class='baseline'><strong>Pears Aplenty</strong><p>Choose number of points to bet.</font><div class='respPicDiv'><img src='img/responseButtonOffersNo0L4.png' class='respPic'></div></div>","null","6","Pears Aplenty","Fruit/pears.png","Won","0.8,0.35","13","0.8","85","18","",""
"","","","feedback","63f969ceb2a0b028aa612b33","bdp_rwlrn","Tue Mar 14 2023 21:26:58 GMT-0400 (Eastern Daylight Time)","457381","Untrustworthy,Trustworthy","html-keyboard-response","64","151217","0.0-11.0-3.17","","null","","<div class='respPicDiv'><img src='img/responseButtonOffersNo0_wht.png' class='respPic'></div><div class='trialDiv'><img src='Fruit/pears.png'><br><font class='baseline'><strong>Pears Aplenty</strong><p><strong><font class='posOutcome'>You WON</font><p>You bet: 4</strong></font> &nbsp; &nbsp; &nbsp; &nbsp; &nbsp; &nbsp;<font class='posOutcome'>you receive: <strong>8</strong></font></div>","null","6","Pears Aplenty","Fruit/pears.png","Won","0.8,0.35","13","0.8","93","18","",""
"","","","decision","63f969ceb2a0b028aa612b33","bdp_rwlrn","Tue Mar 14 2023 21:26:58 GMT-0400 (Eastern Daylight Time)","457381","Untrustworthy,Trustworthy","html-keyboard-response","65","153273","0.0-11.0-1.18","","2056","","<div class='trialDiv'><img src='Fruit/pineapple.png'><br><font class='baseline'><strong>Primo Pineapple</strong><p>Choose number of points to bet.</font><div class='respPicDiv'><img src='img/responseButtonOffersNo0L.png' class='respPic'></div></div>","3","7","Primo Pineapple","Fruit/pineapple.png","Won","0.35,0.8","14","0.35","98","19","",""
"","","","decisionFB","63f969ceb2a0b028aa612b33","bdp_rwlrn","Tue Mar 14 2023 21:26:58 GMT-0400 (Eastern Daylight Time)","457381","Untrustworthy,Trustworthy","html-keyboard-response","66","153540","0.0-11.0-2.18","","null","","<div class='trialDiv'><img src='Fruit/pineapple.png'><br><font class='baseline'><strong>Primo Pineapple</strong><p>Choose number of points to bet.</font><div class='respPicDiv'><img src='img/responseButtonOffersNo0L3.png' class='respPic'></div></div>","null","7","Primo Pineapple","Fruit/pineapple.png","Won","0.35,0.8","14","0.35","95","19","",""
"","","","feedback","63f969ceb2a0b028aa612b33","bdp_rwlrn","Tue Mar 14 2023 21:26:58 GMT-0400 (Eastern Daylight Time)","457381","Untrustworthy,Trustworthy","html-keyboard-response","67","154542","0.0-11.0-3.18","","null","","<div class='respPicDiv'><img src='img/responseButtonOffersNo0_wht.png' class='respPic'></div><div class='trialDiv'><img src='Fruit/pineapple.png'><br><font class='baseline'><strong>Primo Pineapple</strong><p><strong><font class='posOutcome'>You WON</font><p>You bet: 3</strong></font> &nbsp; &nbsp; &nbsp; &nbsp; &nbsp; &nbsp;<font class='posOutcome'>you receive: <strong>6</strong></font></div>","null","7","Primo Pineapple","Fruit/pineapple.png","Won","0.35,0.8","14","0.35","101","19","",""
"","","","decision","63f969ceb2a0b028aa612b33","bdp_rwlrn","Tue Mar 14 2023 21:26:58 GMT-0400 (Eastern Daylight Time)","457381","Untrustworthy,Trustworthy","html-keyboard-response","68","156083","0.0-11.0-1.19","","1540","","<div class='trialDiv'><img src='Fruit/melon.png'><br><font class='baseline'><strong>Melon Millions</strong><p>Choose number of points to bet.</font><div class='respPicDiv'><img src='img/responseButtonOffersNo0L.png' class='respPic'></div></div>","2","7","Melon Millions","Fruit/melon.png","Lost","0.2,0.8","10","0.2","106","20","",""
"","","","decisionFB","63f969ceb2a0b028aa612b33","bdp_rwlrn","Tue Mar 14 2023 21:26:58 GMT-0400 (Eastern Daylight Time)","457381","Untrustworthy,Trustworthy","html-keyboard-response","69","156337","0.0-11.0-2.19","","null","","<div class='trialDiv'><img src='Fruit/melon.png'><br><font class='baseline'><strong>Melon Millions</strong><p>Choose number of points to bet.</font><div class='respPicDiv'><img src='img/responseButtonOffersNo0L2.png' class='respPic'></div></div>","null","7","Melon Millions","Fruit/melon.png","Lost","0.2,0.8","10","0.2","104","20","",""
"","","","feedback","63f969ceb2a0b028aa612b33","bdp_rwlrn","Tue Mar 14 2023 21:26:58 GMT-0400 (Eastern Daylight Time)","457381","Untrustworthy,Trustworthy","html-keyboard-response","70","157343","0.0-11.0-3.19","","null","","<div class='respPicDiv'><img src='img/responseButtonOffersNo0_wht.png' class='respPic'></div><div class='trialDiv'><img src='Fruit/melon.png'><br><font class='baseline'><strong>Melon Millions</strong><p><strong><font class='negOutcome'>You LOST</font><p>You bet: 2</strong></font> &nbsp; &nbsp; &nbsp; &nbsp; &nbsp; &nbsp;<font class='negOutcome'>You receive: <strong>0</strong></font></div>","null","7","Melon Millions","Fruit/melon.png","Lost","0.2,0.8","10","0.2","104","20","",""
"","","","decision","63f969ceb2a0b028aa612b33","bdp_rwlrn","Tue Mar 14 2023 21:26:58 GMT-0400 (Eastern Daylight Time)","457381","Untrustworthy,Trustworthy","html-keyboard-response","71","158005","0.0-11.0-1.20","","661","","<div class='trialDiv'><img src='Fruit/pears.png'><br><font class='baseline'><strong>Pears Aplenty</strong><p>Choose number of points to bet.</font><div class='respPicDiv'><img src='img/responseButtonOffersNo0L.png' class='respPic'></div></div>","3","7","Pears Aplenty","Fruit/pears.png","Won","0.8,0.35","13","0.8","109","21","",""
"","","","decisionFB","63f969ceb2a0b028aa612b33","bdp_rwlrn","Tue Mar 14 2023 21:26:58 GMT-0400 (Eastern Daylight Time)","457381","Untrustworthy,Trustworthy","html-keyboard-response","72","158270","0.0-11.0-2.20","","null","","<div class='trialDiv'><img src='Fruit/pears.png'><br><font class='baseline'><strong>Pears Aplenty</strong><p>Choose number of points to bet.</font><div class='respPicDiv'><img src='img/responseButtonOffersNo0L3.png' class='respPic'></div></div>","null","7","Pears Aplenty","Fruit/pears.png","Won","0.8,0.35","13","0.8","106","21","",""
"","","","feedback","63f969ceb2a0b028aa612b33","bdp_rwlrn","Tue Mar 14 2023 21:26:58 GMT-0400 (Eastern Daylight Time)","457381","Untrustworthy,Trustworthy","html-keyboard-response","73","159285","0.0-11.0-3.20","","null","","<div class='respPicDiv'><img src='img/responseButtonOffersNo0_wht.png' class='respPic'></div><div class='trialDiv'><img src='Fruit/pears.png'><br><font class='baseline'><strong>Pears Aplenty</strong><p><strong><font class='posOutcome'>You WON</font><p>You bet: 3</strong></font> &nbsp; &nbsp; &nbsp; &nbsp; &nbsp; &nbsp;<font class='posOutcome'>you receive: <strong>6</strong></font></div>","null","7","Pears Aplenty","Fruit/pears.png","Won","0.8,0.35","13","0.8","112","21","",""
"","","","decision","63f969ceb2a0b028aa612b33","bdp_rwlrn","Tue Mar 14 2023 21:26:58 GMT-0400 (Eastern Daylight Time)","457381","Untrustworthy,Trustworthy","html-keyboard-response","74","161155","0.0-11.0-1.21","","1870","","<div class='trialDiv'><img src='Fruit/pineapple.png'><br><font class='baseline'><strong>Primo Pineapple</strong><p>Choose number of points to bet.</font><div class='respPicDiv'><img src='img/responseButtonOffersNo0L.png' class='respPic'></div></div>","1","8","Primo Pineapple","Fruit/pineapple.png","Won","0.35,0.8","14","0.35","117","22","",""
"","","","decisionFB","63f969ceb2a0b028aa612b33","bdp_rwlrn","Tue Mar 14 2023 21:26:58 GMT-0400 (Eastern Daylight Time)","457381","Untrustworthy,Trustworthy","html-keyboard-response","75","161415","0.0-11.0-2.21","","null","","<div class='trialDiv'><img src='Fruit/pineapple.png'><br><font class='baseline'><strong>Primo Pineapple</strong><p>Choose number of points to bet.</font><div class='respPicDiv'><img src='img/responseButtonOffersNo0L1.png' class='respPic'></div></div>","null","8","Primo Pineapple","Fruit/pineapple.png","Won","0.35,0.8","14","0.35","116","22","",""
"","","","feedback","63f969ceb2a0b028aa612b33","bdp_rwlrn","Tue Mar 14 2023 21:26:58 GMT-0400 (Eastern Daylight Time)","457381","Untrustworthy,Trustworthy","html-keyboard-response","76","162421","0.0-11.0-3.21","","null","","<div class='respPicDiv'><img src='img/responseButtonOffersNo0_wht.png' class='respPic'></div><div class='trialDiv'><img src='Fruit/pineapple.png'><br><font class='baseline'><strong>Primo Pineapple</strong><p><strong><font class='posOutcome'>You WON</font><p>You bet: 1</strong></font> &nbsp; &nbsp; &nbsp; &nbsp; &nbsp; &nbsp;<font class='posOutcome'>you receive: <strong>2</strong></font></div>","null","8","Primo Pineapple","Fruit/pineapple.png","Won","0.35,0.8","14","0.35","118","22","",""
"","","","decision","63f969ceb2a0b028aa612b33","bdp_rwlrn","Tue Mar 14 2023 21:26:58 GMT-0400 (Eastern Daylight Time)","457381","Untrustworthy,Trustworthy","html-keyboard-response","77","163378","0.0-11.0-1.22","","956","","<div class='trialDiv'><img src='Fruit/pears.png'><br><font class='baseline'><strong>Pears Aplenty</strong><p>Choose number of points to bet.</font><div class='respPicDiv'><img src='img/responseButtonOffersNo0L.png' class='respPic'></div></div>","1","8","Pears Aplenty","Fruit/pears.png","Lost","0.8,0.35","13","0.8","123","23","",""
"","","","decisionFB","63f969ceb2a0b028aa612b33","bdp_rwlrn","Tue Mar 14 2023 21:26:58 GMT-0400 (Eastern Daylight Time)","457381","Untrustworthy,Trustworthy","html-keyboard-response","78","163638","0.0-11.0-2.22","","null","","<div class='trialDiv'><img src='Fruit/pears.png'><br><font class='baseline'><strong>Pears Aplenty</strong><p>Choose number of points to bet.</font><div class='respPicDiv'><img src='img/responseButtonOffersNo0L1.png' class='respPic'></div></div>","null","8","Pears Aplenty","Fruit/pears.png","Lost","0.8,0.35","13","0.8","122","23","",""
"","","","feedback","63f969ceb2a0b028aa612b33","bdp_rwlrn","Tue Mar 14 2023 21:26:58 GMT-0400 (Eastern Daylight Time)","457381","Untrustworthy,Trustworthy","html-keyboard-response","79","164645","0.0-11.0-3.22","","null","","<div class='respPicDiv'><img src='img/responseButtonOffersNo0_wht.png' class='respPic'></div><div class='trialDiv'><img src='Fruit/pears.png'><br><font class='baseline'><strong>Pears Aplenty</strong><p><strong><font class='negOutcome'>You LOST</font><p>You bet: 1</strong></font> &nbsp; &nbsp; &nbsp; &nbsp; &nbsp; &nbsp;<font class='negOutcome'>You receive: <strong>0</strong></font></div>","null","8","Pears Aplenty","Fruit/pears.png","Lost","0.8,0.35","13","0.8","122","23","",""
"","","","decision","63f969ceb2a0b028aa612b33","bdp_rwlrn","Tue Mar 14 2023 21:26:58 GMT-0400 (Eastern Daylight Time)","457381","Untrustworthy,Trustworthy","html-keyboard-response","80","165941","0.0-11.0-1.23","","1296","","<div class='trialDiv'><img src='Fruit/melon.png'><br><font class='baseline'><strong>Melon Millions</strong><p>Choose number of points to bet.</font><div class='respPicDiv'><img src='img/responseButtonOffersNo0L.png' class='respPic'></div></div>","1","8","Melon Millions","Fruit/melon.png","Lost","0.2,0.8","10","0.2","127","24","",""
"","","","decisionFB","63f969ceb2a0b028aa612b33","bdp_rwlrn","Tue Mar 14 2023 21:26:58 GMT-0400 (Eastern Daylight Time)","457381","Untrustworthy,Trustworthy","html-keyboard-response","81","166199","0.0-11.0-2.23","","null","","<div class='trialDiv'><img src='Fruit/melon.png'><br><font class='baseline'><strong>Melon Millions</strong><p>Choose number of points to bet.</font><div class='respPicDiv'><img src='img/responseButtonOffersNo0L1.png' class='respPic'></div></div>","null","8","Melon Millions","Fruit/melon.png","Lost","0.2,0.8","10","0.2","126","24","",""
"","","","feedback","63f969ceb2a0b028aa612b33","bdp_rwlrn","Tue Mar 14 2023 21:26:58 GMT-0400 (Eastern Daylight Time)","457381","Untrustworthy,Trustworthy","html-keyboard-response","82","167203","0.0-11.0-3.23","","null","","<div class='respPicDiv'><img src='img/responseButtonOffersNo0_wht.png' class='respPic'></div><div class='trialDiv'><img src='Fruit/melon.png'><br><font class='baseline'><strong>Melon Millions</strong><p><strong><font class='negOutcome'>You LOST</font><p>You bet: 1</strong></font> &nbsp; &nbsp; &nbsp; &nbsp; &nbsp; &nbsp;<font class='negOutcome'>You receive: <strong>0</strong></font></div>","null","8","Melon Millions","Fruit/melon.png","Lost","0.2,0.8","10","0.2","126","24","",""
"","","","decision","63f969ceb2a0b028aa612b33","bdp_rwlrn","Tue Mar 14 2023 21:26:58 GMT-0400 (Eastern Daylight Time)","457381","Untrustworthy,Trustworthy","html-keyboard-response","83","168464","0.0-11.0-1.24","","1260","","<div class='trialDiv'><img src='Fruit/pears.png'><br><font class='baseline'><strong>Pears Aplenty</strong><p>Choose number of points to bet.</font><div class='respPicDiv'><img src='img/responseButtonOffersNo0L.png' class='respPic'></div></div>","2","9","Pears Aplenty","Fruit/pears.png","Won","0.8,0.35","13","0.8","131","25","",""
"","","","decisionFB","63f969ceb2a0b028aa612b33","bdp_rwlrn","Tue Mar 14 2023 21:26:58 GMT-0400 (Eastern Daylight Time)","457381","Untrustworthy,Trustworthy","html-keyboard-response","84","168731","0.0-11.0-2.24","","null","","<div class='trialDiv'><img src='Fruit/pears.png'><br><font class='baseline'><strong>Pears Aplenty</strong><p>Choose number of points to bet.</font><div class='respPicDiv'><img src='img/responseButtonOffersNo0L2.png' class='respPic'></div></div>","null","9","Pears Aplenty","Fruit/pears.png","Won","0.8,0.35","13","0.8","129","25","",""
"","","","feedback","63f969ceb2a0b028aa612b33","bdp_rwlrn","Tue Mar 14 2023 21:26:58 GMT-0400 (Eastern Daylight Time)","457381","Untrustworthy,Trustworthy","html-keyboard-response","85","169736","0.0-11.0-3.24","","null","","<div class='respPicDiv'><img src='img/responseButtonOffersNo0_wht.png' class='respPic'></div><div class='trialDiv'><img src='Fruit/pears.png'><br><font class='baseline'><strong>Pears Aplenty</strong><p><strong><font class='posOutcome'>You WON</font><p>You bet: 2</strong></font> &nbsp; &nbsp; &nbsp; &nbsp; &nbsp; &nbsp;<font class='posOutcome'>you receive: <strong>4</strong></font></div>","null","9","Pears Aplenty","Fruit/pears.png","Won","0.8,0.35","13","0.8","133","25","",""
"","","","decision","63f969ceb2a0b028aa612b33","bdp_rwlrn","Tue Mar 14 2023 21:26:58 GMT-0400 (Eastern Daylight Time)","457381","Untrustworthy,Trustworthy","html-keyboard-response","86","170826","0.0-11.0-1.25","","1088","","<div class='trialDiv'><img src='Fruit/melon.png'><br><font class='baseline'><strong>Melon Millions</strong><p>Choose number of points to bet.</font><div class='respPicDiv'><img src='img/responseButtonOffersNo0L.png' class='respPic'></div></div>","1","9","Melon Millions","Fruit/melon.png","Won","0.2,0.8","10","0.2","138","26","",""
"","","","decisionFB","63f969ceb2a0b028aa612b33","bdp_rwlrn","Tue Mar 14 2023 21:26:58 GMT-0400 (Eastern Daylight Time)","457381","Untrustworthy,Trustworthy","html-keyboard-response","87","171086","0.0-11.0-2.25","","null","","<div class='trialDiv'><img src='Fruit/melon.png'><br><font class='baseline'><strong>Melon Millions</strong><p>Choose number of points to bet.</font><div class='respPicDiv'><img src='img/responseButtonOffersNo0L1.png' class='respPic'></div></div>","null","9","Melon Millions","Fruit/melon.png","Won","0.2,0.8","10","0.2","137","26","",""
"","","","feedback","63f969ceb2a0b028aa612b33","bdp_rwlrn","Tue Mar 14 2023 21:26:58 GMT-0400 (Eastern Daylight Time)","457381","Untrustworthy,Trustworthy","html-keyboard-response","88","172100","0.0-11.0-3.25","","null","","<div class='respPicDiv'><img src='img/responseButtonOffersNo0_wht.png' class='respPic'></div><div class='trialDiv'><img src='Fruit/melon.png'><br><font class='baseline'><strong>Melon Millions</strong><p><strong><font class='posOutcome'>You WON</font><p>You bet: 1</strong></font> &nbsp; &nbsp; &nbsp; &nbsp; &nbsp; &nbsp;<font class='posOutcome'>you receive: <strong>2</strong></font></div>","null","9","Melon Millions","Fruit/melon.png","Won","0.2,0.8","10","0.2","139","26","",""
"","","","decision","63f969ceb2a0b028aa612b33","bdp_rwlrn","Tue Mar 14 2023 21:26:58 GMT-0400 (Eastern Daylight Time)","457381","Untrustworthy,Trustworthy","html-keyboard-response","89","173012","0.0-11.0-1.26","","911","","<div class='trialDiv'><img src='Fruit/pineapple.png'><br><font class='baseline'><strong>Primo Pineapple</strong><p>Choose number of points to bet.</font><div class='respPicDiv'><img src='img/responseButtonOffersNo0L.png' class='respPic'></div></div>","1","9","Primo Pineapple","Fruit/pineapple.png","Lost","0.35,0.8","14","0.35","144","27","",""
"","","","decisionFB","63f969ceb2a0b028aa612b33","bdp_rwlrn","Tue Mar 14 2023 21:26:58 GMT-0400 (Eastern Daylight Time)","457381","Untrustworthy,Trustworthy","html-keyboard-response","90","173272","0.0-11.0-2.26","","null","","<div class='trialDiv'><img src='Fruit/pineapple.png'><br><font class='baseline'><strong>Primo Pineapple</strong><p>Choose number of points to bet.</font><div class='respPicDiv'><img src='img/responseButtonOffersNo0L1.png' class='respPic'></div></div>","null","9","Primo Pineapple","Fruit/pineapple.png","Lost","0.35,0.8","14","0.35","143","27","",""
"","","","feedback","63f969ceb2a0b028aa612b33","bdp_rwlrn","Tue Mar 14 2023 21:26:58 GMT-0400 (Eastern Daylight Time)","457381","Untrustworthy,Trustworthy","html-keyboard-response","91","174287","0.0-11.0-3.26","","null","","<div class='respPicDiv'><img src='img/responseButtonOffersNo0_wht.png' class='respPic'></div><div class='trialDiv'><img src='Fruit/pineapple.png'><br><font class='baseline'><strong>Primo Pineapple</strong><p><strong><font class='negOutcome'>You LOST</font><p>You bet: 1</strong></font> &nbsp; &nbsp; &nbsp; &nbsp; &nbsp; &nbsp;<font class='negOutcome'>You receive: <strong>0</strong></font></div>","null","9","Primo Pineapple","Fruit/pineapple.png","Lost","0.35,0.8","14","0.35","143","27","",""
"","","","decision","63f969ceb2a0b028aa612b33","bdp_rwlrn","Tue Mar 14 2023 21:26:58 GMT-0400 (Eastern Daylight Time)","457381","Untrustworthy,Trustworthy","html-keyboard-response","92","176285","0.0-11.0-1.27","","1997","","<div class='trialDiv'><img src='Fruit/pears.png'><br><font class='baseline'><strong>Pears Aplenty</strong><p>Choose number of points to bet.</font><div class='respPicDiv'><img src='img/responseButtonOffersNo0L.png' class='respPic'></div></div>","5","10","Pears Aplenty","Fruit/pears.png","Won","0.8,0.35","13","0.8","148","28","",""
"","","","decisionFB","63f969ceb2a0b028aa612b33","bdp_rwlrn","Tue Mar 14 2023 21:26:58 GMT-0400 (Eastern Daylight Time)","457381","Untrustworthy,Trustworthy","html-keyboard-response","93","176550","0.0-11.0-2.27","","null","","<div class='trialDiv'><img src='Fruit/pears.png'><br><font class='baseline'><strong>Pears Aplenty</strong><p>Choose number of points to bet.</font><div class='respPicDiv'><img src='img/responseButtonOffersNo0L5.png' class='respPic'></div></div>","null","10","Pears Aplenty","Fruit/pears.png","Won","0.8,0.35","13","0.8","143","28","",""
"","","","feedback","63f969ceb2a0b028aa612b33","bdp_rwlrn","Tue Mar 14 2023 21:26:58 GMT-0400 (Eastern Daylight Time)","457381","Untrustworthy,Trustworthy","html-keyboard-response","94","177559","0.0-11.0-3.27","","null","","<div class='respPicDiv'><img src='img/responseButtonOffersNo0_wht.png' class='respPic'></div><div class='trialDiv'><img src='Fruit/pears.png'><br><font class='baseline'><strong>Pears Aplenty</strong><p><strong><font class='posOutcome'>You WON</font><p>You bet: 5</strong></font> &nbsp; &nbsp; &nbsp; &nbsp; &nbsp; &nbsp;<font class='posOutcome'>you receive: <strong>10</strong></font></div>","null","10","Pears Aplenty","Fruit/pears.png","Won","0.8,0.35","13","0.8","153","28","",""
"","","","decision","63f969ceb2a0b028aa612b33","bdp_rwlrn","Tue Mar 14 2023 21:26:58 GMT-0400 (Eastern Daylight Time)","457381","Untrustworthy,Trustworthy","html-keyboard-response","95","179555","0.0-11.0-1.28","","1995","","<div class='trialDiv'><img src='Fruit/melon.png'><br><font class='baseline'><strong>Melon Millions</strong><p>Choose number of points to bet.</font><div class='respPicDiv'><img src='img/responseButtonOffersNo0L.png' class='respPic'></div></div>","2","10","Melon Millions","Fruit/melon.png","Won","0.2,0.8","10","0.2","158","29","",""
"","","","decisionFB","63f969ceb2a0b028aa612b33","bdp_rwlrn","Tue Mar 14 2023 21:26:58 GMT-0400 (Eastern Daylight Time)","457381","Untrustworthy,Trustworthy","html-keyboard-response","96","179808","0.0-11.0-2.28","","null","","<div class='trialDiv'><img src='Fruit/melon.png'><br><font class='baseline'><strong>Melon Millions</strong><p>Choose number of points to bet.</font><div class='respPicDiv'><img src='img/responseButtonOffersNo0L2.png' class='respPic'></div></div>","null","10","Melon Millions","Fruit/melon.png","Won","0.2,0.8","10","0.2","156","29","",""
"","","","feedback","63f969ceb2a0b028aa612b33","bdp_rwlrn","Tue Mar 14 2023 21:26:58 GMT-0400 (Eastern Daylight Time)","457381","Untrustworthy,Trustworthy","html-keyboard-response","97","180823","0.0-11.0-3.28","","null","","<div class='respPicDiv'><img src='img/responseButtonOffersNo0_wht.png' class='respPic'></div><div class='trialDiv'><img src='Fruit/melon.png'><br><font class='baseline'><strong>Melon Millions</strong><p><strong><font class='posOutcome'>You WON</font><p>You bet: 2</strong></font> &nbsp; &nbsp; &nbsp; &nbsp; &nbsp; &nbsp;<font class='posOutcome'>you receive: <strong>4</strong></font></div>","null","10","Melon Millions","Fruit/melon.png","Won","0.2,0.8","10","0.2","160","29","",""
"","","","decision","63f969ceb2a0b028aa612b33","bdp_rwlrn","Tue Mar 14 2023 21:26:58 GMT-0400 (Eastern Daylight Time)","457381","Untrustworthy,Trustworthy","html-keyboard-response","98","181670","0.0-11.0-1.29","","846","","<div class='trialDiv'><img src='Fruit/pineapple.png'><br><font class='baseline'><strong>Primo Pineapple</strong><p>Choose number of points to bet.</font><div class='respPicDiv'><img src='img/responseButtonOffersNo0L.png' class='respPic'></div></div>","2","10","Primo Pineapple","Fruit/pineapple.png","Won","0.35,0.8","14","0.35","165","30","",""
"","","","decisionFB","63f969ceb2a0b028aa612b33","bdp_rwlrn","Tue Mar 14 2023 21:26:58 GMT-0400 (Eastern Daylight Time)","457381","Untrustworthy,Trustworthy","html-keyboard-response","99","181937","0.0-11.0-2.29","","null","","<div class='trialDiv'><img src='Fruit/pineapple.png'><br><font class='baseline'><strong>Primo Pineapple</strong><p>Choose number of points to bet.</font><div class='respPicDiv'><img src='img/responseButtonOffersNo0L2.png' class='respPic'></div></div>","null","10","Primo Pineapple","Fruit/pineapple.png","Won","0.35,0.8","14","0.35","163","30","",""
"","","","feedback","63f969ceb2a0b028aa612b33","bdp_rwlrn","Tue Mar 14 2023 21:26:58 GMT-0400 (Eastern Daylight Time)","457381","Untrustworthy,Trustworthy","html-keyboard-response","100","182946","0.0-11.0-3.29","","null","","<div class='respPicDiv'><img src='img/responseButtonOffersNo0_wht.png' class='respPic'></div><div class='trialDiv'><img src='Fruit/pineapple.png'><br><font class='baseline'><strong>Primo Pineapple</strong><p><strong><font class='posOutcome'>You WON</font><p>You bet: 2</strong></font> &nbsp; &nbsp; &nbsp; &nbsp; &nbsp; &nbsp;<font class='posOutcome'>you receive: <strong>4</strong></font></div>","null","10","Primo Pineapple","Fruit/pineapple.png","Won","0.35,0.8","14","0.35","167","30","",""
"","","","decision","63f969ceb2a0b028aa612b33","bdp_rwlrn","Tue Mar 14 2023 21:26:58 GMT-0400 (Eastern Daylight Time)","457381","Untrustworthy,Trustworthy","html-keyboard-response","101","184054","0.0-11.0-1.30","","1106","","<div class='trialDiv'><img src='Fruit/melon.png'><br><font class='baseline'><strong>Melon Millions</strong><p>Choose number of points to bet.</font><div class='respPicDiv'><img src='img/responseButtonOffersNo0L.png' class='respPic'></div></div>","2","11","Melon Millions","Fruit/melon.png","Won","0.2,0.8","10","0.2","172","31","",""
"","","","decisionFB","63f969ceb2a0b028aa612b33","bdp_rwlrn","Tue Mar 14 2023 21:26:58 GMT-0400 (Eastern Daylight Time)","457381","Untrustworthy,Trustworthy","html-keyboard-response","102","184309","0.0-11.0-2.30","","null","","<div class='trialDiv'><img src='Fruit/melon.png'><br><font class='baseline'><strong>Melon Millions</strong><p>Choose number of points to bet.</font><div class='respPicDiv'><img src='img/responseButtonOffersNo0L2.png' class='respPic'></div></div>","null","11","Melon Millions","Fruit/melon.png","Won","0.2,0.8","10","0.2","170","31","",""
"","","","feedback","63f969ceb2a0b028aa612b33","bdp_rwlrn","Tue Mar 14 2023 21:26:58 GMT-0400 (Eastern Daylight Time)","457381","Untrustworthy,Trustworthy","html-keyboard-response","103","185312","0.0-11.0-3.30","","null","","<div class='respPicDiv'><img src='img/responseButtonOffersNo0_wht.png' class='respPic'></div><div class='trialDiv'><img src='Fruit/melon.png'><br><font class='baseline'><strong>Melon Millions</strong><p><strong><font class='posOutcome'>You WON</font><p>You bet: 2</strong></font> &nbsp; &nbsp; &nbsp; &nbsp; &nbsp; &nbsp;<font class='posOutcome'>you receive: <strong>4</strong></font></div>","null","11","Melon Millions","Fruit/melon.png","Won","0.2,0.8","10","0.2","174","31","",""
"","","","decision","63f969ceb2a0b028aa612b33","bdp_rwlrn","Tue Mar 14 2023 21:26:58 GMT-0400 (Eastern Daylight Time)","457381","Untrustworthy,Trustworthy","html-keyboard-response","104","187499","0.0-11.0-1.31","","2185","","<div class='trialDiv'><img src='Fruit/pears.png'><br><font class='baseline'><strong>Pears Aplenty</strong><p>Choose number of points to bet.</font><div class='respPicDiv'><img src='img/responseButtonOffersNo0L.png' class='respPic'></div></div>","4","11","Pears Aplenty","Fruit/pears.png","Won","0.8,0.35","13","0.8","179","32","",""
"","","","decisionFB","63f969ceb2a0b028aa612b33","bdp_rwlrn","Tue Mar 14 2023 21:26:58 GMT-0400 (Eastern Daylight Time)","457381","Untrustworthy,Trustworthy","html-keyboard-response","105","187755","0.0-11.0-2.31","","null","","<div class='trialDiv'><img src='Fruit/pears.png'><br><font class='baseline'><strong>Pears Aplenty</strong><p>Choose number of points to bet.</font><div class='respPicDiv'><img src='img/responseButtonOffersNo0L4.png' class='respPic'></div></div>","null","11","Pears Aplenty","Fruit/pears.png","Won","0.8,0.35","13","0.8","175","32","",""
"","","","feedback","63f969ceb2a0b028aa612b33","bdp_rwlrn","Tue Mar 14 2023 21:26:58 GMT-0400 (Eastern Daylight Time)","457381","Untrustworthy,Trustworthy","html-keyboard-response","106","188768","0.0-11.0-3.31","","null","","<div class='respPicDiv'><img src='img/responseButtonOffersNo0_wht.png' class='respPic'></div><div class='trialDiv'><img src='Fruit/pears.png'><br><font class='baseline'><strong>Pears Aplenty</strong><p><strong><font class='posOutcome'>You WON</font><p>You bet: 4</strong></font> &nbsp; &nbsp; &nbsp; &nbsp; &nbsp; &nbsp;<font class='posOutcome'>you receive: <strong>8</strong></font></div>","null","11","Pears Aplenty","Fruit/pears.png","Won","0.8,0.35","13","0.8","183","32","",""
"","","","decision","63f969ceb2a0b028aa612b33","bdp_rwlrn","Tue Mar 14 2023 21:26:58 GMT-0400 (Eastern Daylight Time)","457381","Untrustworthy,Trustworthy","html-keyboard-response","107","190695","0.0-11.0-1.32","","1927","","<div class='trialDiv'><img src='Fruit/pineapple.png'><br><font class='baseline'><strong>Primo Pineapple</strong><p>Choose number of points to bet.</font><div class='respPicDiv'><img src='img/responseButtonOffersNo0L.png' class='respPic'></div></div>","3","11","Primo Pineapple","Fruit/pineapple.png","Won","0.35,0.8","14","0.35","188","33","",""
"","","","decisionFB","63f969ceb2a0b028aa612b33","bdp_rwlrn","Tue Mar 14 2023 21:26:58 GMT-0400 (Eastern Daylight Time)","457381","Untrustworthy,Trustworthy","html-keyboard-response","108","190951","0.0-11.0-2.32","","null","","<div class='trialDiv'><img src='Fruit/pineapple.png'><br><font class='baseline'><strong>Primo Pineapple</strong><p>Choose number of points to bet.</font><div class='respPicDiv'><img src='img/responseButtonOffersNo0L3.png' class='respPic'></div></div>","null","11","Primo Pineapple","Fruit/pineapple.png","Won","0.35,0.8","14","0.35","185","33","",""
"","","","feedback","63f969ceb2a0b028aa612b33","bdp_rwlrn","Tue Mar 14 2023 21:26:58 GMT-0400 (Eastern Daylight Time)","457381","Untrustworthy,Trustworthy","html-keyboard-response","109","191954","0.0-11.0-3.32","","null","","<div class='respPicDiv'><img src='img/responseButtonOffersNo0_wht.png' class='respPic'></div><div class='trialDiv'><img src='Fruit/pineapple.png'><br><font class='baseline'><strong>Primo Pineapple</strong><p><strong><font class='posOutcome'>You WON</font><p>You bet: 3</strong></font> &nbsp; &nbsp; &nbsp; &nbsp; &nbsp; &nbsp;<font class='posOutcome'>you receive: <strong>6</strong></font></div>","null","11","Primo Pineapple","Fruit/pineapple.png","Won","0.35,0.8","14","0.35","191","33","",""
"","","","decision","63f969ceb2a0b028aa612b33","bdp_rwlrn","Tue Mar 14 2023 21:26:58 GMT-0400 (Eastern Daylight Time)","457381","Untrustworthy,Trustworthy","html-keyboard-response","110","192900","0.0-11.0-1.33","","945","","<div class='trialDiv'><img src='Fruit/melon.png'><br><font class='baseline'><strong>Melon Millions</strong><p>Choose number of points to bet.</font><div class='respPicDiv'><img src='img/responseButtonOffersNo0L.png' class='respPic'></div></div>","3","12","Melon Millions","Fruit/melon.png","Won","0.2,0.8","10","0.2","196","34","",""
"","","","decisionFB","63f969ceb2a0b028aa612b33","bdp_rwlrn","Tue Mar 14 2023 21:26:58 GMT-0400 (Eastern Daylight Time)","457381","Untrustworthy,Trustworthy","html-keyboard-response","111","193154","0.0-11.0-2.33","","null","","<div class='trialDiv'><img src='Fruit/melon.png'><br><font class='baseline'><strong>Melon Millions</strong><p>Choose number of points to bet.</font><div class='respPicDiv'><img src='img/responseButtonOffersNo0L3.png' class='respPic'></div></div>","null","12","Melon Millions","Fruit/melon.png","Won","0.2,0.8","10","0.2","193","34","",""
"","","","feedback","63f969ceb2a0b028aa612b33","bdp_rwlrn","Tue Mar 14 2023 21:26:58 GMT-0400 (Eastern Daylight Time)","457381","Untrustworthy,Trustworthy","html-keyboard-response","112","194159","0.0-11.0-3.33","","null","","<div class='respPicDiv'><img src='img/responseButtonOffersNo0_wht.png' class='respPic'></div><div class='trialDiv'><img src='Fruit/melon.png'><br><font class='baseline'><strong>Melon Millions</strong><p><strong><font class='posOutcome'>You WON</font><p>You bet: 3</strong></font> &nbsp; &nbsp; &nbsp; &nbsp; &nbsp; &nbsp;<font class='posOutcome'>you receive: <strong>6</strong></font></div>","null","12","Melon Millions","Fruit/melon.png","Won","0.2,0.8","10","0.2","199","34","",""
"","","","decision","63f969ceb2a0b028aa612b33","bdp_rwlrn","Tue Mar 14 2023 21:26:58 GMT-0400 (Eastern Daylight Time)","457381","Untrustworthy,Trustworthy","html-keyboard-response","113","194759","0.0-11.0-1.34","","599","","<div class='trialDiv'><img src='Fruit/pears.png'><br><font class='baseline'><strong>Pears Aplenty</strong><p>Choose number of points to bet.</font><div class='respPicDiv'><img src='img/responseButtonOffersNo0L.png' class='respPic'></div></div>","3","12","Pears Aplenty","Fruit/pears.png","Won","0.8,0.35","13","0.8","204","35","",""
"","","","decisionFB","63f969ceb2a0b028aa612b33","bdp_rwlrn","Tue Mar 14 2023 21:26:58 GMT-0400 (Eastern Daylight Time)","457381","Untrustworthy,Trustworthy","html-keyboard-response","114","195014","0.0-11.0-2.34","","null","","<div class='trialDiv'><img src='Fruit/pears.png'><br><font class='baseline'><strong>Pears Aplenty</strong><p>Choose number of points to bet.</font><div class='respPicDiv'><img src='img/responseButtonOffersNo0L3.png' class='respPic'></div></div>","null","12","Pears Aplenty","Fruit/pears.png","Won","0.8,0.35","13","0.8","201","35","",""
"","","","feedback","63f969ceb2a0b028aa612b33","bdp_rwlrn","Tue Mar 14 2023 21:26:58 GMT-0400 (Eastern Daylight Time)","457381","Untrustworthy,Trustworthy","html-keyboard-response","115","196027","0.0-11.0-3.34","","null","","<div class='respPicDiv'><img src='img/responseButtonOffersNo0_wht.png' class='respPic'></div><div class='trialDiv'><img src='Fruit/pears.png'><br><font class='baseline'><strong>Pears Aplenty</strong><p><strong><font class='posOutcome'>You WON</font><p>You bet: 3</strong></font> &nbsp; &nbsp; &nbsp; &nbsp; &nbsp; &nbsp;<font class='posOutcome'>you receive: <strong>6</strong></font></div>","null","12","Pears Aplenty","Fruit/pears.png","Won","0.8,0.35","13","0.8","207","35","",""
"","","","decision","63f969ceb2a0b028aa612b33","bdp_rwlrn","Tue Mar 14 2023 21:26:58 GMT-0400 (Eastern Daylight Time)","457381","Untrustworthy,Trustworthy","html-keyboard-response","116","197345","0.0-11.0-1.35","","1318","","<div class='trialDiv'><img src='Fruit/pineapple.png'><br><font class='baseline'><strong>Primo Pineapple</strong><p>Choose number of points to bet.</font><div class='respPicDiv'><img src='img/responseButtonOffersNo0L.png' class='respPic'></div></div>","1","12","Primo Pineapple","Fruit/pineapple.png","Lost","0.35,0.8","14","0.35","212","36","",""
"","","","decisionFB","63f969ceb2a0b028aa612b33","bdp_rwlrn","Tue Mar 14 2023 21:26:58 GMT-0400 (Eastern Daylight Time)","457381","Untrustworthy,Trustworthy","html-keyboard-response","117","197602","0.0-11.0-2.35","","null","","<div class='trialDiv'><img src='Fruit/pineapple.png'><br><font class='baseline'><strong>Primo Pineapple</strong><p>Choose number of points to bet.</font><div class='respPicDiv'><img src='img/responseButtonOffersNo0L1.png' class='respPic'></div></div>","null","12","Primo Pineapple","Fruit/pineapple.png","Lost","0.35,0.8","14","0.35","211","36","",""
"","","","feedback","63f969ceb2a0b028aa612b33","bdp_rwlrn","Tue Mar 14 2023 21:26:58 GMT-0400 (Eastern Daylight Time)","457381","Untrustworthy,Trustworthy","html-keyboard-response","118","198606","0.0-11.0-3.35","","null","","<div class='respPicDiv'><img src='img/responseButtonOffersNo0_wht.png' class='respPic'></div><div class='trialDiv'><img src='Fruit/pineapple.png'><br><font class='baseline'><strong>Primo Pineapple</strong><p><strong><font class='negOutcome'>You LOST</font><p>You bet: 1</strong></font> &nbsp; &nbsp; &nbsp; &nbsp; &nbsp; &nbsp;<font class='negOutcome'>You receive: <strong>0</strong></font></div>","null","12","Primo Pineapple","Fruit/pineapple.png","Lost","0.35,0.8","14","0.35","211","36","",""
"","","","decision","63f969ceb2a0b028aa612b33","bdp_rwlrn","Tue Mar 14 2023 21:26:58 GMT-0400 (Eastern Daylight Time)","457381","Untrustworthy,Trustworthy","html-keyboard-response","119","200209","0.0-11.0-1.36","","1602","","<div class='trialDiv'><img src='Fruit/pears.png'><br><font class='baseline'><strong>Pears Aplenty</strong><p>Choose number of points to bet.</font><div class='respPicDiv'><img src='img/responseButtonOffersNo0L.png' class='respPic'></div></div>","2","13","Pears Aplenty","Fruit/pears.png","Won","0.8,0.35","13","0.8","216","37","",""
"","","","decisionFB","63f969ceb2a0b028aa612b33","bdp_rwlrn","Tue Mar 14 2023 21:26:58 GMT-0400 (Eastern Daylight Time)","457381","Untrustworthy,Trustworthy","html-keyboard-response","120","200466","0.0-11.0-2.36","","null","","<div class='trialDiv'><img src='Fruit/pears.png'><br><font class='baseline'><strong>Pears Aplenty</strong><p>Choose number of points to bet.</font><div class='respPicDiv'><img src='img/responseButtonOffersNo0L2.png' class='respPic'></div></div>","null","13","Pears Aplenty","Fruit/pears.png","Won","0.8,0.35","13","0.8","214","37","",""
"","","","feedback","63f969ceb2a0b028aa612b33","bdp_rwlrn","Tue Mar 14 2023 21:26:58 GMT-0400 (Eastern Daylight Time)","457381","Untrustworthy,Trustworthy","html-keyboard-response","121","201473","0.0-11.0-3.36","","null","","<div class='respPicDiv'><img src='img/responseButtonOffersNo0_wht.png' class='respPic'></div><div class='trialDiv'><img src='Fruit/pears.png'><br><font class='baseline'><strong>Pears Aplenty</strong><p><strong><font class='posOutcome'>You WON</font><p>You bet: 2</strong></font> &nbsp; &nbsp; &nbsp; &nbsp; &nbsp; &nbsp;<font class='posOutcome'>you receive: <strong>4</strong></font></div>","null","13","Pears Aplenty","Fruit/pears.png","Won","0.8,0.35","13","0.8","218","37","",""
"","","","decision","63f969ceb2a0b028aa612b33","bdp_rwlrn","Tue Mar 14 2023 21:26:58 GMT-0400 (Eastern Daylight Time)","457381","Untrustworthy,Trustworthy","html-keyboard-response","122","202429","0.0-11.0-1.37","","954","","<div class='trialDiv'><img src='Fruit/pineapple.png'><br><font class='baseline'><strong>Primo Pineapple</strong><p>Choose number of points to bet.</font><div class='respPicDiv'><img src='img/responseButtonOffersNo0L.png' class='respPic'></div></div>","2","13","Primo Pineapple","Fruit/pineapple.png","Won","0.35,0.8","14","0.35","223","38","",""
"","","","decisionFB","63f969ceb2a0b028aa612b33","bdp_rwlrn","Tue Mar 14 2023 21:26:58 GMT-0400 (Eastern Daylight Time)","457381","Untrustworthy,Trustworthy","html-keyboard-response","123","202682","0.0-11.0-2.37","","null","","<div class='trialDiv'><img src='Fruit/pineapple.png'><br><font class='baseline'><strong>Primo Pineapple</strong><p>Choose number of points to bet.</font><div class='respPicDiv'><img src='img/responseButtonOffersNo0L2.png' class='respPic'></div></div>","null","13","Primo Pineapple","Fruit/pineapple.png","Won","0.35,0.8","14","0.35","221","38","",""
"","","","feedback","63f969ceb2a0b028aa612b33","bdp_rwlrn","Tue Mar 14 2023 21:26:58 GMT-0400 (Eastern Daylight Time)","457381","Untrustworthy,Trustworthy","html-keyboard-response","124","203686","0.0-11.0-3.37","","null","","<div class='respPicDiv'><img src='img/responseButtonOffersNo0_wht.png' class='respPic'></div><div class='trialDiv'><img src='Fruit/pineapple.png'><br><font class='baseline'><strong>Primo Pineapple</strong><p><strong><font class='posOutcome'>You WON</font><p>You bet: 2</strong></font> &nbsp; &nbsp; &nbsp; &nbsp; &nbsp; &nbsp;<font class='posOutcome'>you receive: <strong>4</strong></font></div>","null","13","Primo Pineapple","Fruit/pineapple.png","Won","0.35,0.8","14","0.35","225","38","",""
"","","","decision","63f969ceb2a0b028aa612b33","bdp_rwlrn","Tue Mar 14 2023 21:26:58 GMT-0400 (Eastern Daylight Time)","457381","Untrustworthy,Trustworthy","html-keyboard-response","125","204482","0.0-11.0-1.38","","795","","<div class='trialDiv'><img src='Fruit/melon.png'><br><font class='baseline'><strong>Melon Millions</strong><p>Choose number of points to bet.</font><div class='respPicDiv'><img src='img/responseButtonOffersNo0L.png' class='respPic'></div></div>","2","13","Melon Millions","Fruit/melon.png","Won","0.2,0.8","10","0.2","230","39","",""
"","","","decisionFB","63f969ceb2a0b028aa612b33","bdp_rwlrn","Tue Mar 14 2023 21:26:58 GMT-0400 (Eastern Daylight Time)","457381","Untrustworthy,Trustworthy","html-keyboard-response","126","204748","0.0-11.0-2.38","","null","","<div class='trialDiv'><img src='Fruit/melon.png'><br><font class='baseline'><strong>Melon Millions</strong><p>Choose number of points to bet.</font><div class='respPicDiv'><img src='img/responseButtonOffersNo0L2.png' class='respPic'></div></div>","null","13","Melon Millions","Fruit/melon.png","Won","0.2,0.8","10","0.2","228","39","",""
"","","","feedback","63f969ceb2a0b028aa612b33","bdp_rwlrn","Tue Mar 14 2023 21:26:58 GMT-0400 (Eastern Daylight Time)","457381","Untrustworthy,Trustworthy","html-keyboard-response","127","205757","0.0-11.0-3.38","","null","","<div class='respPicDiv'><img src='img/responseButtonOffersNo0_wht.png' class='respPic'></div><div class='trialDiv'><img src='Fruit/melon.png'><br><font class='baseline'><strong>Melon Millions</strong><p><strong><font class='posOutcome'>You WON</font><p>You bet: 2</strong></font> &nbsp; &nbsp; &nbsp; &nbsp; &nbsp; &nbsp;<font class='posOutcome'>you receive: <strong>4</strong></font></div>","null","13","Melon Millions","Fruit/melon.png","Won","0.2,0.8","10","0.2","232","39","",""
"","","","decision","63f969ceb2a0b028aa612b33","bdp_rwlrn","Tue Mar 14 2023 21:26:58 GMT-0400 (Eastern Daylight Time)","457381","Untrustworthy,Trustworthy","html-keyboard-response","128","207638","0.0-11.0-1.39","","1881","","<div class='trialDiv'><img src='Fruit/pears.png'><br><font class='baseline'><strong>Pears Aplenty</strong><p>Choose number of points to bet.</font><div class='respPicDiv'><img src='img/responseButtonOffersNo0L.png' class='respPic'></div></div>","5","14","Pears Aplenty","Fruit/pears.png","Lost","0.8,0.35","13","0.8","237","40","",""
"","","","decisionFB","63f969ceb2a0b028aa612b33","bdp_rwlrn","Tue Mar 14 2023 21:26:58 GMT-0400 (Eastern Daylight Time)","457381","Untrustworthy,Trustworthy","html-keyboard-response","129","207897","0.0-11.0-2.39","","null","","<div class='trialDiv'><img src='Fruit/pears.png'><br><font class='baseline'><strong>Pears Aplenty</strong><p>Choose number of points to bet.</font><div class='respPicDiv'><img src='img/responseButtonOffersNo0L5.png' class='respPic'></div></div>","null","14","Pears Aplenty","Fruit/pears.png","Lost","0.8,0.35","13","0.8","232","40","",""
"","","","feedback","63f969ceb2a0b028aa612b33","bdp_rwlrn","Tue Mar 14 2023 21:26:58 GMT-0400 (Eastern Daylight Time)","457381","Untrustworthy,Trustworthy","html-keyboard-response","130","208909","0.0-11.0-3.39","","null","","<div class='respPicDiv'><img src='img/responseButtonOffersNo0_wht.png' class='respPic'></div><div class='trialDiv'><img src='Fruit/pears.png'><br><font class='baseline'><strong>Pears Aplenty</strong><p><strong><font class='negOutcome'>You LOST</font><p>You bet: 5</strong></font> &nbsp; &nbsp; &nbsp; &nbsp; &nbsp; &nbsp;<font class='negOutcome'>You receive: <strong>0</strong></font></div>","null","14","Pears Aplenty","Fruit/pears.png","Lost","0.8,0.35","13","0.8","232","40","",""
"","","","decision","63f969ceb2a0b028aa612b33","bdp_rwlrn","Tue Mar 14 2023 21:26:58 GMT-0400 (Eastern Daylight Time)","457381","Untrustworthy,Trustworthy","html-keyboard-response","131","209767","0.0-11.0-1.40","","856","","<div class='trialDiv'><img src='Fruit/pineapple.png'><br><font class='baseline'><strong>Primo Pineapple</strong><p>Choose number of points to bet.</font><div class='respPicDiv'><img src='img/responseButtonOffersNo0L.png' class='respPic'></div></div>","5","14","Primo Pineapple","Fruit/pineapple.png","Won","0.35,0.8","14","0.35","237","41","",""
"","","","decisionFB","63f969ceb2a0b028aa612b33","bdp_rwlrn","Tue Mar 14 2023 21:26:58 GMT-0400 (Eastern Daylight Time)","457381","Untrustworthy,Trustworthy","html-keyboard-response","132","210028","0.0-11.0-2.40","","null","","<div class='trialDiv'><img src='Fruit/pineapple.png'><br><font class='baseline'><strong>Primo Pineapple</strong><p>Choose number of points to bet.</font><div class='respPicDiv'><img src='img/responseButtonOffersNo0L5.png' class='respPic'></div></div>","null","14","Primo Pineapple","Fruit/pineapple.png","Won","0.35,0.8","14","0.35","232","41","",""
"","","","feedback","63f969ceb2a0b028aa612b33","bdp_rwlrn","Tue Mar 14 2023 21:26:58 GMT-0400 (Eastern Daylight Time)","457381","Untrustworthy,Trustworthy","html-keyboard-response","133","211042","0.0-11.0-3.40","","null","","<div class='respPicDiv'><img src='img/responseButtonOffersNo0_wht.png' class='respPic'></div><div class='trialDiv'><img src='Fruit/pineapple.png'><br><font class='baseline'><strong>Primo Pineapple</strong><p><strong><font class='posOutcome'>You WON</font><p>You bet: 5</strong></font> &nbsp; &nbsp; &nbsp; &nbsp; &nbsp; &nbsp;<font class='posOutcome'>you receive: <strong>10</strong></font></div>","null","14","Primo Pineapple","Fruit/pineapple.png","Won","0.35,0.8","14","0.35","242","41","",""
"","","","decision","63f969ceb2a0b028aa612b33","bdp_rwlrn","Tue Mar 14 2023 21:26:58 GMT-0400 (Eastern Daylight Time)","457381","Untrustworthy,Trustworthy","html-keyboard-response","134","212364","0.0-11.0-1.41","","1321","","<div class='trialDiv'><img src='Fruit/melon.png'><br><font class='baseline'><strong>Melon Millions</strong><p>Choose number of points to bet.</font><div class='respPicDiv'><img src='img/responseButtonOffersNo0L.png' class='respPic'></div></div>","5","14","Melon Millions","Fruit/melon.png","Won","0.2,0.8","10","0.2","247","42","",""
"","","","decisionFB","63f969ceb2a0b028aa612b33","bdp_rwlrn","Tue Mar 14 2023 21:26:58 GMT-0400 (Eastern Daylight Time)","457381","Untrustworthy,Trustworthy","html-keyboard-response","135","212619","0.0-11.0-2.41","","null","","<div class='trialDiv'><img src='Fruit/melon.png'><br><font class='baseline'><strong>Melon Millions</strong><p>Choose number of points to bet.</font><div class='respPicDiv'><img src='img/responseButtonOffersNo0L5.png' class='respPic'></div></div>","null","14","Melon Millions","Fruit/melon.png","Won","0.2,0.8","10","0.2","242","42","",""
"","","","feedback","63f969ceb2a0b028aa612b33","bdp_rwlrn","Tue Mar 14 2023 21:26:58 GMT-0400 (Eastern Daylight Time)","457381","Untrustworthy,Trustworthy","html-keyboard-response","136","213634","0.0-11.0-3.41","","null","","<div class='respPicDiv'><img src='img/responseButtonOffersNo0_wht.png' class='respPic'></div><div class='trialDiv'><img src='Fruit/melon.png'><br><font class='baseline'><strong>Melon Millions</strong><p><strong><font class='posOutcome'>You WON</font><p>You bet: 5</strong></font> &nbsp; &nbsp; &nbsp; &nbsp; &nbsp; &nbsp;<font class='posOutcome'>you receive: <strong>10</strong></font></div>","null","14","Melon Millions","Fruit/melon.png","Won","0.2,0.8","10","0.2","252","42","",""
"","","","decision","63f969ceb2a0b028aa612b33","bdp_rwlrn","Tue Mar 14 2023 21:26:58 GMT-0400 (Eastern Daylight Time)","457381","Untrustworthy,Trustworthy","html-keyboard-response","137","214640","0.0-11.0-1.42","","1005","","<div class='trialDiv'><img src='Fruit/pears.png'><br><font class='baseline'><strong>Pears Aplenty</strong><p>Choose number of points to bet.</font><div class='respPicDiv'><img src='img/responseButtonOffersNo0L.png' class='respPic'></div></div>","4","15","Pears Aplenty","Fruit/pears.png","Lost","0.8,0.35","13","0.8","257","43","",""
"","","","decisionFB","63f969ceb2a0b028aa612b33","bdp_rwlrn","Tue Mar 14 2023 21:26:58 GMT-0400 (Eastern Daylight Time)","457381","Untrustworthy,Trustworthy","html-keyboard-response","138","214904","0.0-11.0-2.42","","null","","<div class='trialDiv'><img src='Fruit/pears.png'><br><font class='baseline'><strong>Pears Aplenty</strong><p>Choose number of points to bet.</font><div class='respPicDiv'><img src='img/responseButtonOffersNo0L4.png' class='respPic'></div></div>","null","15","Pears Aplenty","Fruit/pears.png","Lost","0.8,0.35","13","0.8","253","43","",""
"","","","feedback","63f969ceb2a0b028aa612b33","bdp_rwlrn","Tue Mar 14 2023 21:26:58 GMT-0400 (Eastern Daylight Time)","457381","Untrustworthy,Trustworthy","html-keyboard-response","139","215918","0.0-11.0-3.42","","null","","<div class='respPicDiv'><img src='img/responseButtonOffersNo0_wht.png' class='respPic'></div><div class='trialDiv'><img src='Fruit/pears.png'><br><font class='baseline'><strong>Pears Aplenty</strong><p><strong><font class='negOutcome'>You LOST</font><p>You bet: 4</strong></font> &nbsp; &nbsp; &nbsp; &nbsp; &nbsp; &nbsp;<font class='negOutcome'>You receive: <strong>0</strong></font></div>","null","15","Pears Aplenty","Fruit/pears.png","Lost","0.8,0.35","13","0.8","253","43","",""
"","","","decision","63f969ceb2a0b028aa612b33","bdp_rwlrn","Tue Mar 14 2023 21:26:58 GMT-0400 (Eastern Daylight Time)","457381","Untrustworthy,Trustworthy","html-keyboard-response","140","216625","0.0-11.0-1.43","","706","","<div class='trialDiv'><img src='Fruit/melon.png'><br><font class='baseline'><strong>Melon Millions</strong><p>Choose number of points to bet.</font><div class='respPicDiv'><img src='img/responseButtonOffersNo0L.png' class='respPic'></div></div>","5","15","Melon Millions","Fruit/melon.png","Won","0.2,0.8","10","0.2","258","44","",""
"","","","decisionFB","63f969ceb2a0b028aa612b33","bdp_rwlrn","Tue Mar 14 2023 21:26:58 GMT-0400 (Eastern Daylight Time)","457381","Untrustworthy,Trustworthy","html-keyboard-response","141","216886","0.0-11.0-2.43","","null","","<div class='trialDiv'><img src='Fruit/melon.png'><br><font class='baseline'><strong>Melon Millions</strong><p>Choose number of points to bet.</font><div class='respPicDiv'><img src='img/responseButtonOffersNo0L5.png' class='respPic'></div></div>","null","15","Melon Millions","Fruit/melon.png","Won","0.2,0.8","10","0.2","253","44","",""
"","","","feedback","63f969ceb2a0b028aa612b33","bdp_rwlrn","Tue Mar 14 2023 21:26:58 GMT-0400 (Eastern Daylight Time)","457381","Untrustworthy,Trustworthy","html-keyboard-response","142","217896","0.0-11.0-3.43","","null","","<div class='respPicDiv'><img src='img/responseButtonOffersNo0_wht.png' class='respPic'></div><div class='trialDiv'><img src='Fruit/melon.png'><br><font class='baseline'><strong>Melon Millions</strong><p><strong><font class='posOutcome'>You WON</font><p>You bet: 5</strong></font> &nbsp; &nbsp; &nbsp; &nbsp; &nbsp; &nbsp;<font class='posOutcome'>you receive: <strong>10</strong></font></div>","null","15","Melon Millions","Fruit/melon.png","Won","0.2,0.8","10","0.2","263","44","",""
"","","","decision","63f969ceb2a0b028aa612b33","bdp_rwlrn","Tue Mar 14 2023 21:26:58 GMT-0400 (Eastern Daylight Time)","457381","Untrustworthy,Trustworthy","html-keyboard-response","143","218982","0.0-11.0-1.44","","1085","","<div class='trialDiv'><img src='Fruit/pineapple.png'><br><font class='baseline'><strong>Primo Pineapple</strong><p>Choose number of points to bet.</font><div class='respPicDiv'><img src='img/responseButtonOffersNo0L.png' class='respPic'></div></div>","1","15","Primo Pineapple","Fruit/pineapple.png","Lost","0.35,0.8","14","0.35","268","45","",""
"","","","decisionFB","63f969ceb2a0b028aa612b33","bdp_rwlrn","Tue Mar 14 2023 21:26:58 GMT-0400 (Eastern Daylight Time)","457381","Untrustworthy,Trustworthy","html-keyboard-response","144","219240","0.0-11.0-2.44","","null","","<div class='trialDiv'><img src='Fruit/pineapple.png'><br><font class='baseline'><strong>Primo Pineapple</strong><p>Choose number of points to bet.</font><div class='respPicDiv'><img src='img/responseButtonOffersNo0L1.png' class='respPic'></div></div>","null","15","Primo Pineapple","Fruit/pineapple.png","Lost","0.35,0.8","14","0.35","267","45","",""
"","","","feedback","63f969ceb2a0b028aa612b33","bdp_rwlrn","Tue Mar 14 2023 21:26:58 GMT-0400 (Eastern Daylight Time)","457381","Untrustworthy,Trustworthy","html-keyboard-response","145","220251","0.0-11.0-3.44","","null","","<div class='respPicDiv'><img src='img/responseButtonOffersNo0_wht.png' class='respPic'></div><div class='trialDiv'><img src='Fruit/pineapple.png'><br><font class='baseline'><strong>Primo Pineapple</strong><p><strong><font class='negOutcome'>You LOST</font><p>You bet: 1</strong></font> &nbsp; &nbsp; &nbsp; &nbsp; &nbsp; &nbsp;<font class='negOutcome'>You receive: <strong>0</strong></font></div>","null","15","Primo Pineapple","Fruit/pineapple.png","Lost","0.35,0.8","14","0.35","267","45","",""
"","","","decision","63f969ceb2a0b028aa612b33","bdp_rwlrn","Tue Mar 14 2023 21:26:58 GMT-0400 (Eastern Daylight Time)","457381","Untrustworthy,Trustworthy","html-keyboard-response","146","221046","0.0-11.0-1.45","","793","","<div class='trialDiv'><img src='Fruit/pears.png'><br><font class='baseline'><strong>Pears Aplenty</strong><p>Choose number of points to bet.</font><div class='respPicDiv'><img src='img/responseButtonOffersNo0L.png' class='respPic'></div></div>","1","16","Pears Aplenty","Fruit/pears.png","Lost","0.8,0.35","13","0.8","272","46","",""
"","","","decisionFB","63f969ceb2a0b028aa612b33","bdp_rwlrn","Tue Mar 14 2023 21:26:58 GMT-0400 (Eastern Daylight Time)","457381","Untrustworthy,Trustworthy","html-keyboard-response","147","221308","0.0-11.0-2.45","","null","","<div class='trialDiv'><img src='Fruit/pears.png'><br><font class='baseline'><strong>Pears Aplenty</strong><p>Choose number of points to bet.</font><div class='respPicDiv'><img src='img/responseButtonOffersNo0L1.png' class='respPic'></div></div>","null","16","Pears Aplenty","Fruit/pears.png","Lost","0.8,0.35","13","0.8","271","46","",""
"","","","feedback","63f969ceb2a0b028aa612b33","bdp_rwlrn","Tue Mar 14 2023 21:26:58 GMT-0400 (Eastern Daylight Time)","457381","Untrustworthy,Trustworthy","html-keyboard-response","148","222321","0.0-11.0-3.45","","null","","<div class='respPicDiv'><img src='img/responseButtonOffersNo0_wht.png' class='respPic'></div><div class='trialDiv'><img src='Fruit/pears.png'><br><font class='baseline'><strong>Pears Aplenty</strong><p><strong><font class='negOutcome'>You LOST</font><p>You bet: 1</strong></font> &nbsp; &nbsp; &nbsp; &nbsp; &nbsp; &nbsp;<font class='negOutcome'>You receive: <strong>0</strong></font></div>","null","16","Pears Aplenty","Fruit/pears.png","Lost","0.8,0.35","13","0.8","271","46","",""
"","","","decision","63f969ceb2a0b028aa612b33","bdp_rwlrn","Tue Mar 14 2023 21:26:58 GMT-0400 (Eastern Daylight Time)","457381","Untrustworthy,Trustworthy","html-keyboard-response","149","222828","0.0-11.0-1.46","","506","","<div class='trialDiv'><img src='Fruit/pineapple.png'><br><font class='baseline'><strong>Primo Pineapple</strong><p>Choose number of points to bet.</font><div class='respPicDiv'><img src='img/responseButtonOffersNo0L.png' class='respPic'></div></div>","1","16","Primo Pineapple","Fruit/pineapple.png","Lost","0.35,0.8","14","0.35","276","47","",""
"","","","decisionFB","63f969ceb2a0b028aa612b33","bdp_rwlrn","Tue Mar 14 2023 21:26:58 GMT-0400 (Eastern Daylight Time)","457381","Untrustworthy,Trustworthy","html-keyboard-response","150","223092","0.0-11.0-2.46","","null","","<div class='trialDiv'><img src='Fruit/pineapple.png'><br><font class='baseline'><strong>Primo Pineapple</strong><p>Choose number of points to bet.</font><div class='respPicDiv'><img src='img/responseButtonOffersNo0L1.png' class='respPic'></div></div>","null","16","Primo Pineapple","Fruit/pineapple.png","Lost","0.35,0.8","14","0.35","275","47","",""
"","","","feedback","63f969ceb2a0b028aa612b33","bdp_rwlrn","Tue Mar 14 2023 21:26:58 GMT-0400 (Eastern Daylight Time)","457381","Untrustworthy,Trustworthy","html-keyboard-response","151","224106","0.0-11.0-3.46","","null","","<div class='respPicDiv'><img src='img/responseButtonOffersNo0_wht.png' class='respPic'></div><div class='trialDiv'><img src='Fruit/pineapple.png'><br><font class='baseline'><strong>Primo Pineapple</strong><p><strong><font class='negOutcome'>You LOST</font><p>You bet: 1</strong></font> &nbsp; &nbsp; &nbsp; &nbsp; &nbsp; &nbsp;<font class='negOutcome'>You receive: <strong>0</strong></font></div>","null","16","Primo Pineapple","Fruit/pineapple.png","Lost","0.35,0.8","14","0.35","275","47","",""
"","","","decision","63f969ceb2a0b028aa612b33","bdp_rwlrn","Tue Mar 14 2023 21:26:58 GMT-0400 (Eastern Daylight Time)","457381","Untrustworthy,Trustworthy","html-keyboard-response","152","225321","0.0-11.0-1.47","","1213","","<div class='trialDiv'><img src='Fruit/melon.png'><br><font class='baseline'><strong>Melon Millions</strong><p>Choose number of points to bet.</font><div class='respPicDiv'><img src='img/responseButtonOffersNo0L.png' class='respPic'></div></div>","3","16","Melon Millions","Fruit/melon.png","Lost","0.2,0.8","10","0.2","280","48","",""
"","","","decisionFB","63f969ceb2a0b028aa612b33","bdp_rwlrn","Tue Mar 14 2023 21:26:58 GMT-0400 (Eastern Daylight Time)","457381","Untrustworthy,Trustworthy","html-keyboard-response","153","225586","0.0-11.0-2.47","","null","","<div class='trialDiv'><img src='Fruit/melon.png'><br><font class='baseline'><strong>Melon Millions</strong><p>Choose number of points to bet.</font><div class='respPicDiv'><img src='img/responseButtonOffersNo0L3.png' class='respPic'></div></div>","null","16","Melon Millions","Fruit/melon.png","Lost","0.2,0.8","10","0.2","277","48","",""
"","","","feedback","63f969ceb2a0b028aa612b33","bdp_rwlrn","Tue Mar 14 2023 21:26:58 GMT-0400 (Eastern Daylight Time)","457381","Untrustworthy,Trustworthy","html-keyboard-response","154","226588","0.0-11.0-3.47","","null","","<div class='respPicDiv'><img src='img/responseButtonOffersNo0_wht.png' class='respPic'></div><div class='trialDiv'><img src='Fruit/melon.png'><br><font class='baseline'><strong>Melon Millions</strong><p><strong><font class='negOutcome'>You LOST</font><p>You bet: 3</strong></font> &nbsp; &nbsp; &nbsp; &nbsp; &nbsp; &nbsp;<font class='negOutcome'>You receive: <strong>0</strong></font></div>","null","16","Melon Millions","Fruit/melon.png","Lost","0.2,0.8","10","0.2","277","48","",""
"","","","decision","63f969ceb2a0b028aa612b33","bdp_rwlrn","Tue Mar 14 2023 21:26:58 GMT-0400 (Eastern Daylight Time)","457381","Untrustworthy,Trustworthy","html-keyboard-response","155","227115","0.0-11.0-1.48","","526","","<div class='trialDiv'><img src='Fruit/pineapple.png'><br><font class='baseline'><strong>Primo Pineapple</strong><p>Choose number of points to bet.</font><div class='respPicDiv'><img src='img/responseButtonOffersNo0L.png' class='respPic'></div></div>","3","17","Primo Pineapple","Fruit/pineapple.png","Won","0.35,0.8","14","0.35","282","49","",""
"","","","decisionFB","63f969ceb2a0b028aa612b33","bdp_rwlrn","Tue Mar 14 2023 21:26:58 GMT-0400 (Eastern Daylight Time)","457381","Untrustworthy,Trustworthy","html-keyboard-response","156","227375","0.0-11.0-2.48","","null","","<div class='trialDiv'><img src='Fruit/pineapple.png'><br><font class='baseline'><strong>Primo Pineapple</strong><p>Choose number of points to bet.</font><div class='respPicDiv'><img src='img/responseButtonOffersNo0L3.png' class='respPic'></div></div>","null","17","Primo Pineapple","Fruit/pineapple.png","Won","0.35,0.8","14","0.35","279","49","",""
"","","","feedback","63f969ceb2a0b028aa612b33","bdp_rwlrn","Tue Mar 14 2023 21:26:58 GMT-0400 (Eastern Daylight Time)","457381","Untrustworthy,Trustworthy","html-keyboard-response","157","228379","0.0-11.0-3.48","","null","","<div class='respPicDiv'><img src='img/responseButtonOffersNo0_wht.png' class='respPic'></div><div class='trialDiv'><img src='Fruit/pineapple.png'><br><font class='baseline'><strong>Primo Pineapple</strong><p><strong><font class='posOutcome'>You WON</font><p>You bet: 3</strong></font> &nbsp; &nbsp; &nbsp; &nbsp; &nbsp; &nbsp;<font class='posOutcome'>you receive: <strong>6</strong></font></div>","null","17","Primo Pineapple","Fruit/pineapple.png","Won","0.35,0.8","14","0.35","285","49","",""
"","","","decision","63f969ceb2a0b028aa612b33","bdp_rwlrn","Tue Mar 14 2023 21:26:58 GMT-0400 (Eastern Daylight Time)","457381","Untrustworthy,Trustworthy","html-keyboard-response","158","228899","0.0-11.0-1.49","","518","","<div class='trialDiv'><img src='Fruit/melon.png'><br><font class='baseline'><strong>Melon Millions</strong><p>Choose number of points to bet.</font><div class='respPicDiv'><img src='img/responseButtonOffersNo0L.png' class='respPic'></div></div>","3","17","Melon Millions","Fruit/melon.png","Won","0.2,0.8","10","0.2","290","50","",""
"","","","decisionFB","63f969ceb2a0b028aa612b33","bdp_rwlrn","Tue Mar 14 2023 21:26:58 GMT-0400 (Eastern Daylight Time)","457381","Untrustworthy,Trustworthy","html-keyboard-response","159","229159","0.0-11.0-2.49","","null","","<div class='trialDiv'><img src='Fruit/melon.png'><br><font class='baseline'><strong>Melon Millions</strong><p>Choose number of points to bet.</font><div class='respPicDiv'><img src='img/responseButtonOffersNo0L3.png' class='respPic'></div></div>","null","17","Melon Millions","Fruit/melon.png","Won","0.2,0.8","10","0.2","287","50","",""
"","","","feedback","63f969ceb2a0b028aa612b33","bdp_rwlrn","Tue Mar 14 2023 21:26:58 GMT-0400 (Eastern Daylight Time)","457381","Untrustworthy,Trustworthy","html-keyboard-response","160","230169","0.0-11.0-3.49","","null","","<div class='respPicDiv'><img src='img/responseButtonOffersNo0_wht.png' class='respPic'></div><div class='trialDiv'><img src='Fruit/melon.png'><br><font class='baseline'><strong>Melon Millions</strong><p><strong><font class='posOutcome'>You WON</font><p>You bet: 3</strong></font> &nbsp; &nbsp; &nbsp; &nbsp; &nbsp; &nbsp;<font class='posOutcome'>you receive: <strong>6</strong></font></div>","null","17","Melon Millions","Fruit/melon.png","Won","0.2,0.8","10","0.2","293","50","",""
"","","","decision","63f969ceb2a0b028aa612b33","bdp_rwlrn","Tue Mar 14 2023 21:26:58 GMT-0400 (Eastern Daylight Time)","457381","Untrustworthy,Trustworthy","html-keyboard-response","161","230673","0.0-11.0-1.50","","504","","<div class='trialDiv'><img src='Fruit/pears.png'><br><font class='baseline'><strong>Pears Aplenty</strong><p>Choose number of points to bet.</font><div class='respPicDiv'><img src='img/responseButtonOffersNo0L.png' class='respPic'></div></div>","3","17","Pears Aplenty","Fruit/pears.png","Lost","0.8,0.35","13","0.8","298","51","",""
"","","","decisionFB","63f969ceb2a0b028aa612b33","bdp_rwlrn","Tue Mar 14 2023 21:26:58 GMT-0400 (Eastern Daylight Time)","457381","Untrustworthy,Trustworthy","html-keyboard-response","162","230944","0.0-11.0-2.50","","null","","<div class='trialDiv'><img src='Fruit/pears.png'><br><font class='baseline'><strong>Pears Aplenty</strong><p>Choose number of points to bet.</font><div class='respPicDiv'><img src='img/responseButtonOffersNo0L3.png' class='respPic'></div></div>","null","17","Pears Aplenty","Fruit/pears.png","Lost","0.8,0.35","13","0.8","295","51","",""
