"trial_type","trial_index","time_elapsed","internal_node_id","subject_id","task","startTime","totalTime","labels","view_history","rt","event","trial","time","trialtype","numBlurs","success","stimulus","key_press","ltround","name","fileID","outcome","lottotype","lottoswpt","lottocurrpshare","point_total","round","faceID","face"
"pavlovia","0","10","0.0-0.0","6362aca86b740b1ec4cb6efb","bdp_rwlrn","Fri Mar 10 2023 14:39:12 GMT-0500 (Eastern Standard Time)","635299","Untrustworthy,Trustworthy","","","","","","","","","","","","","","","","","","","","",""
"instructions","1","2636","0.0-1.0","6362aca86b740b1ec4cb6efb","bdp_rwlrn","Fri Mar 10 2023 14:39:12 GMT-0500 (Eastern Standard Time)","635299","Untrustworthy,Trustworthy","[{""page_index"":0,""viewing_time"":2625}]","2625","","","","","","","","","","","","","","","","","","",""
"","","","","6362aca86b740b1ec4cb6efb","bdp_rwlrn","Fri Mar 10 2023 14:39:12 GMT-0500 (Eastern Standard Time)","635299","Untrustworthy,Trustworthy","","","blur","2","4489","blurevent","1","","","","","","","","","","","","","",""
"","","","","6362aca86b740b1ec4cb6efb","bdp_rwlrn","Fri Mar 10 2023 14:39:12 GMT-0500 (Eastern Standard Time)","635299","Untrustworthy,Trustworthy","","","focus","2","4495","focusevent","","","","","","","","","","","","","","",""
"","","","","6362aca86b740b1ec4cb6efb","bdp_rwlrn","Fri Mar 10 2023 14:39:12 GMT-0500 (Eastern Standard Time)","635299","Untrustworthy,Trustworthy","","","blur","2","4497","blurevent","","","","","","","","","","","","","","",""
"","","","","6362aca86b740b1ec4cb6efb","bdp_rwlrn","Fri Mar 10 2023 14:39:12 GMT-0500 (Eastern Standard Time)","635299","Untrustworthy,Trustworthy","","","fullscreenenter","2","4503","fullscreenenter","","","","","","","","","","","","","","",""
"","","","","6362aca86b740b1ec4cb6efb","bdp_rwlrn","Fri Mar 10 2023 14:39:12 GMT-0500 (Eastern Standard Time)","635299","Untrustworthy,Trustworthy","","","focus","2","4750","focusevent","","","","","","","","","","","","","","",""
"fullscreen","2","5452","0.0-2.0","6362aca86b740b1ec4cb6efb","bdp_rwlrn","Fri Mar 10 2023 14:39:12 GMT-0500 (Eastern Standard Time)","635299","Untrustworthy,Trustworthy","","","","","","","","true","","","","","","","","","","","","",""
"","","","","6362aca86b740b1ec4cb6efb","bdp_rwlrn","Fri Mar 10 2023 14:39:12 GMT-0500 (Eastern Standard Time)","635299","Untrustworthy,Trustworthy","","","fullscreenexit","3","7245","fullscreenexit","","","","","","","","","","","","","","",""
"instructions","3","26763","0.0-4.0","6362aca86b740b1ec4cb6efb","bdp_rwlrn","Fri Mar 10 2023 14:39:12 GMT-0500 (Eastern Standard Time)","635299","Untrustworthy,Trustworthy","[{""page_index"":0,""viewing_time"":7847},{""page_index"":1,""viewing_time"":4699},{""page_index"":2,""viewing_time"":1080},{""page_index"":3,""viewing_time"":1103},{""page_index"":4,""viewing_time"":3599},{""page_index"":5,""viewing_time"":2974}]","21303","","","","","","","","","","","","","","","","","","",""
"","","","","6362aca86b740b1ec4cb6efb","bdp_rwlrn","Fri Mar 10 2023 14:39:12 GMT-0500 (Eastern Standard Time)","635299","Untrustworthy,Trustworthy","","","blur","4","34147","blurevent","2","","","","","","","","","","","","","",""
"","","","","6362aca86b740b1ec4cb6efb","bdp_rwlrn","Fri Mar 10 2023 14:39:12 GMT-0500 (Eastern Standard Time)","635299","Untrustworthy,Trustworthy","","","focus","4","70564","focusevent","","","","","","","","","","","","","","",""
"","","","","6362aca86b740b1ec4cb6efb","bdp_rwlrn","Fri Mar 10 2023 14:39:12 GMT-0500 (Eastern Standard Time)","635299","Untrustworthy,Trustworthy","","","focus","4","70598","focusevent","","","","","","","","","","","","","","",""
"","","","","6362aca86b740b1ec4cb6efb","bdp_rwlrn","Fri Mar 10 2023 14:39:12 GMT-0500 (Eastern Standard Time)","635299","Untrustworthy,Trustworthy","","","blur","4","77109","blurevent","","","","","","","","","","","","","","",""
"","","","","6362aca86b740b1ec4cb6efb","bdp_rwlrn","Fri Mar 10 2023 14:39:12 GMT-0500 (Eastern Standard Time)","635299","Untrustworthy,Trustworthy","","","focus","4","84565","focusevent","","","","","","","","","","","","","","",""
"","","","","6362aca86b740b1ec4cb6efb","bdp_rwlrn","Fri Mar 10 2023 14:39:12 GMT-0500 (Eastern Standard Time)","635299","Untrustworthy,Trustworthy","","","focus","4","84571","focusevent","","","","","","","","","","","","","","",""
"html-keyboard-response","4","91703","0.0-5.0","6362aca86b740b1ec4cb6efb","bdp_rwlrn","Fri Mar 10 2023 14:39:12 GMT-0500 (Eastern Standard Time)","635299","Untrustworthy,Trustworthy","","64918","","","","","","","<div class='header' style='text-align:left; position: absolute; top: 5%; left: 5%;'><small>Task 3 of 5</small></div><div class='instruxDiv'><p><strong>1) What is the maximum number of points you can choose to bet on a lottery?</strong></p><p>a) 0</p><p>b) 1</p><p>c) 5</p>","C","","","","","","","","","","",""
"html-keyboard-response","5","101065","0.0-6.0","6362aca86b740b1ec4cb6efb","bdp_rwlrn","Fri Mar 10 2023 14:39:12 GMT-0500 (Eastern Standard Time)","635299","Untrustworthy,Trustworthy","","9223","","","","","","","<div class='header' style='text-align:left; position: absolute; top: 5%; left: 5%;'><small>Task 3 of 5</small></div><div class='instruxDiv'><p><strong>1) What is the maximum number of points you can choose to bet on a lottery?</strong></p><p>a) 1</p><p>b) 1</p><p style='color:#00FF00'>c) 5</p><h3 style='color:#00FF00'>Correct!</h3><h3 class='center-content'>The correct response is c).</h3><h3 class='center-content'>The maximum number of points you can choose to bet on a lottery is 5 points.</h3><p><em>Press SPACEBAR to continue</em></p></div>"," ","","","","","","","","","","",""
"html-keyboard-response","6","111530","0.0-7.0","6362aca86b740b1ec4cb6efb","bdp_rwlrn","Fri Mar 10 2023 14:39:12 GMT-0500 (Eastern Standard Time)","635299","Untrustworthy,Trustworthy","","10359","","","","","","","<div class='header' style='text-align:left; position: absolute; top: 5%; left: 5%;'><small>Task 3 of 5</small></div><div class='instruxDiv'><p><strong>2) How many points can you win each round?</strong></p><p>a) 10 points</p><p>b) Double what you bet</p><p>c) Quadruple what you bet</p>","C","","","","","","","","","","",""
"html-keyboard-response","7","113431","0.0-8.0","6362aca86b740b1ec4cb6efb","bdp_rwlrn","Fri Mar 10 2023 14:39:12 GMT-0500 (Eastern Standard Time)","635299","Untrustworthy,Trustworthy","","1796","","","","","","","<div class='header' style='text-align:left; position: absolute; top: 5%; left: 5%;'><small>Task 3 of 5</small></div><div class='instruxDiv'><p><strong>2) How many points can you win each round?</strong></p><p>a) 10 points</p><p>b) Double what you bet</p><p style='color:#FF0000'>c) Quadruple what you bet</p><h3 style='color:#FF0000'>Incorrect!</h3><h3 class='center-content'>The correct response is b).</h3><h3 class='center-content'>You can win double the amount of points you bet.</h3><p><em>Press SPACEBAR to continue</em></p></div>"," ","","","","","","","","","","",""
"html-keyboard-response","8","118543","0.0-9.0","6362aca86b740b1ec4cb6efb","bdp_rwlrn","Fri Mar 10 2023 14:39:12 GMT-0500 (Eastern Standard Time)","635299","Untrustworthy,Trustworthy","","null","","","","","","","<div class='header' style='text-align:left; position: absolute; top: 5%; left: 5%;'><small>Task 3 of 5</small></div><div class='instruxDiv'><p>Thank you for completing the quiz<p>These are the actual lotteries you will be playing in the next block:<p><div class='tc' align='center'><img class='introPic' src='Fruit/bananas.png'><br><strong>Banana Bonanza</strong></div><div class='bl' align='center'><img class='introPic' src='Fruit/mango.png'><br><strong>Mega Mangos</strong></div><div class='br' align='center'><img class='introPic' src='Fruit/Kiwi.png'><br><strong>Kiwi Kash</strong></div></div><p>Across <strong>66 rounds</strong> you will play each lottery <strong>22 times</strong> (in random order).<p style='align:center; color:white'><font <em>Press SPACEBAR to continue</em></p>","null","","","","","","","","","","",""
"instructions","9","120403","0.0-10.0","6362aca86b740b1ec4cb6efb","bdp_rwlrn","Fri Mar 10 2023 14:39:12 GMT-0500 (Eastern Standard Time)","635299","Untrustworthy,Trustworthy","[{""page_index"":0,""viewing_time"":845},{""page_index"":1,""viewing_time"":1011}]","1857","","","","","","","","","","","","","","","","","","",""
"html-keyboard-response","10","123439","0.0-11.0-1.0","6362aca86b740b1ec4cb6efb","bdp_rwlrn","Fri Mar 10 2023 14:39:12 GMT-0500 (Eastern Standard Time)","635299","Untrustworthy,Trustworthy","","2928","","","","decision","","","<div class='trialDiv'><img src='Fruit/mango.png'><br><font class='baseline'><strong>Mega Mangos</strong><p>Choose number of points to bet.</font><div class='respPicDiv'><img src='img/responseButtonOffersNo0L.png' class='respPic'></div></div>","2","1","Mega Mangos","Fruit/mango.png","Won","0.2,0.65","14","0.2","5","1","",""
"html-keyboard-response","11","123698","0.0-11.0-2.0","6362aca86b740b1ec4cb6efb","bdp_rwlrn","Fri Mar 10 2023 14:39:12 GMT-0500 (Eastern Standard Time)","635299","Untrustworthy,Trustworthy","","null","","","","decisionFB","","","<div class='trialDiv'><img src='Fruit/mango.png'><br><font class='baseline'><strong>Mega Mangos</strong><p>Choose number of points to bet.</font><div class='respPicDiv'><img src='img/responseButtonOffersNo0L2.png' class='respPic'></div></div>","null","1","Mega Mangos","Fruit/mango.png","Won","0.2,0.65","14","0.2","3","1","",""
"html-keyboard-response","12","124704","0.0-11.0-3.0","6362aca86b740b1ec4cb6efb","bdp_rwlrn","Fri Mar 10 2023 14:39:12 GMT-0500 (Eastern Standard Time)","635299","Untrustworthy,Trustworthy","","null","","","","feedback","","","<div class='respPicDiv'><img src='img/responseButtonOffersNo0_wht.png' class='respPic'></div><div class='trialDiv'><img src='Fruit/mango.png'><br><font class='baseline'><strong>Mega Mangos</strong><p><strong><font class='posOutcome'>You WON</font><p>You bet: 2</strong></font> &nbsp; &nbsp; &nbsp; &nbsp; &nbsp; &nbsp;<font class='posOutcome'>you receive: <strong>4</strong></font></div>","null","1","Mega Mangos","Fruit/mango.png","Won","0.2,0.65","14","0.2","7","1","",""
"html-keyboard-response","13","126250","0.0-11.0-1.1","6362aca86b740b1ec4cb6efb","bdp_rwlrn","Fri Mar 10 2023 14:39:12 GMT-0500 (Eastern Standard Time)","635299","Untrustworthy,Trustworthy","","1538","","","","decision","","","<div class='trialDiv'><img src='Fruit/bananas.png'><br><font class='baseline'><strong>Banana Bonanza</strong><p>Choose number of points to bet.</font><div class='respPicDiv'><img src='img/responseButtonOffersNo0L.png' class='respPic'></div></div>","3","1","Banana Bonanza","Fruit/bananas.png","Won","0.65,0.2","8","0.65","12","2","",""
"html-keyboard-response","14","126505","0.0-11.0-2.1","6362aca86b740b1ec4cb6efb","bdp_rwlrn","Fri Mar 10 2023 14:39:12 GMT-0500 (Eastern Standard Time)","635299","Untrustworthy,Trustworthy","","null","","","","decisionFB","","","<div class='trialDiv'><img src='Fruit/bananas.png'><br><font class='baseline'><strong>Banana Bonanza</strong><p>Choose number of points to bet.</font><div class='respPicDiv'><img src='img/responseButtonOffersNo0L3.png' class='respPic'></div></div>","null","1","Banana Bonanza","Fruit/bananas.png","Won","0.65,0.2","8","0.65","9","2","",""
"html-keyboard-response","15","127511","0.0-11.0-3.1","6362aca86b740b1ec4cb6efb","bdp_rwlrn","Fri Mar 10 2023 14:39:12 GMT-0500 (Eastern Standard Time)","635299","Untrustworthy,Trustworthy","","null","","","","feedback","","","<div class='respPicDiv'><img src='img/responseButtonOffersNo0_wht.png' class='respPic'></div><div class='trialDiv'><img src='Fruit/bananas.png'><br><font class='baseline'><strong>Banana Bonanza</strong><p><strong><font class='posOutcome'>You WON</font><p>You bet: 3</strong></font> &nbsp; &nbsp; &nbsp; &nbsp; &nbsp; &nbsp;<font class='posOutcome'>you receive: <strong>6</strong></font></div>","null","1","Banana Bonanza","Fruit/bananas.png","Won","0.65,0.2","8","0.65","15","2","",""
"html-keyboard-response","16","128543","0.0-11.0-1.2","6362aca86b740b1ec4cb6efb","bdp_rwlrn","Fri Mar 10 2023 14:39:12 GMT-0500 (Eastern Standard Time)","635299","Untrustworthy,Trustworthy","","1028","","","","decision","","","<div class='trialDiv'><img src='Fruit/Kiwi.png'><br><font class='baseline'><strong>Kiwi Kash</strong><p>Choose number of points to bet.</font><div class='respPicDiv'><img src='img/responseButtonOffersNo0L.png' class='respPic'></div></div>","2","1","Kiwi Kash","Fruit/Kiwi.png","Lost","0.65,0.35","12","0.65","20","3","",""
"html-keyboard-response","17","128798","0.0-11.0-2.2","6362aca86b740b1ec4cb6efb","bdp_rwlrn","Fri Mar 10 2023 14:39:12 GMT-0500 (Eastern Standard Time)","635299","Untrustworthy,Trustworthy","","null","","","","decisionFB","","","<div class='trialDiv'><img src='Fruit/Kiwi.png'><br><font class='baseline'><strong>Kiwi Kash</strong><p>Choose number of points to bet.</font><div class='respPicDiv'><img src='img/responseButtonOffersNo0L2.png' class='respPic'></div></div>","null","1","Kiwi Kash","Fruit/Kiwi.png","Lost","0.65,0.35","12","0.65","18","3","",""
"html-keyboard-response","18","129802","0.0-11.0-3.2","6362aca86b740b1ec4cb6efb","bdp_rwlrn","Fri Mar 10 2023 14:39:12 GMT-0500 (Eastern Standard Time)","635299","Untrustworthy,Trustworthy","","null","","","","feedback","","","<div class='respPicDiv'><img src='img/responseButtonOffersNo0_wht.png' class='respPic'></div><div class='trialDiv'><img src='Fruit/Kiwi.png'><br><font class='baseline'><strong>Kiwi Kash</strong><p><strong><font class='negOutcome'>You LOST</font><p>You bet: 2</strong></font> &nbsp; &nbsp; &nbsp; &nbsp; &nbsp; &nbsp;<font class='negOutcome'>You receive: <strong>0</strong></font></div>","null","1","Kiwi Kash","Fruit/Kiwi.png","Lost","0.65,0.35","12","0.65","18","3","",""
"html-keyboard-response","19","130702","0.0-11.0-1.3","6362aca86b740b1ec4cb6efb","bdp_rwlrn","Fri Mar 10 2023 14:39:12 GMT-0500 (Eastern Standard Time)","635299","Untrustworthy,Trustworthy","","896","","","","decision","","","<div class='trialDiv'><img src='Fruit/mango.png'><br><font class='baseline'><strong>Mega Mangos</strong><p>Choose number of points to bet.</font><div class='respPicDiv'><img src='img/responseButtonOffersNo0L.png' class='respPic'></div></div>","1","2","Mega Mangos","Fruit/mango.png","Lost","0.2,0.65","14","0.2","23","4","",""
"html-keyboard-response","20","130956","0.0-11.0-2.3","6362aca86b740b1ec4cb6efb","bdp_rwlrn","Fri Mar 10 2023 14:39:12 GMT-0500 (Eastern Standard Time)","635299","Untrustworthy,Trustworthy","","null","","","","decisionFB","","","<div class='trialDiv'><img src='Fruit/mango.png'><br><font class='baseline'><strong>Mega Mangos</strong><p>Choose number of points to bet.</font><div class='respPicDiv'><img src='img/responseButtonOffersNo0L1.png' class='respPic'></div></div>","null","2","Mega Mangos","Fruit/mango.png","Lost","0.2,0.65","14","0.2","22","4","",""
"html-keyboard-response","21","131960","0.0-11.0-3.3","6362aca86b740b1ec4cb6efb","bdp_rwlrn","Fri Mar 10 2023 14:39:12 GMT-0500 (Eastern Standard Time)","635299","Untrustworthy,Trustworthy","","null","","","","feedback","","","<div class='respPicDiv'><img src='img/responseButtonOffersNo0_wht.png' class='respPic'></div><div class='trialDiv'><img src='Fruit/mango.png'><br><font class='baseline'><strong>Mega Mangos</strong><p><strong><font class='negOutcome'>You LOST</font><p>You bet: 1</strong></font> &nbsp; &nbsp; &nbsp; &nbsp; &nbsp; &nbsp;<font class='negOutcome'>You receive: <strong>0</strong></font></div>","null","2","Mega Mangos","Fruit/mango.png","Lost","0.2,0.65","14","0.2","22","4","",""
"html-keyboard-response","22","132389","0.0-11.0-1.4","6362aca86b740b1ec4cb6efb","bdp_rwlrn","Fri Mar 10 2023 14:39:12 GMT-0500 (Eastern Standard Time)","635299","Untrustworthy,Trustworthy","","425","","","","decision","","","<div class='trialDiv'><img src='Fruit/Kiwi.png'><br><font class='baseline'><strong>Kiwi Kash</strong><p>Choose number of points to bet.</font><div class='respPicDiv'><img src='img/responseButtonOffersNo0L.png' class='respPic'></div></div>","1","2","Kiwi Kash","Fruit/Kiwi.png","Lost","0.65,0.35","12","0.65","27","5","",""
"html-keyboard-response","23","132643","0.0-11.0-2.4","6362aca86b740b1ec4cb6efb","bdp_rwlrn","Fri Mar 10 2023 14:39:12 GMT-0500 (Eastern Standard Time)","635299","Untrustworthy,Trustworthy","","null","","","","decisionFB","","","<div class='trialDiv'><img src='Fruit/Kiwi.png'><br><font class='baseline'><strong>Kiwi Kash</strong><p>Choose number of points to bet.</font><div class='respPicDiv'><img src='img/responseButtonOffersNo0L1.png' class='respPic'></div></div>","null","2","Kiwi Kash","Fruit/Kiwi.png","Lost","0.65,0.35","12","0.65","26","5","",""
"html-keyboard-response","24","133647","0.0-11.0-3.4","6362aca86b740b1ec4cb6efb","bdp_rwlrn","Fri Mar 10 2023 14:39:12 GMT-0500 (Eastern Standard Time)","635299","Untrustworthy,Trustworthy","","null","","","","feedback","","","<div class='respPicDiv'><img src='img/responseButtonOffersNo0_wht.png' class='respPic'></div><div class='trialDiv'><img src='Fruit/Kiwi.png'><br><font class='baseline'><strong>Kiwi Kash</strong><p><strong><font class='negOutcome'>You LOST</font><p>You bet: 1</strong></font> &nbsp; &nbsp; &nbsp; &nbsp; &nbsp; &nbsp;<font class='negOutcome'>You receive: <strong>0</strong></font></div>","null","2","Kiwi Kash","Fruit/Kiwi.png","Lost","0.65,0.35","12","0.65","26","5","",""
"html-keyboard-response","25","133984","0.0-11.0-1.5","6362aca86b740b1ec4cb6efb","bdp_rwlrn","Fri Mar 10 2023 14:39:12 GMT-0500 (Eastern Standard Time)","635299","Untrustworthy,Trustworthy","","333","","","","decision","","","<div class='trialDiv'><img src='Fruit/bananas.png'><br><font class='baseline'><strong>Banana Bonanza</strong><p>Choose number of points to bet.</font><div class='respPicDiv'><img src='img/responseButtonOffersNo0L.png' class='respPic'></div></div>","1","2","Banana Bonanza","Fruit/bananas.png","Won","0.65,0.2","8","0.65","31","6","",""
"html-keyboard-response","26","134238","0.0-11.0-2.5","6362aca86b740b1ec4cb6efb","bdp_rwlrn","Fri Mar 10 2023 14:39:12 GMT-0500 (Eastern Standard Time)","635299","Untrustworthy,Trustworthy","","null","","","","decisionFB","","","<div class='trialDiv'><img src='Fruit/bananas.png'><br><font class='baseline'><strong>Banana Bonanza</strong><p>Choose number of points to bet.</font><div class='respPicDiv'><img src='img/responseButtonOffersNo0L1.png' class='respPic'></div></div>","null","2","Banana Bonanza","Fruit/bananas.png","Won","0.65,0.2","8","0.65","30","6","",""
"html-keyboard-response","27","135242","0.0-11.0-3.5","6362aca86b740b1ec4cb6efb","bdp_rwlrn","Fri Mar 10 2023 14:39:12 GMT-0500 (Eastern Standard Time)","635299","Untrustworthy,Trustworthy","","null","","","","feedback","","","<div class='respPicDiv'><img src='img/responseButtonOffersNo0_wht.png' class='respPic'></div><div class='trialDiv'><img src='Fruit/bananas.png'><br><font class='baseline'><strong>Banana Bonanza</strong><p><strong><font class='posOutcome'>You WON</font><p>You bet: 1</strong></font> &nbsp; &nbsp; &nbsp; &nbsp; &nbsp; &nbsp;<font class='posOutcome'>you receive: <strong>2</strong></font></div>","null","2","Banana Bonanza","Fruit/bananas.png","Won","0.65,0.2","8","0.65","32","6","",""
"html-keyboard-response","28","135852","0.0-11.0-1.6","6362aca86b740b1ec4cb6efb","bdp_rwlrn","Fri Mar 10 2023 14:39:12 GMT-0500 (Eastern Standard Time)","635299","Untrustworthy,Trustworthy","","606","","","","decision","","","<div class='trialDiv'><img src='Fruit/Kiwi.png'><br><font class='baseline'><strong>Kiwi Kash</strong><p>Choose number of points to bet.</font><div class='respPicDiv'><img src='img/responseButtonOffersNo0L.png' class='respPic'></div></div>","2","3","Kiwi Kash","Fruit/Kiwi.png","Lost","0.65,0.35","12","0.65","37","7","",""
"html-keyboard-response","29","136106","0.0-11.0-2.6","6362aca86b740b1ec4cb6efb","bdp_rwlrn","Fri Mar 10 2023 14:39:12 GMT-0500 (Eastern Standard Time)","635299","Untrustworthy,Trustworthy","","null","","","","decisionFB","","","<div class='trialDiv'><img src='Fruit/Kiwi.png'><br><font class='baseline'><strong>Kiwi Kash</strong><p>Choose number of points to bet.</font><div class='respPicDiv'><img src='img/responseButtonOffersNo0L2.png' class='respPic'></div></div>","null","3","Kiwi Kash","Fruit/Kiwi.png","Lost","0.65,0.35","12","0.65","35","7","",""
"html-keyboard-response","30","137111","0.0-11.0-3.6","6362aca86b740b1ec4cb6efb","bdp_rwlrn","Fri Mar 10 2023 14:39:12 GMT-0500 (Eastern Standard Time)","635299","Untrustworthy,Trustworthy","","null","","","","feedback","","","<div class='respPicDiv'><img src='img/responseButtonOffersNo0_wht.png' class='respPic'></div><div class='trialDiv'><img src='Fruit/Kiwi.png'><br><font class='baseline'><strong>Kiwi Kash</strong><p><strong><font class='negOutcome'>You LOST</font><p>You bet: 2</strong></font> &nbsp; &nbsp; &nbsp; &nbsp; &nbsp; &nbsp;<font class='negOutcome'>You receive: <strong>0</strong></font></div>","null","3","Kiwi Kash","Fruit/Kiwi.png","Lost","0.65,0.35","12","0.65","35","7","",""
"html-keyboard-response","31","137449","0.0-11.0-1.7","6362aca86b740b1ec4cb6efb","bdp_rwlrn","Fri Mar 10 2023 14:39:12 GMT-0500 (Eastern Standard Time)","635299","Untrustworthy,Trustworthy","","334","","","","decision","","","<div class='trialDiv'><img src='Fruit/mango.png'><br><font class='baseline'><strong>Mega Mangos</strong><p>Choose number of points to bet.</font><div class='respPicDiv'><img src='img/responseButtonOffersNo0L.png' class='respPic'></div></div>","1","3","Mega Mangos","Fruit/mango.png","Lost","0.2,0.65","14","0.2","40","8","",""
"html-keyboard-response","32","137703","0.0-11.0-2.7","6362aca86b740b1ec4cb6efb","bdp_rwlrn","Fri Mar 10 2023 14:39:12 GMT-0500 (Eastern Standard Time)","635299","Untrustworthy,Trustworthy","","null","","","","decisionFB","","","<div class='trialDiv'><img src='Fruit/mango.png'><br><font class='baseline'><strong>Mega Mangos</strong><p>Choose number of points to bet.</font><div class='respPicDiv'><img src='img/responseButtonOffersNo0L1.png' class='respPic'></div></div>","null","3","Mega Mangos","Fruit/mango.png","Lost","0.2,0.65","14","0.2","39","8","",""
"html-keyboard-response","33","138708","0.0-11.0-3.7","6362aca86b740b1ec4cb6efb","bdp_rwlrn","Fri Mar 10 2023 14:39:12 GMT-0500 (Eastern Standard Time)","635299","Untrustworthy,Trustworthy","","null","","","","feedback","","","<div class='respPicDiv'><img src='img/responseButtonOffersNo0_wht.png' class='respPic'></div><div class='trialDiv'><img src='Fruit/mango.png'><br><font class='baseline'><strong>Mega Mangos</strong><p><strong><font class='negOutcome'>You LOST</font><p>You bet: 1</strong></font> &nbsp; &nbsp; &nbsp; &nbsp; &nbsp; &nbsp;<font class='negOutcome'>You receive: <strong>0</strong></font></div>","null","3","Mega Mangos","Fruit/mango.png","Lost","0.2,0.65","14","0.2","39","8","",""
"html-keyboard-response","34","139585","0.0-11.0-1.8","6362aca86b740b1ec4cb6efb","bdp_rwlrn","Fri Mar 10 2023 14:39:12 GMT-0500 (Eastern Standard Time)","635299","Untrustworthy,Trustworthy","","874","","","","decision","","","<div class='trialDiv'><img src='Fruit/bananas.png'><br><font class='baseline'><strong>Banana Bonanza</strong><p>Choose number of points to bet.</font><div class='respPicDiv'><img src='img/responseButtonOffersNo0L.png' class='respPic'></div></div>","3","3","Banana Bonanza","Fruit/bananas.png","Lost","0.65,0.2","8","0.65","44","9","",""
"html-keyboard-response","35","139839","0.0-11.0-2.8","6362aca86b740b1ec4cb6efb","bdp_rwlrn","Fri Mar 10 2023 14:39:12 GMT-0500 (Eastern Standard Time)","635299","Untrustworthy,Trustworthy","","null","","","","decisionFB","","","<div class='trialDiv'><img src='Fruit/bananas.png'><br><font class='baseline'><strong>Banana Bonanza</strong><p>Choose number of points to bet.</font><div class='respPicDiv'><img src='img/responseButtonOffersNo0L3.png' class='respPic'></div></div>","null","3","Banana Bonanza","Fruit/bananas.png","Lost","0.65,0.2","8","0.65","41","9","",""
"html-keyboard-response","36","140843","0.0-11.0-3.8","6362aca86b740b1ec4cb6efb","bdp_rwlrn","Fri Mar 10 2023 14:39:12 GMT-0500 (Eastern Standard Time)","635299","Untrustworthy,Trustworthy","","null","","","","feedback","","","<div class='respPicDiv'><img src='img/responseButtonOffersNo0_wht.png' class='respPic'></div><div class='trialDiv'><img src='Fruit/bananas.png'><br><font class='baseline'><strong>Banana Bonanza</strong><p><strong><font class='negOutcome'>You LOST</font><p>You bet: 3</strong></font> &nbsp; &nbsp; &nbsp; &nbsp; &nbsp; &nbsp;<font class='negOutcome'>You receive: <strong>0</strong></font></div>","null","3","Banana Bonanza","Fruit/bananas.png","Lost","0.65,0.2","8","0.65","41","9","",""
"html-keyboard-response","37","141340","0.0-11.0-1.9","6362aca86b740b1ec4cb6efb","bdp_rwlrn","Fri Mar 10 2023 14:39:12 GMT-0500 (Eastern Standard Time)","635299","Untrustworthy,Trustworthy","","493","","","","decision","","","<div class='trialDiv'><img src='Fruit/Kiwi.png'><br><font class='baseline'><strong>Kiwi Kash</strong><p>Choose number of points to bet.</font><div class='respPicDiv'><img src='img/responseButtonOffersNo0L.png' class='respPic'></div></div>","1","4","Kiwi Kash","Fruit/Kiwi.png","Lost","0.65,0.35","12","0.65","46","10","",""
"html-keyboard-response","38","141594","0.0-11.0-2.9","6362aca86b740b1ec4cb6efb","bdp_rwlrn","Fri Mar 10 2023 14:39:12 GMT-0500 (Eastern Standard Time)","635299","Untrustworthy,Trustworthy","","null","","","","decisionFB","","","<div class='trialDiv'><img src='Fruit/Kiwi.png'><br><font class='baseline'><strong>Kiwi Kash</strong><p>Choose number of points to bet.</font><div class='respPicDiv'><img src='img/responseButtonOffersNo0L1.png' class='respPic'></div></div>","null","4","Kiwi Kash","Fruit/Kiwi.png","Lost","0.65,0.35","12","0.65","45","10","",""
"html-keyboard-response","39","142599","0.0-11.0-3.9","6362aca86b740b1ec4cb6efb","bdp_rwlrn","Fri Mar 10 2023 14:39:12 GMT-0500 (Eastern Standard Time)","635299","Untrustworthy,Trustworthy","","null","","","","feedback","","","<div class='respPicDiv'><img src='img/responseButtonOffersNo0_wht.png' class='respPic'></div><div class='trialDiv'><img src='Fruit/Kiwi.png'><br><font class='baseline'><strong>Kiwi Kash</strong><p><strong><font class='negOutcome'>You LOST</font><p>You bet: 1</strong></font> &nbsp; &nbsp; &nbsp; &nbsp; &nbsp; &nbsp;<font class='negOutcome'>You receive: <strong>0</strong></font></div>","null","4","Kiwi Kash","Fruit/Kiwi.png","Lost","0.65,0.35","12","0.65","45","10","",""
"html-keyboard-response","40","143073","0.0-11.0-1.10","6362aca86b740b1ec4cb6efb","bdp_rwlrn","Fri Mar 10 2023 14:39:12 GMT-0500 (Eastern Standard Time)","635299","Untrustworthy,Trustworthy","","471","","","","decision","","","<div class='trialDiv'><img src='Fruit/bananas.png'><br><font class='baseline'><strong>Banana Bonanza</strong><p>Choose number of points to bet.</font><div class='respPicDiv'><img src='img/responseButtonOffersNo0L.png' class='respPic'></div></div>","2","4","Banana Bonanza","Fruit/bananas.png","Won","0.65,0.2","8","0.65","50","11","",""
"html-keyboard-response","41","143327","0.0-11.0-2.10","6362aca86b740b1ec4cb6efb","bdp_rwlrn","Fri Mar 10 2023 14:39:12 GMT-0500 (Eastern Standard Time)","635299","Untrustworthy,Trustworthy","","null","","","","decisionFB","","","<div class='trialDiv'><img src='Fruit/bananas.png'><br><font class='baseline'><strong>Banana Bonanza</strong><p>Choose number of points to bet.</font><div class='respPicDiv'><img src='img/responseButtonOffersNo0L2.png' class='respPic'></div></div>","null","4","Banana Bonanza","Fruit/bananas.png","Won","0.65,0.2","8","0.65","48","11","",""
"html-keyboard-response","42","144331","0.0-11.0-3.10","6362aca86b740b1ec4cb6efb","bdp_rwlrn","Fri Mar 10 2023 14:39:12 GMT-0500 (Eastern Standard Time)","635299","Untrustworthy,Trustworthy","","null","","","","feedback","","","<div class='respPicDiv'><img src='img/responseButtonOffersNo0_wht.png' class='respPic'></div><div class='trialDiv'><img src='Fruit/bananas.png'><br><font class='baseline'><strong>Banana Bonanza</strong><p><strong><font class='posOutcome'>You WON</font><p>You bet: 2</strong></font> &nbsp; &nbsp; &nbsp; &nbsp; &nbsp; &nbsp;<font class='posOutcome'>you receive: <strong>4</strong></font></div>","null","4","Banana Bonanza","Fruit/bananas.png","Won","0.65,0.2","8","0.65","52","11","",""
"html-keyboard-response","43","144692","0.0-11.0-1.11","6362aca86b740b1ec4cb6efb","bdp_rwlrn","Fri Mar 10 2023 14:39:12 GMT-0500 (Eastern Standard Time)","635299","Untrustworthy,Trustworthy","","357","","","","decision","","","<div class='trialDiv'><img src='Fruit/mango.png'><br><font class='baseline'><strong>Mega Mangos</strong><p>Choose number of points to bet.</font><div class='respPicDiv'><img src='img/responseButtonOffersNo0L.png' class='respPic'></div></div>","3","4","Mega Mangos","Fruit/mango.png","Lost","0.2,0.65","14","0.2","57","12","",""
"html-keyboard-response","44","144947","0.0-11.0-2.11","6362aca86b740b1ec4cb6efb","bdp_rwlrn","Fri Mar 10 2023 14:39:12 GMT-0500 (Eastern Standard Time)","635299","Untrustworthy,Trustworthy","","null","","","","decisionFB","","","<div class='trialDiv'><img src='Fruit/mango.png'><br><font class='baseline'><strong>Mega Mangos</strong><p>Choose number of points to bet.</font><div class='respPicDiv'><img src='img/responseButtonOffersNo0L3.png' class='respPic'></div></div>","null","4","Mega Mangos","Fruit/mango.png","Lost","0.2,0.65","14","0.2","54","12","",""
"html-keyboard-response","45","145950","0.0-11.0-3.11","6362aca86b740b1ec4cb6efb","bdp_rwlrn","Fri Mar 10 2023 14:39:12 GMT-0500 (Eastern Standard Time)","635299","Untrustworthy,Trustworthy","","null","","","","feedback","","","<div class='respPicDiv'><img src='img/responseButtonOffersNo0_wht.png' class='respPic'></div><div class='trialDiv'><img src='Fruit/mango.png'><br><font class='baseline'><strong>Mega Mangos</strong><p><strong><font class='negOutcome'>You LOST</font><p>You bet: 3</strong></font> &nbsp; &nbsp; &nbsp; &nbsp; &nbsp; &nbsp;<font class='negOutcome'>You receive: <strong>0</strong></font></div>","null","4","Mega Mangos","Fruit/mango.png","Lost","0.2,0.65","14","0.2","54","12","",""
"html-keyboard-response","46","146200","0.0-11.0-1.12","6362aca86b740b1ec4cb6efb","bdp_rwlrn","Fri Mar 10 2023 14:39:12 GMT-0500 (Eastern Standard Time)","635299","Untrustworthy,Trustworthy","","247","","","","decision","","","<div class='trialDiv'><img src='Fruit/bananas.png'><br><font class='baseline'><strong>Banana Bonanza</strong><p>Choose number of points to bet.</font><div class='respPicDiv'><img src='img/responseButtonOffersNo0L.png' class='respPic'></div></div>","2","5","Banana Bonanza","Fruit/bananas.png","Lost","0.65,0.2","8","0.65","59","13","",""
"html-keyboard-response","47","146454","0.0-11.0-2.12","6362aca86b740b1ec4cb6efb","bdp_rwlrn","Fri Mar 10 2023 14:39:12 GMT-0500 (Eastern Standard Time)","635299","Untrustworthy,Trustworthy","","null","","","","decisionFB","","","<div class='trialDiv'><img src='Fruit/bananas.png'><br><font class='baseline'><strong>Banana Bonanza</strong><p>Choose number of points to bet.</font><div class='respPicDiv'><img src='img/responseButtonOffersNo0L2.png' class='respPic'></div></div>","null","5","Banana Bonanza","Fruit/bananas.png","Lost","0.65,0.2","8","0.65","57","13","",""
"html-keyboard-response","48","147458","0.0-11.0-3.12","6362aca86b740b1ec4cb6efb","bdp_rwlrn","Fri Mar 10 2023 14:39:12 GMT-0500 (Eastern Standard Time)","635299","Untrustworthy,Trustworthy","","null","","","","feedback","","","<div class='respPicDiv'><img src='img/responseButtonOffersNo0_wht.png' class='respPic'></div><div class='trialDiv'><img src='Fruit/bananas.png'><br><font class='baseline'><strong>Banana Bonanza</strong><p><strong><font class='negOutcome'>You LOST</font><p>You bet: 2</strong></font> &nbsp; &nbsp; &nbsp; &nbsp; &nbsp; &nbsp;<font class='negOutcome'>You receive: <strong>0</strong></font></div>","null","5","Banana Bonanza","Fruit/bananas.png","Lost","0.65,0.2","8","0.65","57","13","",""
"html-keyboard-response","49","147753","0.0-11.0-1.13","6362aca86b740b1ec4cb6efb","bdp_rwlrn","Fri Mar 10 2023 14:39:12 GMT-0500 (Eastern Standard Time)","635299","Untrustworthy,Trustworthy","","291","","","","decision","","","<div class='trialDiv'><img src='Fruit/mango.png'><br><font class='baseline'><strong>Mega Mangos</strong><p>Choose number of points to bet.</font><div class='respPicDiv'><img src='img/responseButtonOffersNo0L.png' class='respPic'></div></div>","1","5","Mega Mangos","Fruit/mango.png","Lost","0.2,0.65","14","0.2","62","14","",""
"html-keyboard-response","50","148006","0.0-11.0-2.13","6362aca86b740b1ec4cb6efb","bdp_rwlrn","Fri Mar 10 2023 14:39:12 GMT-0500 (Eastern Standard Time)","635299","Untrustworthy,Trustworthy","","null","","","","decisionFB","","","<div class='trialDiv'><img src='Fruit/mango.png'><br><font class='baseline'><strong>Mega Mangos</strong><p>Choose number of points to bet.</font><div class='respPicDiv'><img src='img/responseButtonOffersNo0L1.png' class='respPic'></div></div>","null","5","Mega Mangos","Fruit/mango.png","Lost","0.2,0.65","14","0.2","61","14","",""
"html-keyboard-response","51","149011","0.0-11.0-3.13","6362aca86b740b1ec4cb6efb","bdp_rwlrn","Fri Mar 10 2023 14:39:12 GMT-0500 (Eastern Standard Time)","635299","Untrustworthy,Trustworthy","","null","","","","feedback","","","<div class='respPicDiv'><img src='img/responseButtonOffersNo0_wht.png' class='respPic'></div><div class='trialDiv'><img src='Fruit/mango.png'><br><font class='baseline'><strong>Mega Mangos</strong><p><strong><font class='negOutcome'>You LOST</font><p>You bet: 1</strong></font> &nbsp; &nbsp; &nbsp; &nbsp; &nbsp; &nbsp;<font class='negOutcome'>You receive: <strong>0</strong></font></div>","null","5","Mega Mangos","Fruit/mango.png","Lost","0.2,0.65","14","0.2","61","14","",""
"html-keyboard-response","52","149371","0.0-11.0-1.14","6362aca86b740b1ec4cb6efb","bdp_rwlrn","Fri Mar 10 2023 14:39:12 GMT-0500 (Eastern Standard Time)","635299","Untrustworthy,Trustworthy","","358","","","","decision","","","<div class='trialDiv'><img src='Fruit/Kiwi.png'><br><font class='baseline'><strong>Kiwi Kash</strong><p>Choose number of points to bet.</font><div class='respPicDiv'><img src='img/responseButtonOffersNo0L.png' class='respPic'></div></div>","2","5","Kiwi Kash","Fruit/Kiwi.png","Won","0.65,0.35","12","0.65","66","15","",""
"html-keyboard-response","53","149626","0.0-11.0-2.14","6362aca86b740b1ec4cb6efb","bdp_rwlrn","Fri Mar 10 2023 14:39:12 GMT-0500 (Eastern Standard Time)","635299","Untrustworthy,Trustworthy","","null","","","","decisionFB","","","<div class='trialDiv'><img src='Fruit/Kiwi.png'><br><font class='baseline'><strong>Kiwi Kash</strong><p>Choose number of points to bet.</font><div class='respPicDiv'><img src='img/responseButtonOffersNo0L2.png' class='respPic'></div></div>","null","5","Kiwi Kash","Fruit/Kiwi.png","Won","0.65,0.35","12","0.65","64","15","",""
"html-keyboard-response","54","150630","0.0-11.0-3.14","6362aca86b740b1ec4cb6efb","bdp_rwlrn","Fri Mar 10 2023 14:39:12 GMT-0500 (Eastern Standard Time)","635299","Untrustworthy,Trustworthy","","null","","","","feedback","","","<div class='respPicDiv'><img src='img/responseButtonOffersNo0_wht.png' class='respPic'></div><div class='trialDiv'><img src='Fruit/Kiwi.png'><br><font class='baseline'><strong>Kiwi Kash</strong><p><strong><font class='posOutcome'>You WON</font><p>You bet: 2</strong></font> &nbsp; &nbsp; &nbsp; &nbsp; &nbsp; &nbsp;<font class='posOutcome'>you receive: <strong>4</strong></font></div>","null","5","Kiwi Kash","Fruit/Kiwi.png","Won","0.65,0.35","12","0.65","68","15","",""
"html-keyboard-response","55","150991","0.0-11.0-1.15","6362aca86b740b1ec4cb6efb","bdp_rwlrn","Fri Mar 10 2023 14:39:12 GMT-0500 (Eastern Standard Time)","635299","Untrustworthy,Trustworthy","","358","","","","decision","","","<div class='trialDiv'><img src='Fruit/bananas.png'><br><font class='baseline'><strong>Banana Bonanza</strong><p>Choose number of points to bet.</font><div class='respPicDiv'><img src='img/responseButtonOffersNo0L.png' class='respPic'></div></div>","1","6","Banana Bonanza","Fruit/bananas.png","Lost","0.65,0.2","8","0.65","73","16","",""
"html-keyboard-response","56","151245","0.0-11.0-2.15","6362aca86b740b1ec4cb6efb","bdp_rwlrn","Fri Mar 10 2023 14:39:12 GMT-0500 (Eastern Standard Time)","635299","Untrustworthy,Trustworthy","","null","","","","decisionFB","","","<div class='trialDiv'><img src='Fruit/bananas.png'><br><font class='baseline'><strong>Banana Bonanza</strong><p>Choose number of points to bet.</font><div class='respPicDiv'><img src='img/responseButtonOffersNo0L1.png' class='respPic'></div></div>","null","6","Banana Bonanza","Fruit/bananas.png","Lost","0.65,0.2","8","0.65","72","16","",""
"html-keyboard-response","57","152247","0.0-11.0-3.15","6362aca86b740b1ec4cb6efb","bdp_rwlrn","Fri Mar 10 2023 14:39:12 GMT-0500 (Eastern Standard Time)","635299","Untrustworthy,Trustworthy","","null","","","","feedback","","","<div class='respPicDiv'><img src='img/responseButtonOffersNo0_wht.png' class='respPic'></div><div class='trialDiv'><img src='Fruit/bananas.png'><br><font class='baseline'><strong>Banana Bonanza</strong><p><strong><font class='negOutcome'>You LOST</font><p>You bet: 1</strong></font> &nbsp; &nbsp; &nbsp; &nbsp; &nbsp; &nbsp;<font class='negOutcome'>You receive: <strong>0</strong></font></div>","null","6","Banana Bonanza","Fruit/bananas.png","Lost","0.65,0.2","8","0.65","72","16","",""
"html-keyboard-response","58","152813","0.0-11.0-1.16","6362aca86b740b1ec4cb6efb","bdp_rwlrn","Fri Mar 10 2023 14:39:12 GMT-0500 (Eastern Standard Time)","635299","Untrustworthy,Trustworthy","","562","","","","decision","","","<div class='trialDiv'><img src='Fruit/Kiwi.png'><br><font class='baseline'><strong>Kiwi Kash</strong><p>Choose number of points to bet.</font><div class='respPicDiv'><img src='img/responseButtonOffersNo0L.png' class='respPic'></div></div>","1","6","Kiwi Kash","Fruit/Kiwi.png","Lost","0.65,0.35","12","0.65","77","17","",""
"html-keyboard-response","59","153067","0.0-11.0-2.16","6362aca86b740b1ec4cb6efb","bdp_rwlrn","Fri Mar 10 2023 14:39:12 GMT-0500 (Eastern Standard Time)","635299","Untrustworthy,Trustworthy","","null","","","","decisionFB","","","<div class='trialDiv'><img src='Fruit/Kiwi.png'><br><font class='baseline'><strong>Kiwi Kash</strong><p>Choose number of points to bet.</font><div class='respPicDiv'><img src='img/responseButtonOffersNo0L1.png' class='respPic'></div></div>","null","6","Kiwi Kash","Fruit/Kiwi.png","Lost","0.65,0.35","12","0.65","76","17","",""
"html-keyboard-response","60","154071","0.0-11.0-3.16","6362aca86b740b1ec4cb6efb","bdp_rwlrn","Fri Mar 10 2023 14:39:12 GMT-0500 (Eastern Standard Time)","635299","Untrustworthy,Trustworthy","","null","","","","feedback","","","<div class='respPicDiv'><img src='img/responseButtonOffersNo0_wht.png' class='respPic'></div><div class='trialDiv'><img src='Fruit/Kiwi.png'><br><font class='baseline'><strong>Kiwi Kash</strong><p><strong><font class='negOutcome'>You LOST</font><p>You bet: 1</strong></font> &nbsp; &nbsp; &nbsp; &nbsp; &nbsp; &nbsp;<font class='negOutcome'>You receive: <strong>0</strong></font></div>","null","6","Kiwi Kash","Fruit/Kiwi.png","Lost","0.65,0.35","12","0.65","76","17","",""
"html-keyboard-response","61","154771","0.0-11.0-1.17","6362aca86b740b1ec4cb6efb","bdp_rwlrn","Fri Mar 10 2023 14:39:12 GMT-0500 (Eastern Standard Time)","635299","Untrustworthy,Trustworthy","","696","","","","decision","","","<div class='trialDiv'><img src='Fruit/mango.png'><br><font class='baseline'><strong>Mega Mangos</strong><p>Choose number of points to bet.</font><div class='respPicDiv'><img src='img/responseButtonOffersNo0L.png' class='respPic'></div></div>","3","6","Mega Mangos","Fruit/mango.png","Lost","0.2,0.65","14","0.2","81","18","",""
"html-keyboard-response","62","155025","0.0-11.0-2.17","6362aca86b740b1ec4cb6efb","bdp_rwlrn","Fri Mar 10 2023 14:39:12 GMT-0500 (Eastern Standard Time)","635299","Untrustworthy,Trustworthy","","null","","","","decisionFB","","","<div class='trialDiv'><img src='Fruit/mango.png'><br><font class='baseline'><strong>Mega Mangos</strong><p>Choose number of points to bet.</font><div class='respPicDiv'><img src='img/responseButtonOffersNo0L3.png' class='respPic'></div></div>","null","6","Mega Mangos","Fruit/mango.png","Lost","0.2,0.65","14","0.2","78","18","",""
"html-keyboard-response","63","156030","0.0-11.0-3.17","6362aca86b740b1ec4cb6efb","bdp_rwlrn","Fri Mar 10 2023 14:39:12 GMT-0500 (Eastern Standard Time)","635299","Untrustworthy,Trustworthy","","null","","","","feedback","","","<div class='respPicDiv'><img src='img/responseButtonOffersNo0_wht.png' class='respPic'></div><div class='trialDiv'><img src='Fruit/mango.png'><br><font class='baseline'><strong>Mega Mangos</strong><p><strong><font class='negOutcome'>You LOST</font><p>You bet: 3</strong></font> &nbsp; &nbsp; &nbsp; &nbsp; &nbsp; &nbsp;<font class='negOutcome'>You receive: <strong>0</strong></font></div>","null","6","Mega Mangos","Fruit/mango.png","Lost","0.2,0.65","14","0.2","78","18","",""
"html-keyboard-response","64","156526","0.0-11.0-1.18","6362aca86b740b1ec4cb6efb","bdp_rwlrn","Fri Mar 10 2023 14:39:12 GMT-0500 (Eastern Standard Time)","635299","Untrustworthy,Trustworthy","","493","","","","decision","","","<div class='trialDiv'><img src='Fruit/bananas.png'><br><font class='baseline'><strong>Banana Bonanza</strong><p>Choose number of points to bet.</font><div class='respPicDiv'><img src='img/responseButtonOffersNo0L.png' class='respPic'></div></div>","1","7","Banana Bonanza","Fruit/bananas.png","Won","0.65,0.2","8","0.65","83","19","",""
"html-keyboard-response","65","156780","0.0-11.0-2.18","6362aca86b740b1ec4cb6efb","bdp_rwlrn","Fri Mar 10 2023 14:39:12 GMT-0500 (Eastern Standard Time)","635299","Untrustworthy,Trustworthy","","null","","","","decisionFB","","","<div class='trialDiv'><img src='Fruit/bananas.png'><br><font class='baseline'><strong>Banana Bonanza</strong><p>Choose number of points to bet.</font><div class='respPicDiv'><img src='img/responseButtonOffersNo0L1.png' class='respPic'></div></div>","null","7","Banana Bonanza","Fruit/bananas.png","Won","0.65,0.2","8","0.65","82","19","",""
"html-keyboard-response","66","157783","0.0-11.0-3.18","6362aca86b740b1ec4cb6efb","bdp_rwlrn","Fri Mar 10 2023 14:39:12 GMT-0500 (Eastern Standard Time)","635299","Untrustworthy,Trustworthy","","null","","","","feedback","","","<div class='respPicDiv'><img src='img/responseButtonOffersNo0_wht.png' class='respPic'></div><div class='trialDiv'><img src='Fruit/bananas.png'><br><font class='baseline'><strong>Banana Bonanza</strong><p><strong><font class='posOutcome'>You WON</font><p>You bet: 1</strong></font> &nbsp; &nbsp; &nbsp; &nbsp; &nbsp; &nbsp;<font class='posOutcome'>you receive: <strong>2</strong></font></div>","null","7","Banana Bonanza","Fruit/bananas.png","Won","0.65,0.2","8","0.65","84","19","",""
"html-keyboard-response","67","158034","0.0-11.0-1.19","6362aca86b740b1ec4cb6efb","bdp_rwlrn","Fri Mar 10 2023 14:39:12 GMT-0500 (Eastern Standard Time)","635299","Untrustworthy,Trustworthy","","247","","","","decision","","","<div class='trialDiv'><img src='Fruit/mango.png'><br><font class='baseline'><strong>Mega Mangos</strong><p>Choose number of points to bet.</font><div class='respPicDiv'><img src='img/responseButtonOffersNo0L.png' class='respPic'></div></div>","2","7","Mega Mangos","Fruit/mango.png","Won","0.2,0.65","14","0.2","89","20","",""
"html-keyboard-response","68","158287","0.0-11.0-2.19","6362aca86b740b1ec4cb6efb","bdp_rwlrn","Fri Mar 10 2023 14:39:12 GMT-0500 (Eastern Standard Time)","635299","Untrustworthy,Trustworthy","","null","","","","decisionFB","","","<div class='trialDiv'><img src='Fruit/mango.png'><br><font class='baseline'><strong>Mega Mangos</strong><p>Choose number of points to bet.</font><div class='respPicDiv'><img src='img/responseButtonOffersNo0L2.png' class='respPic'></div></div>","null","7","Mega Mangos","Fruit/mango.png","Won","0.2,0.65","14","0.2","87","20","",""
"html-keyboard-response","69","159291","0.0-11.0-3.19","6362aca86b740b1ec4cb6efb","bdp_rwlrn","Fri Mar 10 2023 14:39:12 GMT-0500 (Eastern Standard Time)","635299","Untrustworthy,Trustworthy","","null","","","","feedback","","","<div class='respPicDiv'><img src='img/responseButtonOffersNo0_wht.png' class='respPic'></div><div class='trialDiv'><img src='Fruit/mango.png'><br><font class='baseline'><strong>Mega Mangos</strong><p><strong><font class='posOutcome'>You WON</font><p>You bet: 2</strong></font> &nbsp; &nbsp; &nbsp; &nbsp; &nbsp; &nbsp;<font class='posOutcome'>you receive: <strong>4</strong></font></div>","null","7","Mega Mangos","Fruit/mango.png","Won","0.2,0.65","14","0.2","91","20","",""
"html-keyboard-response","70","159788","0.0-11.0-1.20","6362aca86b740b1ec4cb6efb","bdp_rwlrn","Fri Mar 10 2023 14:39:12 GMT-0500 (Eastern Standard Time)","635299","Untrustworthy,Trustworthy","","494","","","","decision","","","<div class='trialDiv'><img src='Fruit/Kiwi.png'><br><font class='baseline'><strong>Kiwi Kash</strong><p>Choose number of points to bet.</font><div class='respPicDiv'><img src='img/responseButtonOffersNo0L.png' class='respPic'></div></div>","1","7","Kiwi Kash","Fruit/Kiwi.png","Won","0.65,0.35","12","0.65","96","21","",""
"html-keyboard-response","71","160042","0.0-11.0-2.20","6362aca86b740b1ec4cb6efb","bdp_rwlrn","Fri Mar 10 2023 14:39:12 GMT-0500 (Eastern Standard Time)","635299","Untrustworthy,Trustworthy","","null","","","","decisionFB","","","<div class='trialDiv'><img src='Fruit/Kiwi.png'><br><font class='baseline'><strong>Kiwi Kash</strong><p>Choose number of points to bet.</font><div class='respPicDiv'><img src='img/responseButtonOffersNo0L1.png' class='respPic'></div></div>","null","7","Kiwi Kash","Fruit/Kiwi.png","Won","0.65,0.35","12","0.65","95","21","",""
"html-keyboard-response","72","161046","0.0-11.0-3.20","6362aca86b740b1ec4cb6efb","bdp_rwlrn","Fri Mar 10 2023 14:39:12 GMT-0500 (Eastern Standard Time)","635299","Untrustworthy,Trustworthy","","null","","","","feedback","","","<div class='respPicDiv'><img src='img/responseButtonOffersNo0_wht.png' class='respPic'></div><div class='trialDiv'><img src='Fruit/Kiwi.png'><br><font class='baseline'><strong>Kiwi Kash</strong><p><strong><font class='posOutcome'>You WON</font><p>You bet: 1</strong></font> &nbsp; &nbsp; &nbsp; &nbsp; &nbsp; &nbsp;<font class='posOutcome'>you receive: <strong>2</strong></font></div>","null","7","Kiwi Kash","Fruit/Kiwi.png","Won","0.65,0.35","12","0.65","97","21","",""
"html-keyboard-response","73","161341","0.0-11.0-1.21","6362aca86b740b1ec4cb6efb","bdp_rwlrn","Fri Mar 10 2023 14:39:12 GMT-0500 (Eastern Standard Time)","635299","Untrustworthy,Trustworthy","","291","","","","decision","","","<div class='trialDiv'><img src='Fruit/bananas.png'><br><font class='baseline'><strong>Banana Bonanza</strong><p>Choose number of points to bet.</font><div class='respPicDiv'><img src='img/responseButtonOffersNo0L.png' class='respPic'></div></div>","2","8","Banana Bonanza","Fruit/bananas.png","Lost","0.65,0.2","8","0.65","102","22","",""
"html-keyboard-response","74","161595","0.0-11.0-2.21","6362aca86b740b1ec4cb6efb","bdp_rwlrn","Fri Mar 10 2023 14:39:12 GMT-0500 (Eastern Standard Time)","635299","Untrustworthy,Trustworthy","","null","","","","decisionFB","","","<div class='trialDiv'><img src='Fruit/bananas.png'><br><font class='baseline'><strong>Banana Bonanza</strong><p>Choose number of points to bet.</font><div class='respPicDiv'><img src='img/responseButtonOffersNo0L2.png' class='respPic'></div></div>","null","8","Banana Bonanza","Fruit/bananas.png","Lost","0.65,0.2","8","0.65","100","22","",""
"html-keyboard-response","75","162599","0.0-11.0-3.21","6362aca86b740b1ec4cb6efb","bdp_rwlrn","Fri Mar 10 2023 14:39:12 GMT-0500 (Eastern Standard Time)","635299","Untrustworthy,Trustworthy","","null","","","","feedback","","","<div class='respPicDiv'><img src='img/responseButtonOffersNo0_wht.png' class='respPic'></div><div class='trialDiv'><img src='Fruit/bananas.png'><br><font class='baseline'><strong>Banana Bonanza</strong><p><strong><font class='negOutcome'>You LOST</font><p>You bet: 2</strong></font> &nbsp; &nbsp; &nbsp; &nbsp; &nbsp; &nbsp;<font class='negOutcome'>You receive: <strong>0</strong></font></div>","null","8","Banana Bonanza","Fruit/bananas.png","Lost","0.65,0.2","8","0.65","100","22","",""
"html-keyboard-response","76","163028","0.0-11.0-1.22","6362aca86b740b1ec4cb6efb","bdp_rwlrn","Fri Mar 10 2023 14:39:12 GMT-0500 (Eastern Standard Time)","635299","Untrustworthy,Trustworthy","","426","","","","decision","","","<div class='trialDiv'><img src='Fruit/mango.png'><br><font class='baseline'><strong>Mega Mangos</strong><p>Choose number of points to bet.</font><div class='respPicDiv'><img src='img/responseButtonOffersNo0L.png' class='respPic'></div></div>","1","8","Mega Mangos","Fruit/mango.png","Lost","0.2,0.65","14","0.2","105","23","",""
"html-keyboard-response","77","163282","0.0-11.0-2.22","6362aca86b740b1ec4cb6efb","bdp_rwlrn","Fri Mar 10 2023 14:39:12 GMT-0500 (Eastern Standard Time)","635299","Untrustworthy,Trustworthy","","null","","","","decisionFB","","","<div class='trialDiv'><img src='Fruit/mango.png'><br><font class='baseline'><strong>Mega Mangos</strong><p>Choose number of points to bet.</font><div class='respPicDiv'><img src='img/responseButtonOffersNo0L1.png' class='respPic'></div></div>","null","8","Mega Mangos","Fruit/mango.png","Lost","0.2,0.65","14","0.2","104","23","",""
"html-keyboard-response","78","164287","0.0-11.0-3.22","6362aca86b740b1ec4cb6efb","bdp_rwlrn","Fri Mar 10 2023 14:39:12 GMT-0500 (Eastern Standard Time)","635299","Untrustworthy,Trustworthy","","null","","","","feedback","","","<div class='respPicDiv'><img src='img/responseButtonOffersNo0_wht.png' class='respPic'></div><div class='trialDiv'><img src='Fruit/mango.png'><br><font class='baseline'><strong>Mega Mangos</strong><p><strong><font class='negOutcome'>You LOST</font><p>You bet: 1</strong></font> &nbsp; &nbsp; &nbsp; &nbsp; &nbsp; &nbsp;<font class='negOutcome'>You receive: <strong>0</strong></font></div>","null","8","Mega Mangos","Fruit/mango.png","Lost","0.2,0.65","14","0.2","104","23","",""
"html-keyboard-response","79","164648","0.0-11.0-1.23","6362aca86b740b1ec4cb6efb","bdp_rwlrn","Fri Mar 10 2023 14:39:12 GMT-0500 (Eastern Standard Time)","635299","Untrustworthy,Trustworthy","","358","","","","decision","","","<div class='trialDiv'><img src='Fruit/Kiwi.png'><br><font class='baseline'><strong>Kiwi Kash</strong><p>Choose number of points to bet.</font><div class='respPicDiv'><img src='img/responseButtonOffersNo0L.png' class='respPic'></div></div>","2","8","Kiwi Kash","Fruit/Kiwi.png","Won","0.65,0.35","12","0.65","109","24","",""
"html-keyboard-response","80","164902","0.0-11.0-2.23","6362aca86b740b1ec4cb6efb","bdp_rwlrn","Fri Mar 10 2023 14:39:12 GMT-0500 (Eastern Standard Time)","635299","Untrustworthy,Trustworthy","","null","","","","decisionFB","","","<div class='trialDiv'><img src='Fruit/Kiwi.png'><br><font class='baseline'><strong>Kiwi Kash</strong><p>Choose number of points to bet.</font><div class='respPicDiv'><img src='img/responseButtonOffersNo0L2.png' class='respPic'></div></div>","null","8","Kiwi Kash","Fruit/Kiwi.png","Won","0.65,0.35","12","0.65","107","24","",""
"html-keyboard-response","81","165906","0.0-11.0-3.23","6362aca86b740b1ec4cb6efb","bdp_rwlrn","Fri Mar 10 2023 14:39:12 GMT-0500 (Eastern Standard Time)","635299","Untrustworthy,Trustworthy","","null","","","","feedback","","","<div class='respPicDiv'><img src='img/responseButtonOffersNo0_wht.png' class='respPic'></div><div class='trialDiv'><img src='Fruit/Kiwi.png'><br><font class='baseline'><strong>Kiwi Kash</strong><p><strong><font class='posOutcome'>You WON</font><p>You bet: 2</strong></font> &nbsp; &nbsp; &nbsp; &nbsp; &nbsp; &nbsp;<font class='posOutcome'>you receive: <strong>4</strong></font></div>","null","8","Kiwi Kash","Fruit/Kiwi.png","Won","0.65,0.35","12","0.65","111","24","",""
"html-keyboard-response","82","166246","0.0-11.0-1.24","6362aca86b740b1ec4cb6efb","bdp_rwlrn","Fri Mar 10 2023 14:39:12 GMT-0500 (Eastern Standard Time)","635299","Untrustworthy,Trustworthy","","337","","","","decision","","","<div class='trialDiv'><img src='Fruit/bananas.png'><br><font class='baseline'><strong>Banana Bonanza</strong><p>Choose number of points to bet.</font><div class='respPicDiv'><img src='img/responseButtonOffersNo0L.png' class='respPic'></div></div>","3","9","Banana Bonanza","Fruit/bananas.png","Lost","0.65,0.2","8","0.65","116","25","",""
"html-keyboard-response","83","166500","0.0-11.0-2.24","6362aca86b740b1ec4cb6efb","bdp_rwlrn","Fri Mar 10 2023 14:39:12 GMT-0500 (Eastern Standard Time)","635299","Untrustworthy,Trustworthy","","null","","","","decisionFB","","","<div class='trialDiv'><img src='Fruit/bananas.png'><br><font class='baseline'><strong>Banana Bonanza</strong><p>Choose number of points to bet.</font><div class='respPicDiv'><img src='img/responseButtonOffersNo0L3.png' class='respPic'></div></div>","null","9","Banana Bonanza","Fruit/bananas.png","Lost","0.65,0.2","8","0.65","113","25","",""
"html-keyboard-response","84","167504","0.0-11.0-3.24","6362aca86b740b1ec4cb6efb","bdp_rwlrn","Fri Mar 10 2023 14:39:12 GMT-0500 (Eastern Standard Time)","635299","Untrustworthy,Trustworthy","","null","","","","feedback","","","<div class='respPicDiv'><img src='img/responseButtonOffersNo0_wht.png' class='respPic'></div><div class='trialDiv'><img src='Fruit/bananas.png'><br><font class='baseline'><strong>Banana Bonanza</strong><p><strong><font class='negOutcome'>You LOST</font><p>You bet: 3</strong></font> &nbsp; &nbsp; &nbsp; &nbsp; &nbsp; &nbsp;<font class='negOutcome'>You receive: <strong>0</strong></font></div>","null","9","Banana Bonanza","Fruit/bananas.png","Lost","0.65,0.2","8","0.65","113","25","",""
"html-keyboard-response","85","167730","0.0-11.0-1.25","6362aca86b740b1ec4cb6efb","bdp_rwlrn","Fri Mar 10 2023 14:39:12 GMT-0500 (Eastern Standard Time)","635299","Untrustworthy,Trustworthy","","222","","","","decision","","","<div class='trialDiv'><img src='Fruit/Kiwi.png'><br><font class='baseline'><strong>Kiwi Kash</strong><p>Choose number of points to bet.</font><div class='respPicDiv'><img src='img/responseButtonOffersNo0L.png' class='respPic'></div></div>","1","9","Kiwi Kash","Fruit/Kiwi.png","Lost","0.65,0.35","12","0.65","118","26","",""
"html-keyboard-response","86","167983","0.0-11.0-2.25","6362aca86b740b1ec4cb6efb","bdp_rwlrn","Fri Mar 10 2023 14:39:12 GMT-0500 (Eastern Standard Time)","635299","Untrustworthy,Trustworthy","","null","","","","decisionFB","","","<div class='trialDiv'><img src='Fruit/Kiwi.png'><br><font class='baseline'><strong>Kiwi Kash</strong><p>Choose number of points to bet.</font><div class='respPicDiv'><img src='img/responseButtonOffersNo0L1.png' class='respPic'></div></div>","null","9","Kiwi Kash","Fruit/Kiwi.png","Lost","0.65,0.35","12","0.65","117","26","",""
"html-keyboard-response","87","168988","0.0-11.0-3.25","6362aca86b740b1ec4cb6efb","bdp_rwlrn","Fri Mar 10 2023 14:39:12 GMT-0500 (Eastern Standard Time)","635299","Untrustworthy,Trustworthy","","null","","","","feedback","","","<div class='respPicDiv'><img src='img/responseButtonOffersNo0_wht.png' class='respPic'></div><div class='trialDiv'><img src='Fruit/Kiwi.png'><br><font class='baseline'><strong>Kiwi Kash</strong><p><strong><font class='negOutcome'>You LOST</font><p>You bet: 1</strong></font> &nbsp; &nbsp; &nbsp; &nbsp; &nbsp; &nbsp;<font class='negOutcome'>You receive: <strong>0</strong></font></div>","null","9","Kiwi Kash","Fruit/Kiwi.png","Lost","0.65,0.35","12","0.65","117","26","",""
"html-keyboard-response","88","169126","0.0-11.0-1.26","6362aca86b740b1ec4cb6efb","bdp_rwlrn","Fri Mar 10 2023 14:39:12 GMT-0500 (Eastern Standard Time)","635299","Untrustworthy,Trustworthy","","133","","","","decision","","","<div class='trialDiv'><img src='Fruit/mango.png'><br><font class='baseline'><strong>Mega Mangos</strong><p>Choose number of points to bet.</font><div class='respPicDiv'><img src='img/responseButtonOffersNo0L.png' class='respPic'></div></div>","2","9","Mega Mangos","Fruit/mango.png","Lost","0.2,0.65","14","0.2","122","27","",""
"html-keyboard-response","89","169380","0.0-11.0-2.26","6362aca86b740b1ec4cb6efb","bdp_rwlrn","Fri Mar 10 2023 14:39:12 GMT-0500 (Eastern Standard Time)","635299","Untrustworthy,Trustworthy","","null","","","","decisionFB","","","<div class='trialDiv'><img src='Fruit/mango.png'><br><font class='baseline'><strong>Mega Mangos</strong><p>Choose number of points to bet.</font><div class='respPicDiv'><img src='img/responseButtonOffersNo0L2.png' class='respPic'></div></div>","null","9","Mega Mangos","Fruit/mango.png","Lost","0.2,0.65","14","0.2","120","27","",""
"html-keyboard-response","90","170384","0.0-11.0-3.26","6362aca86b740b1ec4cb6efb","bdp_rwlrn","Fri Mar 10 2023 14:39:12 GMT-0500 (Eastern Standard Time)","635299","Untrustworthy,Trustworthy","","null","","","","feedback","","","<div class='respPicDiv'><img src='img/responseButtonOffersNo0_wht.png' class='respPic'></div><div class='trialDiv'><img src='Fruit/mango.png'><br><font class='baseline'><strong>Mega Mangos</strong><p><strong><font class='negOutcome'>You LOST</font><p>You bet: 2</strong></font> &nbsp; &nbsp; &nbsp; &nbsp; &nbsp; &nbsp;<font class='negOutcome'>You receive: <strong>0</strong></font></div>","null","9","Mega Mangos","Fruit/mango.png","Lost","0.2,0.65","14","0.2","120","27","",""
"html-keyboard-response","91","170424","0.0-11.0-1.27","6362aca86b740b1ec4cb6efb","bdp_rwlrn","Fri Mar 10 2023 14:39:12 GMT-0500 (Eastern Standard Time)","635299","Untrustworthy,Trustworthy","","38","","","","decision","","","<div class='trialDiv'><img src='Fruit/Kiwi.png'><br><font class='baseline'><strong>Kiwi Kash</strong><p>Choose number of points to bet.</font><div class='respPicDiv'><img src='img/responseButtonOffersNo0L.png' class='respPic'></div></div>","1","10","Kiwi Kash","Fruit/Kiwi.png","Lost","0.65,0.35","12","0.65","125","28","",""
"html-keyboard-response","92","170678","0.0-11.0-2.27","6362aca86b740b1ec4cb6efb","bdp_rwlrn","Fri Mar 10 2023 14:39:12 GMT-0500 (Eastern Standard Time)","635299","Untrustworthy,Trustworthy","","null","","","","decisionFB","","","<div class='trialDiv'><img src='Fruit/Kiwi.png'><br><font class='baseline'><strong>Kiwi Kash</strong><p>Choose number of points to bet.</font><div class='respPicDiv'><img src='img/responseButtonOffersNo0L1.png' class='respPic'></div></div>","null","10","Kiwi Kash","Fruit/Kiwi.png","Lost","0.65,0.35","12","0.65","124","28","",""
"html-keyboard-response","93","171689","0.0-11.0-3.27","6362aca86b740b1ec4cb6efb","bdp_rwlrn","Fri Mar 10 2023 14:39:12 GMT-0500 (Eastern Standard Time)","635299","Untrustworthy,Trustworthy","","null","","","","feedback","","","<div class='respPicDiv'><img src='img/responseButtonOffersNo0_wht.png' class='respPic'></div><div class='trialDiv'><img src='Fruit/Kiwi.png'><br><font class='baseline'><strong>Kiwi Kash</strong><p><strong><font class='negOutcome'>You LOST</font><p>You bet: 1</strong></font> &nbsp; &nbsp; &nbsp; &nbsp; &nbsp; &nbsp;<font class='negOutcome'>You receive: <strong>0</strong></font></div>","null","10","Kiwi Kash","Fruit/Kiwi.png","Lost","0.65,0.35","12","0.65","124","28","",""
"html-keyboard-response","94","172365","0.0-11.0-1.28","6362aca86b740b1ec4cb6efb","bdp_rwlrn","Fri Mar 10 2023 14:39:12 GMT-0500 (Eastern Standard Time)","635299","Untrustworthy,Trustworthy","","672","","","","decision","","","<div class='trialDiv'><img src='Fruit/bananas.png'><br><font class='baseline'><strong>Banana Bonanza</strong><p>Choose number of points to bet.</font><div class='respPicDiv'><img src='img/responseButtonOffersNo0L.png' class='respPic'></div></div>","2","10","Banana Bonanza","Fruit/bananas.png","Won","0.65,0.2","8","0.65","129","29","",""
"html-keyboard-response","95","172620","0.0-11.0-2.28","6362aca86b740b1ec4cb6efb","bdp_rwlrn","Fri Mar 10 2023 14:39:12 GMT-0500 (Eastern Standard Time)","635299","Untrustworthy,Trustworthy","","null","","","","decisionFB","","","<div class='trialDiv'><img src='Fruit/bananas.png'><br><font class='baseline'><strong>Banana Bonanza</strong><p>Choose number of points to bet.</font><div class='respPicDiv'><img src='img/responseButtonOffersNo0L2.png' class='respPic'></div></div>","null","10","Banana Bonanza","Fruit/bananas.png","Won","0.65,0.2","8","0.65","127","29","",""
"html-keyboard-response","96","173625","0.0-11.0-3.28","6362aca86b740b1ec4cb6efb","bdp_rwlrn","Fri Mar 10 2023 14:39:12 GMT-0500 (Eastern Standard Time)","635299","Untrustworthy,Trustworthy","","null","","","","feedback","","","<div class='respPicDiv'><img src='img/responseButtonOffersNo0_wht.png' class='respPic'></div><div class='trialDiv'><img src='Fruit/bananas.png'><br><font class='baseline'><strong>Banana Bonanza</strong><p><strong><font class='posOutcome'>You WON</font><p>You bet: 2</strong></font> &nbsp; &nbsp; &nbsp; &nbsp; &nbsp; &nbsp;<font class='posOutcome'>you receive: <strong>4</strong></font></div>","null","10","Banana Bonanza","Fruit/bananas.png","Won","0.65,0.2","8","0.65","131","29","",""
"html-keyboard-response","97","173873","0.0-11.0-1.29","6362aca86b740b1ec4cb6efb","bdp_rwlrn","Fri Mar 10 2023 14:39:12 GMT-0500 (Eastern Standard Time)","635299","Untrustworthy,Trustworthy","","244","","","","decision","","","<div class='trialDiv'><img src='Fruit/mango.png'><br><font class='baseline'><strong>Mega Mangos</strong><p>Choose number of points to bet.</font><div class='respPicDiv'><img src='img/responseButtonOffersNo0L.png' class='respPic'></div></div>","3","10","Mega Mangos","Fruit/mango.png","Lost","0.2,0.65","14","0.2","136","30","",""
"html-keyboard-response","98","174127","0.0-11.0-2.29","6362aca86b740b1ec4cb6efb","bdp_rwlrn","Fri Mar 10 2023 14:39:12 GMT-0500 (Eastern Standard Time)","635299","Untrustworthy,Trustworthy","","null","","","","decisionFB","","","<div class='trialDiv'><img src='Fruit/mango.png'><br><font class='baseline'><strong>Mega Mangos</strong><p>Choose number of points to bet.</font><div class='respPicDiv'><img src='img/responseButtonOffersNo0L3.png' class='respPic'></div></div>","null","10","Mega Mangos","Fruit/mango.png","Lost","0.2,0.65","14","0.2","133","30","",""
"html-keyboard-response","99","175132","0.0-11.0-3.29","6362aca86b740b1ec4cb6efb","bdp_rwlrn","Fri Mar 10 2023 14:39:12 GMT-0500 (Eastern Standard Time)","635299","Untrustworthy,Trustworthy","","null","","","","feedback","","","<div class='respPicDiv'><img src='img/responseButtonOffersNo0_wht.png' class='respPic'></div><div class='trialDiv'><img src='Fruit/mango.png'><br><font class='baseline'><strong>Mega Mangos</strong><p><strong><font class='negOutcome'>You LOST</font><p>You bet: 3</strong></font> &nbsp; &nbsp; &nbsp; &nbsp; &nbsp; &nbsp;<font class='negOutcome'>You receive: <strong>0</strong></font></div>","null","10","Mega Mangos","Fruit/mango.png","Lost","0.2,0.65","14","0.2","133","30","",""
"html-keyboard-response","100","175172","0.0-11.0-1.30","6362aca86b740b1ec4cb6efb","bdp_rwlrn","Fri Mar 10 2023 14:39:12 GMT-0500 (Eastern Standard Time)","635299","Untrustworthy,Trustworthy","","37","","","","decision","","","<div class='trialDiv'><img src='Fruit/bananas.png'><br><font class='baseline'><strong>Banana Bonanza</strong><p>Choose number of points to bet.</font><div class='respPicDiv'><img src='img/responseButtonOffersNo0L.png' class='respPic'></div></div>","2","11","Banana Bonanza","Fruit/bananas.png","Lost","0.65,0.2","8","0.65","138","31","",""
"html-keyboard-response","101","175426","0.0-11.0-2.30","6362aca86b740b1ec4cb6efb","bdp_rwlrn","Fri Mar 10 2023 14:39:12 GMT-0500 (Eastern Standard Time)","635299","Untrustworthy,Trustworthy","","null","","","","decisionFB","","","<div class='trialDiv'><img src='Fruit/bananas.png'><br><font class='baseline'><strong>Banana Bonanza</strong><p>Choose number of points to bet.</font><div class='respPicDiv'><img src='img/responseButtonOffersNo0L2.png' class='respPic'></div></div>","null","11","Banana Bonanza","Fruit/bananas.png","Lost","0.65,0.2","8","0.65","136","31","",""
"html-keyboard-response","102","176429","0.0-11.0-3.30","6362aca86b740b1ec4cb6efb","bdp_rwlrn","Fri Mar 10 2023 14:39:12 GMT-0500 (Eastern Standard Time)","635299","Untrustworthy,Trustworthy","","null","","","","feedback","","","<div class='respPicDiv'><img src='img/responseButtonOffersNo0_wht.png' class='respPic'></div><div class='trialDiv'><img src='Fruit/bananas.png'><br><font class='baseline'><strong>Banana Bonanza</strong><p><strong><font class='negOutcome'>You LOST</font><p>You bet: 2</strong></font> &nbsp; &nbsp; &nbsp; &nbsp; &nbsp; &nbsp;<font class='negOutcome'>You receive: <strong>0</strong></font></div>","null","11","Banana Bonanza","Fruit/bananas.png","Lost","0.65,0.2","8","0.65","136","31","",""
"html-keyboard-response","103","176730","0.0-11.0-1.31","6362aca86b740b1ec4cb6efb","bdp_rwlrn","Fri Mar 10 2023 14:39:12 GMT-0500 (Eastern Standard Time)","635299","Untrustworthy,Trustworthy","","299","","","","decision","","","<div class='trialDiv'><img src='Fruit/mango.png'><br><font class='baseline'><strong>Mega Mangos</strong><p>Choose number of points to bet.</font><div class='respPicDiv'><img src='img/responseButtonOffersNo0L.png' class='respPic'></div></div>","1","11","Mega Mangos","Fruit/mango.png","Lost","0.2,0.65","14","0.2","141","32","",""
"html-keyboard-response","104","176985","0.0-11.0-2.31","6362aca86b740b1ec4cb6efb","bdp_rwlrn","Fri Mar 10 2023 14:39:12 GMT-0500 (Eastern Standard Time)","635299","Untrustworthy,Trustworthy","","null","","","","decisionFB","","","<div class='trialDiv'><img src='Fruit/mango.png'><br><font class='baseline'><strong>Mega Mangos</strong><p>Choose number of points to bet.</font><div class='respPicDiv'><img src='img/responseButtonOffersNo0L1.png' class='respPic'></div></div>","null","11","Mega Mangos","Fruit/mango.png","Lost","0.2,0.65","14","0.2","140","32","",""
"html-keyboard-response","105","177989","0.0-11.0-3.31","6362aca86b740b1ec4cb6efb","bdp_rwlrn","Fri Mar 10 2023 14:39:12 GMT-0500 (Eastern Standard Time)","635299","Untrustworthy,Trustworthy","","null","","","","feedback","","","<div class='respPicDiv'><img src='img/responseButtonOffersNo0_wht.png' class='respPic'></div><div class='trialDiv'><img src='Fruit/mango.png'><br><font class='baseline'><strong>Mega Mangos</strong><p><strong><font class='negOutcome'>You LOST</font><p>You bet: 1</strong></font> &nbsp; &nbsp; &nbsp; &nbsp; &nbsp; &nbsp;<font class='negOutcome'>You receive: <strong>0</strong></font></div>","null","11","Mega Mangos","Fruit/mango.png","Lost","0.2,0.65","14","0.2","140","32","",""
"html-keyboard-response","106","178476","0.0-11.0-1.32","6362aca86b740b1ec4cb6efb","bdp_rwlrn","Fri Mar 10 2023 14:39:12 GMT-0500 (Eastern Standard Time)","635299","Untrustworthy,Trustworthy","","485","","","","decision","","","<div class='trialDiv'><img src='Fruit/Kiwi.png'><br><font class='baseline'><strong>Kiwi Kash</strong><p>Choose number of points to bet.</font><div class='respPicDiv'><img src='img/responseButtonOffersNo0L.png' class='respPic'></div></div>","2","11","Kiwi Kash","Fruit/Kiwi.png","Won","0.65,0.35","12","0.65","145","33","",""
"html-keyboard-response","107","178729","0.0-11.0-2.32","6362aca86b740b1ec4cb6efb","bdp_rwlrn","Fri Mar 10 2023 14:39:12 GMT-0500 (Eastern Standard Time)","635299","Untrustworthy,Trustworthy","","null","","","","decisionFB","","","<div class='trialDiv'><img src='Fruit/Kiwi.png'><br><font class='baseline'><strong>Kiwi Kash</strong><p>Choose number of points to bet.</font><div class='respPicDiv'><img src='img/responseButtonOffersNo0L2.png' class='respPic'></div></div>","null","11","Kiwi Kash","Fruit/Kiwi.png","Won","0.65,0.35","12","0.65","143","33","",""
"html-keyboard-response","108","179733","0.0-11.0-3.32","6362aca86b740b1ec4cb6efb","bdp_rwlrn","Fri Mar 10 2023 14:39:12 GMT-0500 (Eastern Standard Time)","635299","Untrustworthy,Trustworthy","","null","","","","feedback","","","<div class='respPicDiv'><img src='img/responseButtonOffersNo0_wht.png' class='respPic'></div><div class='trialDiv'><img src='Fruit/Kiwi.png'><br><font class='baseline'><strong>Kiwi Kash</strong><p><strong><font class='posOutcome'>You WON</font><p>You bet: 2</strong></font> &nbsp; &nbsp; &nbsp; &nbsp; &nbsp; &nbsp;<font class='posOutcome'>you receive: <strong>4</strong></font></div>","null","11","Kiwi Kash","Fruit/Kiwi.png","Won","0.65,0.35","12","0.65","147","33","",""
"html-keyboard-response","109","180442","0.0-11.0-1.33","6362aca86b740b1ec4cb6efb","bdp_rwlrn","Fri Mar 10 2023 14:39:12 GMT-0500 (Eastern Standard Time)","635299","Untrustworthy,Trustworthy","","706","","","","decision","","","<div class='trialDiv'><img src='Fruit/mango.png'><br><font class='baseline'><strong>Mega Mangos</strong><p>Choose number of points to bet.</font><div class='respPicDiv'><img src='img/responseButtonOffersNo0L.png' class='respPic'></div></div>","3","12","Mega Mangos","Fruit/mango.png","Won","0.2,0.65","14","0.2","152","34","",""
"html-keyboard-response","110","180697","0.0-11.0-2.33","6362aca86b740b1ec4cb6efb","bdp_rwlrn","Fri Mar 10 2023 14:39:12 GMT-0500 (Eastern Standard Time)","635299","Untrustworthy,Trustworthy","","null","","","","decisionFB","","","<div class='trialDiv'><img src='Fruit/mango.png'><br><font class='baseline'><strong>Mega Mangos</strong><p>Choose number of points to bet.</font><div class='respPicDiv'><img src='img/responseButtonOffersNo0L3.png' class='respPic'></div></div>","null","12","Mega Mangos","Fruit/mango.png","Won","0.2,0.65","14","0.2","149","34","",""
"html-keyboard-response","111","181701","0.0-11.0-3.33","6362aca86b740b1ec4cb6efb","bdp_rwlrn","Fri Mar 10 2023 14:39:12 GMT-0500 (Eastern Standard Time)","635299","Untrustworthy,Trustworthy","","null","","","","feedback","","","<div class='respPicDiv'><img src='img/responseButtonOffersNo0_wht.png' class='respPic'></div><div class='trialDiv'><img src='Fruit/mango.png'><br><font class='baseline'><strong>Mega Mangos</strong><p><strong><font class='posOutcome'>You WON</font><p>You bet: 3</strong></font> &nbsp; &nbsp; &nbsp; &nbsp; &nbsp; &nbsp;<font class='posOutcome'>you receive: <strong>6</strong></font></div>","null","12","Mega Mangos","Fruit/mango.png","Won","0.2,0.65","14","0.2","155","34","",""
"html-keyboard-response","112","182265","0.0-11.0-1.34","6362aca86b740b1ec4cb6efb","bdp_rwlrn","Fri Mar 10 2023 14:39:12 GMT-0500 (Eastern Standard Time)","635299","Untrustworthy,Trustworthy","","562","","","","decision","","","<div class='trialDiv'><img src='Fruit/Kiwi.png'><br><font class='baseline'><strong>Kiwi Kash</strong><p>Choose number of points to bet.</font><div class='respPicDiv'><img src='img/responseButtonOffersNo0L.png' class='respPic'></div></div>","2","12","Kiwi Kash","Fruit/Kiwi.png","Won","0.65,0.35","12","0.65","160","35","",""
"html-keyboard-response","113","182520","0.0-11.0-2.34","6362aca86b740b1ec4cb6efb","bdp_rwlrn","Fri Mar 10 2023 14:39:12 GMT-0500 (Eastern Standard Time)","635299","Untrustworthy,Trustworthy","","null","","","","decisionFB","","","<div class='trialDiv'><img src='Fruit/Kiwi.png'><br><font class='baseline'><strong>Kiwi Kash</strong><p>Choose number of points to bet.</font><div class='respPicDiv'><img src='img/responseButtonOffersNo0L2.png' class='respPic'></div></div>","null","12","Kiwi Kash","Fruit/Kiwi.png","Won","0.65,0.35","12","0.65","158","35","",""
"html-keyboard-response","114","183524","0.0-11.0-3.34","6362aca86b740b1ec4cb6efb","bdp_rwlrn","Fri Mar 10 2023 14:39:12 GMT-0500 (Eastern Standard Time)","635299","Untrustworthy,Trustworthy","","null","","","","feedback","","","<div class='respPicDiv'><img src='img/responseButtonOffersNo0_wht.png' class='respPic'></div><div class='trialDiv'><img src='Fruit/Kiwi.png'><br><font class='baseline'><strong>Kiwi Kash</strong><p><strong><font class='posOutcome'>You WON</font><p>You bet: 2</strong></font> &nbsp; &nbsp; &nbsp; &nbsp; &nbsp; &nbsp;<font class='posOutcome'>you receive: <strong>4</strong></font></div>","null","12","Kiwi Kash","Fruit/Kiwi.png","Won","0.65,0.35","12","0.65","162","35","",""
"html-keyboard-response","115","184022","0.0-11.0-1.35","6362aca86b740b1ec4cb6efb","bdp_rwlrn","Fri Mar 10 2023 14:39:12 GMT-0500 (Eastern Standard Time)","635299","Untrustworthy,Trustworthy","","494","","","","decision","","","<div class='trialDiv'><img src='Fruit/bananas.png'><br><font class='baseline'><strong>Banana Bonanza</strong><p>Choose number of points to bet.</font><div class='respPicDiv'><img src='img/responseButtonOffersNo0L.png' class='respPic'></div></div>","1","12","Banana Bonanza","Fruit/bananas.png","Lost","0.65,0.2","8","0.65","167","36","",""
"html-keyboard-response","116","184277","0.0-11.0-2.35","6362aca86b740b1ec4cb6efb","bdp_rwlrn","Fri Mar 10 2023 14:39:12 GMT-0500 (Eastern Standard Time)","635299","Untrustworthy,Trustworthy","","null","","","","decisionFB","","","<div class='trialDiv'><img src='Fruit/bananas.png'><br><font class='baseline'><strong>Banana Bonanza</strong><p>Choose number of points to bet.</font><div class='respPicDiv'><img src='img/responseButtonOffersNo0L1.png' class='respPic'></div></div>","null","12","Banana Bonanza","Fruit/bananas.png","Lost","0.65,0.2","8","0.65","166","36","",""
"html-keyboard-response","117","185282","0.0-11.0-3.35","6362aca86b740b1ec4cb6efb","bdp_rwlrn","Fri Mar 10 2023 14:39:12 GMT-0500 (Eastern Standard Time)","635299","Untrustworthy,Trustworthy","","null","","","","feedback","","","<div class='respPicDiv'><img src='img/responseButtonOffersNo0_wht.png' class='respPic'></div><div class='trialDiv'><img src='Fruit/bananas.png'><br><font class='baseline'><strong>Banana Bonanza</strong><p><strong><font class='negOutcome'>You LOST</font><p>You bet: 1</strong></font> &nbsp; &nbsp; &nbsp; &nbsp; &nbsp; &nbsp;<font class='negOutcome'>You receive: <strong>0</strong></font></div>","null","12","Banana Bonanza","Fruit/bananas.png","Lost","0.65,0.2","8","0.65","166","36","",""
"html-keyboard-response","118","185663","0.0-11.0-1.36","6362aca86b740b1ec4cb6efb","bdp_rwlrn","Fri Mar 10 2023 14:39:12 GMT-0500 (Eastern Standard Time)","635299","Untrustworthy,Trustworthy","","378","","","","decision","","","<div class='trialDiv'><img src='Fruit/Kiwi.png'><br><font class='baseline'><strong>Kiwi Kash</strong><p>Choose number of points to bet.</font><div class='respPicDiv'><img src='img/responseButtonOffersNo0L.png' class='respPic'></div></div>","1","13","Kiwi Kash","Fruit/Kiwi.png","Won","0.65,0.35","12","0.65","171","37","",""
"html-keyboard-response","119","185917","0.0-11.0-2.36","6362aca86b740b1ec4cb6efb","bdp_rwlrn","Fri Mar 10 2023 14:39:12 GMT-0500 (Eastern Standard Time)","635299","Untrustworthy,Trustworthy","","null","","","","decisionFB","","","<div class='trialDiv'><img src='Fruit/Kiwi.png'><br><font class='baseline'><strong>Kiwi Kash</strong><p>Choose number of points to bet.</font><div class='respPicDiv'><img src='img/responseButtonOffersNo0L1.png' class='respPic'></div></div>","null","13","Kiwi Kash","Fruit/Kiwi.png","Won","0.65,0.35","12","0.65","170","37","",""
"html-keyboard-response","120","186922","0.0-11.0-3.36","6362aca86b740b1ec4cb6efb","bdp_rwlrn","Fri Mar 10 2023 14:39:12 GMT-0500 (Eastern Standard Time)","635299","Untrustworthy,Trustworthy","","null","","","","feedback","","","<div class='respPicDiv'><img src='img/responseButtonOffersNo0_wht.png' class='respPic'></div><div class='trialDiv'><img src='Fruit/Kiwi.png'><br><font class='baseline'><strong>Kiwi Kash</strong><p><strong><font class='posOutcome'>You WON</font><p>You bet: 1</strong></font> &nbsp; &nbsp; &nbsp; &nbsp; &nbsp; &nbsp;<font class='posOutcome'>you receive: <strong>2</strong></font></div>","null","13","Kiwi Kash","Fruit/Kiwi.png","Won","0.65,0.35","12","0.65","172","37","",""
"html-keyboard-response","121","187329","0.0-11.0-1.37","6362aca86b740b1ec4cb6efb","bdp_rwlrn","Fri Mar 10 2023 14:39:12 GMT-0500 (Eastern Standard Time)","635299","Untrustworthy,Trustworthy","","403","","","","decision","","","<div class='trialDiv'><img src='Fruit/mango.png'><br><font class='baseline'><strong>Mega Mangos</strong><p>Choose number of points to bet.</font><div class='respPicDiv'><img src='img/responseButtonOffersNo0L.png' class='respPic'></div></div>","2","13","Mega Mangos","Fruit/mango.png","Lost","0.2,0.65","14","0.2","177","38","",""
"html-keyboard-response","122","187583","0.0-11.0-2.37","6362aca86b740b1ec4cb6efb","bdp_rwlrn","Fri Mar 10 2023 14:39:12 GMT-0500 (Eastern Standard Time)","635299","Untrustworthy,Trustworthy","","null","","","","decisionFB","","","<div class='trialDiv'><img src='Fruit/mango.png'><br><font class='baseline'><strong>Mega Mangos</strong><p>Choose number of points to bet.</font><div class='respPicDiv'><img src='img/responseButtonOffersNo0L2.png' class='respPic'></div></div>","null","13","Mega Mangos","Fruit/mango.png","Lost","0.2,0.65","14","0.2","175","38","",""
"html-keyboard-response","123","188588","0.0-11.0-3.37","6362aca86b740b1ec4cb6efb","bdp_rwlrn","Fri Mar 10 2023 14:39:12 GMT-0500 (Eastern Standard Time)","635299","Untrustworthy,Trustworthy","","null","","","","feedback","","","<div class='respPicDiv'><img src='img/responseButtonOffersNo0_wht.png' class='respPic'></div><div class='trialDiv'><img src='Fruit/mango.png'><br><font class='baseline'><strong>Mega Mangos</strong><p><strong><font class='negOutcome'>You LOST</font><p>You bet: 2</strong></font> &nbsp; &nbsp; &nbsp; &nbsp; &nbsp; &nbsp;<font class='negOutcome'>You receive: <strong>0</strong></font></div>","null","13","Mega Mangos","Fruit/mango.png","Lost","0.2,0.65","14","0.2","175","38","",""
"html-keyboard-response","124","188972","0.0-11.0-1.38","6362aca86b740b1ec4cb6efb","bdp_rwlrn","Fri Mar 10 2023 14:39:12 GMT-0500 (Eastern Standard Time)","635299","Untrustworthy,Trustworthy","","382","","","","decision","","","<div class='trialDiv'><img src='Fruit/bananas.png'><br><font class='baseline'><strong>Banana Bonanza</strong><p>Choose number of points to bet.</font><div class='respPicDiv'><img src='img/responseButtonOffersNo0L.png' class='respPic'></div></div>","1","13","Banana Bonanza","Fruit/bananas.png","Lost","0.65,0.2","8","0.65","180","39","",""
"html-keyboard-response","125","189227","0.0-11.0-2.38","6362aca86b740b1ec4cb6efb","bdp_rwlrn","Fri Mar 10 2023 14:39:12 GMT-0500 (Eastern Standard Time)","635299","Untrustworthy,Trustworthy","","null","","","","decisionFB","","","<div class='trialDiv'><img src='Fruit/bananas.png'><br><font class='baseline'><strong>Banana Bonanza</strong><p>Choose number of points to bet.</font><div class='respPicDiv'><img src='img/responseButtonOffersNo0L1.png' class='respPic'></div></div>","null","13","Banana Bonanza","Fruit/bananas.png","Lost","0.65,0.2","8","0.65","179","39","",""
"html-keyboard-response","126","190231","0.0-11.0-3.38","6362aca86b740b1ec4cb6efb","bdp_rwlrn","Fri Mar 10 2023 14:39:12 GMT-0500 (Eastern Standard Time)","635299","Untrustworthy,Trustworthy","","null","","","","feedback","","","<div class='respPicDiv'><img src='img/responseButtonOffersNo0_wht.png' class='respPic'></div><div class='trialDiv'><img src='Fruit/bananas.png'><br><font class='baseline'><strong>Banana Bonanza</strong><p><strong><font class='negOutcome'>You LOST</font><p>You bet: 1</strong></font> &nbsp; &nbsp; &nbsp; &nbsp; &nbsp; &nbsp;<font class='negOutcome'>You receive: <strong>0</strong></font></div>","null","13","Banana Bonanza","Fruit/bananas.png","Lost","0.65,0.2","8","0.65","179","39","",""
"html-keyboard-response","127","190772","0.0-11.0-1.39","6362aca86b740b1ec4cb6efb","bdp_rwlrn","Fri Mar 10 2023 14:39:12 GMT-0500 (Eastern Standard Time)","635299","Untrustworthy,Trustworthy","","538","","","","decision","","","<div class='trialDiv'><img src='Fruit/mango.png'><br><font class='baseline'><strong>Mega Mangos</strong><p>Choose number of points to bet.</font><div class='respPicDiv'><img src='img/responseButtonOffersNo0L.png' class='respPic'></div></div>","1","14","Mega Mangos","Fruit/mango.png","Won","0.2,0.65","14","0.2","184","40","",""
"html-keyboard-response","128","191026","0.0-11.0-2.39","6362aca86b740b1ec4cb6efb","bdp_rwlrn","Fri Mar 10 2023 14:39:12 GMT-0500 (Eastern Standard Time)","635299","Untrustworthy,Trustworthy","","null","","","","decisionFB","","","<div class='trialDiv'><img src='Fruit/mango.png'><br><font class='baseline'><strong>Mega Mangos</strong><p>Choose number of points to bet.</font><div class='respPicDiv'><img src='img/responseButtonOffersNo0L1.png' class='respPic'></div></div>","null","14","Mega Mangos","Fruit/mango.png","Won","0.2,0.65","14","0.2","183","40","",""
"html-keyboard-response","129","192031","0.0-11.0-3.39","6362aca86b740b1ec4cb6efb","bdp_rwlrn","Fri Mar 10 2023 14:39:12 GMT-0500 (Eastern Standard Time)","635299","Untrustworthy,Trustworthy","","null","","","","feedback","","","<div class='respPicDiv'><img src='img/responseButtonOffersNo0_wht.png' class='respPic'></div><div class='trialDiv'><img src='Fruit/mango.png'><br><font class='baseline'><strong>Mega Mangos</strong><p><strong><font class='posOutcome'>You WON</font><p>You bet: 1</strong></font> &nbsp; &nbsp; &nbsp; &nbsp; &nbsp; &nbsp;<font class='posOutcome'>you receive: <strong>2</strong></font></div>","null","14","Mega Mangos","Fruit/mango.png","Won","0.2,0.65","14","0.2","185","40","",""
"html-keyboard-response","130","201976","0.0-11.0-1.40","6362aca86b740b1ec4cb6efb","bdp_rwlrn","Fri Mar 10 2023 14:39:12 GMT-0500 (Eastern Standard Time)","635299","Untrustworthy,Trustworthy","","9943","","","","decision","","","<div class='trialDiv'><img src='Fruit/Kiwi.png'><br><font class='baseline'><strong>Kiwi Kash</strong><p>Choose number of points to bet.</font><div class='respPicDiv'><img src='img/responseButtonOffersNo0L.png' class='respPic'></div></div>","5","14","Kiwi Kash","Fruit/Kiwi.png","Won","0.65,0.35","12","0.65","190","41","",""
"html-keyboard-response","131","202234","0.0-11.0-2.40","6362aca86b740b1ec4cb6efb","bdp_rwlrn","Fri Mar 10 2023 14:39:12 GMT-0500 (Eastern Standard Time)","635299","Untrustworthy,Trustworthy","","null","","","","decisionFB","","","<div class='trialDiv'><img src='Fruit/Kiwi.png'><br><font class='baseline'><strong>Kiwi Kash</strong><p>Choose number of points to bet.</font><div class='respPicDiv'><img src='img/responseButtonOffersNo0L5.png' class='respPic'></div></div>","null","14","Kiwi Kash","Fruit/Kiwi.png","Won","0.65,0.35","12","0.65","185","41","",""
"html-keyboard-response","132","203240","0.0-11.0-3.40","6362aca86b740b1ec4cb6efb","bdp_rwlrn","Fri Mar 10 2023 14:39:12 GMT-0500 (Eastern Standard Time)","635299","Untrustworthy,Trustworthy","","null","","","","feedback","","","<div class='respPicDiv'><img src='img/responseButtonOffersNo0_wht.png' class='respPic'></div><div class='trialDiv'><img src='Fruit/Kiwi.png'><br><font class='baseline'><strong>Kiwi Kash</strong><p><strong><font class='posOutcome'>You WON</font><p>You bet: 5</strong></font> &nbsp; &nbsp; &nbsp; &nbsp; &nbsp; &nbsp;<font class='posOutcome'>you receive: <strong>10</strong></font></div>","null","14","Kiwi Kash","Fruit/Kiwi.png","Won","0.65,0.35","12","0.65","195","41","",""
"html-keyboard-response","133","213161","0.0-11.0-1.41","6362aca86b740b1ec4cb6efb","bdp_rwlrn","Fri Mar 10 2023 14:39:12 GMT-0500 (Eastern Standard Time)","635299","Untrustworthy,Trustworthy","","9917","","","","decision","","","<div class='trialDiv'><img src='Fruit/bananas.png'><br><font class='baseline'><strong>Banana Bonanza</strong><p>Choose number of points to bet.</font><div class='respPicDiv'><img src='img/responseButtonOffersNo0L.png' class='respPic'></div></div>","3","14","Banana Bonanza","Fruit/bananas.png","Lost","0.65,0.2","8","0.65","200","42","",""
"html-keyboard-response","134","213415","0.0-11.0-2.41","6362aca86b740b1ec4cb6efb","bdp_rwlrn","Fri Mar 10 2023 14:39:12 GMT-0500 (Eastern Standard Time)","635299","Untrustworthy,Trustworthy","","null","","","","decisionFB","","","<div class='trialDiv'><img src='Fruit/bananas.png'><br><font class='baseline'><strong>Banana Bonanza</strong><p>Choose number of points to bet.</font><div class='respPicDiv'><img src='img/responseButtonOffersNo0L3.png' class='respPic'></div></div>","null","14","Banana Bonanza","Fruit/bananas.png","Lost","0.65,0.2","8","0.65","197","42","",""
"html-keyboard-response","135","214421","0.0-11.0-3.41","6362aca86b740b1ec4cb6efb","bdp_rwlrn","Fri Mar 10 2023 14:39:12 GMT-0500 (Eastern Standard Time)","635299","Untrustworthy,Trustworthy","","null","","","","feedback","","","<div class='respPicDiv'><img src='img/responseButtonOffersNo0_wht.png' class='respPic'></div><div class='trialDiv'><img src='Fruit/bananas.png'><br><font class='baseline'><strong>Banana Bonanza</strong><p><strong><font class='negOutcome'>You LOST</font><p>You bet: 3</strong></font> &nbsp; &nbsp; &nbsp; &nbsp; &nbsp; &nbsp;<font class='negOutcome'>You receive: <strong>0</strong></font></div>","null","14","Banana Bonanza","Fruit/bananas.png","Lost","0.65,0.2","8","0.65","197","42","",""
"html-keyboard-response","136","214780","0.0-11.0-1.42","6362aca86b740b1ec4cb6efb","bdp_rwlrn","Fri Mar 10 2023 14:39:12 GMT-0500 (Eastern Standard Time)","635299","Untrustworthy,Trustworthy","","355","","","","decision","","","<div class='trialDiv'><img src='Fruit/mango.png'><br><font class='baseline'><strong>Mega Mangos</strong><p>Choose number of points to bet.</font><div class='respPicDiv'><img src='img/responseButtonOffersNo0L.png' class='respPic'></div></div>","2","15","Mega Mangos","Fruit/mango.png","Lost","0.2,0.65","14","0.2","202","43","",""
"html-keyboard-response","137","215035","0.0-11.0-2.42","6362aca86b740b1ec4cb6efb","bdp_rwlrn","Fri Mar 10 2023 14:39:12 GMT-0500 (Eastern Standard Time)","635299","Untrustworthy,Trustworthy","","null","","","","decisionFB","","","<div class='trialDiv'><img src='Fruit/mango.png'><br><font class='baseline'><strong>Mega Mangos</strong><p>Choose number of points to bet.</font><div class='respPicDiv'><img src='img/responseButtonOffersNo0L2.png' class='respPic'></div></div>","null","15","Mega Mangos","Fruit/mango.png","Lost","0.2,0.65","14","0.2","200","43","",""
"html-keyboard-response","138","216039","0.0-11.0-3.42","6362aca86b740b1ec4cb6efb","bdp_rwlrn","Fri Mar 10 2023 14:39:12 GMT-0500 (Eastern Standard Time)","635299","Untrustworthy,Trustworthy","","null","","","","feedback","","","<div class='respPicDiv'><img src='img/responseButtonOffersNo0_wht.png' class='respPic'></div><div class='trialDiv'><img src='Fruit/mango.png'><br><font class='baseline'><strong>Mega Mangos</strong><p><strong><font class='negOutcome'>You LOST</font><p>You bet: 2</strong></font> &nbsp; &nbsp; &nbsp; &nbsp; &nbsp; &nbsp;<font class='negOutcome'>You receive: <strong>0</strong></font></div>","null","15","Mega Mangos","Fruit/mango.png","Lost","0.2,0.65","14","0.2","200","43","",""
"html-keyboard-response","139","216738","0.0-11.0-1.43","6362aca86b740b1ec4cb6efb","bdp_rwlrn","Fri Mar 10 2023 14:39:12 GMT-0500 (Eastern Standard Time)","635299","Untrustworthy,Trustworthy","","695","","","","decision","","","<div class='trialDiv'><img src='Fruit/bananas.png'><br><font class='baseline'><strong>Banana Bonanza</strong><p>Choose number of points to bet.</font><div class='respPicDiv'><img src='img/responseButtonOffersNo0L.png' class='respPic'></div></div>","1","15","Banana Bonanza","Fruit/bananas.png","Lost","0.65,0.2","8","0.65","205","44","",""
"html-keyboard-response","140","216991","0.0-11.0-2.43","6362aca86b740b1ec4cb6efb","bdp_rwlrn","Fri Mar 10 2023 14:39:12 GMT-0500 (Eastern Standard Time)","635299","Untrustworthy,Trustworthy","","null","","","","decisionFB","","","<div class='trialDiv'><img src='Fruit/bananas.png'><br><font class='baseline'><strong>Banana Bonanza</strong><p>Choose number of points to bet.</font><div class='respPicDiv'><img src='img/responseButtonOffersNo0L1.png' class='respPic'></div></div>","null","15","Banana Bonanza","Fruit/bananas.png","Lost","0.65,0.2","8","0.65","204","44","",""
"html-keyboard-response","141","217995","0.0-11.0-3.43","6362aca86b740b1ec4cb6efb","bdp_rwlrn","Fri Mar 10 2023 14:39:12 GMT-0500 (Eastern Standard Time)","635299","Untrustworthy,Trustworthy","","null","","","","feedback","","","<div class='respPicDiv'><img src='img/responseButtonOffersNo0_wht.png' class='respPic'></div><div class='trialDiv'><img src='Fruit/bananas.png'><br><font class='baseline'><strong>Banana Bonanza</strong><p><strong><font class='negOutcome'>You LOST</font><p>You bet: 1</strong></font> &nbsp; &nbsp; &nbsp; &nbsp; &nbsp; &nbsp;<font class='negOutcome'>You receive: <strong>0</strong></font></div>","null","15","Banana Bonanza","Fruit/bananas.png","Lost","0.65,0.2","8","0.65","204","44","",""
"html-keyboard-response","142","218717","0.0-11.0-1.44","6362aca86b740b1ec4cb6efb","bdp_rwlrn","Fri Mar 10 2023 14:39:12 GMT-0500 (Eastern Standard Time)","635299","Untrustworthy,Trustworthy","","719","","","","decision","","","<div class='trialDiv'><img src='Fruit/Kiwi.png'><br><font class='baseline'><strong>Kiwi Kash</strong><p>Choose number of points to bet.</font><div class='respPicDiv'><img src='img/responseButtonOffersNo0L.png' class='respPic'></div></div>","1","15","Kiwi Kash","Fruit/Kiwi.png","Won","0.65,0.35","12","0.65","209","45","",""
"html-keyboard-response","143","218971","0.0-11.0-2.44","6362aca86b740b1ec4cb6efb","bdp_rwlrn","Fri Mar 10 2023 14:39:12 GMT-0500 (Eastern Standard Time)","635299","Untrustworthy,Trustworthy","","null","","","","decisionFB","","","<div class='trialDiv'><img src='Fruit/Kiwi.png'><br><font class='baseline'><strong>Kiwi Kash</strong><p>Choose number of points to bet.</font><div class='respPicDiv'><img src='img/responseButtonOffersNo0L1.png' class='respPic'></div></div>","null","15","Kiwi Kash","Fruit/Kiwi.png","Won","0.65,0.35","12","0.65","208","45","",""
"html-keyboard-response","144","219976","0.0-11.0-3.44","6362aca86b740b1ec4cb6efb","bdp_rwlrn","Fri Mar 10 2023 14:39:12 GMT-0500 (Eastern Standard Time)","635299","Untrustworthy,Trustworthy","","null","","","","feedback","","","<div class='respPicDiv'><img src='img/responseButtonOffersNo0_wht.png' class='respPic'></div><div class='trialDiv'><img src='Fruit/Kiwi.png'><br><font class='baseline'><strong>Kiwi Kash</strong><p><strong><font class='posOutcome'>You WON</font><p>You bet: 1</strong></font> &nbsp; &nbsp; &nbsp; &nbsp; &nbsp; &nbsp;<font class='posOutcome'>you receive: <strong>2</strong></font></div>","null","15","Kiwi Kash","Fruit/Kiwi.png","Won","0.65,0.35","12","0.65","210","45","",""
"html-keyboard-response","145","220450","0.0-11.0-1.45","6362aca86b740b1ec4cb6efb","bdp_rwlrn","Fri Mar 10 2023 14:39:12 GMT-0500 (Eastern Standard Time)","635299","Untrustworthy,Trustworthy","","471","","","","decision","","","<div class='trialDiv'><img src='Fruit/bananas.png'><br><font class='baseline'><strong>Banana Bonanza</strong><p>Choose number of points to bet.</font><div class='respPicDiv'><img src='img/responseButtonOffersNo0L.png' class='respPic'></div></div>","2","16","Banana Bonanza","Fruit/bananas.png","Lost","0.65,0.2","8","0.65","215","46","",""
"html-keyboard-response","146","220704","0.0-11.0-2.45","6362aca86b740b1ec4cb6efb","bdp_rwlrn","Fri Mar 10 2023 14:39:12 GMT-0500 (Eastern Standard Time)","635299","Untrustworthy,Trustworthy","","null","","","","decisionFB","","","<div class='trialDiv'><img src='Fruit/bananas.png'><br><font class='baseline'><strong>Banana Bonanza</strong><p>Choose number of points to bet.</font><div class='respPicDiv'><img src='img/responseButtonOffersNo0L2.png' class='respPic'></div></div>","null","16","Banana Bonanza","Fruit/bananas.png","Lost","0.65,0.2","8","0.65","213","46","",""
"html-keyboard-response","147","221709","0.0-11.0-3.45","6362aca86b740b1ec4cb6efb","bdp_rwlrn","Fri Mar 10 2023 14:39:12 GMT-0500 (Eastern Standard Time)","635299","Untrustworthy,Trustworthy","","null","","","","feedback","","","<div class='respPicDiv'><img src='img/responseButtonOffersNo0_wht.png' class='respPic'></div><div class='trialDiv'><img src='Fruit/bananas.png'><br><font class='baseline'><strong>Banana Bonanza</strong><p><strong><font class='negOutcome'>You LOST</font><p>You bet: 2</strong></font> &nbsp; &nbsp; &nbsp; &nbsp; &nbsp; &nbsp;<font class='negOutcome'>You receive: <strong>0</strong></font></div>","null","16","Banana Bonanza","Fruit/bananas.png","Lost","0.65,0.2","8","0.65","213","46","",""
"html-keyboard-response","148","222136","0.0-11.0-1.46","6362aca86b740b1ec4cb6efb","bdp_rwlrn","Fri Mar 10 2023 14:39:12 GMT-0500 (Eastern Standard Time)","635299","Untrustworthy,Trustworthy","","425","","","","decision","","","<div class='trialDiv'><img src='Fruit/Kiwi.png'><br><font class='baseline'><strong>Kiwi Kash</strong><p>Choose number of points to bet.</font><div class='respPicDiv'><img src='img/responseButtonOffersNo0L.png' class='respPic'></div></div>","1","16","Kiwi Kash","Fruit/Kiwi.png","Lost","0.65,0.35","12","0.65","218","47","",""
"html-keyboard-response","149","222390","0.0-11.0-2.46","6362aca86b740b1ec4cb6efb","bdp_rwlrn","Fri Mar 10 2023 14:39:12 GMT-0500 (Eastern Standard Time)","635299","Untrustworthy,Trustworthy","","null","","","","decisionFB","","","<div class='trialDiv'><img src='Fruit/Kiwi.png'><br><font class='baseline'><strong>Kiwi Kash</strong><p>Choose number of points to bet.</font><div class='respPicDiv'><img src='img/responseButtonOffersNo0L1.png' class='respPic'></div></div>","null","16","Kiwi Kash","Fruit/Kiwi.png","Lost","0.65,0.35","12","0.65","217","47","",""
"html-keyboard-response","150","223395","0.0-11.0-3.46","6362aca86b740b1ec4cb6efb","bdp_rwlrn","Fri Mar 10 2023 14:39:12 GMT-0500 (Eastern Standard Time)","635299","Untrustworthy,Trustworthy","","null","","","","feedback","","","<div class='respPicDiv'><img src='img/responseButtonOffersNo0_wht.png' class='respPic'></div><div class='trialDiv'><img src='Fruit/Kiwi.png'><br><font class='baseline'><strong>Kiwi Kash</strong><p><strong><font class='negOutcome'>You LOST</font><p>You bet: 1</strong></font> &nbsp; &nbsp; &nbsp; &nbsp; &nbsp; &nbsp;<font class='negOutcome'>You receive: <strong>0</strong></font></div>","null","16","Kiwi Kash","Fruit/Kiwi.png","Lost","0.65,0.35","12","0.65","217","47","",""
"html-keyboard-response","151","223758","0.0-11.0-1.47","6362aca86b740b1ec4cb6efb","bdp_rwlrn","Fri Mar 10 2023 14:39:12 GMT-0500 (Eastern Standard Time)","635299","Untrustworthy,Trustworthy","","360","","","","decision","","","<div class='trialDiv'><img src='Fruit/mango.png'><br><font class='baseline'><strong>Mega Mangos</strong><p>Choose number of points to bet.</font><div class='respPicDiv'><img src='img/responseButtonOffersNo0L.png' class='respPic'></div></div>","1","16","Mega Mangos","Fruit/mango.png","Won","0.2,0.65","14","0.2","222","48","",""
"html-keyboard-response","152","224012","0.0-11.0-2.47","6362aca86b740b1ec4cb6efb","bdp_rwlrn","Fri Mar 10 2023 14:39:12 GMT-0500 (Eastern Standard Time)","635299","Untrustworthy,Trustworthy","","null","","","","decisionFB","","","<div class='trialDiv'><img src='Fruit/mango.png'><br><font class='baseline'><strong>Mega Mangos</strong><p>Choose number of points to bet.</font><div class='respPicDiv'><img src='img/responseButtonOffersNo0L1.png' class='respPic'></div></div>","null","16","Mega Mangos","Fruit/mango.png","Won","0.2,0.65","14","0.2","221","48","",""
"html-keyboard-response","153","225017","0.0-11.0-3.47","6362aca86b740b1ec4cb6efb","bdp_rwlrn","Fri Mar 10 2023 14:39:12 GMT-0500 (Eastern Standard Time)","635299","Untrustworthy,Trustworthy","","null","","","","feedback","","","<div class='respPicDiv'><img src='img/responseButtonOffersNo0_wht.png' class='respPic'></div><div class='trialDiv'><img src='Fruit/mango.png'><br><font class='baseline'><strong>Mega Mangos</strong><p><strong><font class='posOutcome'>You WON</font><p>You bet: 1</strong></font> &nbsp; &nbsp; &nbsp; &nbsp; &nbsp; &nbsp;<font class='posOutcome'>you receive: <strong>2</strong></font></div>","null","16","Mega Mangos","Fruit/mango.png","Won","0.2,0.65","14","0.2","223","48","",""
"html-keyboard-response","154","225492","0.0-11.0-1.48","6362aca86b740b1ec4cb6efb","bdp_rwlrn","Fri Mar 10 2023 14:39:12 GMT-0500 (Eastern Standard Time)","635299","Untrustworthy,Trustworthy","","471","","","","decision","","","<div class='trialDiv'><img src='Fruit/Kiwi.png'><br><font class='baseline'><strong>Kiwi Kash</strong><p>Choose number of points to bet.</font><div class='respPicDiv'><img src='img/responseButtonOffersNo0L.png' class='respPic'></div></div>","2","17","Kiwi Kash","Fruit/Kiwi.png","Lost","0.65,0.35","12","0.65","228","49","",""
"html-keyboard-response","155","225749","0.0-11.0-2.48","6362aca86b740b1ec4cb6efb","bdp_rwlrn","Fri Mar 10 2023 14:39:12 GMT-0500 (Eastern Standard Time)","635299","Untrustworthy,Trustworthy","","null","","","","decisionFB","","","<div class='trialDiv'><img src='Fruit/Kiwi.png'><br><font class='baseline'><strong>Kiwi Kash</strong><p>Choose number of points to bet.</font><div class='respPicDiv'><img src='img/responseButtonOffersNo0L2.png' class='respPic'></div></div>","null","17","Kiwi Kash","Fruit/Kiwi.png","Lost","0.65,0.35","12","0.65","226","49","",""
"html-keyboard-response","156","226753","0.0-11.0-3.48","6362aca86b740b1ec4cb6efb","bdp_rwlrn","Fri Mar 10 2023 14:39:12 GMT-0500 (Eastern Standard Time)","635299","Untrustworthy,Trustworthy","","null","","","","feedback","","","<div class='respPicDiv'><img src='img/responseButtonOffersNo0_wht.png' class='respPic'></div><div class='trialDiv'><img src='Fruit/Kiwi.png'><br><font class='baseline'><strong>Kiwi Kash</strong><p><strong><font class='negOutcome'>You LOST</font><p>You bet: 2</strong></font> &nbsp; &nbsp; &nbsp; &nbsp; &nbsp; &nbsp;<font class='negOutcome'>You receive: <strong>0</strong></font></div>","null","17","Kiwi Kash","Fruit/Kiwi.png","Lost","0.65,0.35","12","0.65","226","49","",""
"html-keyboard-response","157","228145","0.0-11.0-1.49","6362aca86b740b1ec4cb6efb","bdp_rwlrn","Fri Mar 10 2023 14:39:12 GMT-0500 (Eastern Standard Time)","635299","Untrustworthy,Trustworthy","","1385","","","","decision","","","<div class='trialDiv'><img src='Fruit/mango.png'><br><font class='baseline'><strong>Mega Mangos</strong><p>Choose number of points to bet.</font><div class='respPicDiv'><img src='img/responseButtonOffersNo0L.png' class='respPic'></div></div>","1","17","Mega Mangos","Fruit/mango.png","Won","0.2,0.65","14","0.2","231","50","",""
"html-keyboard-response","158","228404","0.0-11.0-2.49","6362aca86b740b1ec4cb6efb","bdp_rwlrn","Fri Mar 10 2023 14:39:12 GMT-0500 (Eastern Standard Time)","635299","Untrustworthy,Trustworthy","","null","","","","decisionFB","","","<div class='trialDiv'><img src='Fruit/mango.png'><br><font class='baseline'><strong>Mega Mangos</strong><p>Choose number of points to bet.</font><div class='respPicDiv'><img src='img/responseButtonOffersNo0L1.png' class='respPic'></div></div>","null","17","Mega Mangos","Fruit/mango.png","Won","0.2,0.65","14","0.2","230","50","",""
"html-keyboard-response","159","229409","0.0-11.0-3.49","6362aca86b740b1ec4cb6efb","bdp_rwlrn","Fri Mar 10 2023 14:39:12 GMT-0500 (Eastern Standard Time)","635299","Untrustworthy,Trustworthy","","null","","","","feedback","","","<div class='respPicDiv'><img src='img/responseButtonOffersNo0_wht.png' class='respPic'></div><div class='trialDiv'><img src='Fruit/mango.png'><br><font class='baseline'><strong>Mega Mangos</strong><p><strong><font class='posOutcome'>You WON</font><p>You bet: 1</strong></font> &nbsp; &nbsp; &nbsp; &nbsp; &nbsp; &nbsp;<font class='posOutcome'>you receive: <strong>2</strong></font></div>","null","17","Mega Mangos","Fruit/mango.png","Won","0.2,0.65","14","0.2","232","50","",""
