"trial_type","trial_index","time_elapsed","internal_node_id","subject_id","task","startTime","totalTime","labels","view_history","rt","event","trial","time","trialtype","success","stimulus","key_press","ltround","name","fileID","outcome","lottotype","lottoswpt","lottocurrpshare","point_total","round","faceID","face"
"pavlovia","0","9","0.0-0.0","60fefd59226b2b1d87bc36db","bdp_rwlrn","Sun Mar 12 2023 16:48:05 GMT-0400 (EDT)","802650","Trustworthy,Untrustworthy","","","","","","","","","","","","","","","","","","","",""
"instructions","1","4393","0.0-1.0","60fefd59226b2b1d87bc36db","bdp_rwlrn","Sun Mar 12 2023 16:48:05 GMT-0400 (EDT)","802650","Trustworthy,Untrustworthy","[{""page_index"":0,""viewing_time"":4383}]","4383","","","","","","","","","","","","","","","","","",""
"","","","","60fefd59226b2b1d87bc36db","bdp_rwlrn","Sun Mar 12 2023 16:48:05 GMT-0400 (EDT)","802650","Trustworthy,Untrustworthy","","","fullscreenenter","2","6725","fullscreenenter","","","","","","","","","","","","","",""
"fullscreen","2","7683","0.0-2.0","60fefd59226b2b1d87bc36db","bdp_rwlrn","Sun Mar 12 2023 16:48:05 GMT-0400 (EDT)","802650","Trustworthy,Untrustworthy","","","","","","","true","","","","","","","","","","","","",""
"instructions","3","58877","0.0-4.0","60fefd59226b2b1d87bc36db","bdp_rwlrn","Sun Mar 12 2023 16:48:05 GMT-0400 (EDT)","802650","Trustworthy,Untrustworthy","[{""page_index"":0,""viewing_time"":7996},{""page_index"":1,""viewing_time"":9826},{""page_index"":2,""viewing_time"":12773},{""page_index"":3,""viewing_time"":9770},{""page_index"":4,""viewing_time"":5260},{""page_index"":5,""viewing_time"":5567}]","51192","","","","","","","","","","","","","","","","","",""
"html-keyboard-response","4","62890","0.0-5.0","60fefd59226b2b1d87bc36db","bdp_rwlrn","Sun Mar 12 2023 16:48:05 GMT-0400 (EDT)","802650","Trustworthy,Untrustworthy","","4009","","","","","","<div class='header' style='text-align:left; position: absolute; top: 5%; left: 5%;'><small>Task 1 of 5</small></div><div class='instruxDiv'><p><strong>1) What is the maximum number of points you can choose to bet on a lottery?</strong></p><p>a) 0</p><p>b) 1</p><p>c) 5</p>","C","","","","","","","","","","",""
"html-keyboard-response","5","65622","0.0-6.0","60fefd59226b2b1d87bc36db","bdp_rwlrn","Sun Mar 12 2023 16:48:05 GMT-0400 (EDT)","802650","Trustworthy,Untrustworthy","","2629","","","","","","<div class='header' style='text-align:left; position: absolute; top: 5%; left: 5%;'><small>Task 1 of 5</small></div><div class='instruxDiv'><p><strong>1) What is the maximum number of points you can choose to bet on a lottery?</strong></p><p>a) 1</p><p>b) 1</p><p style='color:#00FF00'>c) 5</p><h3 style='color:#00FF00'>Correct!</h3><h3 class='center-content'>The correct response is c).</h3><h3 class='center-content'>The maximum number of points you can choose to bet on a lottery is 5 points.</h3><p><em>Press SPACEBAR to continue</em></p></div>"," ","","","","","","","","","","",""
"html-keyboard-response","6","70406","0.0-7.0","60fefd59226b2b1d87bc36db","bdp_rwlrn","Sun Mar 12 2023 16:48:05 GMT-0400 (EDT)","802650","Trustworthy,Untrustworthy","","4681","","","","","","<div class='header' style='text-align:left; position: absolute; top: 5%; left: 5%;'><small>Task 1 of 5</small></div><div class='instruxDiv'><p><strong>2) How many points can you win each round?</strong></p><p>a) 10 points</p><p>b) Double what you bet</p><p>c) Quadruple what you bet</p>","B","","","","","","","","","","",""
"html-keyboard-response","7","71587","0.0-8.0","60fefd59226b2b1d87bc36db","bdp_rwlrn","Sun Mar 12 2023 16:48:05 GMT-0400 (EDT)","802650","Trustworthy,Untrustworthy","","1079","","","","","","<div class='header' style='text-align:left; position: absolute; top: 5%; left: 5%;'><small>Task 1 of 5</small></div><div class='instruxDiv'><p><strong>2) How many points can you win each round?</strong></p><p>a) 10 points</p><p style='color:#00FF00'>b) Double what you bet</p><p>c) Quadruple what you bet</p><h3 style='color:#00FF00'>Correct!</h3><h3 class='center-content'>The correct response is b).</h3><h3 class='center-content'>You can win double the amount of points you bet.</h3><p><em>Press SPACEBAR to continue</em></p></div>"," ","","","","","","","","","","",""
"html-keyboard-response","8","76691","0.0-9.0","60fefd59226b2b1d87bc36db","bdp_rwlrn","Sun Mar 12 2023 16:48:05 GMT-0400 (EDT)","802650","Trustworthy,Untrustworthy","","null","","","","","","<div class='header' style='text-align:left; position: absolute; top: 5%; left: 5%;'><small>Task 1 of 5</small></div><div class='instruxDiv'><p>Thank you for completing the quiz<p>These are the actual lotteries you will be playing in the next block:<p><div class='tc' align='center'><img class='introPic' src='Fruit/papayas.png'><br><strong>Papaya Payday</strong></div><div class='bl' align='center'><img class='introPic' src='Fruit/orange.png'><br><strong>Odds are Orange</strong></div><div class='br' align='center'><img class='introPic' src='Fruit/Kiwi.png'><br><strong>Kiwi Kash</strong></div></div><p>Across <strong>66 rounds</strong> you will play each lottery <strong>22 times</strong> (in random order).<p style='align:center; color:white'><font <em>Press SPACEBAR to continue</em></p>","null","","","","","","","","","","",""
"instructions","9","96693","0.0-10.0","60fefd59226b2b1d87bc36db","bdp_rwlrn","Sun Mar 12 2023 16:48:05 GMT-0400 (EDT)","802650","Trustworthy,Untrustworthy","[{""page_index"":0,""viewing_time"":18423},{""page_index"":1,""viewing_time"":1578}]","20001","","","","","","","","","","","","","","","","","",""
"html-keyboard-response","10","104029","0.0-11.0-1.0","60fefd59226b2b1d87bc36db","bdp_rwlrn","Sun Mar 12 2023 16:48:05 GMT-0400 (EDT)","802650","Trustworthy,Untrustworthy","","7234","","","","decision","","<div class='trialDiv'><img src='Fruit/orange.png'><br><font class='baseline'><strong>Odds are Orange</strong><p>Choose number of points to bet.</font><div class='respPicDiv'><img src='img/responseButtonOffersNo0L.png' class='respPic'></div></div>","3","1","Odds are Orange","Fruit/orange.png","Won","0.8,0.35","14","0.8","5","1","",""
"html-keyboard-response","11","104283","0.0-11.0-2.0","60fefd59226b2b1d87bc36db","bdp_rwlrn","Sun Mar 12 2023 16:48:05 GMT-0400 (EDT)","802650","Trustworthy,Untrustworthy","","null","","","","decisionFB","","<div class='trialDiv'><img src='Fruit/orange.png'><br><font class='baseline'><strong>Odds are Orange</strong><p>Choose number of points to bet.</font><div class='respPicDiv'><img src='img/responseButtonOffersNo0L3.png' class='respPic'></div></div>","null","1","Odds are Orange","Fruit/orange.png","Won","0.8,0.35","14","0.8","2","1","",""
"html-keyboard-response","12","105286","0.0-11.0-3.0","60fefd59226b2b1d87bc36db","bdp_rwlrn","Sun Mar 12 2023 16:48:05 GMT-0400 (EDT)","802650","Trustworthy,Untrustworthy","","null","","","","feedback","","<div class='respPicDiv'><img src='img/responseButtonOffersNo0_wht.png' class='respPic'></div><div class='trialDiv'><img src='Fruit/orange.png'><br><font class='baseline'><strong>Odds are Orange</strong><p><strong><font class='posOutcome'>You WON</font><p>You bet: 3</strong></font> &nbsp; &nbsp; &nbsp; &nbsp; &nbsp; &nbsp;<font class='posOutcome'>you receive: <strong>6</strong></font></div>","null","1","Odds are Orange","Fruit/orange.png","Won","0.8,0.35","14","0.8","8","1","",""
"html-keyboard-response","13","108711","0.0-11.0-1.1","60fefd59226b2b1d87bc36db","bdp_rwlrn","Sun Mar 12 2023 16:48:05 GMT-0400 (EDT)","802650","Trustworthy,Untrustworthy","","3423","","","","decision","","<div class='trialDiv'><img src='Fruit/Kiwi.png'><br><font class='baseline'><strong>Kiwi Kash</strong><p>Choose number of points to bet.</font><div class='respPicDiv'><img src='img/responseButtonOffersNo0L.png' class='respPic'></div></div>","2","1","Kiwi Kash","Fruit/Kiwi.png","Lost","0.35,0.8","14","0.35","13","2","",""
"html-keyboard-response","14","108963","0.0-11.0-2.1","60fefd59226b2b1d87bc36db","bdp_rwlrn","Sun Mar 12 2023 16:48:05 GMT-0400 (EDT)","802650","Trustworthy,Untrustworthy","","null","","","","decisionFB","","<div class='trialDiv'><img src='Fruit/Kiwi.png'><br><font class='baseline'><strong>Kiwi Kash</strong><p>Choose number of points to bet.</font><div class='respPicDiv'><img src='img/responseButtonOffersNo0L2.png' class='respPic'></div></div>","null","1","Kiwi Kash","Fruit/Kiwi.png","Lost","0.35,0.8","14","0.35","11","2","",""
"html-keyboard-response","15","109966","0.0-11.0-3.1","60fefd59226b2b1d87bc36db","bdp_rwlrn","Sun Mar 12 2023 16:48:05 GMT-0400 (EDT)","802650","Trustworthy,Untrustworthy","","null","","","","feedback","","<div class='respPicDiv'><img src='img/responseButtonOffersNo0_wht.png' class='respPic'></div><div class='trialDiv'><img src='Fruit/Kiwi.png'><br><font class='baseline'><strong>Kiwi Kash</strong><p><strong><font class='negOutcome'>You LOST</font><p>You bet: 2</strong></font> &nbsp; &nbsp; &nbsp; &nbsp; &nbsp; &nbsp;<font class='negOutcome'>You receive: <strong>0</strong></font></div>","null","1","Kiwi Kash","Fruit/Kiwi.png","Lost","0.35,0.8","14","0.35","11","2","",""
"html-keyboard-response","16","112365","0.0-11.0-1.2","60fefd59226b2b1d87bc36db","bdp_rwlrn","Sun Mar 12 2023 16:48:05 GMT-0400 (EDT)","802650","Trustworthy,Untrustworthy","","2397","","","","decision","","<div class='trialDiv'><img src='Fruit/papayas.png'><br><font class='baseline'><strong>Papaya Payday</strong><p>Choose number of points to bet.</font><div class='respPicDiv'><img src='img/responseButtonOffersNo0L.png' class='respPic'></div></div>","3","1","Papaya Payday","Fruit/papayas.png","Won","0.2,0.8","13","0.2","16","3","",""
"html-keyboard-response","17","112617","0.0-11.0-2.2","60fefd59226b2b1d87bc36db","bdp_rwlrn","Sun Mar 12 2023 16:48:05 GMT-0400 (EDT)","802650","Trustworthy,Untrustworthy","","null","","","","decisionFB","","<div class='trialDiv'><img src='Fruit/papayas.png'><br><font class='baseline'><strong>Papaya Payday</strong><p>Choose number of points to bet.</font><div class='respPicDiv'><img src='img/responseButtonOffersNo0L3.png' class='respPic'></div></div>","null","1","Papaya Payday","Fruit/papayas.png","Won","0.2,0.8","13","0.2","13","3","",""
"html-keyboard-response","18","113620","0.0-11.0-3.2","60fefd59226b2b1d87bc36db","bdp_rwlrn","Sun Mar 12 2023 16:48:05 GMT-0400 (EDT)","802650","Trustworthy,Untrustworthy","","null","","","","feedback","","<div class='respPicDiv'><img src='img/responseButtonOffersNo0_wht.png' class='respPic'></div><div class='trialDiv'><img src='Fruit/papayas.png'><br><font class='baseline'><strong>Papaya Payday</strong><p><strong><font class='posOutcome'>You WON</font><p>You bet: 3</strong></font> &nbsp; &nbsp; &nbsp; &nbsp; &nbsp; &nbsp;<font class='posOutcome'>you receive: <strong>6</strong></font></div>","null","1","Papaya Payday","Fruit/papayas.png","Won","0.2,0.8","13","0.2","19","3","",""
"html-keyboard-response","19","117686","0.0-11.0-1.3","60fefd59226b2b1d87bc36db","bdp_rwlrn","Sun Mar 12 2023 16:48:05 GMT-0400 (EDT)","802650","Trustworthy,Untrustworthy","","4065","","","","decision","","<div class='trialDiv'><img src='Fruit/orange.png'><br><font class='baseline'><strong>Odds are Orange</strong><p>Choose number of points to bet.</font><div class='respPicDiv'><img src='img/responseButtonOffersNo0L.png' class='respPic'></div></div>","5","2","Odds are Orange","Fruit/orange.png","Won","0.8,0.35","14","0.8","24","4","",""
"html-keyboard-response","20","117939","0.0-11.0-2.3","60fefd59226b2b1d87bc36db","bdp_rwlrn","Sun Mar 12 2023 16:48:05 GMT-0400 (EDT)","802650","Trustworthy,Untrustworthy","","null","","","","decisionFB","","<div class='trialDiv'><img src='Fruit/orange.png'><br><font class='baseline'><strong>Odds are Orange</strong><p>Choose number of points to bet.</font><div class='respPicDiv'><img src='img/responseButtonOffersNo0L5.png' class='respPic'></div></div>","null","2","Odds are Orange","Fruit/orange.png","Won","0.8,0.35","14","0.8","19","4","",""
"html-keyboard-response","21","118941","0.0-11.0-3.3","60fefd59226b2b1d87bc36db","bdp_rwlrn","Sun Mar 12 2023 16:48:05 GMT-0400 (EDT)","802650","Trustworthy,Untrustworthy","","null","","","","feedback","","<div class='respPicDiv'><img src='img/responseButtonOffersNo0_wht.png' class='respPic'></div><div class='trialDiv'><img src='Fruit/orange.png'><br><font class='baseline'><strong>Odds are Orange</strong><p><strong><font class='posOutcome'>You WON</font><p>You bet: 5</strong></font> &nbsp; &nbsp; &nbsp; &nbsp; &nbsp; &nbsp;<font class='posOutcome'>you receive: <strong>10</strong></font></div>","null","2","Odds are Orange","Fruit/orange.png","Won","0.8,0.35","14","0.8","29","4","",""
"html-keyboard-response","22","123042","0.0-11.0-1.4","60fefd59226b2b1d87bc36db","bdp_rwlrn","Sun Mar 12 2023 16:48:05 GMT-0400 (EDT)","802650","Trustworthy,Untrustworthy","","4100","","","","decision","","<div class='trialDiv'><img src='Fruit/papayas.png'><br><font class='baseline'><strong>Papaya Payday</strong><p>Choose number of points to bet.</font><div class='respPicDiv'><img src='img/responseButtonOffersNo0L.png' class='respPic'></div></div>","4","2","Papaya Payday","Fruit/papayas.png","Lost","0.2,0.8","13","0.2","34","5","",""
"html-keyboard-response","23","123295","0.0-11.0-2.4","60fefd59226b2b1d87bc36db","bdp_rwlrn","Sun Mar 12 2023 16:48:05 GMT-0400 (EDT)","802650","Trustworthy,Untrustworthy","","null","","","","decisionFB","","<div class='trialDiv'><img src='Fruit/papayas.png'><br><font class='baseline'><strong>Papaya Payday</strong><p>Choose number of points to bet.</font><div class='respPicDiv'><img src='img/responseButtonOffersNo0L4.png' class='respPic'></div></div>","null","2","Papaya Payday","Fruit/papayas.png","Lost","0.2,0.8","13","0.2","30","5","",""
"html-keyboard-response","24","124296","0.0-11.0-3.4","60fefd59226b2b1d87bc36db","bdp_rwlrn","Sun Mar 12 2023 16:48:05 GMT-0400 (EDT)","802650","Trustworthy,Untrustworthy","","null","","","","feedback","","<div class='respPicDiv'><img src='img/responseButtonOffersNo0_wht.png' class='respPic'></div><div class='trialDiv'><img src='Fruit/papayas.png'><br><font class='baseline'><strong>Papaya Payday</strong><p><strong><font class='negOutcome'>You LOST</font><p>You bet: 4</strong></font> &nbsp; &nbsp; &nbsp; &nbsp; &nbsp; &nbsp;<font class='negOutcome'>You receive: <strong>0</strong></font></div>","null","2","Papaya Payday","Fruit/papayas.png","Lost","0.2,0.8","13","0.2","30","5","",""
"html-keyboard-response","25","128252","0.0-11.0-1.5","60fefd59226b2b1d87bc36db","bdp_rwlrn","Sun Mar 12 2023 16:48:05 GMT-0400 (EDT)","802650","Trustworthy,Untrustworthy","","3955","","","","decision","","<div class='trialDiv'><img src='Fruit/Kiwi.png'><br><font class='baseline'><strong>Kiwi Kash</strong><p>Choose number of points to bet.</font><div class='respPicDiv'><img src='img/responseButtonOffersNo0L.png' class='respPic'></div></div>","1","2","Kiwi Kash","Fruit/Kiwi.png","Lost","0.35,0.8","14","0.35","35","6","",""
"html-keyboard-response","26","128505","0.0-11.0-2.5","60fefd59226b2b1d87bc36db","bdp_rwlrn","Sun Mar 12 2023 16:48:05 GMT-0400 (EDT)","802650","Trustworthy,Untrustworthy","","null","","","","decisionFB","","<div class='trialDiv'><img src='Fruit/Kiwi.png'><br><font class='baseline'><strong>Kiwi Kash</strong><p>Choose number of points to bet.</font><div class='respPicDiv'><img src='img/responseButtonOffersNo0L1.png' class='respPic'></div></div>","null","2","Kiwi Kash","Fruit/Kiwi.png","Lost","0.35,0.8","14","0.35","34","6","",""
"html-keyboard-response","27","129507","0.0-11.0-3.5","60fefd59226b2b1d87bc36db","bdp_rwlrn","Sun Mar 12 2023 16:48:05 GMT-0400 (EDT)","802650","Trustworthy,Untrustworthy","","null","","","","feedback","","<div class='respPicDiv'><img src='img/responseButtonOffersNo0_wht.png' class='respPic'></div><div class='trialDiv'><img src='Fruit/Kiwi.png'><br><font class='baseline'><strong>Kiwi Kash</strong><p><strong><font class='negOutcome'>You LOST</font><p>You bet: 1</strong></font> &nbsp; &nbsp; &nbsp; &nbsp; &nbsp; &nbsp;<font class='negOutcome'>You receive: <strong>0</strong></font></div>","null","2","Kiwi Kash","Fruit/Kiwi.png","Lost","0.35,0.8","14","0.35","34","6","",""
"html-keyboard-response","28","133321","0.0-11.0-1.6","60fefd59226b2b1d87bc36db","bdp_rwlrn","Sun Mar 12 2023 16:48:05 GMT-0400 (EDT)","802650","Trustworthy,Untrustworthy","","3812","","","","decision","","<div class='trialDiv'><img src='Fruit/papayas.png'><br><font class='baseline'><strong>Papaya Payday</strong><p>Choose number of points to bet.</font><div class='respPicDiv'><img src='img/responseButtonOffersNo0L.png' class='respPic'></div></div>","5","3","Papaya Payday","Fruit/papayas.png","Lost","0.2,0.8","13","0.2","39","7","",""
"html-keyboard-response","29","133573","0.0-11.0-2.6","60fefd59226b2b1d87bc36db","bdp_rwlrn","Sun Mar 12 2023 16:48:05 GMT-0400 (EDT)","802650","Trustworthy,Untrustworthy","","null","","","","decisionFB","","<div class='trialDiv'><img src='Fruit/papayas.png'><br><font class='baseline'><strong>Papaya Payday</strong><p>Choose number of points to bet.</font><div class='respPicDiv'><img src='img/responseButtonOffersNo0L5.png' class='respPic'></div></div>","null","3","Papaya Payday","Fruit/papayas.png","Lost","0.2,0.8","13","0.2","34","7","",""
"html-keyboard-response","30","134576","0.0-11.0-3.6","60fefd59226b2b1d87bc36db","bdp_rwlrn","Sun Mar 12 2023 16:48:05 GMT-0400 (EDT)","802650","Trustworthy,Untrustworthy","","null","","","","feedback","","<div class='respPicDiv'><img src='img/responseButtonOffersNo0_wht.png' class='respPic'></div><div class='trialDiv'><img src='Fruit/papayas.png'><br><font class='baseline'><strong>Papaya Payday</strong><p><strong><font class='negOutcome'>You LOST</font><p>You bet: 5</strong></font> &nbsp; &nbsp; &nbsp; &nbsp; &nbsp; &nbsp;<font class='negOutcome'>You receive: <strong>0</strong></font></div>","null","3","Papaya Payday","Fruit/papayas.png","Lost","0.2,0.8","13","0.2","34","7","",""
"html-keyboard-response","31","136336","0.0-11.0-1.7","60fefd59226b2b1d87bc36db","bdp_rwlrn","Sun Mar 12 2023 16:48:05 GMT-0400 (EDT)","802650","Trustworthy,Untrustworthy","","1758","","","","decision","","<div class='trialDiv'><img src='Fruit/orange.png'><br><font class='baseline'><strong>Odds are Orange</strong><p>Choose number of points to bet.</font><div class='respPicDiv'><img src='img/responseButtonOffersNo0L.png' class='respPic'></div></div>","5","3","Odds are Orange","Fruit/orange.png","Lost","0.8,0.35","14","0.8","39","8","",""
"html-keyboard-response","32","136588","0.0-11.0-2.7","60fefd59226b2b1d87bc36db","bdp_rwlrn","Sun Mar 12 2023 16:48:05 GMT-0400 (EDT)","802650","Trustworthy,Untrustworthy","","null","","","","decisionFB","","<div class='trialDiv'><img src='Fruit/orange.png'><br><font class='baseline'><strong>Odds are Orange</strong><p>Choose number of points to bet.</font><div class='respPicDiv'><img src='img/responseButtonOffersNo0L5.png' class='respPic'></div></div>","null","3","Odds are Orange","Fruit/orange.png","Lost","0.8,0.35","14","0.8","34","8","",""
"html-keyboard-response","33","137591","0.0-11.0-3.7","60fefd59226b2b1d87bc36db","bdp_rwlrn","Sun Mar 12 2023 16:48:05 GMT-0400 (EDT)","802650","Trustworthy,Untrustworthy","","null","","","","feedback","","<div class='respPicDiv'><img src='img/responseButtonOffersNo0_wht.png' class='respPic'></div><div class='trialDiv'><img src='Fruit/orange.png'><br><font class='baseline'><strong>Odds are Orange</strong><p><strong><font class='negOutcome'>You LOST</font><p>You bet: 5</strong></font> &nbsp; &nbsp; &nbsp; &nbsp; &nbsp; &nbsp;<font class='negOutcome'>You receive: <strong>0</strong></font></div>","null","3","Odds are Orange","Fruit/orange.png","Lost","0.8,0.35","14","0.8","34","8","",""
"html-keyboard-response","34","139947","0.0-11.0-1.8","60fefd59226b2b1d87bc36db","bdp_rwlrn","Sun Mar 12 2023 16:48:05 GMT-0400 (EDT)","802650","Trustworthy,Untrustworthy","","2354","","","","decision","","<div class='trialDiv'><img src='Fruit/Kiwi.png'><br><font class='baseline'><strong>Kiwi Kash</strong><p>Choose number of points to bet.</font><div class='respPicDiv'><img src='img/responseButtonOffersNo0L.png' class='respPic'></div></div>","3","3","Kiwi Kash","Fruit/Kiwi.png","Lost","0.35,0.8","14","0.35","39","9","",""
"html-keyboard-response","35","140199","0.0-11.0-2.8","60fefd59226b2b1d87bc36db","bdp_rwlrn","Sun Mar 12 2023 16:48:05 GMT-0400 (EDT)","802650","Trustworthy,Untrustworthy","","null","","","","decisionFB","","<div class='trialDiv'><img src='Fruit/Kiwi.png'><br><font class='baseline'><strong>Kiwi Kash</strong><p>Choose number of points to bet.</font><div class='respPicDiv'><img src='img/responseButtonOffersNo0L3.png' class='respPic'></div></div>","null","3","Kiwi Kash","Fruit/Kiwi.png","Lost","0.35,0.8","14","0.35","36","9","",""
"html-keyboard-response","36","141202","0.0-11.0-3.8","60fefd59226b2b1d87bc36db","bdp_rwlrn","Sun Mar 12 2023 16:48:05 GMT-0400 (EDT)","802650","Trustworthy,Untrustworthy","","null","","","","feedback","","<div class='respPicDiv'><img src='img/responseButtonOffersNo0_wht.png' class='respPic'></div><div class='trialDiv'><img src='Fruit/Kiwi.png'><br><font class='baseline'><strong>Kiwi Kash</strong><p><strong><font class='negOutcome'>You LOST</font><p>You bet: 3</strong></font> &nbsp; &nbsp; &nbsp; &nbsp; &nbsp; &nbsp;<font class='negOutcome'>You receive: <strong>0</strong></font></div>","null","3","Kiwi Kash","Fruit/Kiwi.png","Lost","0.35,0.8","14","0.35","36","9","",""
"html-keyboard-response","37","142552","0.0-11.0-1.9","60fefd59226b2b1d87bc36db","bdp_rwlrn","Sun Mar 12 2023 16:48:05 GMT-0400 (EDT)","802650","Trustworthy,Untrustworthy","","1348","","","","decision","","<div class='trialDiv'><img src='Fruit/papayas.png'><br><font class='baseline'><strong>Papaya Payday</strong><p>Choose number of points to bet.</font><div class='respPicDiv'><img src='img/responseButtonOffersNo0L.png' class='respPic'></div></div>","4","4","Papaya Payday","Fruit/papayas.png","Won","0.2,0.8","13","0.2","41","10","",""
"html-keyboard-response","38","142804","0.0-11.0-2.9","60fefd59226b2b1d87bc36db","bdp_rwlrn","Sun Mar 12 2023 16:48:05 GMT-0400 (EDT)","802650","Trustworthy,Untrustworthy","","null","","","","decisionFB","","<div class='trialDiv'><img src='Fruit/papayas.png'><br><font class='baseline'><strong>Papaya Payday</strong><p>Choose number of points to bet.</font><div class='respPicDiv'><img src='img/responseButtonOffersNo0L4.png' class='respPic'></div></div>","null","4","Papaya Payday","Fruit/papayas.png","Won","0.2,0.8","13","0.2","37","10","",""
"html-keyboard-response","39","143807","0.0-11.0-3.9","60fefd59226b2b1d87bc36db","bdp_rwlrn","Sun Mar 12 2023 16:48:05 GMT-0400 (EDT)","802650","Trustworthy,Untrustworthy","","null","","","","feedback","","<div class='respPicDiv'><img src='img/responseButtonOffersNo0_wht.png' class='respPic'></div><div class='trialDiv'><img src='Fruit/papayas.png'><br><font class='baseline'><strong>Papaya Payday</strong><p><strong><font class='posOutcome'>You WON</font><p>You bet: 4</strong></font> &nbsp; &nbsp; &nbsp; &nbsp; &nbsp; &nbsp;<font class='posOutcome'>you receive: <strong>8</strong></font></div>","null","4","Papaya Payday","Fruit/papayas.png","Won","0.2,0.8","13","0.2","45","10","",""
"html-keyboard-response","40","144837","0.0-11.0-1.10","60fefd59226b2b1d87bc36db","bdp_rwlrn","Sun Mar 12 2023 16:48:05 GMT-0400 (EDT)","802650","Trustworthy,Untrustworthy","","1029","","","","decision","","<div class='trialDiv'><img src='Fruit/orange.png'><br><font class='baseline'><strong>Odds are Orange</strong><p>Choose number of points to bet.</font><div class='respPicDiv'><img src='img/responseButtonOffersNo0L.png' class='respPic'></div></div>","4","4","Odds are Orange","Fruit/orange.png","Lost","0.8,0.35","14","0.8","50","11","",""
"html-keyboard-response","41","145090","0.0-11.0-2.10","60fefd59226b2b1d87bc36db","bdp_rwlrn","Sun Mar 12 2023 16:48:05 GMT-0400 (EDT)","802650","Trustworthy,Untrustworthy","","null","","","","decisionFB","","<div class='trialDiv'><img src='Fruit/orange.png'><br><font class='baseline'><strong>Odds are Orange</strong><p>Choose number of points to bet.</font><div class='respPicDiv'><img src='img/responseButtonOffersNo0L4.png' class='respPic'></div></div>","null","4","Odds are Orange","Fruit/orange.png","Lost","0.8,0.35","14","0.8","46","11","",""
"html-keyboard-response","42","146092","0.0-11.0-3.10","60fefd59226b2b1d87bc36db","bdp_rwlrn","Sun Mar 12 2023 16:48:05 GMT-0400 (EDT)","802650","Trustworthy,Untrustworthy","","null","","","","feedback","","<div class='respPicDiv'><img src='img/responseButtonOffersNo0_wht.png' class='respPic'></div><div class='trialDiv'><img src='Fruit/orange.png'><br><font class='baseline'><strong>Odds are Orange</strong><p><strong><font class='negOutcome'>You LOST</font><p>You bet: 4</strong></font> &nbsp; &nbsp; &nbsp; &nbsp; &nbsp; &nbsp;<font class='negOutcome'>You receive: <strong>0</strong></font></div>","null","4","Odds are Orange","Fruit/orange.png","Lost","0.8,0.35","14","0.8","46","11","",""
"html-keyboard-response","43","147233","0.0-11.0-1.11","60fefd59226b2b1d87bc36db","bdp_rwlrn","Sun Mar 12 2023 16:48:05 GMT-0400 (EDT)","802650","Trustworthy,Untrustworthy","","1141","","","","decision","","<div class='trialDiv'><img src='Fruit/Kiwi.png'><br><font class='baseline'><strong>Kiwi Kash</strong><p>Choose number of points to bet.</font><div class='respPicDiv'><img src='img/responseButtonOffersNo0L.png' class='respPic'></div></div>","2","4","Kiwi Kash","Fruit/Kiwi.png","Lost","0.35,0.8","14","0.35","51","12","",""
"html-keyboard-response","44","147486","0.0-11.0-2.11","60fefd59226b2b1d87bc36db","bdp_rwlrn","Sun Mar 12 2023 16:48:05 GMT-0400 (EDT)","802650","Trustworthy,Untrustworthy","","null","","","","decisionFB","","<div class='trialDiv'><img src='Fruit/Kiwi.png'><br><font class='baseline'><strong>Kiwi Kash</strong><p>Choose number of points to bet.</font><div class='respPicDiv'><img src='img/responseButtonOffersNo0L2.png' class='respPic'></div></div>","null","4","Kiwi Kash","Fruit/Kiwi.png","Lost","0.35,0.8","14","0.35","49","12","",""
"html-keyboard-response","45","148488","0.0-11.0-3.11","60fefd59226b2b1d87bc36db","bdp_rwlrn","Sun Mar 12 2023 16:48:05 GMT-0400 (EDT)","802650","Trustworthy,Untrustworthy","","null","","","","feedback","","<div class='respPicDiv'><img src='img/responseButtonOffersNo0_wht.png' class='respPic'></div><div class='trialDiv'><img src='Fruit/Kiwi.png'><br><font class='baseline'><strong>Kiwi Kash</strong><p><strong><font class='negOutcome'>You LOST</font><p>You bet: 2</strong></font> &nbsp; &nbsp; &nbsp; &nbsp; &nbsp; &nbsp;<font class='negOutcome'>You receive: <strong>0</strong></font></div>","null","4","Kiwi Kash","Fruit/Kiwi.png","Lost","0.35,0.8","14","0.35","49","12","",""
"html-keyboard-response","46","149667","0.0-11.0-1.12","60fefd59226b2b1d87bc36db","bdp_rwlrn","Sun Mar 12 2023 16:48:05 GMT-0400 (EDT)","802650","Trustworthy,Untrustworthy","","1177","","","","decision","","<div class='trialDiv'><img src='Fruit/papayas.png'><br><font class='baseline'><strong>Papaya Payday</strong><p>Choose number of points to bet.</font><div class='respPicDiv'><img src='img/responseButtonOffersNo0L.png' class='respPic'></div></div>","4","5","Papaya Payday","Fruit/papayas.png","Lost","0.2,0.8","13","0.2","54","13","",""
"html-keyboard-response","47","149919","0.0-11.0-2.12","60fefd59226b2b1d87bc36db","bdp_rwlrn","Sun Mar 12 2023 16:48:05 GMT-0400 (EDT)","802650","Trustworthy,Untrustworthy","","null","","","","decisionFB","","<div class='trialDiv'><img src='Fruit/papayas.png'><br><font class='baseline'><strong>Papaya Payday</strong><p>Choose number of points to bet.</font><div class='respPicDiv'><img src='img/responseButtonOffersNo0L4.png' class='respPic'></div></div>","null","5","Papaya Payday","Fruit/papayas.png","Lost","0.2,0.8","13","0.2","50","13","",""
"html-keyboard-response","48","150921","0.0-11.0-3.12","60fefd59226b2b1d87bc36db","bdp_rwlrn","Sun Mar 12 2023 16:48:05 GMT-0400 (EDT)","802650","Trustworthy,Untrustworthy","","null","","","","feedback","","<div class='respPicDiv'><img src='img/responseButtonOffersNo0_wht.png' class='respPic'></div><div class='trialDiv'><img src='Fruit/papayas.png'><br><font class='baseline'><strong>Papaya Payday</strong><p><strong><font class='negOutcome'>You LOST</font><p>You bet: 4</strong></font> &nbsp; &nbsp; &nbsp; &nbsp; &nbsp; &nbsp;<font class='negOutcome'>You receive: <strong>0</strong></font></div>","null","5","Papaya Payday","Fruit/papayas.png","Lost","0.2,0.8","13","0.2","50","13","",""
"html-keyboard-response","49","152063","0.0-11.0-1.13","60fefd59226b2b1d87bc36db","bdp_rwlrn","Sun Mar 12 2023 16:48:05 GMT-0400 (EDT)","802650","Trustworthy,Untrustworthy","","1140","","","","decision","","<div class='trialDiv'><img src='Fruit/orange.png'><br><font class='baseline'><strong>Odds are Orange</strong><p>Choose number of points to bet.</font><div class='respPicDiv'><img src='img/responseButtonOffersNo0L.png' class='respPic'></div></div>","3","5","Odds are Orange","Fruit/orange.png","Lost","0.8,0.35","14","0.8","55","14","",""
"html-keyboard-response","50","152315","0.0-11.0-2.13","60fefd59226b2b1d87bc36db","bdp_rwlrn","Sun Mar 12 2023 16:48:05 GMT-0400 (EDT)","802650","Trustworthy,Untrustworthy","","null","","","","decisionFB","","<div class='trialDiv'><img src='Fruit/orange.png'><br><font class='baseline'><strong>Odds are Orange</strong><p>Choose number of points to bet.</font><div class='respPicDiv'><img src='img/responseButtonOffersNo0L3.png' class='respPic'></div></div>","null","5","Odds are Orange","Fruit/orange.png","Lost","0.8,0.35","14","0.8","52","14","",""
"html-keyboard-response","51","153318","0.0-11.0-3.13","60fefd59226b2b1d87bc36db","bdp_rwlrn","Sun Mar 12 2023 16:48:05 GMT-0400 (EDT)","802650","Trustworthy,Untrustworthy","","null","","","","feedback","","<div class='respPicDiv'><img src='img/responseButtonOffersNo0_wht.png' class='respPic'></div><div class='trialDiv'><img src='Fruit/orange.png'><br><font class='baseline'><strong>Odds are Orange</strong><p><strong><font class='negOutcome'>You LOST</font><p>You bet: 3</strong></font> &nbsp; &nbsp; &nbsp; &nbsp; &nbsp; &nbsp;<font class='negOutcome'>You receive: <strong>0</strong></font></div>","null","5","Odds are Orange","Fruit/orange.png","Lost","0.8,0.35","14","0.8","52","14","",""
"html-keyboard-response","52","155130","0.0-11.0-1.14","60fefd59226b2b1d87bc36db","bdp_rwlrn","Sun Mar 12 2023 16:48:05 GMT-0400 (EDT)","802650","Trustworthy,Untrustworthy","","1810","","","","decision","","<div class='trialDiv'><img src='Fruit/Kiwi.png'><br><font class='baseline'><strong>Kiwi Kash</strong><p>Choose number of points to bet.</font><div class='respPicDiv'><img src='img/responseButtonOffersNo0L.png' class='respPic'></div></div>","4","5","Kiwi Kash","Fruit/Kiwi.png","Won","0.35,0.8","14","0.35","57","15","",""
"html-keyboard-response","53","155382","0.0-11.0-2.14","60fefd59226b2b1d87bc36db","bdp_rwlrn","Sun Mar 12 2023 16:48:05 GMT-0400 (EDT)","802650","Trustworthy,Untrustworthy","","null","","","","decisionFB","","<div class='trialDiv'><img src='Fruit/Kiwi.png'><br><font class='baseline'><strong>Kiwi Kash</strong><p>Choose number of points to bet.</font><div class='respPicDiv'><img src='img/responseButtonOffersNo0L4.png' class='respPic'></div></div>","null","5","Kiwi Kash","Fruit/Kiwi.png","Won","0.35,0.8","14","0.35","53","15","",""
"html-keyboard-response","54","156384","0.0-11.0-3.14","60fefd59226b2b1d87bc36db","bdp_rwlrn","Sun Mar 12 2023 16:48:05 GMT-0400 (EDT)","802650","Trustworthy,Untrustworthy","","null","","","","feedback","","<div class='respPicDiv'><img src='img/responseButtonOffersNo0_wht.png' class='respPic'></div><div class='trialDiv'><img src='Fruit/Kiwi.png'><br><font class='baseline'><strong>Kiwi Kash</strong><p><strong><font class='posOutcome'>You WON</font><p>You bet: 4</strong></font> &nbsp; &nbsp; &nbsp; &nbsp; &nbsp; &nbsp;<font class='posOutcome'>you receive: <strong>8</strong></font></div>","null","5","Kiwi Kash","Fruit/Kiwi.png","Won","0.35,0.8","14","0.35","61","15","",""
"html-keyboard-response","55","157705","0.0-11.0-1.15","60fefd59226b2b1d87bc36db","bdp_rwlrn","Sun Mar 12 2023 16:48:05 GMT-0400 (EDT)","802650","Trustworthy,Untrustworthy","","1320","","","","decision","","<div class='trialDiv'><img src='Fruit/orange.png'><br><font class='baseline'><strong>Odds are Orange</strong><p>Choose number of points to bet.</font><div class='respPicDiv'><img src='img/responseButtonOffersNo0L.png' class='respPic'></div></div>","5","6","Odds are Orange","Fruit/orange.png","Won","0.8,0.35","14","0.8","66","16","",""
"html-keyboard-response","56","157958","0.0-11.0-2.15","60fefd59226b2b1d87bc36db","bdp_rwlrn","Sun Mar 12 2023 16:48:05 GMT-0400 (EDT)","802650","Trustworthy,Untrustworthy","","null","","","","decisionFB","","<div class='trialDiv'><img src='Fruit/orange.png'><br><font class='baseline'><strong>Odds are Orange</strong><p>Choose number of points to bet.</font><div class='respPicDiv'><img src='img/responseButtonOffersNo0L5.png' class='respPic'></div></div>","null","6","Odds are Orange","Fruit/orange.png","Won","0.8,0.35","14","0.8","61","16","",""
"html-keyboard-response","57","158960","0.0-11.0-3.15","60fefd59226b2b1d87bc36db","bdp_rwlrn","Sun Mar 12 2023 16:48:05 GMT-0400 (EDT)","802650","Trustworthy,Untrustworthy","","null","","","","feedback","","<div class='respPicDiv'><img src='img/responseButtonOffersNo0_wht.png' class='respPic'></div><div class='trialDiv'><img src='Fruit/orange.png'><br><font class='baseline'><strong>Odds are Orange</strong><p><strong><font class='posOutcome'>You WON</font><p>You bet: 5</strong></font> &nbsp; &nbsp; &nbsp; &nbsp; &nbsp; &nbsp;<font class='posOutcome'>you receive: <strong>10</strong></font></div>","null","6","Odds are Orange","Fruit/orange.png","Won","0.8,0.35","14","0.8","71","16","",""
"html-keyboard-response","58","160225","0.0-11.0-1.16","60fefd59226b2b1d87bc36db","bdp_rwlrn","Sun Mar 12 2023 16:48:05 GMT-0400 (EDT)","802650","Trustworthy,Untrustworthy","","1264","","","","decision","","<div class='trialDiv'><img src='Fruit/Kiwi.png'><br><font class='baseline'><strong>Kiwi Kash</strong><p>Choose number of points to bet.</font><div class='respPicDiv'><img src='img/responseButtonOffersNo0L.png' class='respPic'></div></div>","4","6","Kiwi Kash","Fruit/Kiwi.png","Lost","0.35,0.8","14","0.35","76","17","",""
"html-keyboard-response","59","160477","0.0-11.0-2.16","60fefd59226b2b1d87bc36db","bdp_rwlrn","Sun Mar 12 2023 16:48:05 GMT-0400 (EDT)","802650","Trustworthy,Untrustworthy","","null","","","","decisionFB","","<div class='trialDiv'><img src='Fruit/Kiwi.png'><br><font class='baseline'><strong>Kiwi Kash</strong><p>Choose number of points to bet.</font><div class='respPicDiv'><img src='img/responseButtonOffersNo0L4.png' class='respPic'></div></div>","null","6","Kiwi Kash","Fruit/Kiwi.png","Lost","0.35,0.8","14","0.35","72","17","",""
"html-keyboard-response","60","161479","0.0-11.0-3.16","60fefd59226b2b1d87bc36db","bdp_rwlrn","Sun Mar 12 2023 16:48:05 GMT-0400 (EDT)","802650","Trustworthy,Untrustworthy","","null","","","","feedback","","<div class='respPicDiv'><img src='img/responseButtonOffersNo0_wht.png' class='respPic'></div><div class='trialDiv'><img src='Fruit/Kiwi.png'><br><font class='baseline'><strong>Kiwi Kash</strong><p><strong><font class='negOutcome'>You LOST</font><p>You bet: 4</strong></font> &nbsp; &nbsp; &nbsp; &nbsp; &nbsp; &nbsp;<font class='negOutcome'>You receive: <strong>0</strong></font></div>","null","6","Kiwi Kash","Fruit/Kiwi.png","Lost","0.35,0.8","14","0.35","72","17","",""
"html-keyboard-response","61","162633","0.0-11.0-1.17","60fefd59226b2b1d87bc36db","bdp_rwlrn","Sun Mar 12 2023 16:48:05 GMT-0400 (EDT)","802650","Trustworthy,Untrustworthy","","1153","","","","decision","","<div class='trialDiv'><img src='Fruit/papayas.png'><br><font class='baseline'><strong>Papaya Payday</strong><p>Choose number of points to bet.</font><div class='respPicDiv'><img src='img/responseButtonOffersNo0L.png' class='respPic'></div></div>","3","6","Papaya Payday","Fruit/papayas.png","Lost","0.2,0.8","13","0.2","77","18","",""
"html-keyboard-response","62","162885","0.0-11.0-2.17","60fefd59226b2b1d87bc36db","bdp_rwlrn","Sun Mar 12 2023 16:48:05 GMT-0400 (EDT)","802650","Trustworthy,Untrustworthy","","null","","","","decisionFB","","<div class='trialDiv'><img src='Fruit/papayas.png'><br><font class='baseline'><strong>Papaya Payday</strong><p>Choose number of points to bet.</font><div class='respPicDiv'><img src='img/responseButtonOffersNo0L3.png' class='respPic'></div></div>","null","6","Papaya Payday","Fruit/papayas.png","Lost","0.2,0.8","13","0.2","74","18","",""
"html-keyboard-response","63","163888","0.0-11.0-3.17","60fefd59226b2b1d87bc36db","bdp_rwlrn","Sun Mar 12 2023 16:48:05 GMT-0400 (EDT)","802650","Trustworthy,Untrustworthy","","null","","","","feedback","","<div class='respPicDiv'><img src='img/responseButtonOffersNo0_wht.png' class='respPic'></div><div class='trialDiv'><img src='Fruit/papayas.png'><br><font class='baseline'><strong>Papaya Payday</strong><p><strong><font class='negOutcome'>You LOST</font><p>You bet: 3</strong></font> &nbsp; &nbsp; &nbsp; &nbsp; &nbsp; &nbsp;<font class='negOutcome'>You receive: <strong>0</strong></font></div>","null","6","Papaya Payday","Fruit/papayas.png","Lost","0.2,0.8","13","0.2","74","18","",""
"html-keyboard-response","64","164847","0.0-11.0-1.18","60fefd59226b2b1d87bc36db","bdp_rwlrn","Sun Mar 12 2023 16:48:05 GMT-0400 (EDT)","802650","Trustworthy,Untrustworthy","","958","","","","decision","","<div class='trialDiv'><img src='Fruit/orange.png'><br><font class='baseline'><strong>Odds are Orange</strong><p>Choose number of points to bet.</font><div class='respPicDiv'><img src='img/responseButtonOffersNo0L.png' class='respPic'></div></div>","4","7","Odds are Orange","Fruit/orange.png","Won","0.8,0.35","14","0.8","79","19","",""
"html-keyboard-response","65","165099","0.0-11.0-2.18","60fefd59226b2b1d87bc36db","bdp_rwlrn","Sun Mar 12 2023 16:48:05 GMT-0400 (EDT)","802650","Trustworthy,Untrustworthy","","null","","","","decisionFB","","<div class='trialDiv'><img src='Fruit/orange.png'><br><font class='baseline'><strong>Odds are Orange</strong><p>Choose number of points to bet.</font><div class='respPicDiv'><img src='img/responseButtonOffersNo0L4.png' class='respPic'></div></div>","null","7","Odds are Orange","Fruit/orange.png","Won","0.8,0.35","14","0.8","75","19","",""
"html-keyboard-response","66","166102","0.0-11.0-3.18","60fefd59226b2b1d87bc36db","bdp_rwlrn","Sun Mar 12 2023 16:48:05 GMT-0400 (EDT)","802650","Trustworthy,Untrustworthy","","null","","","","feedback","","<div class='respPicDiv'><img src='img/responseButtonOffersNo0_wht.png' class='respPic'></div><div class='trialDiv'><img src='Fruit/orange.png'><br><font class='baseline'><strong>Odds are Orange</strong><p><strong><font class='posOutcome'>You WON</font><p>You bet: 4</strong></font> &nbsp; &nbsp; &nbsp; &nbsp; &nbsp; &nbsp;<font class='posOutcome'>you receive: <strong>8</strong></font></div>","null","7","Odds are Orange","Fruit/orange.png","Won","0.8,0.35","14","0.8","83","19","",""
"html-keyboard-response","67","167379","0.0-11.0-1.19","60fefd59226b2b1d87bc36db","bdp_rwlrn","Sun Mar 12 2023 16:48:05 GMT-0400 (EDT)","802650","Trustworthy,Untrustworthy","","1276","","","","decision","","<div class='trialDiv'><img src='Fruit/papayas.png'><br><font class='baseline'><strong>Papaya Payday</strong><p>Choose number of points to bet.</font><div class='respPicDiv'><img src='img/responseButtonOffersNo0L.png' class='respPic'></div></div>","4","7","Papaya Payday","Fruit/papayas.png","Won","0.2,0.8","13","0.2","88","20","",""
"html-keyboard-response","68","167631","0.0-11.0-2.19","60fefd59226b2b1d87bc36db","bdp_rwlrn","Sun Mar 12 2023 16:48:05 GMT-0400 (EDT)","802650","Trustworthy,Untrustworthy","","null","","","","decisionFB","","<div class='trialDiv'><img src='Fruit/papayas.png'><br><font class='baseline'><strong>Papaya Payday</strong><p>Choose number of points to bet.</font><div class='respPicDiv'><img src='img/responseButtonOffersNo0L4.png' class='respPic'></div></div>","null","7","Papaya Payday","Fruit/papayas.png","Won","0.2,0.8","13","0.2","84","20","",""
"html-keyboard-response","69","168634","0.0-11.0-3.19","60fefd59226b2b1d87bc36db","bdp_rwlrn","Sun Mar 12 2023 16:48:05 GMT-0400 (EDT)","802650","Trustworthy,Untrustworthy","","null","","","","feedback","","<div class='respPicDiv'><img src='img/responseButtonOffersNo0_wht.png' class='respPic'></div><div class='trialDiv'><img src='Fruit/papayas.png'><br><font class='baseline'><strong>Papaya Payday</strong><p><strong><font class='posOutcome'>You WON</font><p>You bet: 4</strong></font> &nbsp; &nbsp; &nbsp; &nbsp; &nbsp; &nbsp;<font class='posOutcome'>you receive: <strong>8</strong></font></div>","null","7","Papaya Payday","Fruit/papayas.png","Won","0.2,0.8","13","0.2","92","20","",""
"html-keyboard-response","70","169991","0.0-11.0-1.20","60fefd59226b2b1d87bc36db","bdp_rwlrn","Sun Mar 12 2023 16:48:05 GMT-0400 (EDT)","802650","Trustworthy,Untrustworthy","","1355","","","","decision","","<div class='trialDiv'><img src='Fruit/Kiwi.png'><br><font class='baseline'><strong>Kiwi Kash</strong><p>Choose number of points to bet.</font><div class='respPicDiv'><img src='img/responseButtonOffersNo0L.png' class='respPic'></div></div>","2","7","Kiwi Kash","Fruit/Kiwi.png","Lost","0.35,0.8","14","0.35","97","21","",""
"html-keyboard-response","71","170243","0.0-11.0-2.20","60fefd59226b2b1d87bc36db","bdp_rwlrn","Sun Mar 12 2023 16:48:05 GMT-0400 (EDT)","802650","Trustworthy,Untrustworthy","","null","","","","decisionFB","","<div class='trialDiv'><img src='Fruit/Kiwi.png'><br><font class='baseline'><strong>Kiwi Kash</strong><p>Choose number of points to bet.</font><div class='respPicDiv'><img src='img/responseButtonOffersNo0L2.png' class='respPic'></div></div>","null","7","Kiwi Kash","Fruit/Kiwi.png","Lost","0.35,0.8","14","0.35","95","21","",""
"html-keyboard-response","72","171246","0.0-11.0-3.20","60fefd59226b2b1d87bc36db","bdp_rwlrn","Sun Mar 12 2023 16:48:05 GMT-0400 (EDT)","802650","Trustworthy,Untrustworthy","","null","","","","feedback","","<div class='respPicDiv'><img src='img/responseButtonOffersNo0_wht.png' class='respPic'></div><div class='trialDiv'><img src='Fruit/Kiwi.png'><br><font class='baseline'><strong>Kiwi Kash</strong><p><strong><font class='negOutcome'>You LOST</font><p>You bet: 2</strong></font> &nbsp; &nbsp; &nbsp; &nbsp; &nbsp; &nbsp;<font class='negOutcome'>You receive: <strong>0</strong></font></div>","null","7","Kiwi Kash","Fruit/Kiwi.png","Lost","0.35,0.8","14","0.35","95","21","",""
"html-keyboard-response","73","172281","0.0-11.0-1.21","60fefd59226b2b1d87bc36db","bdp_rwlrn","Sun Mar 12 2023 16:48:05 GMT-0400 (EDT)","802650","Trustworthy,Untrustworthy","","1034","","","","decision","","<div class='trialDiv'><img src='Fruit/papayas.png'><br><font class='baseline'><strong>Papaya Payday</strong><p>Choose number of points to bet.</font><div class='respPicDiv'><img src='img/responseButtonOffersNo0L.png' class='respPic'></div></div>","3","8","Papaya Payday","Fruit/papayas.png","Lost","0.2,0.8","13","0.2","100","22","",""
"html-keyboard-response","74","172533","0.0-11.0-2.21","60fefd59226b2b1d87bc36db","bdp_rwlrn","Sun Mar 12 2023 16:48:05 GMT-0400 (EDT)","802650","Trustworthy,Untrustworthy","","null","","","","decisionFB","","<div class='trialDiv'><img src='Fruit/papayas.png'><br><font class='baseline'><strong>Papaya Payday</strong><p>Choose number of points to bet.</font><div class='respPicDiv'><img src='img/responseButtonOffersNo0L3.png' class='respPic'></div></div>","null","8","Papaya Payday","Fruit/papayas.png","Lost","0.2,0.8","13","0.2","97","22","",""
"html-keyboard-response","75","173535","0.0-11.0-3.21","60fefd59226b2b1d87bc36db","bdp_rwlrn","Sun Mar 12 2023 16:48:05 GMT-0400 (EDT)","802650","Trustworthy,Untrustworthy","","null","","","","feedback","","<div class='respPicDiv'><img src='img/responseButtonOffersNo0_wht.png' class='respPic'></div><div class='trialDiv'><img src='Fruit/papayas.png'><br><font class='baseline'><strong>Papaya Payday</strong><p><strong><font class='negOutcome'>You LOST</font><p>You bet: 3</strong></font> &nbsp; &nbsp; &nbsp; &nbsp; &nbsp; &nbsp;<font class='negOutcome'>You receive: <strong>0</strong></font></div>","null","8","Papaya Payday","Fruit/papayas.png","Lost","0.2,0.8","13","0.2","97","22","",""
"html-keyboard-response","76","175716","0.0-11.0-1.22","60fefd59226b2b1d87bc36db","bdp_rwlrn","Sun Mar 12 2023 16:48:05 GMT-0400 (EDT)","802650","Trustworthy,Untrustworthy","","2179","","","","decision","","<div class='trialDiv'><img src='Fruit/orange.png'><br><font class='baseline'><strong>Odds are Orange</strong><p>Choose number of points to bet.</font><div class='respPicDiv'><img src='img/responseButtonOffersNo0L.png' class='respPic'></div></div>","5","8","Odds are Orange","Fruit/orange.png","Won","0.8,0.35","14","0.8","102","23","",""
"html-keyboard-response","77","175968","0.0-11.0-2.22","60fefd59226b2b1d87bc36db","bdp_rwlrn","Sun Mar 12 2023 16:48:05 GMT-0400 (EDT)","802650","Trustworthy,Untrustworthy","","null","","","","decisionFB","","<div class='trialDiv'><img src='Fruit/orange.png'><br><font class='baseline'><strong>Odds are Orange</strong><p>Choose number of points to bet.</font><div class='respPicDiv'><img src='img/responseButtonOffersNo0L5.png' class='respPic'></div></div>","null","8","Odds are Orange","Fruit/orange.png","Won","0.8,0.35","14","0.8","97","23","",""
"html-keyboard-response","78","176970","0.0-11.0-3.22","60fefd59226b2b1d87bc36db","bdp_rwlrn","Sun Mar 12 2023 16:48:05 GMT-0400 (EDT)","802650","Trustworthy,Untrustworthy","","null","","","","feedback","","<div class='respPicDiv'><img src='img/responseButtonOffersNo0_wht.png' class='respPic'></div><div class='trialDiv'><img src='Fruit/orange.png'><br><font class='baseline'><strong>Odds are Orange</strong><p><strong><font class='posOutcome'>You WON</font><p>You bet: 5</strong></font> &nbsp; &nbsp; &nbsp; &nbsp; &nbsp; &nbsp;<font class='posOutcome'>you receive: <strong>10</strong></font></div>","null","8","Odds are Orange","Fruit/orange.png","Won","0.8,0.35","14","0.8","107","23","",""
"html-keyboard-response","79","178454","0.0-11.0-1.23","60fefd59226b2b1d87bc36db","bdp_rwlrn","Sun Mar 12 2023 16:48:05 GMT-0400 (EDT)","802650","Trustworthy,Untrustworthy","","1482","","","","decision","","<div class='trialDiv'><img src='Fruit/Kiwi.png'><br><font class='baseline'><strong>Kiwi Kash</strong><p>Choose number of points to bet.</font><div class='respPicDiv'><img src='img/responseButtonOffersNo0L.png' class='respPic'></div></div>","4","8","Kiwi Kash","Fruit/Kiwi.png","Lost","0.35,0.8","14","0.35","112","24","",""
"html-keyboard-response","80","178706","0.0-11.0-2.23","60fefd59226b2b1d87bc36db","bdp_rwlrn","Sun Mar 12 2023 16:48:05 GMT-0400 (EDT)","802650","Trustworthy,Untrustworthy","","null","","","","decisionFB","","<div class='trialDiv'><img src='Fruit/Kiwi.png'><br><font class='baseline'><strong>Kiwi Kash</strong><p>Choose number of points to bet.</font><div class='respPicDiv'><img src='img/responseButtonOffersNo0L4.png' class='respPic'></div></div>","null","8","Kiwi Kash","Fruit/Kiwi.png","Lost","0.35,0.8","14","0.35","108","24","",""
"html-keyboard-response","81","179709","0.0-11.0-3.23","60fefd59226b2b1d87bc36db","bdp_rwlrn","Sun Mar 12 2023 16:48:05 GMT-0400 (EDT)","802650","Trustworthy,Untrustworthy","","null","","","","feedback","","<div class='respPicDiv'><img src='img/responseButtonOffersNo0_wht.png' class='respPic'></div><div class='trialDiv'><img src='Fruit/Kiwi.png'><br><font class='baseline'><strong>Kiwi Kash</strong><p><strong><font class='negOutcome'>You LOST</font><p>You bet: 4</strong></font> &nbsp; &nbsp; &nbsp; &nbsp; &nbsp; &nbsp;<font class='negOutcome'>You receive: <strong>0</strong></font></div>","null","8","Kiwi Kash","Fruit/Kiwi.png","Lost","0.35,0.8","14","0.35","108","24","",""
"html-keyboard-response","82","189042","0.0-11.0-1.24","60fefd59226b2b1d87bc36db","bdp_rwlrn","Sun Mar 12 2023 16:48:05 GMT-0400 (EDT)","802650","Trustworthy,Untrustworthy","","9329","","","","decision","","<div class='trialDiv'><img src='Fruit/orange.png'><br><font class='baseline'><strong>Odds are Orange</strong><p>Choose number of points to bet.</font><div class='respPicDiv'><img src='img/responseButtonOffersNo0L.png' class='respPic'></div></div>","2","9","Odds are Orange","Fruit/orange.png","Won","0.8,0.35","14","0.8","113","25","",""
"html-keyboard-response","83","189297","0.0-11.0-2.24","60fefd59226b2b1d87bc36db","bdp_rwlrn","Sun Mar 12 2023 16:48:05 GMT-0400 (EDT)","802650","Trustworthy,Untrustworthy","","null","","","","decisionFB","","<div class='trialDiv'><img src='Fruit/orange.png'><br><font class='baseline'><strong>Odds are Orange</strong><p>Choose number of points to bet.</font><div class='respPicDiv'><img src='img/responseButtonOffersNo0L2.png' class='respPic'></div></div>","null","9","Odds are Orange","Fruit/orange.png","Won","0.8,0.35","14","0.8","111","25","",""
"html-keyboard-response","84","190300","0.0-11.0-3.24","60fefd59226b2b1d87bc36db","bdp_rwlrn","Sun Mar 12 2023 16:48:05 GMT-0400 (EDT)","802650","Trustworthy,Untrustworthy","","null","","","","feedback","","<div class='respPicDiv'><img src='img/responseButtonOffersNo0_wht.png' class='respPic'></div><div class='trialDiv'><img src='Fruit/orange.png'><br><font class='baseline'><strong>Odds are Orange</strong><p><strong><font class='posOutcome'>You WON</font><p>You bet: 2</strong></font> &nbsp; &nbsp; &nbsp; &nbsp; &nbsp; &nbsp;<font class='posOutcome'>you receive: <strong>4</strong></font></div>","null","9","Odds are Orange","Fruit/orange.png","Won","0.8,0.35","14","0.8","115","25","",""
"html-keyboard-response","85","198670","0.0-11.0-1.25","60fefd59226b2b1d87bc36db","bdp_rwlrn","Sun Mar 12 2023 16:48:05 GMT-0400 (EDT)","802650","Trustworthy,Untrustworthy","","8369","","","","decision","","<div class='trialDiv'><img src='Fruit/Kiwi.png'><br><font class='baseline'><strong>Kiwi Kash</strong><p>Choose number of points to bet.</font><div class='respPicDiv'><img src='img/responseButtonOffersNo0L.png' class='respPic'></div></div>","3","9","Kiwi Kash","Fruit/Kiwi.png","Lost","0.35,0.8","14","0.35","120","26","",""
"html-keyboard-response","86","198922","0.0-11.0-2.25","60fefd59226b2b1d87bc36db","bdp_rwlrn","Sun Mar 12 2023 16:48:05 GMT-0400 (EDT)","802650","Trustworthy,Untrustworthy","","null","","","","decisionFB","","<div class='trialDiv'><img src='Fruit/Kiwi.png'><br><font class='baseline'><strong>Kiwi Kash</strong><p>Choose number of points to bet.</font><div class='respPicDiv'><img src='img/responseButtonOffersNo0L3.png' class='respPic'></div></div>","null","9","Kiwi Kash","Fruit/Kiwi.png","Lost","0.35,0.8","14","0.35","117","26","",""
"html-keyboard-response","87","199925","0.0-11.0-3.25","60fefd59226b2b1d87bc36db","bdp_rwlrn","Sun Mar 12 2023 16:48:05 GMT-0400 (EDT)","802650","Trustworthy,Untrustworthy","","null","","","","feedback","","<div class='respPicDiv'><img src='img/responseButtonOffersNo0_wht.png' class='respPic'></div><div class='trialDiv'><img src='Fruit/Kiwi.png'><br><font class='baseline'><strong>Kiwi Kash</strong><p><strong><font class='negOutcome'>You LOST</font><p>You bet: 3</strong></font> &nbsp; &nbsp; &nbsp; &nbsp; &nbsp; &nbsp;<font class='negOutcome'>You receive: <strong>0</strong></font></div>","null","9","Kiwi Kash","Fruit/Kiwi.png","Lost","0.35,0.8","14","0.35","117","26","",""
"html-keyboard-response","88","204856","0.0-11.0-1.26","60fefd59226b2b1d87bc36db","bdp_rwlrn","Sun Mar 12 2023 16:48:05 GMT-0400 (EDT)","802650","Trustworthy,Untrustworthy","","4930","","","","decision","","<div class='trialDiv'><img src='Fruit/papayas.png'><br><font class='baseline'><strong>Papaya Payday</strong><p>Choose number of points to bet.</font><div class='respPicDiv'><img src='img/responseButtonOffersNo0L.png' class='respPic'></div></div>","4","9","Papaya Payday","Fruit/papayas.png","Won","0.2,0.8","13","0.2","122","27","",""
"html-keyboard-response","89","205109","0.0-11.0-2.26","60fefd59226b2b1d87bc36db","bdp_rwlrn","Sun Mar 12 2023 16:48:05 GMT-0400 (EDT)","802650","Trustworthy,Untrustworthy","","null","","","","decisionFB","","<div class='trialDiv'><img src='Fruit/papayas.png'><br><font class='baseline'><strong>Papaya Payday</strong><p>Choose number of points to bet.</font><div class='respPicDiv'><img src='img/responseButtonOffersNo0L4.png' class='respPic'></div></div>","null","9","Papaya Payday","Fruit/papayas.png","Won","0.2,0.8","13","0.2","118","27","",""
"html-keyboard-response","90","206111","0.0-11.0-3.26","60fefd59226b2b1d87bc36db","bdp_rwlrn","Sun Mar 12 2023 16:48:05 GMT-0400 (EDT)","802650","Trustworthy,Untrustworthy","","null","","","","feedback","","<div class='respPicDiv'><img src='img/responseButtonOffersNo0_wht.png' class='respPic'></div><div class='trialDiv'><img src='Fruit/papayas.png'><br><font class='baseline'><strong>Papaya Payday</strong><p><strong><font class='posOutcome'>You WON</font><p>You bet: 4</strong></font> &nbsp; &nbsp; &nbsp; &nbsp; &nbsp; &nbsp;<font class='posOutcome'>you receive: <strong>8</strong></font></div>","null","9","Papaya Payday","Fruit/papayas.png","Won","0.2,0.8","13","0.2","126","27","",""
"html-keyboard-response","91","207746","0.0-11.0-1.27","60fefd59226b2b1d87bc36db","bdp_rwlrn","Sun Mar 12 2023 16:48:05 GMT-0400 (EDT)","802650","Trustworthy,Untrustworthy","","1633","","","","decision","","<div class='trialDiv'><img src='Fruit/orange.png'><br><font class='baseline'><strong>Odds are Orange</strong><p>Choose number of points to bet.</font><div class='respPicDiv'><img src='img/responseButtonOffersNo0L.png' class='respPic'></div></div>","5","10","Odds are Orange","Fruit/orange.png","Won","0.8,0.35","14","0.8","131","28","",""
"html-keyboard-response","92","208001","0.0-11.0-2.27","60fefd59226b2b1d87bc36db","bdp_rwlrn","Sun Mar 12 2023 16:48:05 GMT-0400 (EDT)","802650","Trustworthy,Untrustworthy","","null","","","","decisionFB","","<div class='trialDiv'><img src='Fruit/orange.png'><br><font class='baseline'><strong>Odds are Orange</strong><p>Choose number of points to bet.</font><div class='respPicDiv'><img src='img/responseButtonOffersNo0L5.png' class='respPic'></div></div>","null","10","Odds are Orange","Fruit/orange.png","Won","0.8,0.35","14","0.8","126","28","",""
"html-keyboard-response","93","209003","0.0-11.0-3.27","60fefd59226b2b1d87bc36db","bdp_rwlrn","Sun Mar 12 2023 16:48:05 GMT-0400 (EDT)","802650","Trustworthy,Untrustworthy","","null","","","","feedback","","<div class='respPicDiv'><img src='img/responseButtonOffersNo0_wht.png' class='respPic'></div><div class='trialDiv'><img src='Fruit/orange.png'><br><font class='baseline'><strong>Odds are Orange</strong><p><strong><font class='posOutcome'>You WON</font><p>You bet: 5</strong></font> &nbsp; &nbsp; &nbsp; &nbsp; &nbsp; &nbsp;<font class='posOutcome'>you receive: <strong>10</strong></font></div>","null","10","Odds are Orange","Fruit/orange.png","Won","0.8,0.35","14","0.8","136","28","",""
"html-keyboard-response","94","227241","0.0-11.0-1.28","60fefd59226b2b1d87bc36db","bdp_rwlrn","Sun Mar 12 2023 16:48:05 GMT-0400 (EDT)","802650","Trustworthy,Untrustworthy","","18235","","","","decision","","<div class='trialDiv'><img src='Fruit/Kiwi.png'><br><font class='baseline'><strong>Kiwi Kash</strong><p>Choose number of points to bet.</font><div class='respPicDiv'><img src='img/responseButtonOffersNo0L.png' class='respPic'></div></div>","4","10","Kiwi Kash","Fruit/Kiwi.png","Lost","0.35,0.8","14","0.35","141","29","",""
"html-keyboard-response","95","227496","0.0-11.0-2.28","60fefd59226b2b1d87bc36db","bdp_rwlrn","Sun Mar 12 2023 16:48:05 GMT-0400 (EDT)","802650","Trustworthy,Untrustworthy","","null","","","","decisionFB","","<div class='trialDiv'><img src='Fruit/Kiwi.png'><br><font class='baseline'><strong>Kiwi Kash</strong><p>Choose number of points to bet.</font><div class='respPicDiv'><img src='img/responseButtonOffersNo0L4.png' class='respPic'></div></div>","null","10","Kiwi Kash","Fruit/Kiwi.png","Lost","0.35,0.8","14","0.35","137","29","",""
"html-keyboard-response","96","228499","0.0-11.0-3.28","60fefd59226b2b1d87bc36db","bdp_rwlrn","Sun Mar 12 2023 16:48:05 GMT-0400 (EDT)","802650","Trustworthy,Untrustworthy","","null","","","","feedback","","<div class='respPicDiv'><img src='img/responseButtonOffersNo0_wht.png' class='respPic'></div><div class='trialDiv'><img src='Fruit/Kiwi.png'><br><font class='baseline'><strong>Kiwi Kash</strong><p><strong><font class='negOutcome'>You LOST</font><p>You bet: 4</strong></font> &nbsp; &nbsp; &nbsp; &nbsp; &nbsp; &nbsp;<font class='negOutcome'>You receive: <strong>0</strong></font></div>","null","10","Kiwi Kash","Fruit/Kiwi.png","Lost","0.35,0.8","14","0.35","137","29","",""
"html-keyboard-response","97","231875","0.0-11.0-1.29","60fefd59226b2b1d87bc36db","bdp_rwlrn","Sun Mar 12 2023 16:48:05 GMT-0400 (EDT)","802650","Trustworthy,Untrustworthy","","3375","","","","decision","","<div class='trialDiv'><img src='Fruit/papayas.png'><br><font class='baseline'><strong>Papaya Payday</strong><p>Choose number of points to bet.</font><div class='respPicDiv'><img src='img/responseButtonOffersNo0L.png' class='respPic'></div></div>","5","10","Papaya Payday","Fruit/papayas.png","Won","0.2,0.8","13","0.2","142","30","",""
"html-keyboard-response","98","232128","0.0-11.0-2.29","60fefd59226b2b1d87bc36db","bdp_rwlrn","Sun Mar 12 2023 16:48:05 GMT-0400 (EDT)","802650","Trustworthy,Untrustworthy","","null","","","","decisionFB","","<div class='trialDiv'><img src='Fruit/papayas.png'><br><font class='baseline'><strong>Papaya Payday</strong><p>Choose number of points to bet.</font><div class='respPicDiv'><img src='img/responseButtonOffersNo0L5.png' class='respPic'></div></div>","null","10","Papaya Payday","Fruit/papayas.png","Won","0.2,0.8","13","0.2","137","30","",""
"html-keyboard-response","99","233131","0.0-11.0-3.29","60fefd59226b2b1d87bc36db","bdp_rwlrn","Sun Mar 12 2023 16:48:05 GMT-0400 (EDT)","802650","Trustworthy,Untrustworthy","","null","","","","feedback","","<div class='respPicDiv'><img src='img/responseButtonOffersNo0_wht.png' class='respPic'></div><div class='trialDiv'><img src='Fruit/papayas.png'><br><font class='baseline'><strong>Papaya Payday</strong><p><strong><font class='posOutcome'>You WON</font><p>You bet: 5</strong></font> &nbsp; &nbsp; &nbsp; &nbsp; &nbsp; &nbsp;<font class='posOutcome'>you receive: <strong>10</strong></font></div>","null","10","Papaya Payday","Fruit/papayas.png","Won","0.2,0.8","13","0.2","147","30","",""
"html-keyboard-response","100","234230","0.0-11.0-1.30","60fefd59226b2b1d87bc36db","bdp_rwlrn","Sun Mar 12 2023 16:48:05 GMT-0400 (EDT)","802650","Trustworthy,Untrustworthy","","1098","","","","decision","","<div class='trialDiv'><img src='Fruit/Kiwi.png'><br><font class='baseline'><strong>Kiwi Kash</strong><p>Choose number of points to bet.</font><div class='respPicDiv'><img src='img/responseButtonOffersNo0L.png' class='respPic'></div></div>","5","11","Kiwi Kash","Fruit/Kiwi.png","Lost","0.35,0.8","14","0.35","152","31","",""
"html-keyboard-response","101","234482","0.0-11.0-2.30","60fefd59226b2b1d87bc36db","bdp_rwlrn","Sun Mar 12 2023 16:48:05 GMT-0400 (EDT)","802650","Trustworthy,Untrustworthy","","null","","","","decisionFB","","<div class='trialDiv'><img src='Fruit/Kiwi.png'><br><font class='baseline'><strong>Kiwi Kash</strong><p>Choose number of points to bet.</font><div class='respPicDiv'><img src='img/responseButtonOffersNo0L5.png' class='respPic'></div></div>","null","11","Kiwi Kash","Fruit/Kiwi.png","Lost","0.35,0.8","14","0.35","147","31","",""
"html-keyboard-response","102","235485","0.0-11.0-3.30","60fefd59226b2b1d87bc36db","bdp_rwlrn","Sun Mar 12 2023 16:48:05 GMT-0400 (EDT)","802650","Trustworthy,Untrustworthy","","null","","","","feedback","","<div class='respPicDiv'><img src='img/responseButtonOffersNo0_wht.png' class='respPic'></div><div class='trialDiv'><img src='Fruit/Kiwi.png'><br><font class='baseline'><strong>Kiwi Kash</strong><p><strong><font class='negOutcome'>You LOST</font><p>You bet: 5</strong></font> &nbsp; &nbsp; &nbsp; &nbsp; &nbsp; &nbsp;<font class='negOutcome'>You receive: <strong>0</strong></font></div>","null","11","Kiwi Kash","Fruit/Kiwi.png","Lost","0.35,0.8","14","0.35","147","31","",""
"html-keyboard-response","103","242862","0.0-11.0-1.31","60fefd59226b2b1d87bc36db","bdp_rwlrn","Sun Mar 12 2023 16:48:05 GMT-0400 (EDT)","802650","Trustworthy,Untrustworthy","","7376","","","","decision","","<div class='trialDiv'><img src='Fruit/papayas.png'><br><font class='baseline'><strong>Papaya Payday</strong><p>Choose number of points to bet.</font><div class='respPicDiv'><img src='img/responseButtonOffersNo0L.png' class='respPic'></div></div>","5","11","Papaya Payday","Fruit/papayas.png","Lost","0.2,0.8","13","0.2","152","32","",""
"html-keyboard-response","104","243117","0.0-11.0-2.31","60fefd59226b2b1d87bc36db","bdp_rwlrn","Sun Mar 12 2023 16:48:05 GMT-0400 (EDT)","802650","Trustworthy,Untrustworthy","","null","","","","decisionFB","","<div class='trialDiv'><img src='Fruit/papayas.png'><br><font class='baseline'><strong>Papaya Payday</strong><p>Choose number of points to bet.</font><div class='respPicDiv'><img src='img/responseButtonOffersNo0L5.png' class='respPic'></div></div>","null","11","Papaya Payday","Fruit/papayas.png","Lost","0.2,0.8","13","0.2","147","32","",""
"html-keyboard-response","105","244120","0.0-11.0-3.31","60fefd59226b2b1d87bc36db","bdp_rwlrn","Sun Mar 12 2023 16:48:05 GMT-0400 (EDT)","802650","Trustworthy,Untrustworthy","","null","","","","feedback","","<div class='respPicDiv'><img src='img/responseButtonOffersNo0_wht.png' class='respPic'></div><div class='trialDiv'><img src='Fruit/papayas.png'><br><font class='baseline'><strong>Papaya Payday</strong><p><strong><font class='negOutcome'>You LOST</font><p>You bet: 5</strong></font> &nbsp; &nbsp; &nbsp; &nbsp; &nbsp; &nbsp;<font class='negOutcome'>You receive: <strong>0</strong></font></div>","null","11","Papaya Payday","Fruit/papayas.png","Lost","0.2,0.8","13","0.2","147","32","",""
"html-keyboard-response","106","246575","0.0-11.0-1.32","60fefd59226b2b1d87bc36db","bdp_rwlrn","Sun Mar 12 2023 16:48:05 GMT-0400 (EDT)","802650","Trustworthy,Untrustworthy","","2453","","","","decision","","<div class='trialDiv'><img src='Fruit/orange.png'><br><font class='baseline'><strong>Odds are Orange</strong><p>Choose number of points to bet.</font><div class='respPicDiv'><img src='img/responseButtonOffersNo0L.png' class='respPic'></div></div>","5","11","Odds are Orange","Fruit/orange.png","Won","0.8,0.35","14","0.8","152","33","",""
"html-keyboard-response","107","246827","0.0-11.0-2.32","60fefd59226b2b1d87bc36db","bdp_rwlrn","Sun Mar 12 2023 16:48:05 GMT-0400 (EDT)","802650","Trustworthy,Untrustworthy","","null","","","","decisionFB","","<div class='trialDiv'><img src='Fruit/orange.png'><br><font class='baseline'><strong>Odds are Orange</strong><p>Choose number of points to bet.</font><div class='respPicDiv'><img src='img/responseButtonOffersNo0L5.png' class='respPic'></div></div>","null","11","Odds are Orange","Fruit/orange.png","Won","0.8,0.35","14","0.8","147","33","",""
"html-keyboard-response","108","247829","0.0-11.0-3.32","60fefd59226b2b1d87bc36db","bdp_rwlrn","Sun Mar 12 2023 16:48:05 GMT-0400 (EDT)","802650","Trustworthy,Untrustworthy","","null","","","","feedback","","<div class='respPicDiv'><img src='img/responseButtonOffersNo0_wht.png' class='respPic'></div><div class='trialDiv'><img src='Fruit/orange.png'><br><font class='baseline'><strong>Odds are Orange</strong><p><strong><font class='posOutcome'>You WON</font><p>You bet: 5</strong></font> &nbsp; &nbsp; &nbsp; &nbsp; &nbsp; &nbsp;<font class='posOutcome'>you receive: <strong>10</strong></font></div>","null","11","Odds are Orange","Fruit/orange.png","Won","0.8,0.35","14","0.8","157","33","",""
"html-keyboard-response","109","281865","0.0-11.0-1.33","60fefd59226b2b1d87bc36db","bdp_rwlrn","Sun Mar 12 2023 16:48:05 GMT-0400 (EDT)","802650","Trustworthy,Untrustworthy","","34033","","","","decision","","<div class='trialDiv'><img src='Fruit/papayas.png'><br><font class='baseline'><strong>Papaya Payday</strong><p>Choose number of points to bet.</font><div class='respPicDiv'><img src='img/responseButtonOffersNo0L.png' class='respPic'></div></div>","3","12","Papaya Payday","Fruit/papayas.png","Lost","0.2,0.8","13","0.2","162","34","",""
"html-keyboard-response","110","282117","0.0-11.0-2.33","60fefd59226b2b1d87bc36db","bdp_rwlrn","Sun Mar 12 2023 16:48:05 GMT-0400 (EDT)","802650","Trustworthy,Untrustworthy","","null","","","","decisionFB","","<div class='trialDiv'><img src='Fruit/papayas.png'><br><font class='baseline'><strong>Papaya Payday</strong><p>Choose number of points to bet.</font><div class='respPicDiv'><img src='img/responseButtonOffersNo0L3.png' class='respPic'></div></div>","null","12","Papaya Payday","Fruit/papayas.png","Lost","0.2,0.8","13","0.2","159","34","",""
"html-keyboard-response","111","283119","0.0-11.0-3.33","60fefd59226b2b1d87bc36db","bdp_rwlrn","Sun Mar 12 2023 16:48:05 GMT-0400 (EDT)","802650","Trustworthy,Untrustworthy","","null","","","","feedback","","<div class='respPicDiv'><img src='img/responseButtonOffersNo0_wht.png' class='respPic'></div><div class='trialDiv'><img src='Fruit/papayas.png'><br><font class='baseline'><strong>Papaya Payday</strong><p><strong><font class='negOutcome'>You LOST</font><p>You bet: 3</strong></font> &nbsp; &nbsp; &nbsp; &nbsp; &nbsp; &nbsp;<font class='negOutcome'>You receive: <strong>0</strong></font></div>","null","12","Papaya Payday","Fruit/papayas.png","Lost","0.2,0.8","13","0.2","159","34","",""
"html-keyboard-response","112","284059","0.0-11.0-1.34","60fefd59226b2b1d87bc36db","bdp_rwlrn","Sun Mar 12 2023 16:48:05 GMT-0400 (EDT)","802650","Trustworthy,Untrustworthy","","938","","","","decision","","<div class='trialDiv'><img src='Fruit/orange.png'><br><font class='baseline'><strong>Odds are Orange</strong><p>Choose number of points to bet.</font><div class='respPicDiv'><img src='img/responseButtonOffersNo0L.png' class='respPic'></div></div>","4","12","Odds are Orange","Fruit/orange.png","Won","0.8,0.35","14","0.8","164","35","",""
"html-keyboard-response","113","284311","0.0-11.0-2.34","60fefd59226b2b1d87bc36db","bdp_rwlrn","Sun Mar 12 2023 16:48:05 GMT-0400 (EDT)","802650","Trustworthy,Untrustworthy","","null","","","","decisionFB","","<div class='trialDiv'><img src='Fruit/orange.png'><br><font class='baseline'><strong>Odds are Orange</strong><p>Choose number of points to bet.</font><div class='respPicDiv'><img src='img/responseButtonOffersNo0L4.png' class='respPic'></div></div>","null","12","Odds are Orange","Fruit/orange.png","Won","0.8,0.35","14","0.8","160","35","",""
"html-keyboard-response","114","285314","0.0-11.0-3.34","60fefd59226b2b1d87bc36db","bdp_rwlrn","Sun Mar 12 2023 16:48:05 GMT-0400 (EDT)","802650","Trustworthy,Untrustworthy","","null","","","","feedback","","<div class='respPicDiv'><img src='img/responseButtonOffersNo0_wht.png' class='respPic'></div><div class='trialDiv'><img src='Fruit/orange.png'><br><font class='baseline'><strong>Odds are Orange</strong><p><strong><font class='posOutcome'>You WON</font><p>You bet: 4</strong></font> &nbsp; &nbsp; &nbsp; &nbsp; &nbsp; &nbsp;<font class='posOutcome'>you receive: <strong>8</strong></font></div>","null","12","Odds are Orange","Fruit/orange.png","Won","0.8,0.35","14","0.8","168","35","",""
"html-keyboard-response","115","286749","0.0-11.0-1.35","60fefd59226b2b1d87bc36db","bdp_rwlrn","Sun Mar 12 2023 16:48:05 GMT-0400 (EDT)","802650","Trustworthy,Untrustworthy","","1434","","","","decision","","<div class='trialDiv'><img src='Fruit/Kiwi.png'><br><font class='baseline'><strong>Kiwi Kash</strong><p>Choose number of points to bet.</font><div class='respPicDiv'><img src='img/responseButtonOffersNo0L.png' class='respPic'></div></div>","4","12","Kiwi Kash","Fruit/Kiwi.png","Lost","0.35,0.8","14","0.35","173","36","",""
"html-keyboard-response","116","287001","0.0-11.0-2.35","60fefd59226b2b1d87bc36db","bdp_rwlrn","Sun Mar 12 2023 16:48:05 GMT-0400 (EDT)","802650","Trustworthy,Untrustworthy","","null","","","","decisionFB","","<div class='trialDiv'><img src='Fruit/Kiwi.png'><br><font class='baseline'><strong>Kiwi Kash</strong><p>Choose number of points to bet.</font><div class='respPicDiv'><img src='img/responseButtonOffersNo0L4.png' class='respPic'></div></div>","null","12","Kiwi Kash","Fruit/Kiwi.png","Lost","0.35,0.8","14","0.35","169","36","",""
"html-keyboard-response","117","288004","0.0-11.0-3.35","60fefd59226b2b1d87bc36db","bdp_rwlrn","Sun Mar 12 2023 16:48:05 GMT-0400 (EDT)","802650","Trustworthy,Untrustworthy","","null","","","","feedback","","<div class='respPicDiv'><img src='img/responseButtonOffersNo0_wht.png' class='respPic'></div><div class='trialDiv'><img src='Fruit/Kiwi.png'><br><font class='baseline'><strong>Kiwi Kash</strong><p><strong><font class='negOutcome'>You LOST</font><p>You bet: 4</strong></font> &nbsp; &nbsp; &nbsp; &nbsp; &nbsp; &nbsp;<font class='negOutcome'>You receive: <strong>0</strong></font></div>","null","12","Kiwi Kash","Fruit/Kiwi.png","Lost","0.35,0.8","14","0.35","169","36","",""
"html-keyboard-response","118","288399","0.0-11.0-1.36","60fefd59226b2b1d87bc36db","bdp_rwlrn","Sun Mar 12 2023 16:48:05 GMT-0400 (EDT)","802650","Trustworthy,Untrustworthy","","393","","","","decision","","<div class='trialDiv'><img src='Fruit/papayas.png'><br><font class='baseline'><strong>Papaya Payday</strong><p>Choose number of points to bet.</font><div class='respPicDiv'><img src='img/responseButtonOffersNo0L.png' class='respPic'></div></div>","5","13","Papaya Payday","Fruit/papayas.png","Won","0.2,0.8","13","0.2","174","37","",""
"html-keyboard-response","119","288651","0.0-11.0-2.36","60fefd59226b2b1d87bc36db","bdp_rwlrn","Sun Mar 12 2023 16:48:05 GMT-0400 (EDT)","802650","Trustworthy,Untrustworthy","","null","","","","decisionFB","","<div class='trialDiv'><img src='Fruit/papayas.png'><br><font class='baseline'><strong>Papaya Payday</strong><p>Choose number of points to bet.</font><div class='respPicDiv'><img src='img/responseButtonOffersNo0L5.png' class='respPic'></div></div>","null","13","Papaya Payday","Fruit/papayas.png","Won","0.2,0.8","13","0.2","169","37","",""
"html-keyboard-response","120","289653","0.0-11.0-3.36","60fefd59226b2b1d87bc36db","bdp_rwlrn","Sun Mar 12 2023 16:48:05 GMT-0400 (EDT)","802650","Trustworthy,Untrustworthy","","null","","","","feedback","","<div class='respPicDiv'><img src='img/responseButtonOffersNo0_wht.png' class='respPic'></div><div class='trialDiv'><img src='Fruit/papayas.png'><br><font class='baseline'><strong>Papaya Payday</strong><p><strong><font class='posOutcome'>You WON</font><p>You bet: 5</strong></font> &nbsp; &nbsp; &nbsp; &nbsp; &nbsp; &nbsp;<font class='posOutcome'>you receive: <strong>10</strong></font></div>","null","13","Papaya Payday","Fruit/papayas.png","Won","0.2,0.8","13","0.2","179","37","",""
"html-keyboard-response","121","290915","0.0-11.0-1.37","60fefd59226b2b1d87bc36db","bdp_rwlrn","Sun Mar 12 2023 16:48:05 GMT-0400 (EDT)","802650","Trustworthy,Untrustworthy","","1260","","","","decision","","<div class='trialDiv'><img src='Fruit/Kiwi.png'><br><font class='baseline'><strong>Kiwi Kash</strong><p>Choose number of points to bet.</font><div class='respPicDiv'><img src='img/responseButtonOffersNo0L.png' class='respPic'></div></div>","1","13","Kiwi Kash","Fruit/Kiwi.png","Won","0.35,0.8","14","0.35","184","38","",""
"html-keyboard-response","122","291167","0.0-11.0-2.37","60fefd59226b2b1d87bc36db","bdp_rwlrn","Sun Mar 12 2023 16:48:05 GMT-0400 (EDT)","802650","Trustworthy,Untrustworthy","","null","","","","decisionFB","","<div class='trialDiv'><img src='Fruit/Kiwi.png'><br><font class='baseline'><strong>Kiwi Kash</strong><p>Choose number of points to bet.</font><div class='respPicDiv'><img src='img/responseButtonOffersNo0L1.png' class='respPic'></div></div>","null","13","Kiwi Kash","Fruit/Kiwi.png","Won","0.35,0.8","14","0.35","183","38","",""
"html-keyboard-response","123","292169","0.0-11.0-3.37","60fefd59226b2b1d87bc36db","bdp_rwlrn","Sun Mar 12 2023 16:48:05 GMT-0400 (EDT)","802650","Trustworthy,Untrustworthy","","null","","","","feedback","","<div class='respPicDiv'><img src='img/responseButtonOffersNo0_wht.png' class='respPic'></div><div class='trialDiv'><img src='Fruit/Kiwi.png'><br><font class='baseline'><strong>Kiwi Kash</strong><p><strong><font class='posOutcome'>You WON</font><p>You bet: 1</strong></font> &nbsp; &nbsp; &nbsp; &nbsp; &nbsp; &nbsp;<font class='posOutcome'>you receive: <strong>2</strong></font></div>","null","13","Kiwi Kash","Fruit/Kiwi.png","Won","0.35,0.8","14","0.35","185","38","",""
"html-keyboard-response","124","294122","0.0-11.0-1.38","60fefd59226b2b1d87bc36db","bdp_rwlrn","Sun Mar 12 2023 16:48:05 GMT-0400 (EDT)","802650","Trustworthy,Untrustworthy","","1952","","","","decision","","<div class='trialDiv'><img src='Fruit/orange.png'><br><font class='baseline'><strong>Odds are Orange</strong><p>Choose number of points to bet.</font><div class='respPicDiv'><img src='img/responseButtonOffersNo0L.png' class='respPic'></div></div>","4","13","Odds are Orange","Fruit/orange.png","Won","0.8,0.35","14","0.8","190","39","",""
"html-keyboard-response","125","294375","0.0-11.0-2.38","60fefd59226b2b1d87bc36db","bdp_rwlrn","Sun Mar 12 2023 16:48:05 GMT-0400 (EDT)","802650","Trustworthy,Untrustworthy","","null","","","","decisionFB","","<div class='trialDiv'><img src='Fruit/orange.png'><br><font class='baseline'><strong>Odds are Orange</strong><p>Choose number of points to bet.</font><div class='respPicDiv'><img src='img/responseButtonOffersNo0L4.png' class='respPic'></div></div>","null","13","Odds are Orange","Fruit/orange.png","Won","0.8,0.35","14","0.8","186","39","",""
"html-keyboard-response","126","295378","0.0-11.0-3.38","60fefd59226b2b1d87bc36db","bdp_rwlrn","Sun Mar 12 2023 16:48:05 GMT-0400 (EDT)","802650","Trustworthy,Untrustworthy","","null","","","","feedback","","<div class='respPicDiv'><img src='img/responseButtonOffersNo0_wht.png' class='respPic'></div><div class='trialDiv'><img src='Fruit/orange.png'><br><font class='baseline'><strong>Odds are Orange</strong><p><strong><font class='posOutcome'>You WON</font><p>You bet: 4</strong></font> &nbsp; &nbsp; &nbsp; &nbsp; &nbsp; &nbsp;<font class='posOutcome'>you receive: <strong>8</strong></font></div>","null","13","Odds are Orange","Fruit/orange.png","Won","0.8,0.35","14","0.8","194","39","",""
"html-keyboard-response","127","296614","0.0-11.0-1.39","60fefd59226b2b1d87bc36db","bdp_rwlrn","Sun Mar 12 2023 16:48:05 GMT-0400 (EDT)","802650","Trustworthy,Untrustworthy","","1235","","","","decision","","<div class='trialDiv'><img src='Fruit/Kiwi.png'><br><font class='baseline'><strong>Kiwi Kash</strong><p>Choose number of points to bet.</font><div class='respPicDiv'><img src='img/responseButtonOffersNo0L.png' class='respPic'></div></div>","1","14","Kiwi Kash","Fruit/Kiwi.png","Won","0.35,0.8","14","0.35","199","40","",""
"html-keyboard-response","128","296865","0.0-11.0-2.39","60fefd59226b2b1d87bc36db","bdp_rwlrn","Sun Mar 12 2023 16:48:05 GMT-0400 (EDT)","802650","Trustworthy,Untrustworthy","","null","","","","decisionFB","","<div class='trialDiv'><img src='Fruit/Kiwi.png'><br><font class='baseline'><strong>Kiwi Kash</strong><p>Choose number of points to bet.</font><div class='respPicDiv'><img src='img/responseButtonOffersNo0L1.png' class='respPic'></div></div>","null","14","Kiwi Kash","Fruit/Kiwi.png","Won","0.35,0.8","14","0.35","198","40","",""
"html-keyboard-response","129","297868","0.0-11.0-3.39","60fefd59226b2b1d87bc36db","bdp_rwlrn","Sun Mar 12 2023 16:48:05 GMT-0400 (EDT)","802650","Trustworthy,Untrustworthy","","null","","","","feedback","","<div class='respPicDiv'><img src='img/responseButtonOffersNo0_wht.png' class='respPic'></div><div class='trialDiv'><img src='Fruit/Kiwi.png'><br><font class='baseline'><strong>Kiwi Kash</strong><p><strong><font class='posOutcome'>You WON</font><p>You bet: 1</strong></font> &nbsp; &nbsp; &nbsp; &nbsp; &nbsp; &nbsp;<font class='posOutcome'>you receive: <strong>2</strong></font></div>","null","14","Kiwi Kash","Fruit/Kiwi.png","Won","0.35,0.8","14","0.35","200","40","",""
"html-keyboard-response","130","299254","0.0-11.0-1.40","60fefd59226b2b1d87bc36db","bdp_rwlrn","Sun Mar 12 2023 16:48:05 GMT-0400 (EDT)","802650","Trustworthy,Untrustworthy","","1384","","","","decision","","<div class='trialDiv'><img src='Fruit/papayas.png'><br><font class='baseline'><strong>Papaya Payday</strong><p>Choose number of points to bet.</font><div class='respPicDiv'><img src='img/responseButtonOffersNo0L.png' class='respPic'></div></div>","4","14","Papaya Payday","Fruit/papayas.png","Lost","0.2,0.8","13","0.2","205","41","",""
"html-keyboard-response","131","299507","0.0-11.0-2.40","60fefd59226b2b1d87bc36db","bdp_rwlrn","Sun Mar 12 2023 16:48:05 GMT-0400 (EDT)","802650","Trustworthy,Untrustworthy","","null","","","","decisionFB","","<div class='trialDiv'><img src='Fruit/papayas.png'><br><font class='baseline'><strong>Papaya Payday</strong><p>Choose number of points to bet.</font><div class='respPicDiv'><img src='img/responseButtonOffersNo0L4.png' class='respPic'></div></div>","null","14","Papaya Payday","Fruit/papayas.png","Lost","0.2,0.8","13","0.2","201","41","",""
"html-keyboard-response","132","300509","0.0-11.0-3.40","60fefd59226b2b1d87bc36db","bdp_rwlrn","Sun Mar 12 2023 16:48:05 GMT-0400 (EDT)","802650","Trustworthy,Untrustworthy","","null","","","","feedback","","<div class='respPicDiv'><img src='img/responseButtonOffersNo0_wht.png' class='respPic'></div><div class='trialDiv'><img src='Fruit/papayas.png'><br><font class='baseline'><strong>Papaya Payday</strong><p><strong><font class='negOutcome'>You LOST</font><p>You bet: 4</strong></font> &nbsp; &nbsp; &nbsp; &nbsp; &nbsp; &nbsp;<font class='negOutcome'>You receive: <strong>0</strong></font></div>","null","14","Papaya Payday","Fruit/papayas.png","Lost","0.2,0.8","13","0.2","201","41","",""
"html-keyboard-response","133","301286","0.0-11.0-1.41","60fefd59226b2b1d87bc36db","bdp_rwlrn","Sun Mar 12 2023 16:48:05 GMT-0400 (EDT)","802650","Trustworthy,Untrustworthy","","775","","","","decision","","<div class='trialDiv'><img src='Fruit/orange.png'><br><font class='baseline'><strong>Odds are Orange</strong><p>Choose number of points to bet.</font><div class='respPicDiv'><img src='img/responseButtonOffersNo0L.png' class='respPic'></div></div>","5","14","Odds are Orange","Fruit/orange.png","Lost","0.8,0.35","14","0.8","206","42","",""
"html-keyboard-response","134","301538","0.0-11.0-2.41","60fefd59226b2b1d87bc36db","bdp_rwlrn","Sun Mar 12 2023 16:48:05 GMT-0400 (EDT)","802650","Trustworthy,Untrustworthy","","null","","","","decisionFB","","<div class='trialDiv'><img src='Fruit/orange.png'><br><font class='baseline'><strong>Odds are Orange</strong><p>Choose number of points to bet.</font><div class='respPicDiv'><img src='img/responseButtonOffersNo0L5.png' class='respPic'></div></div>","null","14","Odds are Orange","Fruit/orange.png","Lost","0.8,0.35","14","0.8","201","42","",""
"html-keyboard-response","135","302540","0.0-11.0-3.41","60fefd59226b2b1d87bc36db","bdp_rwlrn","Sun Mar 12 2023 16:48:05 GMT-0400 (EDT)","802650","Trustworthy,Untrustworthy","","null","","","","feedback","","<div class='respPicDiv'><img src='img/responseButtonOffersNo0_wht.png' class='respPic'></div><div class='trialDiv'><img src='Fruit/orange.png'><br><font class='baseline'><strong>Odds are Orange</strong><p><strong><font class='negOutcome'>You LOST</font><p>You bet: 5</strong></font> &nbsp; &nbsp; &nbsp; &nbsp; &nbsp; &nbsp;<font class='negOutcome'>You receive: <strong>0</strong></font></div>","null","14","Odds are Orange","Fruit/orange.png","Lost","0.8,0.35","14","0.8","201","42","",""
"html-keyboard-response","136","303680","0.0-11.0-1.42","60fefd59226b2b1d87bc36db","bdp_rwlrn","Sun Mar 12 2023 16:48:05 GMT-0400 (EDT)","802650","Trustworthy,Untrustworthy","","1138","","","","decision","","<div class='trialDiv'><img src='Fruit/Kiwi.png'><br><font class='baseline'><strong>Kiwi Kash</strong><p>Choose number of points to bet.</font><div class='respPicDiv'><img src='img/responseButtonOffersNo0L.png' class='respPic'></div></div>","5","15","Kiwi Kash","Fruit/Kiwi.png","Won","0.35,0.8","14","0.35","206","43","",""
"html-keyboard-response","137","303932","0.0-11.0-2.42","60fefd59226b2b1d87bc36db","bdp_rwlrn","Sun Mar 12 2023 16:48:05 GMT-0400 (EDT)","802650","Trustworthy,Untrustworthy","","null","","","","decisionFB","","<div class='trialDiv'><img src='Fruit/Kiwi.png'><br><font class='baseline'><strong>Kiwi Kash</strong><p>Choose number of points to bet.</font><div class='respPicDiv'><img src='img/responseButtonOffersNo0L5.png' class='respPic'></div></div>","null","15","Kiwi Kash","Fruit/Kiwi.png","Won","0.35,0.8","14","0.35","201","43","",""
"html-keyboard-response","138","304935","0.0-11.0-3.42","60fefd59226b2b1d87bc36db","bdp_rwlrn","Sun Mar 12 2023 16:48:05 GMT-0400 (EDT)","802650","Trustworthy,Untrustworthy","","null","","","","feedback","","<div class='respPicDiv'><img src='img/responseButtonOffersNo0_wht.png' class='respPic'></div><div class='trialDiv'><img src='Fruit/Kiwi.png'><br><font class='baseline'><strong>Kiwi Kash</strong><p><strong><font class='posOutcome'>You WON</font><p>You bet: 5</strong></font> &nbsp; &nbsp; &nbsp; &nbsp; &nbsp; &nbsp;<font class='posOutcome'>you receive: <strong>10</strong></font></div>","null","15","Kiwi Kash","Fruit/Kiwi.png","Won","0.35,0.8","14","0.35","211","43","",""
"html-keyboard-response","139","316170","0.0-11.0-1.43","60fefd59226b2b1d87bc36db","bdp_rwlrn","Sun Mar 12 2023 16:48:05 GMT-0400 (EDT)","802650","Trustworthy,Untrustworthy","","11234","","","","decision","","<div class='trialDiv'><img src='Fruit/orange.png'><br><font class='baseline'><strong>Odds are Orange</strong><p>Choose number of points to bet.</font><div class='respPicDiv'><img src='img/responseButtonOffersNo0L.png' class='respPic'></div></div>","5","15","Odds are Orange","Fruit/orange.png","Lost","0.8,0.35","14","0.8","216","44","",""
"html-keyboard-response","140","316423","0.0-11.0-2.43","60fefd59226b2b1d87bc36db","bdp_rwlrn","Sun Mar 12 2023 16:48:05 GMT-0400 (EDT)","802650","Trustworthy,Untrustworthy","","null","","","","decisionFB","","<div class='trialDiv'><img src='Fruit/orange.png'><br><font class='baseline'><strong>Odds are Orange</strong><p>Choose number of points to bet.</font><div class='respPicDiv'><img src='img/responseButtonOffersNo0L5.png' class='respPic'></div></div>","null","15","Odds are Orange","Fruit/orange.png","Lost","0.8,0.35","14","0.8","211","44","",""
"html-keyboard-response","141","317425","0.0-11.0-3.43","60fefd59226b2b1d87bc36db","bdp_rwlrn","Sun Mar 12 2023 16:48:05 GMT-0400 (EDT)","802650","Trustworthy,Untrustworthy","","null","","","","feedback","","<div class='respPicDiv'><img src='img/responseButtonOffersNo0_wht.png' class='respPic'></div><div class='trialDiv'><img src='Fruit/orange.png'><br><font class='baseline'><strong>Odds are Orange</strong><p><strong><font class='negOutcome'>You LOST</font><p>You bet: 5</strong></font> &nbsp; &nbsp; &nbsp; &nbsp; &nbsp; &nbsp;<font class='negOutcome'>You receive: <strong>0</strong></font></div>","null","15","Odds are Orange","Fruit/orange.png","Lost","0.8,0.35","14","0.8","211","44","",""
"html-keyboard-response","142","319252","0.0-11.0-1.44","60fefd59226b2b1d87bc36db","bdp_rwlrn","Sun Mar 12 2023 16:48:05 GMT-0400 (EDT)","802650","Trustworthy,Untrustworthy","","1826","","","","decision","","<div class='trialDiv'><img src='Fruit/papayas.png'><br><font class='baseline'><strong>Papaya Payday</strong><p>Choose number of points to bet.</font><div class='respPicDiv'><img src='img/responseButtonOffersNo0L.png' class='respPic'></div></div>","5","15","Papaya Payday","Fruit/papayas.png","Won","0.2,0.8","13","0.2","216","45","",""
"html-keyboard-response","143","319504","0.0-11.0-2.44","60fefd59226b2b1d87bc36db","bdp_rwlrn","Sun Mar 12 2023 16:48:05 GMT-0400 (EDT)","802650","Trustworthy,Untrustworthy","","null","","","","decisionFB","","<div class='trialDiv'><img src='Fruit/papayas.png'><br><font class='baseline'><strong>Papaya Payday</strong><p>Choose number of points to bet.</font><div class='respPicDiv'><img src='img/responseButtonOffersNo0L5.png' class='respPic'></div></div>","null","15","Papaya Payday","Fruit/papayas.png","Won","0.2,0.8","13","0.2","211","45","",""
"html-keyboard-response","144","320507","0.0-11.0-3.44","60fefd59226b2b1d87bc36db","bdp_rwlrn","Sun Mar 12 2023 16:48:05 GMT-0400 (EDT)","802650","Trustworthy,Untrustworthy","","null","","","","feedback","","<div class='respPicDiv'><img src='img/responseButtonOffersNo0_wht.png' class='respPic'></div><div class='trialDiv'><img src='Fruit/papayas.png'><br><font class='baseline'><strong>Papaya Payday</strong><p><strong><font class='posOutcome'>You WON</font><p>You bet: 5</strong></font> &nbsp; &nbsp; &nbsp; &nbsp; &nbsp; &nbsp;<font class='posOutcome'>you receive: <strong>10</strong></font></div>","null","15","Papaya Payday","Fruit/papayas.png","Won","0.2,0.8","13","0.2","221","45","",""
"html-keyboard-response","145","321868","0.0-11.0-1.45","60fefd59226b2b1d87bc36db","bdp_rwlrn","Sun Mar 12 2023 16:48:05 GMT-0400 (EDT)","802650","Trustworthy,Untrustworthy","","1360","","","","decision","","<div class='trialDiv'><img src='Fruit/orange.png'><br><font class='baseline'><strong>Odds are Orange</strong><p>Choose number of points to bet.</font><div class='respPicDiv'><img src='img/responseButtonOffersNo0L.png' class='respPic'></div></div>","4","16","Odds are Orange","Fruit/orange.png","Lost","0.8,0.35","14","0.8","226","46","",""
"html-keyboard-response","146","322120","0.0-11.0-2.45","60fefd59226b2b1d87bc36db","bdp_rwlrn","Sun Mar 12 2023 16:48:05 GMT-0400 (EDT)","802650","Trustworthy,Untrustworthy","","null","","","","decisionFB","","<div class='trialDiv'><img src='Fruit/orange.png'><br><font class='baseline'><strong>Odds are Orange</strong><p>Choose number of points to bet.</font><div class='respPicDiv'><img src='img/responseButtonOffersNo0L4.png' class='respPic'></div></div>","null","16","Odds are Orange","Fruit/orange.png","Lost","0.8,0.35","14","0.8","222","46","",""
"html-keyboard-response","147","323123","0.0-11.0-3.45","60fefd59226b2b1d87bc36db","bdp_rwlrn","Sun Mar 12 2023 16:48:05 GMT-0400 (EDT)","802650","Trustworthy,Untrustworthy","","null","","","","feedback","","<div class='respPicDiv'><img src='img/responseButtonOffersNo0_wht.png' class='respPic'></div><div class='trialDiv'><img src='Fruit/orange.png'><br><font class='baseline'><strong>Odds are Orange</strong><p><strong><font class='negOutcome'>You LOST</font><p>You bet: 4</strong></font> &nbsp; &nbsp; &nbsp; &nbsp; &nbsp; &nbsp;<font class='negOutcome'>You receive: <strong>0</strong></font></div>","null","16","Odds are Orange","Fruit/orange.png","Lost","0.8,0.35","14","0.8","222","46","",""
"html-keyboard-response","148","324353","0.0-11.0-1.46","60fefd59226b2b1d87bc36db","bdp_rwlrn","Sun Mar 12 2023 16:48:05 GMT-0400 (EDT)","802650","Trustworthy,Untrustworthy","","1230","","","","decision","","<div class='trialDiv'><img src='Fruit/Kiwi.png'><br><font class='baseline'><strong>Kiwi Kash</strong><p>Choose number of points to bet.</font><div class='respPicDiv'><img src='img/responseButtonOffersNo0L.png' class='respPic'></div></div>","1","16","Kiwi Kash","Fruit/Kiwi.png","Won","0.35,0.8","14","0.35","227","47","",""
"html-keyboard-response","149","324606","0.0-11.0-2.46","60fefd59226b2b1d87bc36db","bdp_rwlrn","Sun Mar 12 2023 16:48:05 GMT-0400 (EDT)","802650","Trustworthy,Untrustworthy","","null","","","","decisionFB","","<div class='trialDiv'><img src='Fruit/Kiwi.png'><br><font class='baseline'><strong>Kiwi Kash</strong><p>Choose number of points to bet.</font><div class='respPicDiv'><img src='img/responseButtonOffersNo0L1.png' class='respPic'></div></div>","null","16","Kiwi Kash","Fruit/Kiwi.png","Won","0.35,0.8","14","0.35","226","47","",""
"html-keyboard-response","150","325608","0.0-11.0-3.46","60fefd59226b2b1d87bc36db","bdp_rwlrn","Sun Mar 12 2023 16:48:05 GMT-0400 (EDT)","802650","Trustworthy,Untrustworthy","","null","","","","feedback","","<div class='respPicDiv'><img src='img/responseButtonOffersNo0_wht.png' class='respPic'></div><div class='trialDiv'><img src='Fruit/Kiwi.png'><br><font class='baseline'><strong>Kiwi Kash</strong><p><strong><font class='posOutcome'>You WON</font><p>You bet: 1</strong></font> &nbsp; &nbsp; &nbsp; &nbsp; &nbsp; &nbsp;<font class='posOutcome'>you receive: <strong>2</strong></font></div>","null","16","Kiwi Kash","Fruit/Kiwi.png","Won","0.35,0.8","14","0.35","228","47","",""
"html-keyboard-response","151","327163","0.0-11.0-1.47","60fefd59226b2b1d87bc36db","bdp_rwlrn","Sun Mar 12 2023 16:48:05 GMT-0400 (EDT)","802650","Trustworthy,Untrustworthy","","1554","","","","decision","","<div class='trialDiv'><img src='Fruit/papayas.png'><br><font class='baseline'><strong>Papaya Payday</strong><p>Choose number of points to bet.</font><div class='respPicDiv'><img src='img/responseButtonOffersNo0L.png' class='respPic'></div></div>","3","16","Papaya Payday","Fruit/papayas.png","Won","0.2,0.8","13","0.2","233","48","",""
"html-keyboard-response","152","327416","0.0-11.0-2.47","60fefd59226b2b1d87bc36db","bdp_rwlrn","Sun Mar 12 2023 16:48:05 GMT-0400 (EDT)","802650","Trustworthy,Untrustworthy","","null","","","","decisionFB","","<div class='trialDiv'><img src='Fruit/papayas.png'><br><font class='baseline'><strong>Papaya Payday</strong><p>Choose number of points to bet.</font><div class='respPicDiv'><img src='img/responseButtonOffersNo0L3.png' class='respPic'></div></div>","null","16","Papaya Payday","Fruit/papayas.png","Won","0.2,0.8","13","0.2","230","48","",""
"html-keyboard-response","153","328418","0.0-11.0-3.47","60fefd59226b2b1d87bc36db","bdp_rwlrn","Sun Mar 12 2023 16:48:05 GMT-0400 (EDT)","802650","Trustworthy,Untrustworthy","","null","","","","feedback","","<div class='respPicDiv'><img src='img/responseButtonOffersNo0_wht.png' class='respPic'></div><div class='trialDiv'><img src='Fruit/papayas.png'><br><font class='baseline'><strong>Papaya Payday</strong><p><strong><font class='posOutcome'>You WON</font><p>You bet: 3</strong></font> &nbsp; &nbsp; &nbsp; &nbsp; &nbsp; &nbsp;<font class='posOutcome'>you receive: <strong>6</strong></font></div>","null","16","Papaya Payday","Fruit/papayas.png","Won","0.2,0.8","13","0.2","236","48","",""
"html-keyboard-response","154","329281","0.0-11.0-1.48","60fefd59226b2b1d87bc36db","bdp_rwlrn","Sun Mar 12 2023 16:48:05 GMT-0400 (EDT)","802650","Trustworthy,Untrustworthy","","862","","","","decision","","<div class='trialDiv'><img src='Fruit/Kiwi.png'><br><font class='baseline'><strong>Kiwi Kash</strong><p>Choose number of points to bet.</font><div class='respPicDiv'><img src='img/responseButtonOffersNo0L.png' class='respPic'></div></div>","1","17","Kiwi Kash","Fruit/Kiwi.png","Won","0.35,0.8","14","0.35","241","49","",""
"html-keyboard-response","155","329533","0.0-11.0-2.48","60fefd59226b2b1d87bc36db","bdp_rwlrn","Sun Mar 12 2023 16:48:05 GMT-0400 (EDT)","802650","Trustworthy,Untrustworthy","","null","","","","decisionFB","","<div class='trialDiv'><img src='Fruit/Kiwi.png'><br><font class='baseline'><strong>Kiwi Kash</strong><p>Choose number of points to bet.</font><div class='respPicDiv'><img src='img/responseButtonOffersNo0L1.png' class='respPic'></div></div>","null","17","Kiwi Kash","Fruit/Kiwi.png","Won","0.35,0.8","14","0.35","240","49","",""
"html-keyboard-response","156","330536","0.0-11.0-3.48","60fefd59226b2b1d87bc36db","bdp_rwlrn","Sun Mar 12 2023 16:48:05 GMT-0400 (EDT)","802650","Trustworthy,Untrustworthy","","null","","","","feedback","","<div class='respPicDiv'><img src='img/responseButtonOffersNo0_wht.png' class='respPic'></div><div class='trialDiv'><img src='Fruit/Kiwi.png'><br><font class='baseline'><strong>Kiwi Kash</strong><p><strong><font class='posOutcome'>You WON</font><p>You bet: 1</strong></font> &nbsp; &nbsp; &nbsp; &nbsp; &nbsp; &nbsp;<font class='posOutcome'>you receive: <strong>2</strong></font></div>","null","17","Kiwi Kash","Fruit/Kiwi.png","Won","0.35,0.8","14","0.35","242","49","",""
"html-keyboard-response","157","331797","0.0-11.0-1.49","60fefd59226b2b1d87bc36db","bdp_rwlrn","Sun Mar 12 2023 16:48:05 GMT-0400 (EDT)","802650","Trustworthy,Untrustworthy","","1260","","","","decision","","<div class='trialDiv'><img src='Fruit/orange.png'><br><font class='baseline'><strong>Odds are Orange</strong><p>Choose number of points to bet.</font><div class='respPicDiv'><img src='img/responseButtonOffersNo0L.png' class='respPic'></div></div>","2","17","Odds are Orange","Fruit/orange.png","Won","0.8,0.35","14","0.8","247","50","",""
"html-keyboard-response","158","332049","0.0-11.0-2.49","60fefd59226b2b1d87bc36db","bdp_rwlrn","Sun Mar 12 2023 16:48:05 GMT-0400 (EDT)","802650","Trustworthy,Untrustworthy","","null","","","","decisionFB","","<div class='trialDiv'><img src='Fruit/orange.png'><br><font class='baseline'><strong>Odds are Orange</strong><p>Choose number of points to bet.</font><div class='respPicDiv'><img src='img/responseButtonOffersNo0L2.png' class='respPic'></div></div>","null","17","Odds are Orange","Fruit/orange.png","Won","0.8,0.35","14","0.8","245","50","",""
"html-keyboard-response","159","333052","0.0-11.0-3.49","60fefd59226b2b1d87bc36db","bdp_rwlrn","Sun Mar 12 2023 16:48:05 GMT-0400 (EDT)","802650","Trustworthy,Untrustworthy","","null","","","","feedback","","<div class='respPicDiv'><img src='img/responseButtonOffersNo0_wht.png' class='respPic'></div><div class='trialDiv'><img src='Fruit/orange.png'><br><font class='baseline'><strong>Odds are Orange</strong><p><strong><font class='posOutcome'>You WON</font><p>You bet: 2</strong></font> &nbsp; &nbsp; &nbsp; &nbsp; &nbsp; &nbsp;<font class='posOutcome'>you receive: <strong>4</strong></font></div>","null","17","Odds are Orange","Fruit/orange.png","Won","0.8,0.35","14","0.8","249","50","",""
"html-keyboard-response","160","335203","0.0-11.0-1.50","60fefd59226b2b1d87bc36db","bdp_rwlrn","Sun Mar 12 2023 16:48:05 GMT-0400 (EDT)","802650","Trustworthy,Untrustworthy","","2149","","","","decision","","<div class='trialDiv'><img src='Fruit/papayas.png'><br><font class='baseline'><strong>Papaya Payday</strong><p>Choose number of points to bet.</font><div class='respPicDiv'><img src='img/responseButtonOffersNo0L.png' class='respPic'></div></div>","3","17","Papaya Payday","Fruit/papayas.png","Won","0.2,0.8","13","0.2","254","51","",""
"html-keyboard-response","161","335455","0.0-11.0-2.50","60fefd59226b2b1d87bc36db","bdp_rwlrn","Sun Mar 12 2023 16:48:05 GMT-0400 (EDT)","802650","Trustworthy,Untrustworthy","","null","","","","decisionFB","","<div class='trialDiv'><img src='Fruit/papayas.png'><br><font class='baseline'><strong>Papaya Payday</strong><p>Choose number of points to bet.</font><div class='respPicDiv'><img src='img/responseButtonOffersNo0L3.png' class='respPic'></div></div>","null","17","Papaya Payday","Fruit/papayas.png","Won","0.2,0.8","13","0.2","251","51","",""
"html-keyboard-response","162","336458","0.0-11.0-3.50","60fefd59226b2b1d87bc36db","bdp_rwlrn","Sun Mar 12 2023 16:48:05 GMT-0400 (EDT)","802650","Trustworthy,Untrustworthy","","null","","","","feedback","","<div class='respPicDiv'><img src='img/responseButtonOffersNo0_wht.png' class='respPic'></div><div class='trialDiv'><img src='Fruit/papayas.png'><br><font class='baseline'><strong>Papaya Payday</strong><p><strong><font class='posOutcome'>You WON</font><p>You bet: 3</strong></font> &nbsp; &nbsp; &nbsp; &nbsp; &nbsp; &nbsp;<font class='posOutcome'>you receive: <strong>6</strong></font></div>","null","17","Papaya Payday","Fruit/papayas.png","Won","0.2,0.8","13","0.2","257","51","",""
"html-keyboard-response","163","337006","0.0-11.0-1.51","60fefd59226b2b1d87bc36db","bdp_rwlrn","Sun Mar 12 2023 16:48:05 GMT-0400 (EDT)","802650","Trustworthy,Untrustworthy","","547","","","","decision","","<div class='trialDiv'><img src='Fruit/Kiwi.png'><br><font class='baseline'><strong>Kiwi Kash</strong><p>Choose number of points to bet.</font><div class='respPicDiv'><img src='img/responseButtonOffersNo0L.png' class='respPic'></div></div>","1","18","Kiwi Kash","Fruit/Kiwi.png","Won","0.35,0.8","14","0.35","262","52","",""
"html-keyboard-response","164","337258","0.0-11.0-2.51","60fefd59226b2b1d87bc36db","bdp_rwlrn","Sun Mar 12 2023 16:48:05 GMT-0400 (EDT)","802650","Trustworthy,Untrustworthy","","null","","","","decisionFB","","<div class='trialDiv'><img src='Fruit/Kiwi.png'><br><font class='baseline'><strong>Kiwi Kash</strong><p>Choose number of points to bet.</font><div class='respPicDiv'><img src='img/responseButtonOffersNo0L1.png' class='respPic'></div></div>","null","18","Kiwi Kash","Fruit/Kiwi.png","Won","0.35,0.8","14","0.35","261","52","",""
"html-keyboard-response","165","338260","0.0-11.0-3.51","60fefd59226b2b1d87bc36db","bdp_rwlrn","Sun Mar 12 2023 16:48:05 GMT-0400 (EDT)","802650","Trustworthy,Untrustworthy","","null","","","","feedback","","<div class='respPicDiv'><img src='img/responseButtonOffersNo0_wht.png' class='respPic'></div><div class='trialDiv'><img src='Fruit/Kiwi.png'><br><font class='baseline'><strong>Kiwi Kash</strong><p><strong><font class='posOutcome'>You WON</font><p>You bet: 1</strong></font> &nbsp; &nbsp; &nbsp; &nbsp; &nbsp; &nbsp;<font class='posOutcome'>you receive: <strong>2</strong></font></div>","null","18","Kiwi Kash","Fruit/Kiwi.png","Won","0.35,0.8","14","0.35","263","52","",""
"html-keyboard-response","166","339258","0.0-11.0-1.52","60fefd59226b2b1d87bc36db","bdp_rwlrn","Sun Mar 12 2023 16:48:05 GMT-0400 (EDT)","802650","Trustworthy,Untrustworthy","","997","","","","decision","","<div class='trialDiv'><img src='Fruit/papayas.png'><br><font class='baseline'><strong>Papaya Payday</strong><p>Choose number of points to bet.</font><div class='respPicDiv'><img src='img/responseButtonOffersNo0L.png' class='respPic'></div></div>","3","18","Papaya Payday","Fruit/papayas.png","Won","0.2,0.8","13","0.2","268","53","",""
"html-keyboard-response","167","339510","0.0-11.0-2.52","60fefd59226b2b1d87bc36db","bdp_rwlrn","Sun Mar 12 2023 16:48:05 GMT-0400 (EDT)","802650","Trustworthy,Untrustworthy","","null","","","","decisionFB","","<div class='trialDiv'><img src='Fruit/papayas.png'><br><font class='baseline'><strong>Papaya Payday</strong><p>Choose number of points to bet.</font><div class='respPicDiv'><img src='img/responseButtonOffersNo0L3.png' class='respPic'></div></div>","null","18","Papaya Payday","Fruit/papayas.png","Won","0.2,0.8","13","0.2","265","53","",""
"html-keyboard-response","168","340513","0.0-11.0-3.52","60fefd59226b2b1d87bc36db","bdp_rwlrn","Sun Mar 12 2023 16:48:05 GMT-0400 (EDT)","802650","Trustworthy,Untrustworthy","","null","","","","feedback","","<div class='respPicDiv'><img src='img/responseButtonOffersNo0_wht.png' class='respPic'></div><div class='trialDiv'><img src='Fruit/papayas.png'><br><font class='baseline'><strong>Papaya Payday</strong><p><strong><font class='posOutcome'>You WON</font><p>You bet: 3</strong></font> &nbsp; &nbsp; &nbsp; &nbsp; &nbsp; &nbsp;<font class='posOutcome'>you receive: <strong>6</strong></font></div>","null","18","Papaya Payday","Fruit/papayas.png","Won","0.2,0.8","13","0.2","271","53","",""
