"trial_type","trial_index","time_elapsed","internal_node_id","subject_id","task","startTime","totalTime","labels","view_history","rt","event","trial","time","trialtype","success","stimulus","key_press","ltround","name","fileID","outcome","lottotype","lottoswpt","lottocurrpshare","point_total","round","faceID","face"
"pavlovia","0","3","0.0-0.0","605fb0818ad4067b3d99ece0","bdp_rwlrn","Tue Mar 14 2023 20:06:49 GMT-0400 (Eastern Daylight Time)","496031","Trustworthy,Untrustworthy","","","","","","","","","","","","","","","","","","","",""
"instructions","1","7324","0.0-1.0","605fb0818ad4067b3d99ece0","bdp_rwlrn","Tue Mar 14 2023 20:06:49 GMT-0400 (Eastern Daylight Time)","496031","Trustworthy,Untrustworthy","[{""page_index"":0,""viewing_time"":7320}]","7320","","","","","","","","","","","","","","","","","",""
"","","","","605fb0818ad4067b3d99ece0","bdp_rwlrn","Tue Mar 14 2023 20:06:49 GMT-0400 (Eastern Daylight Time)","496031","Trustworthy,Untrustworthy","","","fullscreenenter","2","13780","fullscreenenter","","","","","","","","","","","","","",""
"fullscreen","2","14771","0.0-2.0","605fb0818ad4067b3d99ece0","bdp_rwlrn","Tue Mar 14 2023 20:06:49 GMT-0400 (Eastern Daylight Time)","496031","Trustworthy,Untrustworthy","","","","","","","true","","","","","","","","","","","","",""
"instructions","3","101970","0.0-4.0","605fb0818ad4067b3d99ece0","bdp_rwlrn","Tue Mar 14 2023 20:06:49 GMT-0400 (Eastern Daylight Time)","496031","Trustworthy,Untrustworthy","[{""page_index"":0,""viewing_time"":11565},{""page_index"":1,""viewing_time"":17249},{""page_index"":2,""viewing_time"":13656},{""page_index"":3,""viewing_time"":8008},{""page_index"":4,""viewing_time"":21233},{""page_index"":5,""viewing_time"":15487}]","87198","","","","","","","","","","","","","","","","","",""
"html-keyboard-response","4","109511","0.0-5.0","605fb0818ad4067b3d99ece0","bdp_rwlrn","Tue Mar 14 2023 20:06:49 GMT-0400 (Eastern Daylight Time)","496031","Trustworthy,Untrustworthy","","7539","","","","","","<div class='header' style='text-align:left; position: absolute; top: 5%; left: 5%;'><small>Task 1 of 5</small></div><div class='instruxDiv'><p><strong>1) What is the maximum number of points you can choose to bet on a lottery?</strong></p><p>a) 0</p><p>b) 1</p><p>c) 5</p>","C","","","","","","","","","","",""
"html-keyboard-response","5","111753","0.0-6.0","605fb0818ad4067b3d99ece0","bdp_rwlrn","Tue Mar 14 2023 20:06:49 GMT-0400 (Eastern Daylight Time)","496031","Trustworthy,Untrustworthy","","2136","","","","","","<div class='header' style='text-align:left; position: absolute; top: 5%; left: 5%;'><small>Task 1 of 5</small></div><div class='instruxDiv'><p><strong>1) What is the maximum number of points you can choose to bet on a lottery?</strong></p><p>a) 1</p><p>b) 1</p><p style='color:#00FF00'>c) 5</p><h3 style='color:#00FF00'>Correct!</h3><h3 class='center-content'>The correct response is c).</h3><h3 class='center-content'>The maximum number of points you can choose to bet on a lottery is 5 points.</h3><p><em>Press SPACEBAR to continue</em></p></div>"," ","","","","","","","","","","",""
"html-keyboard-response","6","115617","0.0-7.0","605fb0818ad4067b3d99ece0","bdp_rwlrn","Tue Mar 14 2023 20:06:49 GMT-0400 (Eastern Daylight Time)","496031","Trustworthy,Untrustworthy","","3705","","","","","","<div class='header' style='text-align:left; position: absolute; top: 5%; left: 5%;'><small>Task 1 of 5</small></div><div class='instruxDiv'><p><strong>2) How many points can you win each round?</strong></p><p>a) 10 points</p><p>b) Double what you bet</p><p>c) Quadruple what you bet</p>","B","","","","","","","","","","",""
"html-keyboard-response","7","117358","0.0-8.0","605fb0818ad4067b3d99ece0","bdp_rwlrn","Tue Mar 14 2023 20:06:49 GMT-0400 (Eastern Daylight Time)","496031","Trustworthy,Untrustworthy","","1636","","","","","","<div class='header' style='text-align:left; position: absolute; top: 5%; left: 5%;'><small>Task 1 of 5</small></div><div class='instruxDiv'><p><strong>2) How many points can you win each round?</strong></p><p>a) 10 points</p><p style='color:#00FF00'>b) Double what you bet</p><p>c) Quadruple what you bet</p><h3 style='color:#00FF00'>Correct!</h3><h3 class='center-content'>The correct response is b).</h3><h3 class='center-content'>You can win double the amount of points you bet.</h3><p><em>Press SPACEBAR to continue</em></p></div>"," ","","","","","","","","","","",""
"html-keyboard-response","8","122479","0.0-9.0","605fb0818ad4067b3d99ece0","bdp_rwlrn","Tue Mar 14 2023 20:06:49 GMT-0400 (Eastern Daylight Time)","496031","Trustworthy,Untrustworthy","","null","","","","","","<div class='header' style='text-align:left; position: absolute; top: 5%; left: 5%;'><small>Task 1 of 5</small></div><div class='instruxDiv'><p>Thank you for completing the quiz<p>These are the actual lotteries you will be playing in the next block:<p><div class='tc' align='center'><img class='introPic' src='Fruit/pears.png'><br><strong>Pears Aplenty</strong></div><div class='bl' align='center'><img class='introPic' src='Fruit/mango.png'><br><strong>Mega Mangos</strong></div><div class='br' align='center'><img class='introPic' src='Fruit/watermelon.png'><br><strong>Watermelon Win$</strong></div></div><p>Across <strong>66 rounds</strong> you will play each lottery <strong>22 times</strong> (in random order).<p style='align:center; color:white'><font <em>Press SPACEBAR to continue</em></p>","null","","","","","","","","","","",""
"instructions","9","132148","0.0-10.0","605fb0818ad4067b3d99ece0","bdp_rwlrn","Tue Mar 14 2023 20:06:49 GMT-0400 (Eastern Daylight Time)","496031","Trustworthy,Untrustworthy","[{""page_index"":0,""viewing_time"":6796},{""page_index"":1,""viewing_time"":2872}]","9668","","","","","","","","","","","","","","","","","",""
"html-keyboard-response","10","135148","0.0-11.0-1.0","605fb0818ad4067b3d99ece0","bdp_rwlrn","Tue Mar 14 2023 20:06:49 GMT-0400 (Eastern Daylight Time)","496031","Trustworthy,Untrustworthy","","2892","","","","decision","","<div class='trialDiv'><img src='Fruit/mango.png'><br><font class='baseline'><strong>Mega Mangos</strong><p>Choose number of points to bet.</font><div class='respPicDiv'><img src='img/responseButtonOffersNo0L.png' class='respPic'></div></div>","2","1","Mega Mangos","Fruit/mango.png","Lost","0.65,0.35","14","0.65","5","1","",""
"html-keyboard-response","11","135402","0.0-11.0-2.0","605fb0818ad4067b3d99ece0","bdp_rwlrn","Tue Mar 14 2023 20:06:49 GMT-0400 (Eastern Daylight Time)","496031","Trustworthy,Untrustworthy","","null","","","","decisionFB","","<div class='trialDiv'><img src='Fruit/mango.png'><br><font class='baseline'><strong>Mega Mangos</strong><p>Choose number of points to bet.</font><div class='respPicDiv'><img src='img/responseButtonOffersNo0L2.png' class='respPic'></div></div>","null","1","Mega Mangos","Fruit/mango.png","Lost","0.65,0.35","14","0.65","3","1","",""
"html-keyboard-response","12","136415","0.0-11.0-3.0","605fb0818ad4067b3d99ece0","bdp_rwlrn","Tue Mar 14 2023 20:06:49 GMT-0400 (Eastern Daylight Time)","496031","Trustworthy,Untrustworthy","","null","","","","feedback","","<div class='respPicDiv'><img src='img/responseButtonOffersNo0_wht.png' class='respPic'></div><div class='trialDiv'><img src='Fruit/mango.png'><br><font class='baseline'><strong>Mega Mangos</strong><p><strong><font class='negOutcome'>You LOST</font><p>You bet: 2</strong></font> &nbsp; &nbsp; &nbsp; &nbsp; &nbsp; &nbsp;<font class='negOutcome'>You receive: <strong>0</strong></font></div>","null","1","Mega Mangos","Fruit/mango.png","Lost","0.65,0.35","14","0.65","3","1","",""
"html-keyboard-response","13","139810","0.0-11.0-1.1","605fb0818ad4067b3d99ece0","bdp_rwlrn","Tue Mar 14 2023 20:06:49 GMT-0400 (Eastern Daylight Time)","496031","Trustworthy,Untrustworthy","","3394","","","","decision","","<div class='trialDiv'><img src='Fruit/watermelon.png'><br><font class='baseline'><strong>Watermelon Win$</strong><p>Choose number of points to bet.</font><div class='respPicDiv'><img src='img/responseButtonOffersNo0L.png' class='respPic'></div></div>","2","1","Watermelon Win$","Fruit/watermelon.png","Won","0.65,0.2","10","0.65","8","2","",""
"html-keyboard-response","14","140076","0.0-11.0-2.1","605fb0818ad4067b3d99ece0","bdp_rwlrn","Tue Mar 14 2023 20:06:49 GMT-0400 (Eastern Daylight Time)","496031","Trustworthy,Untrustworthy","","null","","","","decisionFB","","<div class='trialDiv'><img src='Fruit/watermelon.png'><br><font class='baseline'><strong>Watermelon Win$</strong><p>Choose number of points to bet.</font><div class='respPicDiv'><img src='img/responseButtonOffersNo0L2.png' class='respPic'></div></div>","null","1","Watermelon Win$","Fruit/watermelon.png","Won","0.65,0.2","10","0.65","6","2","",""
"html-keyboard-response","15","141086","0.0-11.0-3.1","605fb0818ad4067b3d99ece0","bdp_rwlrn","Tue Mar 14 2023 20:06:49 GMT-0400 (Eastern Daylight Time)","496031","Trustworthy,Untrustworthy","","null","","","","feedback","","<div class='respPicDiv'><img src='img/responseButtonOffersNo0_wht.png' class='respPic'></div><div class='trialDiv'><img src='Fruit/watermelon.png'><br><font class='baseline'><strong>Watermelon Win$</strong><p><strong><font class='posOutcome'>You WON</font><p>You bet: 2</strong></font> &nbsp; &nbsp; &nbsp; &nbsp; &nbsp; &nbsp;<font class='posOutcome'>you receive: <strong>4</strong></font></div>","null","1","Watermelon Win$","Fruit/watermelon.png","Won","0.65,0.2","10","0.65","10","2","",""
"html-keyboard-response","16","142631","0.0-11.0-1.2","605fb0818ad4067b3d99ece0","bdp_rwlrn","Tue Mar 14 2023 20:06:49 GMT-0400 (Eastern Daylight Time)","496031","Trustworthy,Untrustworthy","","1543","","","","decision","","<div class='trialDiv'><img src='Fruit/pears.png'><br><font class='baseline'><strong>Pears Aplenty</strong><p>Choose number of points to bet.</font><div class='respPicDiv'><img src='img/responseButtonOffersNo0L.png' class='respPic'></div></div>","5","1","Pears Aplenty","Fruit/pears.png","Lost","0.35,0.8","10","0.35","15","3","",""
"html-keyboard-response","17","142887","0.0-11.0-2.2","605fb0818ad4067b3d99ece0","bdp_rwlrn","Tue Mar 14 2023 20:06:49 GMT-0400 (Eastern Daylight Time)","496031","Trustworthy,Untrustworthy","","null","","","","decisionFB","","<div class='trialDiv'><img src='Fruit/pears.png'><br><font class='baseline'><strong>Pears Aplenty</strong><p>Choose number of points to bet.</font><div class='respPicDiv'><img src='img/responseButtonOffersNo0L5.png' class='respPic'></div></div>","null","1","Pears Aplenty","Fruit/pears.png","Lost","0.35,0.8","10","0.35","10","3","",""
"html-keyboard-response","18","143903","0.0-11.0-3.2","605fb0818ad4067b3d99ece0","bdp_rwlrn","Tue Mar 14 2023 20:06:49 GMT-0400 (Eastern Daylight Time)","496031","Trustworthy,Untrustworthy","","null","","","","feedback","","<div class='respPicDiv'><img src='img/responseButtonOffersNo0_wht.png' class='respPic'></div><div class='trialDiv'><img src='Fruit/pears.png'><br><font class='baseline'><strong>Pears Aplenty</strong><p><strong><font class='negOutcome'>You LOST</font><p>You bet: 5</strong></font> &nbsp; &nbsp; &nbsp; &nbsp; &nbsp; &nbsp;<font class='negOutcome'>You receive: <strong>0</strong></font></div>","null","1","Pears Aplenty","Fruit/pears.png","Lost","0.35,0.8","10","0.35","10","3","",""
"html-keyboard-response","19","147297","0.0-11.0-1.3","605fb0818ad4067b3d99ece0","bdp_rwlrn","Tue Mar 14 2023 20:06:49 GMT-0400 (Eastern Daylight Time)","496031","Trustworthy,Untrustworthy","","3392","","","","decision","","<div class='trialDiv'><img src='Fruit/mango.png'><br><font class='baseline'><strong>Mega Mangos</strong><p>Choose number of points to bet.</font><div class='respPicDiv'><img src='img/responseButtonOffersNo0L.png' class='respPic'></div></div>","2","2","Mega Mangos","Fruit/mango.png","Won","0.65,0.35","14","0.65","15","4","",""
"html-keyboard-response","20","147554","0.0-11.0-2.3","605fb0818ad4067b3d99ece0","bdp_rwlrn","Tue Mar 14 2023 20:06:49 GMT-0400 (Eastern Daylight Time)","496031","Trustworthy,Untrustworthy","","null","","","","decisionFB","","<div class='trialDiv'><img src='Fruit/mango.png'><br><font class='baseline'><strong>Mega Mangos</strong><p>Choose number of points to bet.</font><div class='respPicDiv'><img src='img/responseButtonOffersNo0L2.png' class='respPic'></div></div>","null","2","Mega Mangos","Fruit/mango.png","Won","0.65,0.35","14","0.65","13","4","",""
"html-keyboard-response","21","148564","0.0-11.0-3.3","605fb0818ad4067b3d99ece0","bdp_rwlrn","Tue Mar 14 2023 20:06:49 GMT-0400 (Eastern Daylight Time)","496031","Trustworthy,Untrustworthy","","null","","","","feedback","","<div class='respPicDiv'><img src='img/responseButtonOffersNo0_wht.png' class='respPic'></div><div class='trialDiv'><img src='Fruit/mango.png'><br><font class='baseline'><strong>Mega Mangos</strong><p><strong><font class='posOutcome'>You WON</font><p>You bet: 2</strong></font> &nbsp; &nbsp; &nbsp; &nbsp; &nbsp; &nbsp;<font class='posOutcome'>you receive: <strong>4</strong></font></div>","null","2","Mega Mangos","Fruit/mango.png","Won","0.65,0.35","14","0.65","17","4","",""
"html-keyboard-response","22","152705","0.0-11.0-1.4","605fb0818ad4067b3d99ece0","bdp_rwlrn","Tue Mar 14 2023 20:06:49 GMT-0400 (Eastern Daylight Time)","496031","Trustworthy,Untrustworthy","","4140","","","","decision","","<div class='trialDiv'><img src='Fruit/pears.png'><br><font class='baseline'><strong>Pears Aplenty</strong><p>Choose number of points to bet.</font><div class='respPicDiv'><img src='img/responseButtonOffersNo0L.png' class='respPic'></div></div>","2","2","Pears Aplenty","Fruit/pears.png","Lost","0.35,0.8","10","0.35","22","5","",""
"html-keyboard-response","23","152963","0.0-11.0-2.4","605fb0818ad4067b3d99ece0","bdp_rwlrn","Tue Mar 14 2023 20:06:49 GMT-0400 (Eastern Daylight Time)","496031","Trustworthy,Untrustworthy","","null","","","","decisionFB","","<div class='trialDiv'><img src='Fruit/pears.png'><br><font class='baseline'><strong>Pears Aplenty</strong><p>Choose number of points to bet.</font><div class='respPicDiv'><img src='img/responseButtonOffersNo0L2.png' class='respPic'></div></div>","null","2","Pears Aplenty","Fruit/pears.png","Lost","0.35,0.8","10","0.35","20","5","",""
"html-keyboard-response","24","153974","0.0-11.0-3.4","605fb0818ad4067b3d99ece0","bdp_rwlrn","Tue Mar 14 2023 20:06:49 GMT-0400 (Eastern Daylight Time)","496031","Trustworthy,Untrustworthy","","null","","","","feedback","","<div class='respPicDiv'><img src='img/responseButtonOffersNo0_wht.png' class='respPic'></div><div class='trialDiv'><img src='Fruit/pears.png'><br><font class='baseline'><strong>Pears Aplenty</strong><p><strong><font class='negOutcome'>You LOST</font><p>You bet: 2</strong></font> &nbsp; &nbsp; &nbsp; &nbsp; &nbsp; &nbsp;<font class='negOutcome'>You receive: <strong>0</strong></font></div>","null","2","Pears Aplenty","Fruit/pears.png","Lost","0.35,0.8","10","0.35","20","5","",""
"html-keyboard-response","25","154955","0.0-11.0-1.5","605fb0818ad4067b3d99ece0","bdp_rwlrn","Tue Mar 14 2023 20:06:49 GMT-0400 (Eastern Daylight Time)","496031","Trustworthy,Untrustworthy","","980","","","","decision","","<div class='trialDiv'><img src='Fruit/watermelon.png'><br><font class='baseline'><strong>Watermelon Win$</strong><p>Choose number of points to bet.</font><div class='respPicDiv'><img src='img/responseButtonOffersNo0L.png' class='respPic'></div></div>","2","2","Watermelon Win$","Fruit/watermelon.png","Lost","0.65,0.2","10","0.65","25","6","",""
"html-keyboard-response","26","155223","0.0-11.0-2.5","605fb0818ad4067b3d99ece0","bdp_rwlrn","Tue Mar 14 2023 20:06:49 GMT-0400 (Eastern Daylight Time)","496031","Trustworthy,Untrustworthy","","null","","","","decisionFB","","<div class='trialDiv'><img src='Fruit/watermelon.png'><br><font class='baseline'><strong>Watermelon Win$</strong><p>Choose number of points to bet.</font><div class='respPicDiv'><img src='img/responseButtonOffersNo0L2.png' class='respPic'></div></div>","null","2","Watermelon Win$","Fruit/watermelon.png","Lost","0.65,0.2","10","0.65","23","6","",""
"html-keyboard-response","27","156237","0.0-11.0-3.5","605fb0818ad4067b3d99ece0","bdp_rwlrn","Tue Mar 14 2023 20:06:49 GMT-0400 (Eastern Daylight Time)","496031","Trustworthy,Untrustworthy","","null","","","","feedback","","<div class='respPicDiv'><img src='img/responseButtonOffersNo0_wht.png' class='respPic'></div><div class='trialDiv'><img src='Fruit/watermelon.png'><br><font class='baseline'><strong>Watermelon Win$</strong><p><strong><font class='negOutcome'>You LOST</font><p>You bet: 2</strong></font> &nbsp; &nbsp; &nbsp; &nbsp; &nbsp; &nbsp;<font class='negOutcome'>You receive: <strong>0</strong></font></div>","null","2","Watermelon Win$","Fruit/watermelon.png","Lost","0.65,0.2","10","0.65","23","6","",""
"html-keyboard-response","28","158338","0.0-11.0-1.6","605fb0818ad4067b3d99ece0","bdp_rwlrn","Tue Mar 14 2023 20:06:49 GMT-0400 (Eastern Daylight Time)","496031","Trustworthy,Untrustworthy","","2101","","","","decision","","<div class='trialDiv'><img src='Fruit/mango.png'><br><font class='baseline'><strong>Mega Mangos</strong><p>Choose number of points to bet.</font><div class='respPicDiv'><img src='img/responseButtonOffersNo0L.png' class='respPic'></div></div>","3","3","Mega Mangos","Fruit/mango.png","Won","0.65,0.35","14","0.65","28","7","",""
"html-keyboard-response","29","158601","0.0-11.0-2.6","605fb0818ad4067b3d99ece0","bdp_rwlrn","Tue Mar 14 2023 20:06:49 GMT-0400 (Eastern Daylight Time)","496031","Trustworthy,Untrustworthy","","null","","","","decisionFB","","<div class='trialDiv'><img src='Fruit/mango.png'><br><font class='baseline'><strong>Mega Mangos</strong><p>Choose number of points to bet.</font><div class='respPicDiv'><img src='img/responseButtonOffersNo0L3.png' class='respPic'></div></div>","null","3","Mega Mangos","Fruit/mango.png","Won","0.65,0.35","14","0.65","25","7","",""
"html-keyboard-response","30","159612","0.0-11.0-3.6","605fb0818ad4067b3d99ece0","bdp_rwlrn","Tue Mar 14 2023 20:06:49 GMT-0400 (Eastern Daylight Time)","496031","Trustworthy,Untrustworthy","","null","","","","feedback","","<div class='respPicDiv'><img src='img/responseButtonOffersNo0_wht.png' class='respPic'></div><div class='trialDiv'><img src='Fruit/mango.png'><br><font class='baseline'><strong>Mega Mangos</strong><p><strong><font class='posOutcome'>You WON</font><p>You bet: 3</strong></font> &nbsp; &nbsp; &nbsp; &nbsp; &nbsp; &nbsp;<font class='posOutcome'>you receive: <strong>6</strong></font></div>","null","3","Mega Mangos","Fruit/mango.png","Won","0.65,0.35","14","0.65","31","7","",""
"html-keyboard-response","31","162508","0.0-11.0-1.7","605fb0818ad4067b3d99ece0","bdp_rwlrn","Tue Mar 14 2023 20:06:49 GMT-0400 (Eastern Daylight Time)","496031","Trustworthy,Untrustworthy","","2895","","","","decision","","<div class='trialDiv'><img src='Fruit/pears.png'><br><font class='baseline'><strong>Pears Aplenty</strong><p>Choose number of points to bet.</font><div class='respPicDiv'><img src='img/responseButtonOffersNo0L.png' class='respPic'></div></div>","2","3","Pears Aplenty","Fruit/pears.png","Won","0.35,0.8","10","0.35","36","8","",""
"html-keyboard-response","32","162772","0.0-11.0-2.7","605fb0818ad4067b3d99ece0","bdp_rwlrn","Tue Mar 14 2023 20:06:49 GMT-0400 (Eastern Daylight Time)","496031","Trustworthy,Untrustworthy","","null","","","","decisionFB","","<div class='trialDiv'><img src='Fruit/pears.png'><br><font class='baseline'><strong>Pears Aplenty</strong><p>Choose number of points to bet.</font><div class='respPicDiv'><img src='img/responseButtonOffersNo0L2.png' class='respPic'></div></div>","null","3","Pears Aplenty","Fruit/pears.png","Won","0.35,0.8","10","0.35","34","8","",""
"html-keyboard-response","33","163784","0.0-11.0-3.7","605fb0818ad4067b3d99ece0","bdp_rwlrn","Tue Mar 14 2023 20:06:49 GMT-0400 (Eastern Daylight Time)","496031","Trustworthy,Untrustworthy","","null","","","","feedback","","<div class='respPicDiv'><img src='img/responseButtonOffersNo0_wht.png' class='respPic'></div><div class='trialDiv'><img src='Fruit/pears.png'><br><font class='baseline'><strong>Pears Aplenty</strong><p><strong><font class='posOutcome'>You WON</font><p>You bet: 2</strong></font> &nbsp; &nbsp; &nbsp; &nbsp; &nbsp; &nbsp;<font class='posOutcome'>you receive: <strong>4</strong></font></div>","null","3","Pears Aplenty","Fruit/pears.png","Won","0.35,0.8","10","0.35","38","8","",""
"html-keyboard-response","34","166072","0.0-11.0-1.8","605fb0818ad4067b3d99ece0","bdp_rwlrn","Tue Mar 14 2023 20:06:49 GMT-0400 (Eastern Daylight Time)","496031","Trustworthy,Untrustworthy","","2287","","","","decision","","<div class='trialDiv'><img src='Fruit/watermelon.png'><br><font class='baseline'><strong>Watermelon Win$</strong><p>Choose number of points to bet.</font><div class='respPicDiv'><img src='img/responseButtonOffersNo0L.png' class='respPic'></div></div>","2","3","Watermelon Win$","Fruit/watermelon.png","Won","0.65,0.2","10","0.65","43","9","",""
"html-keyboard-response","35","166334","0.0-11.0-2.8","605fb0818ad4067b3d99ece0","bdp_rwlrn","Tue Mar 14 2023 20:06:49 GMT-0400 (Eastern Daylight Time)","496031","Trustworthy,Untrustworthy","","null","","","","decisionFB","","<div class='trialDiv'><img src='Fruit/watermelon.png'><br><font class='baseline'><strong>Watermelon Win$</strong><p>Choose number of points to bet.</font><div class='respPicDiv'><img src='img/responseButtonOffersNo0L2.png' class='respPic'></div></div>","null","3","Watermelon Win$","Fruit/watermelon.png","Won","0.65,0.2","10","0.65","41","9","",""
"html-keyboard-response","36","167347","0.0-11.0-3.8","605fb0818ad4067b3d99ece0","bdp_rwlrn","Tue Mar 14 2023 20:06:49 GMT-0400 (Eastern Daylight Time)","496031","Trustworthy,Untrustworthy","","null","","","","feedback","","<div class='respPicDiv'><img src='img/responseButtonOffersNo0_wht.png' class='respPic'></div><div class='trialDiv'><img src='Fruit/watermelon.png'><br><font class='baseline'><strong>Watermelon Win$</strong><p><strong><font class='posOutcome'>You WON</font><p>You bet: 2</strong></font> &nbsp; &nbsp; &nbsp; &nbsp; &nbsp; &nbsp;<font class='posOutcome'>you receive: <strong>4</strong></font></div>","null","3","Watermelon Win$","Fruit/watermelon.png","Won","0.65,0.2","10","0.65","45","9","",""
"html-keyboard-response","37","169803","0.0-11.0-1.9","605fb0818ad4067b3d99ece0","bdp_rwlrn","Tue Mar 14 2023 20:06:49 GMT-0400 (Eastern Daylight Time)","496031","Trustworthy,Untrustworthy","","2455","","","","decision","","<div class='trialDiv'><img src='Fruit/mango.png'><br><font class='baseline'><strong>Mega Mangos</strong><p>Choose number of points to bet.</font><div class='respPicDiv'><img src='img/responseButtonOffersNo0L.png' class='respPic'></div></div>","1","4","Mega Mangos","Fruit/mango.png","Won","0.65,0.35","14","0.65","50","10","",""
"html-keyboard-response","38","170057","0.0-11.0-2.9","605fb0818ad4067b3d99ece0","bdp_rwlrn","Tue Mar 14 2023 20:06:49 GMT-0400 (Eastern Daylight Time)","496031","Trustworthy,Untrustworthy","","null","","","","decisionFB","","<div class='trialDiv'><img src='Fruit/mango.png'><br><font class='baseline'><strong>Mega Mangos</strong><p>Choose number of points to bet.</font><div class='respPicDiv'><img src='img/responseButtonOffersNo0L1.png' class='respPic'></div></div>","null","4","Mega Mangos","Fruit/mango.png","Won","0.65,0.35","14","0.65","49","10","",""
"html-keyboard-response","39","171072","0.0-11.0-3.9","605fb0818ad4067b3d99ece0","bdp_rwlrn","Tue Mar 14 2023 20:06:49 GMT-0400 (Eastern Daylight Time)","496031","Trustworthy,Untrustworthy","","null","","","","feedback","","<div class='respPicDiv'><img src='img/responseButtonOffersNo0_wht.png' class='respPic'></div><div class='trialDiv'><img src='Fruit/mango.png'><br><font class='baseline'><strong>Mega Mangos</strong><p><strong><font class='posOutcome'>You WON</font><p>You bet: 1</strong></font> &nbsp; &nbsp; &nbsp; &nbsp; &nbsp; &nbsp;<font class='posOutcome'>you receive: <strong>2</strong></font></div>","null","4","Mega Mangos","Fruit/mango.png","Won","0.65,0.35","14","0.65","51","10","",""
"html-keyboard-response","40","172716","0.0-11.0-1.10","605fb0818ad4067b3d99ece0","bdp_rwlrn","Tue Mar 14 2023 20:06:49 GMT-0400 (Eastern Daylight Time)","496031","Trustworthy,Untrustworthy","","1643","","","","decision","","<div class='trialDiv'><img src='Fruit/pears.png'><br><font class='baseline'><strong>Pears Aplenty</strong><p>Choose number of points to bet.</font><div class='respPicDiv'><img src='img/responseButtonOffersNo0L.png' class='respPic'></div></div>","1","4","Pears Aplenty","Fruit/pears.png","Won","0.35,0.8","10","0.35","56","11","",""
"html-keyboard-response","41","172973","0.0-11.0-2.10","605fb0818ad4067b3d99ece0","bdp_rwlrn","Tue Mar 14 2023 20:06:49 GMT-0400 (Eastern Daylight Time)","496031","Trustworthy,Untrustworthy","","null","","","","decisionFB","","<div class='trialDiv'><img src='Fruit/pears.png'><br><font class='baseline'><strong>Pears Aplenty</strong><p>Choose number of points to bet.</font><div class='respPicDiv'><img src='img/responseButtonOffersNo0L1.png' class='respPic'></div></div>","null","4","Pears Aplenty","Fruit/pears.png","Won","0.35,0.8","10","0.35","55","11","",""
"html-keyboard-response","42","173987","0.0-11.0-3.10","605fb0818ad4067b3d99ece0","bdp_rwlrn","Tue Mar 14 2023 20:06:49 GMT-0400 (Eastern Daylight Time)","496031","Trustworthy,Untrustworthy","","null","","","","feedback","","<div class='respPicDiv'><img src='img/responseButtonOffersNo0_wht.png' class='respPic'></div><div class='trialDiv'><img src='Fruit/pears.png'><br><font class='baseline'><strong>Pears Aplenty</strong><p><strong><font class='posOutcome'>You WON</font><p>You bet: 1</strong></font> &nbsp; &nbsp; &nbsp; &nbsp; &nbsp; &nbsp;<font class='posOutcome'>you receive: <strong>2</strong></font></div>","null","4","Pears Aplenty","Fruit/pears.png","Won","0.35,0.8","10","0.35","57","11","",""
"html-keyboard-response","43","175204","0.0-11.0-1.11","605fb0818ad4067b3d99ece0","bdp_rwlrn","Tue Mar 14 2023 20:06:49 GMT-0400 (Eastern Daylight Time)","496031","Trustworthy,Untrustworthy","","1216","","","","decision","","<div class='trialDiv'><img src='Fruit/watermelon.png'><br><font class='baseline'><strong>Watermelon Win$</strong><p>Choose number of points to bet.</font><div class='respPicDiv'><img src='img/responseButtonOffersNo0L.png' class='respPic'></div></div>","4","4","Watermelon Win$","Fruit/watermelon.png","Lost","0.65,0.2","10","0.65","62","12","",""
"html-keyboard-response","44","175466","0.0-11.0-2.11","605fb0818ad4067b3d99ece0","bdp_rwlrn","Tue Mar 14 2023 20:06:49 GMT-0400 (Eastern Daylight Time)","496031","Trustworthy,Untrustworthy","","null","","","","decisionFB","","<div class='trialDiv'><img src='Fruit/watermelon.png'><br><font class='baseline'><strong>Watermelon Win$</strong><p>Choose number of points to bet.</font><div class='respPicDiv'><img src='img/responseButtonOffersNo0L4.png' class='respPic'></div></div>","null","4","Watermelon Win$","Fruit/watermelon.png","Lost","0.65,0.2","10","0.65","58","12","",""
"html-keyboard-response","45","176480","0.0-11.0-3.11","605fb0818ad4067b3d99ece0","bdp_rwlrn","Tue Mar 14 2023 20:06:49 GMT-0400 (Eastern Daylight Time)","496031","Trustworthy,Untrustworthy","","null","","","","feedback","","<div class='respPicDiv'><img src='img/responseButtonOffersNo0_wht.png' class='respPic'></div><div class='trialDiv'><img src='Fruit/watermelon.png'><br><font class='baseline'><strong>Watermelon Win$</strong><p><strong><font class='negOutcome'>You LOST</font><p>You bet: 4</strong></font> &nbsp; &nbsp; &nbsp; &nbsp; &nbsp; &nbsp;<font class='negOutcome'>You receive: <strong>0</strong></font></div>","null","4","Watermelon Win$","Fruit/watermelon.png","Lost","0.65,0.2","10","0.65","58","12","",""
"html-keyboard-response","46","178641","0.0-11.0-1.12","605fb0818ad4067b3d99ece0","bdp_rwlrn","Tue Mar 14 2023 20:06:49 GMT-0400 (Eastern Daylight Time)","496031","Trustworthy,Untrustworthy","","2160","","","","decision","","<div class='trialDiv'><img src='Fruit/mango.png'><br><font class='baseline'><strong>Mega Mangos</strong><p>Choose number of points to bet.</font><div class='respPicDiv'><img src='img/responseButtonOffersNo0L.png' class='respPic'></div></div>","4","5","Mega Mangos","Fruit/mango.png","Won","0.65,0.35","14","0.65","63","13","",""
"html-keyboard-response","47","178898","0.0-11.0-2.12","605fb0818ad4067b3d99ece0","bdp_rwlrn","Tue Mar 14 2023 20:06:49 GMT-0400 (Eastern Daylight Time)","496031","Trustworthy,Untrustworthy","","null","","","","decisionFB","","<div class='trialDiv'><img src='Fruit/mango.png'><br><font class='baseline'><strong>Mega Mangos</strong><p>Choose number of points to bet.</font><div class='respPicDiv'><img src='img/responseButtonOffersNo0L4.png' class='respPic'></div></div>","null","5","Mega Mangos","Fruit/mango.png","Won","0.65,0.35","14","0.65","59","13","",""
"html-keyboard-response","48","179910","0.0-11.0-3.12","605fb0818ad4067b3d99ece0","bdp_rwlrn","Tue Mar 14 2023 20:06:49 GMT-0400 (Eastern Daylight Time)","496031","Trustworthy,Untrustworthy","","null","","","","feedback","","<div class='respPicDiv'><img src='img/responseButtonOffersNo0_wht.png' class='respPic'></div><div class='trialDiv'><img src='Fruit/mango.png'><br><font class='baseline'><strong>Mega Mangos</strong><p><strong><font class='posOutcome'>You WON</font><p>You bet: 4</strong></font> &nbsp; &nbsp; &nbsp; &nbsp; &nbsp; &nbsp;<font class='posOutcome'>you receive: <strong>8</strong></font></div>","null","5","Mega Mangos","Fruit/mango.png","Won","0.65,0.35","14","0.65","67","13","",""
"html-keyboard-response","49","181533","0.0-11.0-1.13","605fb0818ad4067b3d99ece0","bdp_rwlrn","Tue Mar 14 2023 20:06:49 GMT-0400 (Eastern Daylight Time)","496031","Trustworthy,Untrustworthy","","1622","","","","decision","","<div class='trialDiv'><img src='Fruit/pears.png'><br><font class='baseline'><strong>Pears Aplenty</strong><p>Choose number of points to bet.</font><div class='respPicDiv'><img src='img/responseButtonOffersNo0L.png' class='respPic'></div></div>","5","5","Pears Aplenty","Fruit/pears.png","Lost","0.35,0.8","10","0.35","72","14","",""
"html-keyboard-response","50","181795","0.0-11.0-2.13","605fb0818ad4067b3d99ece0","bdp_rwlrn","Tue Mar 14 2023 20:06:49 GMT-0400 (Eastern Daylight Time)","496031","Trustworthy,Untrustworthy","","null","","","","decisionFB","","<div class='trialDiv'><img src='Fruit/pears.png'><br><font class='baseline'><strong>Pears Aplenty</strong><p>Choose number of points to bet.</font><div class='respPicDiv'><img src='img/responseButtonOffersNo0L5.png' class='respPic'></div></div>","null","5","Pears Aplenty","Fruit/pears.png","Lost","0.35,0.8","10","0.35","67","14","",""
"html-keyboard-response","51","182797","0.0-11.0-3.13","605fb0818ad4067b3d99ece0","bdp_rwlrn","Tue Mar 14 2023 20:06:49 GMT-0400 (Eastern Daylight Time)","496031","Trustworthy,Untrustworthy","","null","","","","feedback","","<div class='respPicDiv'><img src='img/responseButtonOffersNo0_wht.png' class='respPic'></div><div class='trialDiv'><img src='Fruit/pears.png'><br><font class='baseline'><strong>Pears Aplenty</strong><p><strong><font class='negOutcome'>You LOST</font><p>You bet: 5</strong></font> &nbsp; &nbsp; &nbsp; &nbsp; &nbsp; &nbsp;<font class='negOutcome'>You receive: <strong>0</strong></font></div>","null","5","Pears Aplenty","Fruit/pears.png","Lost","0.35,0.8","10","0.35","67","14","",""
"html-keyboard-response","52","184092","0.0-11.0-1.14","605fb0818ad4067b3d99ece0","bdp_rwlrn","Tue Mar 14 2023 20:06:49 GMT-0400 (Eastern Daylight Time)","496031","Trustworthy,Untrustworthy","","1294","","","","decision","","<div class='trialDiv'><img src='Fruit/watermelon.png'><br><font class='baseline'><strong>Watermelon Win$</strong><p>Choose number of points to bet.</font><div class='respPicDiv'><img src='img/responseButtonOffersNo0L.png' class='respPic'></div></div>","2","5","Watermelon Win$","Fruit/watermelon.png","Won","0.65,0.2","10","0.65","72","15","",""
"html-keyboard-response","53","184357","0.0-11.0-2.14","605fb0818ad4067b3d99ece0","bdp_rwlrn","Tue Mar 14 2023 20:06:49 GMT-0400 (Eastern Daylight Time)","496031","Trustworthy,Untrustworthy","","null","","","","decisionFB","","<div class='trialDiv'><img src='Fruit/watermelon.png'><br><font class='baseline'><strong>Watermelon Win$</strong><p>Choose number of points to bet.</font><div class='respPicDiv'><img src='img/responseButtonOffersNo0L2.png' class='respPic'></div></div>","null","5","Watermelon Win$","Fruit/watermelon.png","Won","0.65,0.2","10","0.65","70","15","",""
"html-keyboard-response","54","185369","0.0-11.0-3.14","605fb0818ad4067b3d99ece0","bdp_rwlrn","Tue Mar 14 2023 20:06:49 GMT-0400 (Eastern Daylight Time)","496031","Trustworthy,Untrustworthy","","null","","","","feedback","","<div class='respPicDiv'><img src='img/responseButtonOffersNo0_wht.png' class='respPic'></div><div class='trialDiv'><img src='Fruit/watermelon.png'><br><font class='baseline'><strong>Watermelon Win$</strong><p><strong><font class='posOutcome'>You WON</font><p>You bet: 2</strong></font> &nbsp; &nbsp; &nbsp; &nbsp; &nbsp; &nbsp;<font class='posOutcome'>you receive: <strong>4</strong></font></div>","null","5","Watermelon Win$","Fruit/watermelon.png","Won","0.65,0.2","10","0.65","74","15","",""
"html-keyboard-response","55","187812","0.0-11.0-1.15","605fb0818ad4067b3d99ece0","bdp_rwlrn","Tue Mar 14 2023 20:06:49 GMT-0400 (Eastern Daylight Time)","496031","Trustworthy,Untrustworthy","","2443","","","","decision","","<div class='trialDiv'><img src='Fruit/pears.png'><br><font class='baseline'><strong>Pears Aplenty</strong><p>Choose number of points to bet.</font><div class='respPicDiv'><img src='img/responseButtonOffersNo0L.png' class='respPic'></div></div>","3","6","Pears Aplenty","Fruit/pears.png","Won","0.35,0.8","10","0.35","79","16","",""
"html-keyboard-response","56","188065","0.0-11.0-2.15","605fb0818ad4067b3d99ece0","bdp_rwlrn","Tue Mar 14 2023 20:06:49 GMT-0400 (Eastern Daylight Time)","496031","Trustworthy,Untrustworthy","","null","","","","decisionFB","","<div class='trialDiv'><img src='Fruit/pears.png'><br><font class='baseline'><strong>Pears Aplenty</strong><p>Choose number of points to bet.</font><div class='respPicDiv'><img src='img/responseButtonOffersNo0L3.png' class='respPic'></div></div>","null","6","Pears Aplenty","Fruit/pears.png","Won","0.35,0.8","10","0.35","76","16","",""
"html-keyboard-response","57","189080","0.0-11.0-3.15","605fb0818ad4067b3d99ece0","bdp_rwlrn","Tue Mar 14 2023 20:06:49 GMT-0400 (Eastern Daylight Time)","496031","Trustworthy,Untrustworthy","","null","","","","feedback","","<div class='respPicDiv'><img src='img/responseButtonOffersNo0_wht.png' class='respPic'></div><div class='trialDiv'><img src='Fruit/pears.png'><br><font class='baseline'><strong>Pears Aplenty</strong><p><strong><font class='posOutcome'>You WON</font><p>You bet: 3</strong></font> &nbsp; &nbsp; &nbsp; &nbsp; &nbsp; &nbsp;<font class='posOutcome'>you receive: <strong>6</strong></font></div>","null","6","Pears Aplenty","Fruit/pears.png","Won","0.35,0.8","10","0.35","82","16","",""
"html-keyboard-response","58","191010","0.0-11.0-1.16","605fb0818ad4067b3d99ece0","bdp_rwlrn","Tue Mar 14 2023 20:06:49 GMT-0400 (Eastern Daylight Time)","496031","Trustworthy,Untrustworthy","","1929","","","","decision","","<div class='trialDiv'><img src='Fruit/watermelon.png'><br><font class='baseline'><strong>Watermelon Win$</strong><p>Choose number of points to bet.</font><div class='respPicDiv'><img src='img/responseButtonOffersNo0L.png' class='respPic'></div></div>","3","6","Watermelon Win$","Fruit/watermelon.png","Lost","0.65,0.2","10","0.65","87","17","",""
"html-keyboard-response","59","191277","0.0-11.0-2.16","605fb0818ad4067b3d99ece0","bdp_rwlrn","Tue Mar 14 2023 20:06:49 GMT-0400 (Eastern Daylight Time)","496031","Trustworthy,Untrustworthy","","null","","","","decisionFB","","<div class='trialDiv'><img src='Fruit/watermelon.png'><br><font class='baseline'><strong>Watermelon Win$</strong><p>Choose number of points to bet.</font><div class='respPicDiv'><img src='img/responseButtonOffersNo0L3.png' class='respPic'></div></div>","null","6","Watermelon Win$","Fruit/watermelon.png","Lost","0.65,0.2","10","0.65","84","17","",""
"html-keyboard-response","60","192281","0.0-11.0-3.16","605fb0818ad4067b3d99ece0","bdp_rwlrn","Tue Mar 14 2023 20:06:49 GMT-0400 (Eastern Daylight Time)","496031","Trustworthy,Untrustworthy","","null","","","","feedback","","<div class='respPicDiv'><img src='img/responseButtonOffersNo0_wht.png' class='respPic'></div><div class='trialDiv'><img src='Fruit/watermelon.png'><br><font class='baseline'><strong>Watermelon Win$</strong><p><strong><font class='negOutcome'>You LOST</font><p>You bet: 3</strong></font> &nbsp; &nbsp; &nbsp; &nbsp; &nbsp; &nbsp;<font class='negOutcome'>You receive: <strong>0</strong></font></div>","null","6","Watermelon Win$","Fruit/watermelon.png","Lost","0.65,0.2","10","0.65","84","17","",""
"html-keyboard-response","61","193406","0.0-11.0-1.17","605fb0818ad4067b3d99ece0","bdp_rwlrn","Tue Mar 14 2023 20:06:49 GMT-0400 (Eastern Daylight Time)","496031","Trustworthy,Untrustworthy","","1124","","","","decision","","<div class='trialDiv'><img src='Fruit/mango.png'><br><font class='baseline'><strong>Mega Mangos</strong><p>Choose number of points to bet.</font><div class='respPicDiv'><img src='img/responseButtonOffersNo0L.png' class='respPic'></div></div>","2","6","Mega Mangos","Fruit/mango.png","Won","0.65,0.35","14","0.65","89","18","",""
"html-keyboard-response","62","193671","0.0-11.0-2.17","605fb0818ad4067b3d99ece0","bdp_rwlrn","Tue Mar 14 2023 20:06:49 GMT-0400 (Eastern Daylight Time)","496031","Trustworthy,Untrustworthy","","null","","","","decisionFB","","<div class='trialDiv'><img src='Fruit/mango.png'><br><font class='baseline'><strong>Mega Mangos</strong><p>Choose number of points to bet.</font><div class='respPicDiv'><img src='img/responseButtonOffersNo0L2.png' class='respPic'></div></div>","null","6","Mega Mangos","Fruit/mango.png","Won","0.65,0.35","14","0.65","87","18","",""
"html-keyboard-response","63","194682","0.0-11.0-3.17","605fb0818ad4067b3d99ece0","bdp_rwlrn","Tue Mar 14 2023 20:06:49 GMT-0400 (Eastern Daylight Time)","496031","Trustworthy,Untrustworthy","","null","","","","feedback","","<div class='respPicDiv'><img src='img/responseButtonOffersNo0_wht.png' class='respPic'></div><div class='trialDiv'><img src='Fruit/mango.png'><br><font class='baseline'><strong>Mega Mangos</strong><p><strong><font class='posOutcome'>You WON</font><p>You bet: 2</strong></font> &nbsp; &nbsp; &nbsp; &nbsp; &nbsp; &nbsp;<font class='posOutcome'>you receive: <strong>4</strong></font></div>","null","6","Mega Mangos","Fruit/mango.png","Won","0.65,0.35","14","0.65","91","18","",""
"html-keyboard-response","64","196117","0.0-11.0-1.18","605fb0818ad4067b3d99ece0","bdp_rwlrn","Tue Mar 14 2023 20:06:49 GMT-0400 (Eastern Daylight Time)","496031","Trustworthy,Untrustworthy","","1434","","","","decision","","<div class='trialDiv'><img src='Fruit/watermelon.png'><br><font class='baseline'><strong>Watermelon Win$</strong><p>Choose number of points to bet.</font><div class='respPicDiv'><img src='img/responseButtonOffersNo0L.png' class='respPic'></div></div>","2","7","Watermelon Win$","Fruit/watermelon.png","Lost","0.65,0.2","10","0.65","96","19","",""
"html-keyboard-response","65","196382","0.0-11.0-2.18","605fb0818ad4067b3d99ece0","bdp_rwlrn","Tue Mar 14 2023 20:06:49 GMT-0400 (Eastern Daylight Time)","496031","Trustworthy,Untrustworthy","","null","","","","decisionFB","","<div class='trialDiv'><img src='Fruit/watermelon.png'><br><font class='baseline'><strong>Watermelon Win$</strong><p>Choose number of points to bet.</font><div class='respPicDiv'><img src='img/responseButtonOffersNo0L2.png' class='respPic'></div></div>","null","7","Watermelon Win$","Fruit/watermelon.png","Lost","0.65,0.2","10","0.65","94","19","",""
"html-keyboard-response","66","197390","0.0-11.0-3.18","605fb0818ad4067b3d99ece0","bdp_rwlrn","Tue Mar 14 2023 20:06:49 GMT-0400 (Eastern Daylight Time)","496031","Trustworthy,Untrustworthy","","null","","","","feedback","","<div class='respPicDiv'><img src='img/responseButtonOffersNo0_wht.png' class='respPic'></div><div class='trialDiv'><img src='Fruit/watermelon.png'><br><font class='baseline'><strong>Watermelon Win$</strong><p><strong><font class='negOutcome'>You LOST</font><p>You bet: 2</strong></font> &nbsp; &nbsp; &nbsp; &nbsp; &nbsp; &nbsp;<font class='negOutcome'>You receive: <strong>0</strong></font></div>","null","7","Watermelon Win$","Fruit/watermelon.png","Lost","0.65,0.2","10","0.65","94","19","",""
"html-keyboard-response","67","198345","0.0-11.0-1.19","605fb0818ad4067b3d99ece0","bdp_rwlrn","Tue Mar 14 2023 20:06:49 GMT-0400 (Eastern Daylight Time)","496031","Trustworthy,Untrustworthy","","954","","","","decision","","<div class='trialDiv'><img src='Fruit/pears.png'><br><font class='baseline'><strong>Pears Aplenty</strong><p>Choose number of points to bet.</font><div class='respPicDiv'><img src='img/responseButtonOffersNo0L.png' class='respPic'></div></div>","5","7","Pears Aplenty","Fruit/pears.png","Won","0.35,0.8","10","0.35","99","20","",""
"html-keyboard-response","68","198607","0.0-11.0-2.19","605fb0818ad4067b3d99ece0","bdp_rwlrn","Tue Mar 14 2023 20:06:49 GMT-0400 (Eastern Daylight Time)","496031","Trustworthy,Untrustworthy","","null","","","","decisionFB","","<div class='trialDiv'><img src='Fruit/pears.png'><br><font class='baseline'><strong>Pears Aplenty</strong><p>Choose number of points to bet.</font><div class='respPicDiv'><img src='img/responseButtonOffersNo0L5.png' class='respPic'></div></div>","null","7","Pears Aplenty","Fruit/pears.png","Won","0.35,0.8","10","0.35","94","20","",""
"html-keyboard-response","69","199621","0.0-11.0-3.19","605fb0818ad4067b3d99ece0","bdp_rwlrn","Tue Mar 14 2023 20:06:49 GMT-0400 (Eastern Daylight Time)","496031","Trustworthy,Untrustworthy","","null","","","","feedback","","<div class='respPicDiv'><img src='img/responseButtonOffersNo0_wht.png' class='respPic'></div><div class='trialDiv'><img src='Fruit/pears.png'><br><font class='baseline'><strong>Pears Aplenty</strong><p><strong><font class='posOutcome'>You WON</font><p>You bet: 5</strong></font> &nbsp; &nbsp; &nbsp; &nbsp; &nbsp; &nbsp;<font class='posOutcome'>you receive: <strong>10</strong></font></div>","null","7","Pears Aplenty","Fruit/pears.png","Won","0.35,0.8","10","0.35","104","20","",""
"html-keyboard-response","70","201702","0.0-11.0-1.20","605fb0818ad4067b3d99ece0","bdp_rwlrn","Tue Mar 14 2023 20:06:49 GMT-0400 (Eastern Daylight Time)","496031","Trustworthy,Untrustworthy","","2081","","","","decision","","<div class='trialDiv'><img src='Fruit/mango.png'><br><font class='baseline'><strong>Mega Mangos</strong><p>Choose number of points to bet.</font><div class='respPicDiv'><img src='img/responseButtonOffersNo0L.png' class='respPic'></div></div>","2","7","Mega Mangos","Fruit/mango.png","Lost","0.65,0.35","14","0.65","109","21","",""
"html-keyboard-response","71","201956","0.0-11.0-2.20","605fb0818ad4067b3d99ece0","bdp_rwlrn","Tue Mar 14 2023 20:06:49 GMT-0400 (Eastern Daylight Time)","496031","Trustworthy,Untrustworthy","","null","","","","decisionFB","","<div class='trialDiv'><img src='Fruit/mango.png'><br><font class='baseline'><strong>Mega Mangos</strong><p>Choose number of points to bet.</font><div class='respPicDiv'><img src='img/responseButtonOffersNo0L2.png' class='respPic'></div></div>","null","7","Mega Mangos","Fruit/mango.png","Lost","0.65,0.35","14","0.65","107","21","",""
"html-keyboard-response","72","202972","0.0-11.0-3.20","605fb0818ad4067b3d99ece0","bdp_rwlrn","Tue Mar 14 2023 20:06:49 GMT-0400 (Eastern Daylight Time)","496031","Trustworthy,Untrustworthy","","null","","","","feedback","","<div class='respPicDiv'><img src='img/responseButtonOffersNo0_wht.png' class='respPic'></div><div class='trialDiv'><img src='Fruit/mango.png'><br><font class='baseline'><strong>Mega Mangos</strong><p><strong><font class='negOutcome'>You LOST</font><p>You bet: 2</strong></font> &nbsp; &nbsp; &nbsp; &nbsp; &nbsp; &nbsp;<font class='negOutcome'>You receive: <strong>0</strong></font></div>","null","7","Mega Mangos","Fruit/mango.png","Lost","0.65,0.35","14","0.65","107","21","",""
"html-keyboard-response","73","204001","0.0-11.0-1.21","605fb0818ad4067b3d99ece0","bdp_rwlrn","Tue Mar 14 2023 20:06:49 GMT-0400 (Eastern Daylight Time)","496031","Trustworthy,Untrustworthy","","1028","","","","decision","","<div class='trialDiv'><img src='Fruit/pears.png'><br><font class='baseline'><strong>Pears Aplenty</strong><p>Choose number of points to bet.</font><div class='respPicDiv'><img src='img/responseButtonOffersNo0L.png' class='respPic'></div></div>","5","8","Pears Aplenty","Fruit/pears.png","Lost","0.35,0.8","10","0.35","112","22","",""
"html-keyboard-response","74","204267","0.0-11.0-2.21","605fb0818ad4067b3d99ece0","bdp_rwlrn","Tue Mar 14 2023 20:06:49 GMT-0400 (Eastern Daylight Time)","496031","Trustworthy,Untrustworthy","","null","","","","decisionFB","","<div class='trialDiv'><img src='Fruit/pears.png'><br><font class='baseline'><strong>Pears Aplenty</strong><p>Choose number of points to bet.</font><div class='respPicDiv'><img src='img/responseButtonOffersNo0L5.png' class='respPic'></div></div>","null","8","Pears Aplenty","Fruit/pears.png","Lost","0.35,0.8","10","0.35","107","22","",""
"html-keyboard-response","75","205277","0.0-11.0-3.21","605fb0818ad4067b3d99ece0","bdp_rwlrn","Tue Mar 14 2023 20:06:49 GMT-0400 (Eastern Daylight Time)","496031","Trustworthy,Untrustworthy","","null","","","","feedback","","<div class='respPicDiv'><img src='img/responseButtonOffersNo0_wht.png' class='respPic'></div><div class='trialDiv'><img src='Fruit/pears.png'><br><font class='baseline'><strong>Pears Aplenty</strong><p><strong><font class='negOutcome'>You LOST</font><p>You bet: 5</strong></font> &nbsp; &nbsp; &nbsp; &nbsp; &nbsp; &nbsp;<font class='negOutcome'>You receive: <strong>0</strong></font></div>","null","8","Pears Aplenty","Fruit/pears.png","Lost","0.35,0.8","10","0.35","107","22","",""
"html-keyboard-response","76","206098","0.0-11.0-1.22","605fb0818ad4067b3d99ece0","bdp_rwlrn","Tue Mar 14 2023 20:06:49 GMT-0400 (Eastern Daylight Time)","496031","Trustworthy,Untrustworthy","","820","","","","decision","","<div class='trialDiv'><img src='Fruit/watermelon.png'><br><font class='baseline'><strong>Watermelon Win$</strong><p>Choose number of points to bet.</font><div class='respPicDiv'><img src='img/responseButtonOffersNo0L.png' class='respPic'></div></div>","2","8","Watermelon Win$","Fruit/watermelon.png","Lost","0.65,0.2","10","0.65","112","23","",""
"html-keyboard-response","77","206349","0.0-11.0-2.22","605fb0818ad4067b3d99ece0","bdp_rwlrn","Tue Mar 14 2023 20:06:49 GMT-0400 (Eastern Daylight Time)","496031","Trustworthy,Untrustworthy","","null","","","","decisionFB","","<div class='trialDiv'><img src='Fruit/watermelon.png'><br><font class='baseline'><strong>Watermelon Win$</strong><p>Choose number of points to bet.</font><div class='respPicDiv'><img src='img/responseButtonOffersNo0L2.png' class='respPic'></div></div>","null","8","Watermelon Win$","Fruit/watermelon.png","Lost","0.65,0.2","10","0.65","110","23","",""
"html-keyboard-response","78","207362","0.0-11.0-3.22","605fb0818ad4067b3d99ece0","bdp_rwlrn","Tue Mar 14 2023 20:06:49 GMT-0400 (Eastern Daylight Time)","496031","Trustworthy,Untrustworthy","","null","","","","feedback","","<div class='respPicDiv'><img src='img/responseButtonOffersNo0_wht.png' class='respPic'></div><div class='trialDiv'><img src='Fruit/watermelon.png'><br><font class='baseline'><strong>Watermelon Win$</strong><p><strong><font class='negOutcome'>You LOST</font><p>You bet: 2</strong></font> &nbsp; &nbsp; &nbsp; &nbsp; &nbsp; &nbsp;<font class='negOutcome'>You receive: <strong>0</strong></font></div>","null","8","Watermelon Win$","Fruit/watermelon.png","Lost","0.65,0.2","10","0.65","110","23","",""
"html-keyboard-response","79","208630","0.0-11.0-1.23","605fb0818ad4067b3d99ece0","bdp_rwlrn","Tue Mar 14 2023 20:06:49 GMT-0400 (Eastern Daylight Time)","496031","Trustworthy,Untrustworthy","","1268","","","","decision","","<div class='trialDiv'><img src='Fruit/mango.png'><br><font class='baseline'><strong>Mega Mangos</strong><p>Choose number of points to bet.</font><div class='respPicDiv'><img src='img/responseButtonOffersNo0L.png' class='respPic'></div></div>","1","8","Mega Mangos","Fruit/mango.png","Lost","0.65,0.35","14","0.65","115","24","",""
"html-keyboard-response","80","208890","0.0-11.0-2.23","605fb0818ad4067b3d99ece0","bdp_rwlrn","Tue Mar 14 2023 20:06:49 GMT-0400 (Eastern Daylight Time)","496031","Trustworthy,Untrustworthy","","null","","","","decisionFB","","<div class='trialDiv'><img src='Fruit/mango.png'><br><font class='baseline'><strong>Mega Mangos</strong><p>Choose number of points to bet.</font><div class='respPicDiv'><img src='img/responseButtonOffersNo0L1.png' class='respPic'></div></div>","null","8","Mega Mangos","Fruit/mango.png","Lost","0.65,0.35","14","0.65","114","24","",""
"html-keyboard-response","81","209898","0.0-11.0-3.23","605fb0818ad4067b3d99ece0","bdp_rwlrn","Tue Mar 14 2023 20:06:49 GMT-0400 (Eastern Daylight Time)","496031","Trustworthy,Untrustworthy","","null","","","","feedback","","<div class='respPicDiv'><img src='img/responseButtonOffersNo0_wht.png' class='respPic'></div><div class='trialDiv'><img src='Fruit/mango.png'><br><font class='baseline'><strong>Mega Mangos</strong><p><strong><font class='negOutcome'>You LOST</font><p>You bet: 1</strong></font> &nbsp; &nbsp; &nbsp; &nbsp; &nbsp; &nbsp;<font class='negOutcome'>You receive: <strong>0</strong></font></div>","null","8","Mega Mangos","Fruit/mango.png","Lost","0.65,0.35","14","0.65","114","24","",""
"html-keyboard-response","82","210911","0.0-11.0-1.24","605fb0818ad4067b3d99ece0","bdp_rwlrn","Tue Mar 14 2023 20:06:49 GMT-0400 (Eastern Daylight Time)","496031","Trustworthy,Untrustworthy","","1012","","","","decision","","<div class='trialDiv'><img src='Fruit/pears.png'><br><font class='baseline'><strong>Pears Aplenty</strong><p>Choose number of points to bet.</font><div class='respPicDiv'><img src='img/responseButtonOffersNo0L.png' class='respPic'></div></div>","5","9","Pears Aplenty","Fruit/pears.png","Won","0.35,0.8","10","0.35","119","25","",""
"html-keyboard-response","83","211173","0.0-11.0-2.24","605fb0818ad4067b3d99ece0","bdp_rwlrn","Tue Mar 14 2023 20:06:49 GMT-0400 (Eastern Daylight Time)","496031","Trustworthy,Untrustworthy","","null","","","","decisionFB","","<div class='trialDiv'><img src='Fruit/pears.png'><br><font class='baseline'><strong>Pears Aplenty</strong><p>Choose number of points to bet.</font><div class='respPicDiv'><img src='img/responseButtonOffersNo0L5.png' class='respPic'></div></div>","null","9","Pears Aplenty","Fruit/pears.png","Won","0.35,0.8","10","0.35","114","25","",""
"html-keyboard-response","84","212181","0.0-11.0-3.24","605fb0818ad4067b3d99ece0","bdp_rwlrn","Tue Mar 14 2023 20:06:49 GMT-0400 (Eastern Daylight Time)","496031","Trustworthy,Untrustworthy","","null","","","","feedback","","<div class='respPicDiv'><img src='img/responseButtonOffersNo0_wht.png' class='respPic'></div><div class='trialDiv'><img src='Fruit/pears.png'><br><font class='baseline'><strong>Pears Aplenty</strong><p><strong><font class='posOutcome'>You WON</font><p>You bet: 5</strong></font> &nbsp; &nbsp; &nbsp; &nbsp; &nbsp; &nbsp;<font class='posOutcome'>you receive: <strong>10</strong></font></div>","null","9","Pears Aplenty","Fruit/pears.png","Won","0.35,0.8","10","0.35","124","25","",""
"html-keyboard-response","85","213193","0.0-11.0-1.25","605fb0818ad4067b3d99ece0","bdp_rwlrn","Tue Mar 14 2023 20:06:49 GMT-0400 (Eastern Daylight Time)","496031","Trustworthy,Untrustworthy","","1011","","","","decision","","<div class='trialDiv'><img src='Fruit/watermelon.png'><br><font class='baseline'><strong>Watermelon Win$</strong><p>Choose number of points to bet.</font><div class='respPicDiv'><img src='img/responseButtonOffersNo0L.png' class='respPic'></div></div>","1","9","Watermelon Win$","Fruit/watermelon.png","Lost","0.65,0.2","10","0.65","129","26","",""
"html-keyboard-response","86","213455","0.0-11.0-2.25","605fb0818ad4067b3d99ece0","bdp_rwlrn","Tue Mar 14 2023 20:06:49 GMT-0400 (Eastern Daylight Time)","496031","Trustworthy,Untrustworthy","","null","","","","decisionFB","","<div class='trialDiv'><img src='Fruit/watermelon.png'><br><font class='baseline'><strong>Watermelon Win$</strong><p>Choose number of points to bet.</font><div class='respPicDiv'><img src='img/responseButtonOffersNo0L1.png' class='respPic'></div></div>","null","9","Watermelon Win$","Fruit/watermelon.png","Lost","0.65,0.2","10","0.65","128","26","",""
"html-keyboard-response","87","214467","0.0-11.0-3.25","605fb0818ad4067b3d99ece0","bdp_rwlrn","Tue Mar 14 2023 20:06:49 GMT-0400 (Eastern Daylight Time)","496031","Trustworthy,Untrustworthy","","null","","","","feedback","","<div class='respPicDiv'><img src='img/responseButtonOffersNo0_wht.png' class='respPic'></div><div class='trialDiv'><img src='Fruit/watermelon.png'><br><font class='baseline'><strong>Watermelon Win$</strong><p><strong><font class='negOutcome'>You LOST</font><p>You bet: 1</strong></font> &nbsp; &nbsp; &nbsp; &nbsp; &nbsp; &nbsp;<font class='negOutcome'>You receive: <strong>0</strong></font></div>","null","9","Watermelon Win$","Fruit/watermelon.png","Lost","0.65,0.2","10","0.65","128","26","",""
"html-keyboard-response","88","215147","0.0-11.0-1.26","605fb0818ad4067b3d99ece0","bdp_rwlrn","Tue Mar 14 2023 20:06:49 GMT-0400 (Eastern Daylight Time)","496031","Trustworthy,Untrustworthy","","679","","","","decision","","<div class='trialDiv'><img src='Fruit/mango.png'><br><font class='baseline'><strong>Mega Mangos</strong><p>Choose number of points to bet.</font><div class='respPicDiv'><img src='img/responseButtonOffersNo0L.png' class='respPic'></div></div>","1","9","Mega Mangos","Fruit/mango.png","Won","0.65,0.35","14","0.65","133","27","",""
"html-keyboard-response","89","215399","0.0-11.0-2.26","605fb0818ad4067b3d99ece0","bdp_rwlrn","Tue Mar 14 2023 20:06:49 GMT-0400 (Eastern Daylight Time)","496031","Trustworthy,Untrustworthy","","null","","","","decisionFB","","<div class='trialDiv'><img src='Fruit/mango.png'><br><font class='baseline'><strong>Mega Mangos</strong><p>Choose number of points to bet.</font><div class='respPicDiv'><img src='img/responseButtonOffersNo0L1.png' class='respPic'></div></div>","null","9","Mega Mangos","Fruit/mango.png","Won","0.65,0.35","14","0.65","132","27","",""
"html-keyboard-response","90","216415","0.0-11.0-3.26","605fb0818ad4067b3d99ece0","bdp_rwlrn","Tue Mar 14 2023 20:06:49 GMT-0400 (Eastern Daylight Time)","496031","Trustworthy,Untrustworthy","","null","","","","feedback","","<div class='respPicDiv'><img src='img/responseButtonOffersNo0_wht.png' class='respPic'></div><div class='trialDiv'><img src='Fruit/mango.png'><br><font class='baseline'><strong>Mega Mangos</strong><p><strong><font class='posOutcome'>You WON</font><p>You bet: 1</strong></font> &nbsp; &nbsp; &nbsp; &nbsp; &nbsp; &nbsp;<font class='posOutcome'>you receive: <strong>2</strong></font></div>","null","9","Mega Mangos","Fruit/mango.png","Won","0.65,0.35","14","0.65","134","27","",""
"html-keyboard-response","91","217115","0.0-11.0-1.27","605fb0818ad4067b3d99ece0","bdp_rwlrn","Tue Mar 14 2023 20:06:49 GMT-0400 (Eastern Daylight Time)","496031","Trustworthy,Untrustworthy","","697","","","","decision","","<div class='trialDiv'><img src='Fruit/pears.png'><br><font class='baseline'><strong>Pears Aplenty</strong><p>Choose number of points to bet.</font><div class='respPicDiv'><img src='img/responseButtonOffersNo0L.png' class='respPic'></div></div>","5","10","Pears Aplenty","Fruit/pears.png","Won","0.35,0.8","10","0.35","139","28","",""
"html-keyboard-response","92","217381","0.0-11.0-2.27","605fb0818ad4067b3d99ece0","bdp_rwlrn","Tue Mar 14 2023 20:06:49 GMT-0400 (Eastern Daylight Time)","496031","Trustworthy,Untrustworthy","","null","","","","decisionFB","","<div class='trialDiv'><img src='Fruit/pears.png'><br><font class='baseline'><strong>Pears Aplenty</strong><p>Choose number of points to bet.</font><div class='respPicDiv'><img src='img/responseButtonOffersNo0L5.png' class='respPic'></div></div>","null","10","Pears Aplenty","Fruit/pears.png","Won","0.35,0.8","10","0.35","134","28","",""
"html-keyboard-response","93","218386","0.0-11.0-3.27","605fb0818ad4067b3d99ece0","bdp_rwlrn","Tue Mar 14 2023 20:06:49 GMT-0400 (Eastern Daylight Time)","496031","Trustworthy,Untrustworthy","","null","","","","feedback","","<div class='respPicDiv'><img src='img/responseButtonOffersNo0_wht.png' class='respPic'></div><div class='trialDiv'><img src='Fruit/pears.png'><br><font class='baseline'><strong>Pears Aplenty</strong><p><strong><font class='posOutcome'>You WON</font><p>You bet: 5</strong></font> &nbsp; &nbsp; &nbsp; &nbsp; &nbsp; &nbsp;<font class='posOutcome'>you receive: <strong>10</strong></font></div>","null","10","Pears Aplenty","Fruit/pears.png","Won","0.35,0.8","10","0.35","144","28","",""
"html-keyboard-response","94","219324","0.0-11.0-1.28","605fb0818ad4067b3d99ece0","bdp_rwlrn","Tue Mar 14 2023 20:06:49 GMT-0400 (Eastern Daylight Time)","496031","Trustworthy,Untrustworthy","","937","","","","decision","","<div class='trialDiv'><img src='Fruit/watermelon.png'><br><font class='baseline'><strong>Watermelon Win$</strong><p>Choose number of points to bet.</font><div class='respPicDiv'><img src='img/responseButtonOffersNo0L.png' class='respPic'></div></div>","1","10","Watermelon Win$","Fruit/watermelon.png","Lost","0.65,0.2","10","0.65","149","29","",""
"html-keyboard-response","95","219586","0.0-11.0-2.28","605fb0818ad4067b3d99ece0","bdp_rwlrn","Tue Mar 14 2023 20:06:49 GMT-0400 (Eastern Daylight Time)","496031","Trustworthy,Untrustworthy","","null","","","","decisionFB","","<div class='trialDiv'><img src='Fruit/watermelon.png'><br><font class='baseline'><strong>Watermelon Win$</strong><p>Choose number of points to bet.</font><div class='respPicDiv'><img src='img/responseButtonOffersNo0L1.png' class='respPic'></div></div>","null","10","Watermelon Win$","Fruit/watermelon.png","Lost","0.65,0.2","10","0.65","148","29","",""
"html-keyboard-response","96","220599","0.0-11.0-3.28","605fb0818ad4067b3d99ece0","bdp_rwlrn","Tue Mar 14 2023 20:06:49 GMT-0400 (Eastern Daylight Time)","496031","Trustworthy,Untrustworthy","","null","","","","feedback","","<div class='respPicDiv'><img src='img/responseButtonOffersNo0_wht.png' class='respPic'></div><div class='trialDiv'><img src='Fruit/watermelon.png'><br><font class='baseline'><strong>Watermelon Win$</strong><p><strong><font class='negOutcome'>You LOST</font><p>You bet: 1</strong></font> &nbsp; &nbsp; &nbsp; &nbsp; &nbsp; &nbsp;<font class='negOutcome'>You receive: <strong>0</strong></font></div>","null","10","Watermelon Win$","Fruit/watermelon.png","Lost","0.65,0.2","10","0.65","148","29","",""
"html-keyboard-response","97","221373","0.0-11.0-1.29","605fb0818ad4067b3d99ece0","bdp_rwlrn","Tue Mar 14 2023 20:06:49 GMT-0400 (Eastern Daylight Time)","496031","Trustworthy,Untrustworthy","","773","","","","decision","","<div class='trialDiv'><img src='Fruit/mango.png'><br><font class='baseline'><strong>Mega Mangos</strong><p>Choose number of points to bet.</font><div class='respPicDiv'><img src='img/responseButtonOffersNo0L.png' class='respPic'></div></div>","1","10","Mega Mangos","Fruit/mango.png","Lost","0.65,0.35","14","0.65","153","30","",""
"html-keyboard-response","98","221625","0.0-11.0-2.29","605fb0818ad4067b3d99ece0","bdp_rwlrn","Tue Mar 14 2023 20:06:49 GMT-0400 (Eastern Daylight Time)","496031","Trustworthy,Untrustworthy","","null","","","","decisionFB","","<div class='trialDiv'><img src='Fruit/mango.png'><br><font class='baseline'><strong>Mega Mangos</strong><p>Choose number of points to bet.</font><div class='respPicDiv'><img src='img/responseButtonOffersNo0L1.png' class='respPic'></div></div>","null","10","Mega Mangos","Fruit/mango.png","Lost","0.65,0.35","14","0.65","152","30","",""
"html-keyboard-response","99","222629","0.0-11.0-3.29","605fb0818ad4067b3d99ece0","bdp_rwlrn","Tue Mar 14 2023 20:06:49 GMT-0400 (Eastern Daylight Time)","496031","Trustworthy,Untrustworthy","","null","","","","feedback","","<div class='respPicDiv'><img src='img/responseButtonOffersNo0_wht.png' class='respPic'></div><div class='trialDiv'><img src='Fruit/mango.png'><br><font class='baseline'><strong>Mega Mangos</strong><p><strong><font class='negOutcome'>You LOST</font><p>You bet: 1</strong></font> &nbsp; &nbsp; &nbsp; &nbsp; &nbsp; &nbsp;<font class='negOutcome'>You receive: <strong>0</strong></font></div>","null","10","Mega Mangos","Fruit/mango.png","Lost","0.65,0.35","14","0.65","152","30","",""
"html-keyboard-response","100","223210","0.0-11.0-1.30","605fb0818ad4067b3d99ece0","bdp_rwlrn","Tue Mar 14 2023 20:06:49 GMT-0400 (Eastern Daylight Time)","496031","Trustworthy,Untrustworthy","","580","","","","decision","","<div class='trialDiv'><img src='Fruit/pears.png'><br><font class='baseline'><strong>Pears Aplenty</strong><p>Choose number of points to bet.</font><div class='respPicDiv'><img src='img/responseButtonOffersNo0L.png' class='respPic'></div></div>","5","11","Pears Aplenty","Fruit/pears.png","Won","0.35,0.8","10","0.35","157","31","",""
"html-keyboard-response","101","223466","0.0-11.0-2.30","605fb0818ad4067b3d99ece0","bdp_rwlrn","Tue Mar 14 2023 20:06:49 GMT-0400 (Eastern Daylight Time)","496031","Trustworthy,Untrustworthy","","null","","","","decisionFB","","<div class='trialDiv'><img src='Fruit/pears.png'><br><font class='baseline'><strong>Pears Aplenty</strong><p>Choose number of points to bet.</font><div class='respPicDiv'><img src='img/responseButtonOffersNo0L5.png' class='respPic'></div></div>","null","11","Pears Aplenty","Fruit/pears.png","Won","0.35,0.8","10","0.35","152","31","",""
"html-keyboard-response","102","224482","0.0-11.0-3.30","605fb0818ad4067b3d99ece0","bdp_rwlrn","Tue Mar 14 2023 20:06:49 GMT-0400 (Eastern Daylight Time)","496031","Trustworthy,Untrustworthy","","null","","","","feedback","","<div class='respPicDiv'><img src='img/responseButtonOffersNo0_wht.png' class='respPic'></div><div class='trialDiv'><img src='Fruit/pears.png'><br><font class='baseline'><strong>Pears Aplenty</strong><p><strong><font class='posOutcome'>You WON</font><p>You bet: 5</strong></font> &nbsp; &nbsp; &nbsp; &nbsp; &nbsp; &nbsp;<font class='posOutcome'>you receive: <strong>10</strong></font></div>","null","11","Pears Aplenty","Fruit/pears.png","Won","0.35,0.8","10","0.35","162","31","",""
"html-keyboard-response","103","225211","0.0-11.0-1.31","605fb0818ad4067b3d99ece0","bdp_rwlrn","Tue Mar 14 2023 20:06:49 GMT-0400 (Eastern Daylight Time)","496031","Trustworthy,Untrustworthy","","728","","","","decision","","<div class='trialDiv'><img src='Fruit/watermelon.png'><br><font class='baseline'><strong>Watermelon Win$</strong><p>Choose number of points to bet.</font><div class='respPicDiv'><img src='img/responseButtonOffersNo0L.png' class='respPic'></div></div>","1","11","Watermelon Win$","Fruit/watermelon.png","Lost","0.65,0.2","10","0.65","167","32","",""
"html-keyboard-response","104","225465","0.0-11.0-2.31","605fb0818ad4067b3d99ece0","bdp_rwlrn","Tue Mar 14 2023 20:06:49 GMT-0400 (Eastern Daylight Time)","496031","Trustworthy,Untrustworthy","","null","","","","decisionFB","","<div class='trialDiv'><img src='Fruit/watermelon.png'><br><font class='baseline'><strong>Watermelon Win$</strong><p>Choose number of points to bet.</font><div class='respPicDiv'><img src='img/responseButtonOffersNo0L1.png' class='respPic'></div></div>","null","11","Watermelon Win$","Fruit/watermelon.png","Lost","0.65,0.2","10","0.65","166","32","",""
"html-keyboard-response","105","226479","0.0-11.0-3.31","605fb0818ad4067b3d99ece0","bdp_rwlrn","Tue Mar 14 2023 20:06:49 GMT-0400 (Eastern Daylight Time)","496031","Trustworthy,Untrustworthy","","null","","","","feedback","","<div class='respPicDiv'><img src='img/responseButtonOffersNo0_wht.png' class='respPic'></div><div class='trialDiv'><img src='Fruit/watermelon.png'><br><font class='baseline'><strong>Watermelon Win$</strong><p><strong><font class='negOutcome'>You LOST</font><p>You bet: 1</strong></font> &nbsp; &nbsp; &nbsp; &nbsp; &nbsp; &nbsp;<font class='negOutcome'>You receive: <strong>0</strong></font></div>","null","11","Watermelon Win$","Fruit/watermelon.png","Lost","0.65,0.2","10","0.65","166","32","",""
"html-keyboard-response","106","226804","0.0-11.0-1.32","605fb0818ad4067b3d99ece0","bdp_rwlrn","Tue Mar 14 2023 20:06:49 GMT-0400 (Eastern Daylight Time)","496031","Trustworthy,Untrustworthy","","323","","","","decision","","<div class='trialDiv'><img src='Fruit/mango.png'><br><font class='baseline'><strong>Mega Mangos</strong><p>Choose number of points to bet.</font><div class='respPicDiv'><img src='img/responseButtonOffersNo0L.png' class='respPic'></div></div>","1","11","Mega Mangos","Fruit/mango.png","Won","0.65,0.35","14","0.65","171","33","",""
"html-keyboard-response","107","227055","0.0-11.0-2.32","605fb0818ad4067b3d99ece0","bdp_rwlrn","Tue Mar 14 2023 20:06:49 GMT-0400 (Eastern Daylight Time)","496031","Trustworthy,Untrustworthy","","null","","","","decisionFB","","<div class='trialDiv'><img src='Fruit/mango.png'><br><font class='baseline'><strong>Mega Mangos</strong><p>Choose number of points to bet.</font><div class='respPicDiv'><img src='img/responseButtonOffersNo0L1.png' class='respPic'></div></div>","null","11","Mega Mangos","Fruit/mango.png","Won","0.65,0.35","14","0.65","170","33","",""
"html-keyboard-response","108","228067","0.0-11.0-3.32","605fb0818ad4067b3d99ece0","bdp_rwlrn","Tue Mar 14 2023 20:06:49 GMT-0400 (Eastern Daylight Time)","496031","Trustworthy,Untrustworthy","","null","","","","feedback","","<div class='respPicDiv'><img src='img/responseButtonOffersNo0_wht.png' class='respPic'></div><div class='trialDiv'><img src='Fruit/mango.png'><br><font class='baseline'><strong>Mega Mangos</strong><p><strong><font class='posOutcome'>You WON</font><p>You bet: 1</strong></font> &nbsp; &nbsp; &nbsp; &nbsp; &nbsp; &nbsp;<font class='posOutcome'>you receive: <strong>2</strong></font></div>","null","11","Mega Mangos","Fruit/mango.png","Won","0.65,0.35","14","0.65","172","33","",""
"html-keyboard-response","109","229467","0.0-11.0-1.33","605fb0818ad4067b3d99ece0","bdp_rwlrn","Tue Mar 14 2023 20:06:49 GMT-0400 (Eastern Daylight Time)","496031","Trustworthy,Untrustworthy","","1400","","","","decision","","<div class='trialDiv'><img src='Fruit/watermelon.png'><br><font class='baseline'><strong>Watermelon Win$</strong><p>Choose number of points to bet.</font><div class='respPicDiv'><img src='img/responseButtonOffersNo0L.png' class='respPic'></div></div>","2","12","Watermelon Win$","Fruit/watermelon.png","Lost","0.65,0.2","10","0.65","177","34","",""
"html-keyboard-response","110","229722","0.0-11.0-2.33","605fb0818ad4067b3d99ece0","bdp_rwlrn","Tue Mar 14 2023 20:06:49 GMT-0400 (Eastern Daylight Time)","496031","Trustworthy,Untrustworthy","","null","","","","decisionFB","","<div class='trialDiv'><img src='Fruit/watermelon.png'><br><font class='baseline'><strong>Watermelon Win$</strong><p>Choose number of points to bet.</font><div class='respPicDiv'><img src='img/responseButtonOffersNo0L2.png' class='respPic'></div></div>","null","12","Watermelon Win$","Fruit/watermelon.png","Lost","0.65,0.2","10","0.65","175","34","",""
"html-keyboard-response","111","230737","0.0-11.0-3.33","605fb0818ad4067b3d99ece0","bdp_rwlrn","Tue Mar 14 2023 20:06:49 GMT-0400 (Eastern Daylight Time)","496031","Trustworthy,Untrustworthy","","null","","","","feedback","","<div class='respPicDiv'><img src='img/responseButtonOffersNo0_wht.png' class='respPic'></div><div class='trialDiv'><img src='Fruit/watermelon.png'><br><font class='baseline'><strong>Watermelon Win$</strong><p><strong><font class='negOutcome'>You LOST</font><p>You bet: 2</strong></font> &nbsp; &nbsp; &nbsp; &nbsp; &nbsp; &nbsp;<font class='negOutcome'>You receive: <strong>0</strong></font></div>","null","12","Watermelon Win$","Fruit/watermelon.png","Lost","0.65,0.2","10","0.65","175","34","",""
"html-keyboard-response","112","231559","0.0-11.0-1.34","605fb0818ad4067b3d99ece0","bdp_rwlrn","Tue Mar 14 2023 20:06:49 GMT-0400 (Eastern Daylight Time)","496031","Trustworthy,Untrustworthy","","821","","","","decision","","<div class='trialDiv'><img src='Fruit/mango.png'><br><font class='baseline'><strong>Mega Mangos</strong><p>Choose number of points to bet.</font><div class='respPicDiv'><img src='img/responseButtonOffersNo0L.png' class='respPic'></div></div>","1","12","Mega Mangos","Fruit/mango.png","Won","0.65,0.35","14","0.65","180","35","",""
"html-keyboard-response","113","231813","0.0-11.0-2.34","605fb0818ad4067b3d99ece0","bdp_rwlrn","Tue Mar 14 2023 20:06:49 GMT-0400 (Eastern Daylight Time)","496031","Trustworthy,Untrustworthy","","null","","","","decisionFB","","<div class='trialDiv'><img src='Fruit/mango.png'><br><font class='baseline'><strong>Mega Mangos</strong><p>Choose number of points to bet.</font><div class='respPicDiv'><img src='img/responseButtonOffersNo0L1.png' class='respPic'></div></div>","null","12","Mega Mangos","Fruit/mango.png","Won","0.65,0.35","14","0.65","179","35","",""
"html-keyboard-response","114","232827","0.0-11.0-3.34","605fb0818ad4067b3d99ece0","bdp_rwlrn","Tue Mar 14 2023 20:06:49 GMT-0400 (Eastern Daylight Time)","496031","Trustworthy,Untrustworthy","","null","","","","feedback","","<div class='respPicDiv'><img src='img/responseButtonOffersNo0_wht.png' class='respPic'></div><div class='trialDiv'><img src='Fruit/mango.png'><br><font class='baseline'><strong>Mega Mangos</strong><p><strong><font class='posOutcome'>You WON</font><p>You bet: 1</strong></font> &nbsp; &nbsp; &nbsp; &nbsp; &nbsp; &nbsp;<font class='posOutcome'>you receive: <strong>2</strong></font></div>","null","12","Mega Mangos","Fruit/mango.png","Won","0.65,0.35","14","0.65","181","35","",""
"html-keyboard-response","115","233710","0.0-11.0-1.35","605fb0818ad4067b3d99ece0","bdp_rwlrn","Tue Mar 14 2023 20:06:49 GMT-0400 (Eastern Daylight Time)","496031","Trustworthy,Untrustworthy","","881","","","","decision","","<div class='trialDiv'><img src='Fruit/pears.png'><br><font class='baseline'><strong>Pears Aplenty</strong><p>Choose number of points to bet.</font><div class='respPicDiv'><img src='img/responseButtonOffersNo0L.png' class='respPic'></div></div>","5","12","Pears Aplenty","Fruit/pears.png","Won","0.35,0.8","10","0.35","186","36","",""
"html-keyboard-response","116","233964","0.0-11.0-2.35","605fb0818ad4067b3d99ece0","bdp_rwlrn","Tue Mar 14 2023 20:06:49 GMT-0400 (Eastern Daylight Time)","496031","Trustworthy,Untrustworthy","","null","","","","decisionFB","","<div class='trialDiv'><img src='Fruit/pears.png'><br><font class='baseline'><strong>Pears Aplenty</strong><p>Choose number of points to bet.</font><div class='respPicDiv'><img src='img/responseButtonOffersNo0L5.png' class='respPic'></div></div>","null","12","Pears Aplenty","Fruit/pears.png","Won","0.35,0.8","10","0.35","181","36","",""
"html-keyboard-response","117","234975","0.0-11.0-3.35","605fb0818ad4067b3d99ece0","bdp_rwlrn","Tue Mar 14 2023 20:06:49 GMT-0400 (Eastern Daylight Time)","496031","Trustworthy,Untrustworthy","","null","","","","feedback","","<div class='respPicDiv'><img src='img/responseButtonOffersNo0_wht.png' class='respPic'></div><div class='trialDiv'><img src='Fruit/pears.png'><br><font class='baseline'><strong>Pears Aplenty</strong><p><strong><font class='posOutcome'>You WON</font><p>You bet: 5</strong></font> &nbsp; &nbsp; &nbsp; &nbsp; &nbsp; &nbsp;<font class='posOutcome'>you receive: <strong>10</strong></font></div>","null","12","Pears Aplenty","Fruit/pears.png","Won","0.35,0.8","10","0.35","191","36","",""
"html-keyboard-response","118","235919","0.0-11.0-1.36","605fb0818ad4067b3d99ece0","bdp_rwlrn","Tue Mar 14 2023 20:06:49 GMT-0400 (Eastern Daylight Time)","496031","Trustworthy,Untrustworthy","","943","","","","decision","","<div class='trialDiv'><img src='Fruit/mango.png'><br><font class='baseline'><strong>Mega Mangos</strong><p>Choose number of points to bet.</font><div class='respPicDiv'><img src='img/responseButtonOffersNo0L.png' class='respPic'></div></div>","2","13","Mega Mangos","Fruit/mango.png","Lost","0.65,0.35","14","0.65","196","37","",""
"html-keyboard-response","119","236174","0.0-11.0-2.36","605fb0818ad4067b3d99ece0","bdp_rwlrn","Tue Mar 14 2023 20:06:49 GMT-0400 (Eastern Daylight Time)","496031","Trustworthy,Untrustworthy","","null","","","","decisionFB","","<div class='trialDiv'><img src='Fruit/mango.png'><br><font class='baseline'><strong>Mega Mangos</strong><p>Choose number of points to bet.</font><div class='respPicDiv'><img src='img/responseButtonOffersNo0L2.png' class='respPic'></div></div>","null","13","Mega Mangos","Fruit/mango.png","Lost","0.65,0.35","14","0.65","194","37","",""
"html-keyboard-response","120","237191","0.0-11.0-3.36","605fb0818ad4067b3d99ece0","bdp_rwlrn","Tue Mar 14 2023 20:06:49 GMT-0400 (Eastern Daylight Time)","496031","Trustworthy,Untrustworthy","","null","","","","feedback","","<div class='respPicDiv'><img src='img/responseButtonOffersNo0_wht.png' class='respPic'></div><div class='trialDiv'><img src='Fruit/mango.png'><br><font class='baseline'><strong>Mega Mangos</strong><p><strong><font class='negOutcome'>You LOST</font><p>You bet: 2</strong></font> &nbsp; &nbsp; &nbsp; &nbsp; &nbsp; &nbsp;<font class='negOutcome'>You receive: <strong>0</strong></font></div>","null","13","Mega Mangos","Fruit/mango.png","Lost","0.65,0.35","14","0.65","194","37","",""
"html-keyboard-response","121","237711","0.0-11.0-1.37","605fb0818ad4067b3d99ece0","bdp_rwlrn","Tue Mar 14 2023 20:06:49 GMT-0400 (Eastern Daylight Time)","496031","Trustworthy,Untrustworthy","","519","","","","decision","","<div class='trialDiv'><img src='Fruit/watermelon.png'><br><font class='baseline'><strong>Watermelon Win$</strong><p>Choose number of points to bet.</font><div class='respPicDiv'><img src='img/responseButtonOffersNo0L.png' class='respPic'></div></div>","2","13","Watermelon Win$","Fruit/watermelon.png","Lost","0.65,0.2","10","0.65","199","38","",""
"html-keyboard-response","122","237969","0.0-11.0-2.37","605fb0818ad4067b3d99ece0","bdp_rwlrn","Tue Mar 14 2023 20:06:49 GMT-0400 (Eastern Daylight Time)","496031","Trustworthy,Untrustworthy","","null","","","","decisionFB","","<div class='trialDiv'><img src='Fruit/watermelon.png'><br><font class='baseline'><strong>Watermelon Win$</strong><p>Choose number of points to bet.</font><div class='respPicDiv'><img src='img/responseButtonOffersNo0L2.png' class='respPic'></div></div>","null","13","Watermelon Win$","Fruit/watermelon.png","Lost","0.65,0.2","10","0.65","197","38","",""
"html-keyboard-response","123","238979","0.0-11.0-3.37","605fb0818ad4067b3d99ece0","bdp_rwlrn","Tue Mar 14 2023 20:06:49 GMT-0400 (Eastern Daylight Time)","496031","Trustworthy,Untrustworthy","","null","","","","feedback","","<div class='respPicDiv'><img src='img/responseButtonOffersNo0_wht.png' class='respPic'></div><div class='trialDiv'><img src='Fruit/watermelon.png'><br><font class='baseline'><strong>Watermelon Win$</strong><p><strong><font class='negOutcome'>You LOST</font><p>You bet: 2</strong></font> &nbsp; &nbsp; &nbsp; &nbsp; &nbsp; &nbsp;<font class='negOutcome'>You receive: <strong>0</strong></font></div>","null","13","Watermelon Win$","Fruit/watermelon.png","Lost","0.65,0.2","10","0.65","197","38","",""
"html-keyboard-response","124","240157","0.0-11.0-1.38","605fb0818ad4067b3d99ece0","bdp_rwlrn","Tue Mar 14 2023 20:06:49 GMT-0400 (Eastern Daylight Time)","496031","Trustworthy,Untrustworthy","","1176","","","","decision","","<div class='trialDiv'><img src='Fruit/pears.png'><br><font class='baseline'><strong>Pears Aplenty</strong><p>Choose number of points to bet.</font><div class='respPicDiv'><img src='img/responseButtonOffersNo0L.png' class='respPic'></div></div>","5","13","Pears Aplenty","Fruit/pears.png","Won","0.35,0.8","10","0.35","202","39","",""
"html-keyboard-response","125","240415","0.0-11.0-2.38","605fb0818ad4067b3d99ece0","bdp_rwlrn","Tue Mar 14 2023 20:06:49 GMT-0400 (Eastern Daylight Time)","496031","Trustworthy,Untrustworthy","","null","","","","decisionFB","","<div class='trialDiv'><img src='Fruit/pears.png'><br><font class='baseline'><strong>Pears Aplenty</strong><p>Choose number of points to bet.</font><div class='respPicDiv'><img src='img/responseButtonOffersNo0L5.png' class='respPic'></div></div>","null","13","Pears Aplenty","Fruit/pears.png","Won","0.35,0.8","10","0.35","197","39","",""
"html-keyboard-response","126","241418","0.0-11.0-3.38","605fb0818ad4067b3d99ece0","bdp_rwlrn","Tue Mar 14 2023 20:06:49 GMT-0400 (Eastern Daylight Time)","496031","Trustworthy,Untrustworthy","","null","","","","feedback","","<div class='respPicDiv'><img src='img/responseButtonOffersNo0_wht.png' class='respPic'></div><div class='trialDiv'><img src='Fruit/pears.png'><br><font class='baseline'><strong>Pears Aplenty</strong><p><strong><font class='posOutcome'>You WON</font><p>You bet: 5</strong></font> &nbsp; &nbsp; &nbsp; &nbsp; &nbsp; &nbsp;<font class='posOutcome'>you receive: <strong>10</strong></font></div>","null","13","Pears Aplenty","Fruit/pears.png","Won","0.35,0.8","10","0.35","207","39","",""
"html-keyboard-response","127","242541","0.0-11.0-1.39","605fb0818ad4067b3d99ece0","bdp_rwlrn","Tue Mar 14 2023 20:06:49 GMT-0400 (Eastern Daylight Time)","496031","Trustworthy,Untrustworthy","","1121","","","","decision","","<div class='trialDiv'><img src='Fruit/mango.png'><br><font class='baseline'><strong>Mega Mangos</strong><p>Choose number of points to bet.</font><div class='respPicDiv'><img src='img/responseButtonOffersNo0L.png' class='respPic'></div></div>","2","14","Mega Mangos","Fruit/mango.png","Lost","0.65,0.35","14","0.65","212","40","",""
"html-keyboard-response","128","242804","0.0-11.0-2.39","605fb0818ad4067b3d99ece0","bdp_rwlrn","Tue Mar 14 2023 20:06:49 GMT-0400 (Eastern Daylight Time)","496031","Trustworthy,Untrustworthy","","null","","","","decisionFB","","<div class='trialDiv'><img src='Fruit/mango.png'><br><font class='baseline'><strong>Mega Mangos</strong><p>Choose number of points to bet.</font><div class='respPicDiv'><img src='img/responseButtonOffersNo0L2.png' class='respPic'></div></div>","null","14","Mega Mangos","Fruit/mango.png","Lost","0.65,0.35","14","0.65","210","40","",""
"html-keyboard-response","129","243818","0.0-11.0-3.39","605fb0818ad4067b3d99ece0","bdp_rwlrn","Tue Mar 14 2023 20:06:49 GMT-0400 (Eastern Daylight Time)","496031","Trustworthy,Untrustworthy","","null","","","","feedback","","<div class='respPicDiv'><img src='img/responseButtonOffersNo0_wht.png' class='respPic'></div><div class='trialDiv'><img src='Fruit/mango.png'><br><font class='baseline'><strong>Mega Mangos</strong><p><strong><font class='negOutcome'>You LOST</font><p>You bet: 2</strong></font> &nbsp; &nbsp; &nbsp; &nbsp; &nbsp; &nbsp;<font class='negOutcome'>You receive: <strong>0</strong></font></div>","null","14","Mega Mangos","Fruit/mango.png","Lost","0.65,0.35","14","0.65","210","40","",""
"html-keyboard-response","130","244865","0.0-11.0-1.40","605fb0818ad4067b3d99ece0","bdp_rwlrn","Tue Mar 14 2023 20:06:49 GMT-0400 (Eastern Daylight Time)","496031","Trustworthy,Untrustworthy","","1046","","","","decision","","<div class='trialDiv'><img src='Fruit/pears.png'><br><font class='baseline'><strong>Pears Aplenty</strong><p>Choose number of points to bet.</font><div class='respPicDiv'><img src='img/responseButtonOffersNo0L.png' class='respPic'></div></div>","5","14","Pears Aplenty","Fruit/pears.png","Won","0.35,0.8","10","0.35","215","41","",""
"html-keyboard-response","131","245126","0.0-11.0-2.40","605fb0818ad4067b3d99ece0","bdp_rwlrn","Tue Mar 14 2023 20:06:49 GMT-0400 (Eastern Daylight Time)","496031","Trustworthy,Untrustworthy","","null","","","","decisionFB","","<div class='trialDiv'><img src='Fruit/pears.png'><br><font class='baseline'><strong>Pears Aplenty</strong><p>Choose number of points to bet.</font><div class='respPicDiv'><img src='img/responseButtonOffersNo0L5.png' class='respPic'></div></div>","null","14","Pears Aplenty","Fruit/pears.png","Won","0.35,0.8","10","0.35","210","41","",""
"html-keyboard-response","132","246139","0.0-11.0-3.40","605fb0818ad4067b3d99ece0","bdp_rwlrn","Tue Mar 14 2023 20:06:49 GMT-0400 (Eastern Daylight Time)","496031","Trustworthy,Untrustworthy","","null","","","","feedback","","<div class='respPicDiv'><img src='img/responseButtonOffersNo0_wht.png' class='respPic'></div><div class='trialDiv'><img src='Fruit/pears.png'><br><font class='baseline'><strong>Pears Aplenty</strong><p><strong><font class='posOutcome'>You WON</font><p>You bet: 5</strong></font> &nbsp; &nbsp; &nbsp; &nbsp; &nbsp; &nbsp;<font class='posOutcome'>you receive: <strong>10</strong></font></div>","null","14","Pears Aplenty","Fruit/pears.png","Won","0.35,0.8","10","0.35","220","41","",""
"html-keyboard-response","133","246881","0.0-11.0-1.41","605fb0818ad4067b3d99ece0","bdp_rwlrn","Tue Mar 14 2023 20:06:49 GMT-0400 (Eastern Daylight Time)","496031","Trustworthy,Untrustworthy","","741","","","","decision","","<div class='trialDiv'><img src='Fruit/watermelon.png'><br><font class='baseline'><strong>Watermelon Win$</strong><p>Choose number of points to bet.</font><div class='respPicDiv'><img src='img/responseButtonOffersNo0L.png' class='respPic'></div></div>","1","14","Watermelon Win$","Fruit/watermelon.png","Lost","0.65,0.2","10","0.65","225","42","",""
"html-keyboard-response","134","247134","0.0-11.0-2.41","605fb0818ad4067b3d99ece0","bdp_rwlrn","Tue Mar 14 2023 20:06:49 GMT-0400 (Eastern Daylight Time)","496031","Trustworthy,Untrustworthy","","null","","","","decisionFB","","<div class='trialDiv'><img src='Fruit/watermelon.png'><br><font class='baseline'><strong>Watermelon Win$</strong><p>Choose number of points to bet.</font><div class='respPicDiv'><img src='img/responseButtonOffersNo0L1.png' class='respPic'></div></div>","null","14","Watermelon Win$","Fruit/watermelon.png","Lost","0.65,0.2","10","0.65","224","42","",""
"html-keyboard-response","135","248144","0.0-11.0-3.41","605fb0818ad4067b3d99ece0","bdp_rwlrn","Tue Mar 14 2023 20:06:49 GMT-0400 (Eastern Daylight Time)","496031","Trustworthy,Untrustworthy","","null","","","","feedback","","<div class='respPicDiv'><img src='img/responseButtonOffersNo0_wht.png' class='respPic'></div><div class='trialDiv'><img src='Fruit/watermelon.png'><br><font class='baseline'><strong>Watermelon Win$</strong><p><strong><font class='negOutcome'>You LOST</font><p>You bet: 1</strong></font> &nbsp; &nbsp; &nbsp; &nbsp; &nbsp; &nbsp;<font class='negOutcome'>You receive: <strong>0</strong></font></div>","null","14","Watermelon Win$","Fruit/watermelon.png","Lost","0.65,0.2","10","0.65","224","42","",""
"html-keyboard-response","136","249093","0.0-11.0-1.42","605fb0818ad4067b3d99ece0","bdp_rwlrn","Tue Mar 14 2023 20:06:49 GMT-0400 (Eastern Daylight Time)","496031","Trustworthy,Untrustworthy","","948","","","","decision","","<div class='trialDiv'><img src='Fruit/mango.png'><br><font class='baseline'><strong>Mega Mangos</strong><p>Choose number of points to bet.</font><div class='respPicDiv'><img src='img/responseButtonOffersNo0L.png' class='respPic'></div></div>","1","15","Mega Mangos","Fruit/mango.png","Lost","0.65,0.35","14","0.65","229","43","",""
"html-keyboard-response","137","249345","0.0-11.0-2.42","605fb0818ad4067b3d99ece0","bdp_rwlrn","Tue Mar 14 2023 20:06:49 GMT-0400 (Eastern Daylight Time)","496031","Trustworthy,Untrustworthy","","null","","","","decisionFB","","<div class='trialDiv'><img src='Fruit/mango.png'><br><font class='baseline'><strong>Mega Mangos</strong><p>Choose number of points to bet.</font><div class='respPicDiv'><img src='img/responseButtonOffersNo0L1.png' class='respPic'></div></div>","null","15","Mega Mangos","Fruit/mango.png","Lost","0.65,0.35","14","0.65","228","43","",""
"html-keyboard-response","138","250359","0.0-11.0-3.42","605fb0818ad4067b3d99ece0","bdp_rwlrn","Tue Mar 14 2023 20:06:49 GMT-0400 (Eastern Daylight Time)","496031","Trustworthy,Untrustworthy","","null","","","","feedback","","<div class='respPicDiv'><img src='img/responseButtonOffersNo0_wht.png' class='respPic'></div><div class='trialDiv'><img src='Fruit/mango.png'><br><font class='baseline'><strong>Mega Mangos</strong><p><strong><font class='negOutcome'>You LOST</font><p>You bet: 1</strong></font> &nbsp; &nbsp; &nbsp; &nbsp; &nbsp; &nbsp;<font class='negOutcome'>You receive: <strong>0</strong></font></div>","null","15","Mega Mangos","Fruit/mango.png","Lost","0.65,0.35","14","0.65","228","43","",""
"html-keyboard-response","139","251009","0.0-11.0-1.43","605fb0818ad4067b3d99ece0","bdp_rwlrn","Tue Mar 14 2023 20:06:49 GMT-0400 (Eastern Daylight Time)","496031","Trustworthy,Untrustworthy","","649","","","","decision","","<div class='trialDiv'><img src='Fruit/watermelon.png'><br><font class='baseline'><strong>Watermelon Win$</strong><p>Choose number of points to bet.</font><div class='respPicDiv'><img src='img/responseButtonOffersNo0L.png' class='respPic'></div></div>","1","15","Watermelon Win$","Fruit/watermelon.png","Lost","0.65,0.2","10","0.65","233","44","",""
"html-keyboard-response","140","251263","0.0-11.0-2.43","605fb0818ad4067b3d99ece0","bdp_rwlrn","Tue Mar 14 2023 20:06:49 GMT-0400 (Eastern Daylight Time)","496031","Trustworthy,Untrustworthy","","null","","","","decisionFB","","<div class='trialDiv'><img src='Fruit/watermelon.png'><br><font class='baseline'><strong>Watermelon Win$</strong><p>Choose number of points to bet.</font><div class='respPicDiv'><img src='img/responseButtonOffersNo0L1.png' class='respPic'></div></div>","null","15","Watermelon Win$","Fruit/watermelon.png","Lost","0.65,0.2","10","0.65","232","44","",""
"html-keyboard-response","141","252279","0.0-11.0-3.43","605fb0818ad4067b3d99ece0","bdp_rwlrn","Tue Mar 14 2023 20:06:49 GMT-0400 (Eastern Daylight Time)","496031","Trustworthy,Untrustworthy","","null","","","","feedback","","<div class='respPicDiv'><img src='img/responseButtonOffersNo0_wht.png' class='respPic'></div><div class='trialDiv'><img src='Fruit/watermelon.png'><br><font class='baseline'><strong>Watermelon Win$</strong><p><strong><font class='negOutcome'>You LOST</font><p>You bet: 1</strong></font> &nbsp; &nbsp; &nbsp; &nbsp; &nbsp; &nbsp;<font class='negOutcome'>You receive: <strong>0</strong></font></div>","null","15","Watermelon Win$","Fruit/watermelon.png","Lost","0.65,0.2","10","0.65","232","44","",""
"html-keyboard-response","142","252650","0.0-11.0-1.44","605fb0818ad4067b3d99ece0","bdp_rwlrn","Tue Mar 14 2023 20:06:49 GMT-0400 (Eastern Daylight Time)","496031","Trustworthy,Untrustworthy","","370","","","","decision","","<div class='trialDiv'><img src='Fruit/pears.png'><br><font class='baseline'><strong>Pears Aplenty</strong><p>Choose number of points to bet.</font><div class='respPicDiv'><img src='img/responseButtonOffersNo0L.png' class='respPic'></div></div>","1","15","Pears Aplenty","Fruit/pears.png","Won","0.35,0.8","10","0.35","237","45","",""
"html-keyboard-response","143","252904","0.0-11.0-2.44","605fb0818ad4067b3d99ece0","bdp_rwlrn","Tue Mar 14 2023 20:06:49 GMT-0400 (Eastern Daylight Time)","496031","Trustworthy,Untrustworthy","","null","","","","decisionFB","","<div class='trialDiv'><img src='Fruit/pears.png'><br><font class='baseline'><strong>Pears Aplenty</strong><p>Choose number of points to bet.</font><div class='respPicDiv'><img src='img/responseButtonOffersNo0L1.png' class='respPic'></div></div>","null","15","Pears Aplenty","Fruit/pears.png","Won","0.35,0.8","10","0.35","236","45","",""
"html-keyboard-response","144","253917","0.0-11.0-3.44","605fb0818ad4067b3d99ece0","bdp_rwlrn","Tue Mar 14 2023 20:06:49 GMT-0400 (Eastern Daylight Time)","496031","Trustworthy,Untrustworthy","","null","","","","feedback","","<div class='respPicDiv'><img src='img/responseButtonOffersNo0_wht.png' class='respPic'></div><div class='trialDiv'><img src='Fruit/pears.png'><br><font class='baseline'><strong>Pears Aplenty</strong><p><strong><font class='posOutcome'>You WON</font><p>You bet: 1</strong></font> &nbsp; &nbsp; &nbsp; &nbsp; &nbsp; &nbsp;<font class='posOutcome'>you receive: <strong>2</strong></font></div>","null","15","Pears Aplenty","Fruit/pears.png","Won","0.35,0.8","10","0.35","238","45","",""
"html-keyboard-response","145","254582","0.0-11.0-1.45","605fb0818ad4067b3d99ece0","bdp_rwlrn","Tue Mar 14 2023 20:06:49 GMT-0400 (Eastern Daylight Time)","496031","Trustworthy,Untrustworthy","","663","","","","decision","","<div class='trialDiv'><img src='Fruit/mango.png'><br><font class='baseline'><strong>Mega Mangos</strong><p>Choose number of points to bet.</font><div class='respPicDiv'><img src='img/responseButtonOffersNo0L.png' class='respPic'></div></div>","1","16","Mega Mangos","Fruit/mango.png","Lost","0.65,0.35","14","0.65","243","46","",""
"html-keyboard-response","146","254837","0.0-11.0-2.45","605fb0818ad4067b3d99ece0","bdp_rwlrn","Tue Mar 14 2023 20:06:49 GMT-0400 (Eastern Daylight Time)","496031","Trustworthy,Untrustworthy","","null","","","","decisionFB","","<div class='trialDiv'><img src='Fruit/mango.png'><br><font class='baseline'><strong>Mega Mangos</strong><p>Choose number of points to bet.</font><div class='respPicDiv'><img src='img/responseButtonOffersNo0L1.png' class='respPic'></div></div>","null","16","Mega Mangos","Fruit/mango.png","Lost","0.65,0.35","14","0.65","242","46","",""
"html-keyboard-response","147","255849","0.0-11.0-3.45","605fb0818ad4067b3d99ece0","bdp_rwlrn","Tue Mar 14 2023 20:06:49 GMT-0400 (Eastern Daylight Time)","496031","Trustworthy,Untrustworthy","","null","","","","feedback","","<div class='respPicDiv'><img src='img/responseButtonOffersNo0_wht.png' class='respPic'></div><div class='trialDiv'><img src='Fruit/mango.png'><br><font class='baseline'><strong>Mega Mangos</strong><p><strong><font class='negOutcome'>You LOST</font><p>You bet: 1</strong></font> &nbsp; &nbsp; &nbsp; &nbsp; &nbsp; &nbsp;<font class='negOutcome'>You receive: <strong>0</strong></font></div>","null","16","Mega Mangos","Fruit/mango.png","Lost","0.65,0.35","14","0.65","242","46","",""
"html-keyboard-response","148","256747","0.0-11.0-1.46","605fb0818ad4067b3d99ece0","bdp_rwlrn","Tue Mar 14 2023 20:06:49 GMT-0400 (Eastern Daylight Time)","496031","Trustworthy,Untrustworthy","","896","","","","decision","","<div class='trialDiv'><img src='Fruit/pears.png'><br><font class='baseline'><strong>Pears Aplenty</strong><p>Choose number of points to bet.</font><div class='respPicDiv'><img src='img/responseButtonOffersNo0L.png' class='respPic'></div></div>","5","16","Pears Aplenty","Fruit/pears.png","Won","0.35,0.8","10","0.35","247","47","",""
"html-keyboard-response","149","257002","0.0-11.0-2.46","605fb0818ad4067b3d99ece0","bdp_rwlrn","Tue Mar 14 2023 20:06:49 GMT-0400 (Eastern Daylight Time)","496031","Trustworthy,Untrustworthy","","null","","","","decisionFB","","<div class='trialDiv'><img src='Fruit/pears.png'><br><font class='baseline'><strong>Pears Aplenty</strong><p>Choose number of points to bet.</font><div class='respPicDiv'><img src='img/responseButtonOffersNo0L5.png' class='respPic'></div></div>","null","16","Pears Aplenty","Fruit/pears.png","Won","0.35,0.8","10","0.35","242","47","",""
"html-keyboard-response","150","258005","0.0-11.0-3.46","605fb0818ad4067b3d99ece0","bdp_rwlrn","Tue Mar 14 2023 20:06:49 GMT-0400 (Eastern Daylight Time)","496031","Trustworthy,Untrustworthy","","null","","","","feedback","","<div class='respPicDiv'><img src='img/responseButtonOffersNo0_wht.png' class='respPic'></div><div class='trialDiv'><img src='Fruit/pears.png'><br><font class='baseline'><strong>Pears Aplenty</strong><p><strong><font class='posOutcome'>You WON</font><p>You bet: 5</strong></font> &nbsp; &nbsp; &nbsp; &nbsp; &nbsp; &nbsp;<font class='posOutcome'>you receive: <strong>10</strong></font></div>","null","16","Pears Aplenty","Fruit/pears.png","Won","0.35,0.8","10","0.35","252","47","",""
"html-keyboard-response","151","258621","0.0-11.0-1.47","605fb0818ad4067b3d99ece0","bdp_rwlrn","Tue Mar 14 2023 20:06:49 GMT-0400 (Eastern Daylight Time)","496031","Trustworthy,Untrustworthy","","615","","","","decision","","<div class='trialDiv'><img src='Fruit/watermelon.png'><br><font class='baseline'><strong>Watermelon Win$</strong><p>Choose number of points to bet.</font><div class='respPicDiv'><img src='img/responseButtonOffersNo0L.png' class='respPic'></div></div>","1","16","Watermelon Win$","Fruit/watermelon.png","Lost","0.65,0.2","10","0.65","257","48","",""
"html-keyboard-response","152","258877","0.0-11.0-2.47","605fb0818ad4067b3d99ece0","bdp_rwlrn","Tue Mar 14 2023 20:06:49 GMT-0400 (Eastern Daylight Time)","496031","Trustworthy,Untrustworthy","","null","","","","decisionFB","","<div class='trialDiv'><img src='Fruit/watermelon.png'><br><font class='baseline'><strong>Watermelon Win$</strong><p>Choose number of points to bet.</font><div class='respPicDiv'><img src='img/responseButtonOffersNo0L1.png' class='respPic'></div></div>","null","16","Watermelon Win$","Fruit/watermelon.png","Lost","0.65,0.2","10","0.65","256","48","",""
"html-keyboard-response","153","259888","0.0-11.0-3.47","605fb0818ad4067b3d99ece0","bdp_rwlrn","Tue Mar 14 2023 20:06:49 GMT-0400 (Eastern Daylight Time)","496031","Trustworthy,Untrustworthy","","null","","","","feedback","","<div class='respPicDiv'><img src='img/responseButtonOffersNo0_wht.png' class='respPic'></div><div class='trialDiv'><img src='Fruit/watermelon.png'><br><font class='baseline'><strong>Watermelon Win$</strong><p><strong><font class='negOutcome'>You LOST</font><p>You bet: 1</strong></font> &nbsp; &nbsp; &nbsp; &nbsp; &nbsp; &nbsp;<font class='negOutcome'>You receive: <strong>0</strong></font></div>","null","16","Watermelon Win$","Fruit/watermelon.png","Lost","0.65,0.2","10","0.65","256","48","",""
"html-keyboard-response","154","260538","0.0-11.0-1.48","605fb0818ad4067b3d99ece0","bdp_rwlrn","Tue Mar 14 2023 20:06:49 GMT-0400 (Eastern Daylight Time)","496031","Trustworthy,Untrustworthy","","648","","","","decision","","<div class='trialDiv'><img src='Fruit/mango.png'><br><font class='baseline'><strong>Mega Mangos</strong><p>Choose number of points to bet.</font><div class='respPicDiv'><img src='img/responseButtonOffersNo0L.png' class='respPic'></div></div>","1","17","Mega Mangos","Fruit/mango.png","Won","0.65,0.35","14","0.65","261","49","",""
"html-keyboard-response","155","260792","0.0-11.0-2.48","605fb0818ad4067b3d99ece0","bdp_rwlrn","Tue Mar 14 2023 20:06:49 GMT-0400 (Eastern Daylight Time)","496031","Trustworthy,Untrustworthy","","null","","","","decisionFB","","<div class='trialDiv'><img src='Fruit/mango.png'><br><font class='baseline'><strong>Mega Mangos</strong><p>Choose number of points to bet.</font><div class='respPicDiv'><img src='img/responseButtonOffersNo0L1.png' class='respPic'></div></div>","null","17","Mega Mangos","Fruit/mango.png","Won","0.65,0.35","14","0.65","260","49","",""
"html-keyboard-response","156","261808","0.0-11.0-3.48","605fb0818ad4067b3d99ece0","bdp_rwlrn","Tue Mar 14 2023 20:06:49 GMT-0400 (Eastern Daylight Time)","496031","Trustworthy,Untrustworthy","","null","","","","feedback","","<div class='respPicDiv'><img src='img/responseButtonOffersNo0_wht.png' class='respPic'></div><div class='trialDiv'><img src='Fruit/mango.png'><br><font class='baseline'><strong>Mega Mangos</strong><p><strong><font class='posOutcome'>You WON</font><p>You bet: 1</strong></font> &nbsp; &nbsp; &nbsp; &nbsp; &nbsp; &nbsp;<font class='posOutcome'>you receive: <strong>2</strong></font></div>","null","17","Mega Mangos","Fruit/mango.png","Won","0.65,0.35","14","0.65","262","49","",""
"html-keyboard-response","157","262315","0.0-11.0-1.49","605fb0818ad4067b3d99ece0","bdp_rwlrn","Tue Mar 14 2023 20:06:49 GMT-0400 (Eastern Daylight Time)","496031","Trustworthy,Untrustworthy","","507","","","","decision","","<div class='trialDiv'><img src='Fruit/watermelon.png'><br><font class='baseline'><strong>Watermelon Win$</strong><p>Choose number of points to bet.</font><div class='respPicDiv'><img src='img/responseButtonOffersNo0L.png' class='respPic'></div></div>","1","17","Watermelon Win$","Fruit/watermelon.png","Won","0.65,0.2","10","0.65","267","50","",""
"html-keyboard-response","158","262573","0.0-11.0-2.49","605fb0818ad4067b3d99ece0","bdp_rwlrn","Tue Mar 14 2023 20:06:49 GMT-0400 (Eastern Daylight Time)","496031","Trustworthy,Untrustworthy","","null","","","","decisionFB","","<div class='trialDiv'><img src='Fruit/watermelon.png'><br><font class='baseline'><strong>Watermelon Win$</strong><p>Choose number of points to bet.</font><div class='respPicDiv'><img src='img/responseButtonOffersNo0L1.png' class='respPic'></div></div>","null","17","Watermelon Win$","Fruit/watermelon.png","Won","0.65,0.2","10","0.65","266","50","",""
"html-keyboard-response","159","263584","0.0-11.0-3.49","605fb0818ad4067b3d99ece0","bdp_rwlrn","Tue Mar 14 2023 20:06:49 GMT-0400 (Eastern Daylight Time)","496031","Trustworthy,Untrustworthy","","null","","","","feedback","","<div class='respPicDiv'><img src='img/responseButtonOffersNo0_wht.png' class='respPic'></div><div class='trialDiv'><img src='Fruit/watermelon.png'><br><font class='baseline'><strong>Watermelon Win$</strong><p><strong><font class='posOutcome'>You WON</font><p>You bet: 1</strong></font> &nbsp; &nbsp; &nbsp; &nbsp; &nbsp; &nbsp;<font class='posOutcome'>you receive: <strong>2</strong></font></div>","null","17","Watermelon Win$","Fruit/watermelon.png","Won","0.65,0.2","10","0.65","268","50","",""
"html-keyboard-response","160","264232","0.0-11.0-1.50","605fb0818ad4067b3d99ece0","bdp_rwlrn","Tue Mar 14 2023 20:06:49 GMT-0400 (Eastern Daylight Time)","496031","Trustworthy,Untrustworthy","","646","","","","decision","","<div class='trialDiv'><img src='Fruit/pears.png'><br><font class='baseline'><strong>Pears Aplenty</strong><p>Choose number of points to bet.</font><div class='respPicDiv'><img src='img/responseButtonOffersNo0L.png' class='respPic'></div></div>","5","17","Pears Aplenty","Fruit/pears.png","Won","0.35,0.8","10","0.35","273","51","",""
"html-keyboard-response","161","264497","0.0-11.0-2.50","605fb0818ad4067b3d99ece0","bdp_rwlrn","Tue Mar 14 2023 20:06:49 GMT-0400 (Eastern Daylight Time)","496031","Trustworthy,Untrustworthy","","null","","","","decisionFB","","<div class='trialDiv'><img src='Fruit/pears.png'><br><font class='baseline'><strong>Pears Aplenty</strong><p>Choose number of points to bet.</font><div class='respPicDiv'><img src='img/responseButtonOffersNo0L5.png' class='respPic'></div></div>","null","17","Pears Aplenty","Fruit/pears.png","Won","0.35,0.8","10","0.35","268","51","",""
"html-keyboard-response","162","265502","0.0-11.0-3.50","605fb0818ad4067b3d99ece0","bdp_rwlrn","Tue Mar 14 2023 20:06:49 GMT-0400 (Eastern Daylight Time)","496031","Trustworthy,Untrustworthy","","null","","","","feedback","","<div class='respPicDiv'><img src='img/responseButtonOffersNo0_wht.png' class='respPic'></div><div class='trialDiv'><img src='Fruit/pears.png'><br><font class='baseline'><strong>Pears Aplenty</strong><p><strong><font class='posOutcome'>You WON</font><p>You bet: 5</strong></font> &nbsp; &nbsp; &nbsp; &nbsp; &nbsp; &nbsp;<font class='posOutcome'>you receive: <strong>10</strong></font></div>","null","17","Pears Aplenty","Fruit/pears.png","Won","0.35,0.8","10","0.35","278","51","",""
