"trial_type","trial_index","time_elapsed","internal_node_id","subject_id","task","startTime","totalTime","labels","view_history","rt","event","trial","time","trialtype","success","stimulus","key_press","ltround","name","fileID","outcome","lottotype","lottoswpt","lottocurrpshare","point_total","round","faceID","face"
"pavlovia","0","3","0.0-0.0","61650ba8e42101c561bf7335","bdp_rwlrn","Wed Mar 15 2023 22:17:47 GMT-0400 (Eastern Daylight Time)","520499","Trustworthy,Untrustworthy","","","","","","","","","","","","","","","","","","","",""
"instructions","1","7261","0.0-1.0","61650ba8e42101c561bf7335","bdp_rwlrn","Wed Mar 15 2023 22:17:47 GMT-0400 (Eastern Daylight Time)","520499","Trustworthy,Untrustworthy","[{""page_index"":0,""viewing_time"":7257}]","7257","","","","","","","","","","","","","","","","","",""
"","","","","61650ba8e42101c561bf7335","bdp_rwlrn","Wed Mar 15 2023 22:17:47 GMT-0400 (Eastern Daylight Time)","520499","Trustworthy,Untrustworthy","","","fullscreenenter","2","9705","fullscreenenter","","","","","","","","","","","","","",""
"fullscreen","2","10701","0.0-2.0","61650ba8e42101c561bf7335","bdp_rwlrn","Wed Mar 15 2023 22:17:47 GMT-0400 (Eastern Daylight Time)","520499","Trustworthy,Untrustworthy","","","","","","","true","","","","","","","","","","","","",""
"instructions","3","175135","0.0-4.0","61650ba8e42101c561bf7335","bdp_rwlrn","Wed Mar 15 2023 22:17:47 GMT-0400 (Eastern Daylight Time)","520499","Trustworthy,Untrustworthy","[{""page_index"":0,""viewing_time"":22841},{""page_index"":1,""viewing_time"":21584},{""page_index"":2,""viewing_time"":18014},{""page_index"":3,""viewing_time"":9306},{""page_index"":4,""viewing_time"":87919},{""page_index"":5,""viewing_time"":4767}]","164431","","","","","","","","","","","","","","","","","",""
"html-keyboard-response","4","181383","0.0-5.0","61650ba8e42101c561bf7335","bdp_rwlrn","Wed Mar 15 2023 22:17:47 GMT-0400 (Eastern Daylight Time)","520499","Trustworthy,Untrustworthy","","6246","","","","","","<div class='header' style='text-align:left; position: absolute; top: 5%; left: 5%;'><small>Task 1 of 5</small></div><div class='instruxDiv'><p><strong>1) What is the maximum number of points you can choose to bet on a lottery?</strong></p><p>a) 0</p><p>b) 1</p><p>c) 5</p>","C","","","","","","","","","","",""
"html-keyboard-response","5","183927","0.0-6.0","61650ba8e42101c561bf7335","bdp_rwlrn","Wed Mar 15 2023 22:17:47 GMT-0400 (Eastern Daylight Time)","520499","Trustworthy,Untrustworthy","","2438","","","","","","<div class='header' style='text-align:left; position: absolute; top: 5%; left: 5%;'><small>Task 1 of 5</small></div><div class='instruxDiv'><p><strong>1) What is the maximum number of points you can choose to bet on a lottery?</strong></p><p>a) 1</p><p>b) 1</p><p style='color:#00FF00'>c) 5</p><h3 style='color:#00FF00'>Correct!</h3><h3 class='center-content'>The correct response is c).</h3><h3 class='center-content'>The maximum number of points you can choose to bet on a lottery is 5 points.</h3><p><em>Press SPACEBAR to continue</em></p></div>"," ","","","","","","","","","","",""
"html-keyboard-response","6","187405","0.0-7.0","61650ba8e42101c561bf7335","bdp_rwlrn","Wed Mar 15 2023 22:17:47 GMT-0400 (Eastern Daylight Time)","520499","Trustworthy,Untrustworthy","","3364","","","","","","<div class='header' style='text-align:left; position: absolute; top: 5%; left: 5%;'><small>Task 1 of 5</small></div><div class='instruxDiv'><p><strong>2) How many points can you win each round?</strong></p><p>a) 10 points</p><p>b) Double what you bet</p><p>c) Quadruple what you bet</p>","B","","","","","","","","","","",""
"html-keyboard-response","7","189220","0.0-8.0","61650ba8e42101c561bf7335","bdp_rwlrn","Wed Mar 15 2023 22:17:47 GMT-0400 (Eastern Daylight Time)","520499","Trustworthy,Untrustworthy","","1699","","","","","","<div class='header' style='text-align:left; position: absolute; top: 5%; left: 5%;'><small>Task 1 of 5</small></div><div class='instruxDiv'><p><strong>2) How many points can you win each round?</strong></p><p>a) 10 points</p><p style='color:#00FF00'>b) Double what you bet</p><p>c) Quadruple what you bet</p><h3 style='color:#00FF00'>Correct!</h3><h3 class='center-content'>The correct response is b).</h3><h3 class='center-content'>You can win double the amount of points you bet.</h3><p><em>Press SPACEBAR to continue</em></p></div>"," ","","","","","","","","","","",""
"html-keyboard-response","8","194352","0.0-9.0","61650ba8e42101c561bf7335","bdp_rwlrn","Wed Mar 15 2023 22:17:47 GMT-0400 (Eastern Daylight Time)","520499","Trustworthy,Untrustworthy","","null","","","","","","<div class='header' style='text-align:left; position: absolute; top: 5%; left: 5%;'><small>Task 1 of 5</small></div><div class='instruxDiv'><p>Thank you for completing the quiz<p>These are the actual lotteries you will be playing in the next block:<p><div class='tc' align='center'><img class='introPic' src='Fruit/pears.png'><br><strong>Pears Aplenty</strong></div><div class='bl' align='center'><img class='introPic' src='Fruit/bananas.png'><br><strong>Banana Bonanza</strong></div><div class='br' align='center'><img class='introPic' src='Fruit/papayas.png'><br><strong>Papaya Payday</strong></div></div><p>Across <strong>66 rounds</strong> you will play each lottery <strong>22 times</strong> (in random order).<p style='align:center; color:white'><font <em>Press SPACEBAR to continue</em></p>","null","","","","","","","","","","",""
"instructions","9","208898","0.0-10.0","61650ba8e42101c561bf7335","bdp_rwlrn","Wed Mar 15 2023 22:17:47 GMT-0400 (Eastern Daylight Time)","520499","Trustworthy,Untrustworthy","[{""page_index"":0,""viewing_time"":6864},{""page_index"":1,""viewing_time"":7680}]","14544","","","","","","","","","","","","","","","","","",""
"html-keyboard-response","10","210541","0.0-11.0-1.0","61650ba8e42101c561bf7335","bdp_rwlrn","Wed Mar 15 2023 22:17:47 GMT-0400 (Eastern Daylight Time)","520499","Trustworthy,Untrustworthy","","1527","","","","decision","","<div class='trialDiv'><img src='Fruit/papayas.png'><br><font class='baseline'><strong>Papaya Payday</strong><p>Choose number of points to bet.</font><div class='respPicDiv'><img src='img/responseButtonOffersNo0L.png' class='respPic'></div></div>","5","1","Papaya Payday","Fruit/papayas.png","Lost","0.65,0.35","12","0.65","5","1","",""
"html-keyboard-response","11","210804","0.0-11.0-2.0","61650ba8e42101c561bf7335","bdp_rwlrn","Wed Mar 15 2023 22:17:47 GMT-0400 (Eastern Daylight Time)","520499","Trustworthy,Untrustworthy","","null","","","","decisionFB","","<div class='trialDiv'><img src='Fruit/papayas.png'><br><font class='baseline'><strong>Papaya Payday</strong><p>Choose number of points to bet.</font><div class='respPicDiv'><img src='img/responseButtonOffersNo0L5.png' class='respPic'></div></div>","null","1","Papaya Payday","Fruit/papayas.png","Lost","0.65,0.35","12","0.65","0","1","",""
"html-keyboard-response","12","211818","0.0-11.0-3.0","61650ba8e42101c561bf7335","bdp_rwlrn","Wed Mar 15 2023 22:17:47 GMT-0400 (Eastern Daylight Time)","520499","Trustworthy,Untrustworthy","","null","","","","feedback","","<div class='respPicDiv'><img src='img/responseButtonOffersNo0_wht.png' class='respPic'></div><div class='trialDiv'><img src='Fruit/papayas.png'><br><font class='baseline'><strong>Papaya Payday</strong><p><strong><font class='negOutcome'>You LOST</font><p>You bet: 5</strong></font> &nbsp; &nbsp; &nbsp; &nbsp; &nbsp; &nbsp;<font class='negOutcome'>You receive: <strong>0</strong></font></div>","null","1","Papaya Payday","Fruit/papayas.png","Lost","0.65,0.35","12","0.65","0","1","",""
"html-keyboard-response","13","213638","0.0-11.0-1.1","61650ba8e42101c561bf7335","bdp_rwlrn","Wed Mar 15 2023 22:17:47 GMT-0400 (Eastern Daylight Time)","520499","Trustworthy,Untrustworthy","","1818","","","","decision","","<div class='trialDiv'><img src='Fruit/pears.png'><br><font class='baseline'><strong>Pears Aplenty</strong><p>Choose number of points to bet.</font><div class='respPicDiv'><img src='img/responseButtonOffersNo0L.png' class='respPic'></div></div>","3","1","Pears Aplenty","Fruit/pears.png","Won","0.65,0.2","10","0.65","5","2","",""
"html-keyboard-response","14","213904","0.0-11.0-2.1","61650ba8e42101c561bf7335","bdp_rwlrn","Wed Mar 15 2023 22:17:47 GMT-0400 (Eastern Daylight Time)","520499","Trustworthy,Untrustworthy","","null","","","","decisionFB","","<div class='trialDiv'><img src='Fruit/pears.png'><br><font class='baseline'><strong>Pears Aplenty</strong><p>Choose number of points to bet.</font><div class='respPicDiv'><img src='img/responseButtonOffersNo0L3.png' class='respPic'></div></div>","null","1","Pears Aplenty","Fruit/pears.png","Won","0.65,0.2","10","0.65","2","2","",""
"html-keyboard-response","15","214917","0.0-11.0-3.1","61650ba8e42101c561bf7335","bdp_rwlrn","Wed Mar 15 2023 22:17:47 GMT-0400 (Eastern Daylight Time)","520499","Trustworthy,Untrustworthy","","null","","","","feedback","","<div class='respPicDiv'><img src='img/responseButtonOffersNo0_wht.png' class='respPic'></div><div class='trialDiv'><img src='Fruit/pears.png'><br><font class='baseline'><strong>Pears Aplenty</strong><p><strong><font class='posOutcome'>You WON</font><p>You bet: 3</strong></font> &nbsp; &nbsp; &nbsp; &nbsp; &nbsp; &nbsp;<font class='posOutcome'>you receive: <strong>6</strong></font></div>","null","1","Pears Aplenty","Fruit/pears.png","Won","0.65,0.2","10","0.65","8","2","",""
"html-keyboard-response","16","216591","0.0-11.0-1.2","61650ba8e42101c561bf7335","bdp_rwlrn","Wed Mar 15 2023 22:17:47 GMT-0400 (Eastern Daylight Time)","520499","Trustworthy,Untrustworthy","","1673","","","","decision","","<div class='trialDiv'><img src='Fruit/bananas.png'><br><font class='baseline'><strong>Banana Bonanza</strong><p>Choose number of points to bet.</font><div class='respPicDiv'><img src='img/responseButtonOffersNo0L.png' class='respPic'></div></div>","4","1","Banana Bonanza","Fruit/bananas.png","Lost","0.35,0.8","10","0.35","13","3","",""
"html-keyboard-response","17","216855","0.0-11.0-2.2","61650ba8e42101c561bf7335","bdp_rwlrn","Wed Mar 15 2023 22:17:47 GMT-0400 (Eastern Daylight Time)","520499","Trustworthy,Untrustworthy","","null","","","","decisionFB","","<div class='trialDiv'><img src='Fruit/bananas.png'><br><font class='baseline'><strong>Banana Bonanza</strong><p>Choose number of points to bet.</font><div class='respPicDiv'><img src='img/responseButtonOffersNo0L4.png' class='respPic'></div></div>","null","1","Banana Bonanza","Fruit/bananas.png","Lost","0.35,0.8","10","0.35","9","3","",""
"html-keyboard-response","18","217871","0.0-11.0-3.2","61650ba8e42101c561bf7335","bdp_rwlrn","Wed Mar 15 2023 22:17:47 GMT-0400 (Eastern Daylight Time)","520499","Trustworthy,Untrustworthy","","null","","","","feedback","","<div class='respPicDiv'><img src='img/responseButtonOffersNo0_wht.png' class='respPic'></div><div class='trialDiv'><img src='Fruit/bananas.png'><br><font class='baseline'><strong>Banana Bonanza</strong><p><strong><font class='negOutcome'>You LOST</font><p>You bet: 4</strong></font> &nbsp; &nbsp; &nbsp; &nbsp; &nbsp; &nbsp;<font class='negOutcome'>You receive: <strong>0</strong></font></div>","null","1","Banana Bonanza","Fruit/bananas.png","Lost","0.35,0.8","10","0.35","9","3","",""
"html-keyboard-response","19","219480","0.0-11.0-1.3","61650ba8e42101c561bf7335","bdp_rwlrn","Wed Mar 15 2023 22:17:47 GMT-0400 (Eastern Daylight Time)","520499","Trustworthy,Untrustworthy","","1607","","","","decision","","<div class='trialDiv'><img src='Fruit/pears.png'><br><font class='baseline'><strong>Pears Aplenty</strong><p>Choose number of points to bet.</font><div class='respPicDiv'><img src='img/responseButtonOffersNo0L.png' class='respPic'></div></div>","5","2","Pears Aplenty","Fruit/pears.png","Won","0.65,0.2","10","0.65","14","4","",""
"html-keyboard-response","20","219741","0.0-11.0-2.3","61650ba8e42101c561bf7335","bdp_rwlrn","Wed Mar 15 2023 22:17:47 GMT-0400 (Eastern Daylight Time)","520499","Trustworthy,Untrustworthy","","null","","","","decisionFB","","<div class='trialDiv'><img src='Fruit/pears.png'><br><font class='baseline'><strong>Pears Aplenty</strong><p>Choose number of points to bet.</font><div class='respPicDiv'><img src='img/responseButtonOffersNo0L5.png' class='respPic'></div></div>","null","2","Pears Aplenty","Fruit/pears.png","Won","0.65,0.2","10","0.65","9","4","",""
"html-keyboard-response","21","220751","0.0-11.0-3.3","61650ba8e42101c561bf7335","bdp_rwlrn","Wed Mar 15 2023 22:17:47 GMT-0400 (Eastern Daylight Time)","520499","Trustworthy,Untrustworthy","","null","","","","feedback","","<div class='respPicDiv'><img src='img/responseButtonOffersNo0_wht.png' class='respPic'></div><div class='trialDiv'><img src='Fruit/pears.png'><br><font class='baseline'><strong>Pears Aplenty</strong><p><strong><font class='posOutcome'>You WON</font><p>You bet: 5</strong></font> &nbsp; &nbsp; &nbsp; &nbsp; &nbsp; &nbsp;<font class='posOutcome'>you receive: <strong>10</strong></font></div>","null","2","Pears Aplenty","Fruit/pears.png","Won","0.65,0.2","10","0.65","19","4","",""
"html-keyboard-response","22","222385","0.0-11.0-1.4","61650ba8e42101c561bf7335","bdp_rwlrn","Wed Mar 15 2023 22:17:47 GMT-0400 (Eastern Daylight Time)","520499","Trustworthy,Untrustworthy","","1633","","","","decision","","<div class='trialDiv'><img src='Fruit/bananas.png'><br><font class='baseline'><strong>Banana Bonanza</strong><p>Choose number of points to bet.</font><div class='respPicDiv'><img src='img/responseButtonOffersNo0L.png' class='respPic'></div></div>","1","2","Banana Bonanza","Fruit/bananas.png","Lost","0.35,0.8","10","0.35","24","5","",""
"html-keyboard-response","23","222641","0.0-11.0-2.4","61650ba8e42101c561bf7335","bdp_rwlrn","Wed Mar 15 2023 22:17:47 GMT-0400 (Eastern Daylight Time)","520499","Trustworthy,Untrustworthy","","null","","","","decisionFB","","<div class='trialDiv'><img src='Fruit/bananas.png'><br><font class='baseline'><strong>Banana Bonanza</strong><p>Choose number of points to bet.</font><div class='respPicDiv'><img src='img/responseButtonOffersNo0L1.png' class='respPic'></div></div>","null","2","Banana Bonanza","Fruit/bananas.png","Lost","0.35,0.8","10","0.35","23","5","",""
"html-keyboard-response","24","223651","0.0-11.0-3.4","61650ba8e42101c561bf7335","bdp_rwlrn","Wed Mar 15 2023 22:17:47 GMT-0400 (Eastern Daylight Time)","520499","Trustworthy,Untrustworthy","","null","","","","feedback","","<div class='respPicDiv'><img src='img/responseButtonOffersNo0_wht.png' class='respPic'></div><div class='trialDiv'><img src='Fruit/bananas.png'><br><font class='baseline'><strong>Banana Bonanza</strong><p><strong><font class='negOutcome'>You LOST</font><p>You bet: 1</strong></font> &nbsp; &nbsp; &nbsp; &nbsp; &nbsp; &nbsp;<font class='negOutcome'>You receive: <strong>0</strong></font></div>","null","2","Banana Bonanza","Fruit/bananas.png","Lost","0.35,0.8","10","0.35","23","5","",""
"html-keyboard-response","25","225087","0.0-11.0-1.5","61650ba8e42101c561bf7335","bdp_rwlrn","Wed Mar 15 2023 22:17:47 GMT-0400 (Eastern Daylight Time)","520499","Trustworthy,Untrustworthy","","1435","","","","decision","","<div class='trialDiv'><img src='Fruit/papayas.png'><br><font class='baseline'><strong>Papaya Payday</strong><p>Choose number of points to bet.</font><div class='respPicDiv'><img src='img/responseButtonOffersNo0L.png' class='respPic'></div></div>","2","2","Papaya Payday","Fruit/papayas.png","Won","0.65,0.35","12","0.65","28","6","",""
"html-keyboard-response","26","225350","0.0-11.0-2.5","61650ba8e42101c561bf7335","bdp_rwlrn","Wed Mar 15 2023 22:17:47 GMT-0400 (Eastern Daylight Time)","520499","Trustworthy,Untrustworthy","","null","","","","decisionFB","","<div class='trialDiv'><img src='Fruit/papayas.png'><br><font class='baseline'><strong>Papaya Payday</strong><p>Choose number of points to bet.</font><div class='respPicDiv'><img src='img/responseButtonOffersNo0L2.png' class='respPic'></div></div>","null","2","Papaya Payday","Fruit/papayas.png","Won","0.65,0.35","12","0.65","26","6","",""
"html-keyboard-response","27","226362","0.0-11.0-3.5","61650ba8e42101c561bf7335","bdp_rwlrn","Wed Mar 15 2023 22:17:47 GMT-0400 (Eastern Daylight Time)","520499","Trustworthy,Untrustworthy","","null","","","","feedback","","<div class='respPicDiv'><img src='img/responseButtonOffersNo0_wht.png' class='respPic'></div><div class='trialDiv'><img src='Fruit/papayas.png'><br><font class='baseline'><strong>Papaya Payday</strong><p><strong><font class='posOutcome'>You WON</font><p>You bet: 2</strong></font> &nbsp; &nbsp; &nbsp; &nbsp; &nbsp; &nbsp;<font class='posOutcome'>you receive: <strong>4</strong></font></div>","null","2","Papaya Payday","Fruit/papayas.png","Won","0.65,0.35","12","0.65","30","6","",""
"html-keyboard-response","28","227656","0.0-11.0-1.6","61650ba8e42101c561bf7335","bdp_rwlrn","Wed Mar 15 2023 22:17:47 GMT-0400 (Eastern Daylight Time)","520499","Trustworthy,Untrustworthy","","1290","","","","decision","","<div class='trialDiv'><img src='Fruit/bananas.png'><br><font class='baseline'><strong>Banana Bonanza</strong><p>Choose number of points to bet.</font><div class='respPicDiv'><img src='img/responseButtonOffersNo0L.png' class='respPic'></div></div>","2","3","Banana Bonanza","Fruit/bananas.png","Lost","0.35,0.8","10","0.35","35","7","",""
"html-keyboard-response","29","227917","0.0-11.0-2.6","61650ba8e42101c561bf7335","bdp_rwlrn","Wed Mar 15 2023 22:17:47 GMT-0400 (Eastern Daylight Time)","520499","Trustworthy,Untrustworthy","","null","","","","decisionFB","","<div class='trialDiv'><img src='Fruit/bananas.png'><br><font class='baseline'><strong>Banana Bonanza</strong><p>Choose number of points to bet.</font><div class='respPicDiv'><img src='img/responseButtonOffersNo0L2.png' class='respPic'></div></div>","null","3","Banana Bonanza","Fruit/bananas.png","Lost","0.35,0.8","10","0.35","33","7","",""
"html-keyboard-response","30","228931","0.0-11.0-3.6","61650ba8e42101c561bf7335","bdp_rwlrn","Wed Mar 15 2023 22:17:47 GMT-0400 (Eastern Daylight Time)","520499","Trustworthy,Untrustworthy","","null","","","","feedback","","<div class='respPicDiv'><img src='img/responseButtonOffersNo0_wht.png' class='respPic'></div><div class='trialDiv'><img src='Fruit/bananas.png'><br><font class='baseline'><strong>Banana Bonanza</strong><p><strong><font class='negOutcome'>You LOST</font><p>You bet: 2</strong></font> &nbsp; &nbsp; &nbsp; &nbsp; &nbsp; &nbsp;<font class='negOutcome'>You receive: <strong>0</strong></font></div>","null","3","Banana Bonanza","Fruit/bananas.png","Lost","0.35,0.8","10","0.35","33","7","",""
"html-keyboard-response","31","230362","0.0-11.0-1.7","61650ba8e42101c561bf7335","bdp_rwlrn","Wed Mar 15 2023 22:17:47 GMT-0400 (Eastern Daylight Time)","520499","Trustworthy,Untrustworthy","","1428","","","","decision","","<div class='trialDiv'><img src='Fruit/pears.png'><br><font class='baseline'><strong>Pears Aplenty</strong><p>Choose number of points to bet.</font><div class='respPicDiv'><img src='img/responseButtonOffersNo0L.png' class='respPic'></div></div>","4","3","Pears Aplenty","Fruit/pears.png","Won","0.65,0.2","10","0.65","38","8","",""
"html-keyboard-response","32","230621","0.0-11.0-2.7","61650ba8e42101c561bf7335","bdp_rwlrn","Wed Mar 15 2023 22:17:47 GMT-0400 (Eastern Daylight Time)","520499","Trustworthy,Untrustworthy","","null","","","","decisionFB","","<div class='trialDiv'><img src='Fruit/pears.png'><br><font class='baseline'><strong>Pears Aplenty</strong><p>Choose number of points to bet.</font><div class='respPicDiv'><img src='img/responseButtonOffersNo0L4.png' class='respPic'></div></div>","null","3","Pears Aplenty","Fruit/pears.png","Won","0.65,0.2","10","0.65","34","8","",""
"html-keyboard-response","33","231636","0.0-11.0-3.7","61650ba8e42101c561bf7335","bdp_rwlrn","Wed Mar 15 2023 22:17:47 GMT-0400 (Eastern Daylight Time)","520499","Trustworthy,Untrustworthy","","null","","","","feedback","","<div class='respPicDiv'><img src='img/responseButtonOffersNo0_wht.png' class='respPic'></div><div class='trialDiv'><img src='Fruit/pears.png'><br><font class='baseline'><strong>Pears Aplenty</strong><p><strong><font class='posOutcome'>You WON</font><p>You bet: 4</strong></font> &nbsp; &nbsp; &nbsp; &nbsp; &nbsp; &nbsp;<font class='posOutcome'>you receive: <strong>8</strong></font></div>","null","3","Pears Aplenty","Fruit/pears.png","Won","0.65,0.2","10","0.65","42","8","",""
"html-keyboard-response","34","232759","0.0-11.0-1.8","61650ba8e42101c561bf7335","bdp_rwlrn","Wed Mar 15 2023 22:17:47 GMT-0400 (Eastern Daylight Time)","520499","Trustworthy,Untrustworthy","","1122","","","","decision","","<div class='trialDiv'><img src='Fruit/papayas.png'><br><font class='baseline'><strong>Papaya Payday</strong><p>Choose number of points to bet.</font><div class='respPicDiv'><img src='img/responseButtonOffersNo0L.png' class='respPic'></div></div>","4","3","Papaya Payday","Fruit/papayas.png","Lost","0.65,0.35","12","0.65","47","9","",""
"html-keyboard-response","35","233012","0.0-11.0-2.8","61650ba8e42101c561bf7335","bdp_rwlrn","Wed Mar 15 2023 22:17:47 GMT-0400 (Eastern Daylight Time)","520499","Trustworthy,Untrustworthy","","null","","","","decisionFB","","<div class='trialDiv'><img src='Fruit/papayas.png'><br><font class='baseline'><strong>Papaya Payday</strong><p>Choose number of points to bet.</font><div class='respPicDiv'><img src='img/responseButtonOffersNo0L4.png' class='respPic'></div></div>","null","3","Papaya Payday","Fruit/papayas.png","Lost","0.65,0.35","12","0.65","43","9","",""
"html-keyboard-response","36","234029","0.0-11.0-3.8","61650ba8e42101c561bf7335","bdp_rwlrn","Wed Mar 15 2023 22:17:47 GMT-0400 (Eastern Daylight Time)","520499","Trustworthy,Untrustworthy","","null","","","","feedback","","<div class='respPicDiv'><img src='img/responseButtonOffersNo0_wht.png' class='respPic'></div><div class='trialDiv'><img src='Fruit/papayas.png'><br><font class='baseline'><strong>Papaya Payday</strong><p><strong><font class='negOutcome'>You LOST</font><p>You bet: 4</strong></font> &nbsp; &nbsp; &nbsp; &nbsp; &nbsp; &nbsp;<font class='negOutcome'>You receive: <strong>0</strong></font></div>","null","3","Papaya Payday","Fruit/papayas.png","Lost","0.65,0.35","12","0.65","43","9","",""
"html-keyboard-response","37","235513","0.0-11.0-1.9","61650ba8e42101c561bf7335","bdp_rwlrn","Wed Mar 15 2023 22:17:47 GMT-0400 (Eastern Daylight Time)","520499","Trustworthy,Untrustworthy","","1482","","","","decision","","<div class='trialDiv'><img src='Fruit/bananas.png'><br><font class='baseline'><strong>Banana Bonanza</strong><p>Choose number of points to bet.</font><div class='respPicDiv'><img src='img/responseButtonOffersNo0L.png' class='respPic'></div></div>","3","4","Banana Bonanza","Fruit/bananas.png","Lost","0.35,0.8","10","0.35","48","10","",""
"html-keyboard-response","38","235774","0.0-11.0-2.9","61650ba8e42101c561bf7335","bdp_rwlrn","Wed Mar 15 2023 22:17:47 GMT-0400 (Eastern Daylight Time)","520499","Trustworthy,Untrustworthy","","null","","","","decisionFB","","<div class='trialDiv'><img src='Fruit/bananas.png'><br><font class='baseline'><strong>Banana Bonanza</strong><p>Choose number of points to bet.</font><div class='respPicDiv'><img src='img/responseButtonOffersNo0L3.png' class='respPic'></div></div>","null","4","Banana Bonanza","Fruit/bananas.png","Lost","0.35,0.8","10","0.35","45","10","",""
"html-keyboard-response","39","236777","0.0-11.0-3.9","61650ba8e42101c561bf7335","bdp_rwlrn","Wed Mar 15 2023 22:17:47 GMT-0400 (Eastern Daylight Time)","520499","Trustworthy,Untrustworthy","","null","","","","feedback","","<div class='respPicDiv'><img src='img/responseButtonOffersNo0_wht.png' class='respPic'></div><div class='trialDiv'><img src='Fruit/bananas.png'><br><font class='baseline'><strong>Banana Bonanza</strong><p><strong><font class='negOutcome'>You LOST</font><p>You bet: 3</strong></font> &nbsp; &nbsp; &nbsp; &nbsp; &nbsp; &nbsp;<font class='negOutcome'>You receive: <strong>0</strong></font></div>","null","4","Banana Bonanza","Fruit/bananas.png","Lost","0.35,0.8","10","0.35","45","10","",""
"html-keyboard-response","40","237768","0.0-11.0-1.10","61650ba8e42101c561bf7335","bdp_rwlrn","Wed Mar 15 2023 22:17:47 GMT-0400 (Eastern Daylight Time)","520499","Trustworthy,Untrustworthy","","989","","","","decision","","<div class='trialDiv'><img src='Fruit/pears.png'><br><font class='baseline'><strong>Pears Aplenty</strong><p>Choose number of points to bet.</font><div class='respPicDiv'><img src='img/responseButtonOffersNo0L.png' class='respPic'></div></div>","5","4","Pears Aplenty","Fruit/pears.png","Won","0.65,0.2","10","0.65","50","11","",""
"html-keyboard-response","41","238023","0.0-11.0-2.10","61650ba8e42101c561bf7335","bdp_rwlrn","Wed Mar 15 2023 22:17:47 GMT-0400 (Eastern Daylight Time)","520499","Trustworthy,Untrustworthy","","null","","","","decisionFB","","<div class='trialDiv'><img src='Fruit/pears.png'><br><font class='baseline'><strong>Pears Aplenty</strong><p>Choose number of points to bet.</font><div class='respPicDiv'><img src='img/responseButtonOffersNo0L5.png' class='respPic'></div></div>","null","4","Pears Aplenty","Fruit/pears.png","Won","0.65,0.2","10","0.65","45","11","",""
"html-keyboard-response","42","239038","0.0-11.0-3.10","61650ba8e42101c561bf7335","bdp_rwlrn","Wed Mar 15 2023 22:17:47 GMT-0400 (Eastern Daylight Time)","520499","Trustworthy,Untrustworthy","","null","","","","feedback","","<div class='respPicDiv'><img src='img/responseButtonOffersNo0_wht.png' class='respPic'></div><div class='trialDiv'><img src='Fruit/pears.png'><br><font class='baseline'><strong>Pears Aplenty</strong><p><strong><font class='posOutcome'>You WON</font><p>You bet: 5</strong></font> &nbsp; &nbsp; &nbsp; &nbsp; &nbsp; &nbsp;<font class='posOutcome'>you receive: <strong>10</strong></font></div>","null","4","Pears Aplenty","Fruit/pears.png","Won","0.65,0.2","10","0.65","55","11","",""
"html-keyboard-response","43","240449","0.0-11.0-1.11","61650ba8e42101c561bf7335","bdp_rwlrn","Wed Mar 15 2023 22:17:47 GMT-0400 (Eastern Daylight Time)","520499","Trustworthy,Untrustworthy","","1409","","","","decision","","<div class='trialDiv'><img src='Fruit/papayas.png'><br><font class='baseline'><strong>Papaya Payday</strong><p>Choose number of points to bet.</font><div class='respPicDiv'><img src='img/responseButtonOffersNo0L.png' class='respPic'></div></div>","3","4","Papaya Payday","Fruit/papayas.png","Won","0.65,0.35","12","0.65","60","12","",""
"html-keyboard-response","44","240708","0.0-11.0-2.11","61650ba8e42101c561bf7335","bdp_rwlrn","Wed Mar 15 2023 22:17:47 GMT-0400 (Eastern Daylight Time)","520499","Trustworthy,Untrustworthy","","null","","","","decisionFB","","<div class='trialDiv'><img src='Fruit/papayas.png'><br><font class='baseline'><strong>Papaya Payday</strong><p>Choose number of points to bet.</font><div class='respPicDiv'><img src='img/responseButtonOffersNo0L3.png' class='respPic'></div></div>","null","4","Papaya Payday","Fruit/papayas.png","Won","0.65,0.35","12","0.65","57","12","",""
"html-keyboard-response","45","241722","0.0-11.0-3.11","61650ba8e42101c561bf7335","bdp_rwlrn","Wed Mar 15 2023 22:17:47 GMT-0400 (Eastern Daylight Time)","520499","Trustworthy,Untrustworthy","","null","","","","feedback","","<div class='respPicDiv'><img src='img/responseButtonOffersNo0_wht.png' class='respPic'></div><div class='trialDiv'><img src='Fruit/papayas.png'><br><font class='baseline'><strong>Papaya Payday</strong><p><strong><font class='posOutcome'>You WON</font><p>You bet: 3</strong></font> &nbsp; &nbsp; &nbsp; &nbsp; &nbsp; &nbsp;<font class='posOutcome'>you receive: <strong>6</strong></font></div>","null","4","Papaya Payday","Fruit/papayas.png","Won","0.65,0.35","12","0.65","63","12","",""
"html-keyboard-response","46","242680","0.0-11.0-1.12","61650ba8e42101c561bf7335","bdp_rwlrn","Wed Mar 15 2023 22:17:47 GMT-0400 (Eastern Daylight Time)","520499","Trustworthy,Untrustworthy","","956","","","","decision","","<div class='trialDiv'><img src='Fruit/pears.png'><br><font class='baseline'><strong>Pears Aplenty</strong><p>Choose number of points to bet.</font><div class='respPicDiv'><img src='img/responseButtonOffersNo0L.png' class='respPic'></div></div>","5","5","Pears Aplenty","Fruit/pears.png","Lost","0.65,0.2","10","0.65","68","13","",""
"html-keyboard-response","47","242935","0.0-11.0-2.12","61650ba8e42101c561bf7335","bdp_rwlrn","Wed Mar 15 2023 22:17:47 GMT-0400 (Eastern Daylight Time)","520499","Trustworthy,Untrustworthy","","null","","","","decisionFB","","<div class='trialDiv'><img src='Fruit/pears.png'><br><font class='baseline'><strong>Pears Aplenty</strong><p>Choose number of points to bet.</font><div class='respPicDiv'><img src='img/responseButtonOffersNo0L5.png' class='respPic'></div></div>","null","5","Pears Aplenty","Fruit/pears.png","Lost","0.65,0.2","10","0.65","63","13","",""
"html-keyboard-response","48","243945","0.0-11.0-3.12","61650ba8e42101c561bf7335","bdp_rwlrn","Wed Mar 15 2023 22:17:47 GMT-0400 (Eastern Daylight Time)","520499","Trustworthy,Untrustworthy","","null","","","","feedback","","<div class='respPicDiv'><img src='img/responseButtonOffersNo0_wht.png' class='respPic'></div><div class='trialDiv'><img src='Fruit/pears.png'><br><font class='baseline'><strong>Pears Aplenty</strong><p><strong><font class='negOutcome'>You LOST</font><p>You bet: 5</strong></font> &nbsp; &nbsp; &nbsp; &nbsp; &nbsp; &nbsp;<font class='negOutcome'>You receive: <strong>0</strong></font></div>","null","5","Pears Aplenty","Fruit/pears.png","Lost","0.65,0.2","10","0.65","63","13","",""
"html-keyboard-response","49","244876","0.0-11.0-1.13","61650ba8e42101c561bf7335","bdp_rwlrn","Wed Mar 15 2023 22:17:47 GMT-0400 (Eastern Daylight Time)","520499","Trustworthy,Untrustworthy","","929","","","","decision","","<div class='trialDiv'><img src='Fruit/papayas.png'><br><font class='baseline'><strong>Papaya Payday</strong><p>Choose number of points to bet.</font><div class='respPicDiv'><img src='img/responseButtonOffersNo0L.png' class='respPic'></div></div>","1","5","Papaya Payday","Fruit/papayas.png","Won","0.65,0.35","12","0.65","68","14","",""
"html-keyboard-response","50","245135","0.0-11.0-2.13","61650ba8e42101c561bf7335","bdp_rwlrn","Wed Mar 15 2023 22:17:47 GMT-0400 (Eastern Daylight Time)","520499","Trustworthy,Untrustworthy","","null","","","","decisionFB","","<div class='trialDiv'><img src='Fruit/papayas.png'><br><font class='baseline'><strong>Papaya Payday</strong><p>Choose number of points to bet.</font><div class='respPicDiv'><img src='img/responseButtonOffersNo0L1.png' class='respPic'></div></div>","null","5","Papaya Payday","Fruit/papayas.png","Won","0.65,0.35","12","0.65","67","14","",""
"html-keyboard-response","51","246151","0.0-11.0-3.13","61650ba8e42101c561bf7335","bdp_rwlrn","Wed Mar 15 2023 22:17:47 GMT-0400 (Eastern Daylight Time)","520499","Trustworthy,Untrustworthy","","null","","","","feedback","","<div class='respPicDiv'><img src='img/responseButtonOffersNo0_wht.png' class='respPic'></div><div class='trialDiv'><img src='Fruit/papayas.png'><br><font class='baseline'><strong>Papaya Payday</strong><p><strong><font class='posOutcome'>You WON</font><p>You bet: 1</strong></font> &nbsp; &nbsp; &nbsp; &nbsp; &nbsp; &nbsp;<font class='posOutcome'>you receive: <strong>2</strong></font></div>","null","5","Papaya Payday","Fruit/papayas.png","Won","0.65,0.35","12","0.65","69","14","",""
"html-keyboard-response","52","246864","0.0-11.0-1.14","61650ba8e42101c561bf7335","bdp_rwlrn","Wed Mar 15 2023 22:17:47 GMT-0400 (Eastern Daylight Time)","520499","Trustworthy,Untrustworthy","","711","","","","decision","","<div class='trialDiv'><img src='Fruit/bananas.png'><br><font class='baseline'><strong>Banana Bonanza</strong><p>Choose number of points to bet.</font><div class='respPicDiv'><img src='img/responseButtonOffersNo0L.png' class='respPic'></div></div>","3","5","Banana Bonanza","Fruit/bananas.png","Lost","0.35,0.8","10","0.35","74","15","",""
"html-keyboard-response","53","247131","0.0-11.0-2.14","61650ba8e42101c561bf7335","bdp_rwlrn","Wed Mar 15 2023 22:17:47 GMT-0400 (Eastern Daylight Time)","520499","Trustworthy,Untrustworthy","","null","","","","decisionFB","","<div class='trialDiv'><img src='Fruit/bananas.png'><br><font class='baseline'><strong>Banana Bonanza</strong><p>Choose number of points to bet.</font><div class='respPicDiv'><img src='img/responseButtonOffersNo0L3.png' class='respPic'></div></div>","null","5","Banana Bonanza","Fruit/bananas.png","Lost","0.35,0.8","10","0.35","71","15","",""
"html-keyboard-response","54","248145","0.0-11.0-3.14","61650ba8e42101c561bf7335","bdp_rwlrn","Wed Mar 15 2023 22:17:47 GMT-0400 (Eastern Daylight Time)","520499","Trustworthy,Untrustworthy","","null","","","","feedback","","<div class='respPicDiv'><img src='img/responseButtonOffersNo0_wht.png' class='respPic'></div><div class='trialDiv'><img src='Fruit/bananas.png'><br><font class='baseline'><strong>Banana Bonanza</strong><p><strong><font class='negOutcome'>You LOST</font><p>You bet: 3</strong></font> &nbsp; &nbsp; &nbsp; &nbsp; &nbsp; &nbsp;<font class='negOutcome'>You receive: <strong>0</strong></font></div>","null","5","Banana Bonanza","Fruit/bananas.png","Lost","0.35,0.8","10","0.35","71","15","",""
"html-keyboard-response","55","248880","0.0-11.0-1.15","61650ba8e42101c561bf7335","bdp_rwlrn","Wed Mar 15 2023 22:17:47 GMT-0400 (Eastern Daylight Time)","520499","Trustworthy,Untrustworthy","","733","","","","decision","","<div class='trialDiv'><img src='Fruit/pears.png'><br><font class='baseline'><strong>Pears Aplenty</strong><p>Choose number of points to bet.</font><div class='respPicDiv'><img src='img/responseButtonOffersNo0L.png' class='respPic'></div></div>","5","6","Pears Aplenty","Fruit/pears.png","Lost","0.65,0.2","10","0.65","76","16","",""
"html-keyboard-response","56","249143","0.0-11.0-2.15","61650ba8e42101c561bf7335","bdp_rwlrn","Wed Mar 15 2023 22:17:47 GMT-0400 (Eastern Daylight Time)","520499","Trustworthy,Untrustworthy","","null","","","","decisionFB","","<div class='trialDiv'><img src='Fruit/pears.png'><br><font class='baseline'><strong>Pears Aplenty</strong><p>Choose number of points to bet.</font><div class='respPicDiv'><img src='img/responseButtonOffersNo0L5.png' class='respPic'></div></div>","null","6","Pears Aplenty","Fruit/pears.png","Lost","0.65,0.2","10","0.65","71","16","",""
"html-keyboard-response","57","250154","0.0-11.0-3.15","61650ba8e42101c561bf7335","bdp_rwlrn","Wed Mar 15 2023 22:17:47 GMT-0400 (Eastern Daylight Time)","520499","Trustworthy,Untrustworthy","","null","","","","feedback","","<div class='respPicDiv'><img src='img/responseButtonOffersNo0_wht.png' class='respPic'></div><div class='trialDiv'><img src='Fruit/pears.png'><br><font class='baseline'><strong>Pears Aplenty</strong><p><strong><font class='negOutcome'>You LOST</font><p>You bet: 5</strong></font> &nbsp; &nbsp; &nbsp; &nbsp; &nbsp; &nbsp;<font class='negOutcome'>You receive: <strong>0</strong></font></div>","null","6","Pears Aplenty","Fruit/pears.png","Lost","0.65,0.2","10","0.65","71","16","",""
"html-keyboard-response","58","251113","0.0-11.0-1.16","61650ba8e42101c561bf7335","bdp_rwlrn","Wed Mar 15 2023 22:17:47 GMT-0400 (Eastern Daylight Time)","520499","Trustworthy,Untrustworthy","","957","","","","decision","","<div class='trialDiv'><img src='Fruit/bananas.png'><br><font class='baseline'><strong>Banana Bonanza</strong><p>Choose number of points to bet.</font><div class='respPicDiv'><img src='img/responseButtonOffersNo0L.png' class='respPic'></div></div>","3","6","Banana Bonanza","Fruit/bananas.png","Lost","0.35,0.8","10","0.35","76","17","",""
"html-keyboard-response","59","251367","0.0-11.0-2.16","61650ba8e42101c561bf7335","bdp_rwlrn","Wed Mar 15 2023 22:17:47 GMT-0400 (Eastern Daylight Time)","520499","Trustworthy,Untrustworthy","","null","","","","decisionFB","","<div class='trialDiv'><img src='Fruit/bananas.png'><br><font class='baseline'><strong>Banana Bonanza</strong><p>Choose number of points to bet.</font><div class='respPicDiv'><img src='img/responseButtonOffersNo0L3.png' class='respPic'></div></div>","null","6","Banana Bonanza","Fruit/bananas.png","Lost","0.35,0.8","10","0.35","73","17","",""
"html-keyboard-response","60","252382","0.0-11.0-3.16","61650ba8e42101c561bf7335","bdp_rwlrn","Wed Mar 15 2023 22:17:47 GMT-0400 (Eastern Daylight Time)","520499","Trustworthy,Untrustworthy","","null","","","","feedback","","<div class='respPicDiv'><img src='img/responseButtonOffersNo0_wht.png' class='respPic'></div><div class='trialDiv'><img src='Fruit/bananas.png'><br><font class='baseline'><strong>Banana Bonanza</strong><p><strong><font class='negOutcome'>You LOST</font><p>You bet: 3</strong></font> &nbsp; &nbsp; &nbsp; &nbsp; &nbsp; &nbsp;<font class='negOutcome'>You receive: <strong>0</strong></font></div>","null","6","Banana Bonanza","Fruit/bananas.png","Lost","0.35,0.8","10","0.35","73","17","",""
"html-keyboard-response","61","252786","0.0-11.0-1.17","61650ba8e42101c561bf7335","bdp_rwlrn","Wed Mar 15 2023 22:17:47 GMT-0400 (Eastern Daylight Time)","520499","Trustworthy,Untrustworthy","","402","","","","decision","","<div class='trialDiv'><img src='Fruit/papayas.png'><br><font class='baseline'><strong>Papaya Payday</strong><p>Choose number of points to bet.</font><div class='respPicDiv'><img src='img/responseButtonOffersNo0L.png' class='respPic'></div></div>","3","6","Papaya Payday","Fruit/papayas.png","Lost","0.65,0.35","12","0.65","78","18","",""
"html-keyboard-response","62","253048","0.0-11.0-2.17","61650ba8e42101c561bf7335","bdp_rwlrn","Wed Mar 15 2023 22:17:47 GMT-0400 (Eastern Daylight Time)","520499","Trustworthy,Untrustworthy","","null","","","","decisionFB","","<div class='trialDiv'><img src='Fruit/papayas.png'><br><font class='baseline'><strong>Papaya Payday</strong><p>Choose number of points to bet.</font><div class='respPicDiv'><img src='img/responseButtonOffersNo0L3.png' class='respPic'></div></div>","null","6","Papaya Payday","Fruit/papayas.png","Lost","0.65,0.35","12","0.65","75","18","",""
"html-keyboard-response","63","254051","0.0-11.0-3.17","61650ba8e42101c561bf7335","bdp_rwlrn","Wed Mar 15 2023 22:17:47 GMT-0400 (Eastern Daylight Time)","520499","Trustworthy,Untrustworthy","","null","","","","feedback","","<div class='respPicDiv'><img src='img/responseButtonOffersNo0_wht.png' class='respPic'></div><div class='trialDiv'><img src='Fruit/papayas.png'><br><font class='baseline'><strong>Papaya Payday</strong><p><strong><font class='negOutcome'>You LOST</font><p>You bet: 3</strong></font> &nbsp; &nbsp; &nbsp; &nbsp; &nbsp; &nbsp;<font class='negOutcome'>You receive: <strong>0</strong></font></div>","null","6","Papaya Payday","Fruit/papayas.png","Lost","0.65,0.35","12","0.65","75","18","",""
"html-keyboard-response","64","254438","0.0-11.0-1.18","61650ba8e42101c561bf7335","bdp_rwlrn","Wed Mar 15 2023 22:17:47 GMT-0400 (Eastern Daylight Time)","520499","Trustworthy,Untrustworthy","","386","","","","decision","","<div class='trialDiv'><img src='Fruit/bananas.png'><br><font class='baseline'><strong>Banana Bonanza</strong><p>Choose number of points to bet.</font><div class='respPicDiv'><img src='img/responseButtonOffersNo0L.png' class='respPic'></div></div>","3","7","Banana Bonanza","Fruit/bananas.png","Lost","0.35,0.8","10","0.35","80","19","",""
"html-keyboard-response","65","254698","0.0-11.0-2.18","61650ba8e42101c561bf7335","bdp_rwlrn","Wed Mar 15 2023 22:17:47 GMT-0400 (Eastern Daylight Time)","520499","Trustworthy,Untrustworthy","","null","","","","decisionFB","","<div class='trialDiv'><img src='Fruit/bananas.png'><br><font class='baseline'><strong>Banana Bonanza</strong><p>Choose number of points to bet.</font><div class='respPicDiv'><img src='img/responseButtonOffersNo0L3.png' class='respPic'></div></div>","null","7","Banana Bonanza","Fruit/bananas.png","Lost","0.35,0.8","10","0.35","77","19","",""
"html-keyboard-response","66","255713","0.0-11.0-3.18","61650ba8e42101c561bf7335","bdp_rwlrn","Wed Mar 15 2023 22:17:47 GMT-0400 (Eastern Daylight Time)","520499","Trustworthy,Untrustworthy","","null","","","","feedback","","<div class='respPicDiv'><img src='img/responseButtonOffersNo0_wht.png' class='respPic'></div><div class='trialDiv'><img src='Fruit/bananas.png'><br><font class='baseline'><strong>Banana Bonanza</strong><p><strong><font class='negOutcome'>You LOST</font><p>You bet: 3</strong></font> &nbsp; &nbsp; &nbsp; &nbsp; &nbsp; &nbsp;<font class='negOutcome'>You receive: <strong>0</strong></font></div>","null","7","Banana Bonanza","Fruit/bananas.png","Lost","0.35,0.8","10","0.35","77","19","",""
"html-keyboard-response","67","256620","0.0-11.0-1.19","61650ba8e42101c561bf7335","bdp_rwlrn","Wed Mar 15 2023 22:17:47 GMT-0400 (Eastern Daylight Time)","520499","Trustworthy,Untrustworthy","","905","","","","decision","","<div class='trialDiv'><img src='Fruit/pears.png'><br><font class='baseline'><strong>Pears Aplenty</strong><p>Choose number of points to bet.</font><div class='respPicDiv'><img src='img/responseButtonOffersNo0L.png' class='respPic'></div></div>","4","7","Pears Aplenty","Fruit/pears.png","Won","0.65,0.2","10","0.65","82","20","",""
"html-keyboard-response","68","256885","0.0-11.0-2.19","61650ba8e42101c561bf7335","bdp_rwlrn","Wed Mar 15 2023 22:17:47 GMT-0400 (Eastern Daylight Time)","520499","Trustworthy,Untrustworthy","","null","","","","decisionFB","","<div class='trialDiv'><img src='Fruit/pears.png'><br><font class='baseline'><strong>Pears Aplenty</strong><p>Choose number of points to bet.</font><div class='respPicDiv'><img src='img/responseButtonOffersNo0L4.png' class='respPic'></div></div>","null","7","Pears Aplenty","Fruit/pears.png","Won","0.65,0.2","10","0.65","78","20","",""
"html-keyboard-response","69","257893","0.0-11.0-3.19","61650ba8e42101c561bf7335","bdp_rwlrn","Wed Mar 15 2023 22:17:47 GMT-0400 (Eastern Daylight Time)","520499","Trustworthy,Untrustworthy","","null","","","","feedback","","<div class='respPicDiv'><img src='img/responseButtonOffersNo0_wht.png' class='respPic'></div><div class='trialDiv'><img src='Fruit/pears.png'><br><font class='baseline'><strong>Pears Aplenty</strong><p><strong><font class='posOutcome'>You WON</font><p>You bet: 4</strong></font> &nbsp; &nbsp; &nbsp; &nbsp; &nbsp; &nbsp;<font class='posOutcome'>you receive: <strong>8</strong></font></div>","null","7","Pears Aplenty","Fruit/pears.png","Won","0.65,0.2","10","0.65","86","20","",""
"html-keyboard-response","70","258823","0.0-11.0-1.20","61650ba8e42101c561bf7335","bdp_rwlrn","Wed Mar 15 2023 22:17:47 GMT-0400 (Eastern Daylight Time)","520499","Trustworthy,Untrustworthy","","928","","","","decision","","<div class='trialDiv'><img src='Fruit/papayas.png'><br><font class='baseline'><strong>Papaya Payday</strong><p>Choose number of points to bet.</font><div class='respPicDiv'><img src='img/responseButtonOffersNo0L.png' class='respPic'></div></div>","5","7","Papaya Payday","Fruit/papayas.png","Won","0.65,0.35","12","0.65","91","21","",""
"html-keyboard-response","71","259081","0.0-11.0-2.20","61650ba8e42101c561bf7335","bdp_rwlrn","Wed Mar 15 2023 22:17:47 GMT-0400 (Eastern Daylight Time)","520499","Trustworthy,Untrustworthy","","null","","","","decisionFB","","<div class='trialDiv'><img src='Fruit/papayas.png'><br><font class='baseline'><strong>Papaya Payday</strong><p>Choose number of points to bet.</font><div class='respPicDiv'><img src='img/responseButtonOffersNo0L5.png' class='respPic'></div></div>","null","7","Papaya Payday","Fruit/papayas.png","Won","0.65,0.35","12","0.65","86","21","",""
"html-keyboard-response","72","260094","0.0-11.0-3.20","61650ba8e42101c561bf7335","bdp_rwlrn","Wed Mar 15 2023 22:17:47 GMT-0400 (Eastern Daylight Time)","520499","Trustworthy,Untrustworthy","","null","","","","feedback","","<div class='respPicDiv'><img src='img/responseButtonOffersNo0_wht.png' class='respPic'></div><div class='trialDiv'><img src='Fruit/papayas.png'><br><font class='baseline'><strong>Papaya Payday</strong><p><strong><font class='posOutcome'>You WON</font><p>You bet: 5</strong></font> &nbsp; &nbsp; &nbsp; &nbsp; &nbsp; &nbsp;<font class='posOutcome'>you receive: <strong>10</strong></font></div>","null","7","Papaya Payday","Fruit/papayas.png","Won","0.65,0.35","12","0.65","96","21","",""
"html-keyboard-response","73","260884","0.0-11.0-1.21","61650ba8e42101c561bf7335","bdp_rwlrn","Wed Mar 15 2023 22:17:47 GMT-0400 (Eastern Daylight Time)","520499","Trustworthy,Untrustworthy","","789","","","","decision","","<div class='trialDiv'><img src='Fruit/pears.png'><br><font class='baseline'><strong>Pears Aplenty</strong><p>Choose number of points to bet.</font><div class='respPicDiv'><img src='img/responseButtonOffersNo0L.png' class='respPic'></div></div>","2","8","Pears Aplenty","Fruit/pears.png","Lost","0.65,0.2","10","0.65","101","22","",""
"html-keyboard-response","74","261138","0.0-11.0-2.21","61650ba8e42101c561bf7335","bdp_rwlrn","Wed Mar 15 2023 22:17:47 GMT-0400 (Eastern Daylight Time)","520499","Trustworthy,Untrustworthy","","null","","","","decisionFB","","<div class='trialDiv'><img src='Fruit/pears.png'><br><font class='baseline'><strong>Pears Aplenty</strong><p>Choose number of points to bet.</font><div class='respPicDiv'><img src='img/responseButtonOffersNo0L2.png' class='respPic'></div></div>","null","8","Pears Aplenty","Fruit/pears.png","Lost","0.65,0.2","10","0.65","99","22","",""
"html-keyboard-response","75","262150","0.0-11.0-3.21","61650ba8e42101c561bf7335","bdp_rwlrn","Wed Mar 15 2023 22:17:47 GMT-0400 (Eastern Daylight Time)","520499","Trustworthy,Untrustworthy","","null","","","","feedback","","<div class='respPicDiv'><img src='img/responseButtonOffersNo0_wht.png' class='respPic'></div><div class='trialDiv'><img src='Fruit/pears.png'><br><font class='baseline'><strong>Pears Aplenty</strong><p><strong><font class='negOutcome'>You LOST</font><p>You bet: 2</strong></font> &nbsp; &nbsp; &nbsp; &nbsp; &nbsp; &nbsp;<font class='negOutcome'>You receive: <strong>0</strong></font></div>","null","8","Pears Aplenty","Fruit/pears.png","Lost","0.65,0.2","10","0.65","99","22","",""
"html-keyboard-response","76","262479","0.0-11.0-1.22","61650ba8e42101c561bf7335","bdp_rwlrn","Wed Mar 15 2023 22:17:47 GMT-0400 (Eastern Daylight Time)","520499","Trustworthy,Untrustworthy","","328","","","","decision","","<div class='trialDiv'><img src='Fruit/bananas.png'><br><font class='baseline'><strong>Banana Bonanza</strong><p>Choose number of points to bet.</font><div class='respPicDiv'><img src='img/responseButtonOffersNo0L.png' class='respPic'></div></div>","2","8","Banana Bonanza","Fruit/bananas.png","Won","0.35,0.8","10","0.35","104","23","",""
"html-keyboard-response","77","262741","0.0-11.0-2.22","61650ba8e42101c561bf7335","bdp_rwlrn","Wed Mar 15 2023 22:17:47 GMT-0400 (Eastern Daylight Time)","520499","Trustworthy,Untrustworthy","","null","","","","decisionFB","","<div class='trialDiv'><img src='Fruit/bananas.png'><br><font class='baseline'><strong>Banana Bonanza</strong><p>Choose number of points to bet.</font><div class='respPicDiv'><img src='img/responseButtonOffersNo0L2.png' class='respPic'></div></div>","null","8","Banana Bonanza","Fruit/bananas.png","Won","0.35,0.8","10","0.35","102","23","",""
"html-keyboard-response","78","263743","0.0-11.0-3.22","61650ba8e42101c561bf7335","bdp_rwlrn","Wed Mar 15 2023 22:17:47 GMT-0400 (Eastern Daylight Time)","520499","Trustworthy,Untrustworthy","","null","","","","feedback","","<div class='respPicDiv'><img src='img/responseButtonOffersNo0_wht.png' class='respPic'></div><div class='trialDiv'><img src='Fruit/bananas.png'><br><font class='baseline'><strong>Banana Bonanza</strong><p><strong><font class='posOutcome'>You WON</font><p>You bet: 2</strong></font> &nbsp; &nbsp; &nbsp; &nbsp; &nbsp; &nbsp;<font class='posOutcome'>you receive: <strong>4</strong></font></div>","null","8","Banana Bonanza","Fruit/bananas.png","Won","0.35,0.8","10","0.35","106","23","",""
"html-keyboard-response","79","264009","0.0-11.0-1.23","61650ba8e42101c561bf7335","bdp_rwlrn","Wed Mar 15 2023 22:17:47 GMT-0400 (Eastern Daylight Time)","520499","Trustworthy,Untrustworthy","","264","","","","decision","","<div class='trialDiv'><img src='Fruit/papayas.png'><br><font class='baseline'><strong>Papaya Payday</strong><p>Choose number of points to bet.</font><div class='respPicDiv'><img src='img/responseButtonOffersNo0L.png' class='respPic'></div></div>","3","8","Papaya Payday","Fruit/papayas.png","Lost","0.65,0.35","12","0.65","111","24","",""
"html-keyboard-response","80","264260","0.0-11.0-2.23","61650ba8e42101c561bf7335","bdp_rwlrn","Wed Mar 15 2023 22:17:47 GMT-0400 (Eastern Daylight Time)","520499","Trustworthy,Untrustworthy","","null","","","","decisionFB","","<div class='trialDiv'><img src='Fruit/papayas.png'><br><font class='baseline'><strong>Papaya Payday</strong><p>Choose number of points to bet.</font><div class='respPicDiv'><img src='img/responseButtonOffersNo0L3.png' class='respPic'></div></div>","null","8","Papaya Payday","Fruit/papayas.png","Lost","0.65,0.35","12","0.65","108","24","",""
"html-keyboard-response","81","265275","0.0-11.0-3.23","61650ba8e42101c561bf7335","bdp_rwlrn","Wed Mar 15 2023 22:17:47 GMT-0400 (Eastern Daylight Time)","520499","Trustworthy,Untrustworthy","","null","","","","feedback","","<div class='respPicDiv'><img src='img/responseButtonOffersNo0_wht.png' class='respPic'></div><div class='trialDiv'><img src='Fruit/papayas.png'><br><font class='baseline'><strong>Papaya Payday</strong><p><strong><font class='negOutcome'>You LOST</font><p>You bet: 3</strong></font> &nbsp; &nbsp; &nbsp; &nbsp; &nbsp; &nbsp;<font class='negOutcome'>You receive: <strong>0</strong></font></div>","null","8","Papaya Payday","Fruit/papayas.png","Lost","0.65,0.35","12","0.65","108","24","",""
"html-keyboard-response","82","265631","0.0-11.0-1.24","61650ba8e42101c561bf7335","bdp_rwlrn","Wed Mar 15 2023 22:17:47 GMT-0400 (Eastern Daylight Time)","520499","Trustworthy,Untrustworthy","","355","","","","decision","","<div class='trialDiv'><img src='Fruit/bananas.png'><br><font class='baseline'><strong>Banana Bonanza</strong><p>Choose number of points to bet.</font><div class='respPicDiv'><img src='img/responseButtonOffersNo0L.png' class='respPic'></div></div>","5","9","Banana Bonanza","Fruit/bananas.png","Lost","0.35,0.8","10","0.35","113","25","",""
"html-keyboard-response","83","265899","0.0-11.0-2.24","61650ba8e42101c561bf7335","bdp_rwlrn","Wed Mar 15 2023 22:17:47 GMT-0400 (Eastern Daylight Time)","520499","Trustworthy,Untrustworthy","","null","","","","decisionFB","","<div class='trialDiv'><img src='Fruit/bananas.png'><br><font class='baseline'><strong>Banana Bonanza</strong><p>Choose number of points to bet.</font><div class='respPicDiv'><img src='img/responseButtonOffersNo0L5.png' class='respPic'></div></div>","null","9","Banana Bonanza","Fruit/bananas.png","Lost","0.35,0.8","10","0.35","108","25","",""
"html-keyboard-response","84","266914","0.0-11.0-3.24","61650ba8e42101c561bf7335","bdp_rwlrn","Wed Mar 15 2023 22:17:47 GMT-0400 (Eastern Daylight Time)","520499","Trustworthy,Untrustworthy","","null","","","","feedback","","<div class='respPicDiv'><img src='img/responseButtonOffersNo0_wht.png' class='respPic'></div><div class='trialDiv'><img src='Fruit/bananas.png'><br><font class='baseline'><strong>Banana Bonanza</strong><p><strong><font class='negOutcome'>You LOST</font><p>You bet: 5</strong></font> &nbsp; &nbsp; &nbsp; &nbsp; &nbsp; &nbsp;<font class='negOutcome'>You receive: <strong>0</strong></font></div>","null","9","Banana Bonanza","Fruit/bananas.png","Lost","0.35,0.8","10","0.35","108","25","",""
"html-keyboard-response","85","267912","0.0-11.0-1.25","61650ba8e42101c561bf7335","bdp_rwlrn","Wed Mar 15 2023 22:17:47 GMT-0400 (Eastern Daylight Time)","520499","Trustworthy,Untrustworthy","","995","","","","decision","","<div class='trialDiv'><img src='Fruit/papayas.png'><br><font class='baseline'><strong>Papaya Payday</strong><p>Choose number of points to bet.</font><div class='respPicDiv'><img src='img/responseButtonOffersNo0L.png' class='respPic'></div></div>","4","9","Papaya Payday","Fruit/papayas.png","Won","0.65,0.35","12","0.65","113","26","",""
"html-keyboard-response","86","268178","0.0-11.0-2.25","61650ba8e42101c561bf7335","bdp_rwlrn","Wed Mar 15 2023 22:17:47 GMT-0400 (Eastern Daylight Time)","520499","Trustworthy,Untrustworthy","","null","","","","decisionFB","","<div class='trialDiv'><img src='Fruit/papayas.png'><br><font class='baseline'><strong>Papaya Payday</strong><p>Choose number of points to bet.</font><div class='respPicDiv'><img src='img/responseButtonOffersNo0L4.png' class='respPic'></div></div>","null","9","Papaya Payday","Fruit/papayas.png","Won","0.65,0.35","12","0.65","109","26","",""
"html-keyboard-response","87","269194","0.0-11.0-3.25","61650ba8e42101c561bf7335","bdp_rwlrn","Wed Mar 15 2023 22:17:47 GMT-0400 (Eastern Daylight Time)","520499","Trustworthy,Untrustworthy","","null","","","","feedback","","<div class='respPicDiv'><img src='img/responseButtonOffersNo0_wht.png' class='respPic'></div><div class='trialDiv'><img src='Fruit/papayas.png'><br><font class='baseline'><strong>Papaya Payday</strong><p><strong><font class='posOutcome'>You WON</font><p>You bet: 4</strong></font> &nbsp; &nbsp; &nbsp; &nbsp; &nbsp; &nbsp;<font class='posOutcome'>you receive: <strong>8</strong></font></div>","null","9","Papaya Payday","Fruit/papayas.png","Won","0.65,0.35","12","0.65","117","26","",""
"html-keyboard-response","88","269861","0.0-11.0-1.26","61650ba8e42101c561bf7335","bdp_rwlrn","Wed Mar 15 2023 22:17:47 GMT-0400 (Eastern Daylight Time)","520499","Trustworthy,Untrustworthy","","665","","","","decision","","<div class='trialDiv'><img src='Fruit/pears.png'><br><font class='baseline'><strong>Pears Aplenty</strong><p>Choose number of points to bet.</font><div class='respPicDiv'><img src='img/responseButtonOffersNo0L.png' class='respPic'></div></div>","3","9","Pears Aplenty","Fruit/pears.png","Won","0.65,0.2","10","0.65","122","27","",""
"html-keyboard-response","89","270115","0.0-11.0-2.26","61650ba8e42101c561bf7335","bdp_rwlrn","Wed Mar 15 2023 22:17:47 GMT-0400 (Eastern Daylight Time)","520499","Trustworthy,Untrustworthy","","null","","","","decisionFB","","<div class='trialDiv'><img src='Fruit/pears.png'><br><font class='baseline'><strong>Pears Aplenty</strong><p>Choose number of points to bet.</font><div class='respPicDiv'><img src='img/responseButtonOffersNo0L3.png' class='respPic'></div></div>","null","9","Pears Aplenty","Fruit/pears.png","Won","0.65,0.2","10","0.65","119","27","",""
"html-keyboard-response","90","271133","0.0-11.0-3.26","61650ba8e42101c561bf7335","bdp_rwlrn","Wed Mar 15 2023 22:17:47 GMT-0400 (Eastern Daylight Time)","520499","Trustworthy,Untrustworthy","","null","","","","feedback","","<div class='respPicDiv'><img src='img/responseButtonOffersNo0_wht.png' class='respPic'></div><div class='trialDiv'><img src='Fruit/pears.png'><br><font class='baseline'><strong>Pears Aplenty</strong><p><strong><font class='posOutcome'>You WON</font><p>You bet: 3</strong></font> &nbsp; &nbsp; &nbsp; &nbsp; &nbsp; &nbsp;<font class='posOutcome'>you receive: <strong>6</strong></font></div>","null","9","Pears Aplenty","Fruit/pears.png","Won","0.65,0.2","10","0.65","125","27","",""
"html-keyboard-response","91","271483","0.0-11.0-1.27","61650ba8e42101c561bf7335","bdp_rwlrn","Wed Mar 15 2023 22:17:47 GMT-0400 (Eastern Daylight Time)","520499","Trustworthy,Untrustworthy","","348","","","","decision","","<div class='trialDiv'><img src='Fruit/bananas.png'><br><font class='baseline'><strong>Banana Bonanza</strong><p>Choose number of points to bet.</font><div class='respPicDiv'><img src='img/responseButtonOffersNo0L.png' class='respPic'></div></div>","5","10","Banana Bonanza","Fruit/bananas.png","Won","0.35,0.8","10","0.35","130","28","",""
"html-keyboard-response","92","271741","0.0-11.0-2.27","61650ba8e42101c561bf7335","bdp_rwlrn","Wed Mar 15 2023 22:17:47 GMT-0400 (Eastern Daylight Time)","520499","Trustworthy,Untrustworthy","","null","","","","decisionFB","","<div class='trialDiv'><img src='Fruit/bananas.png'><br><font class='baseline'><strong>Banana Bonanza</strong><p>Choose number of points to bet.</font><div class='respPicDiv'><img src='img/responseButtonOffersNo0L5.png' class='respPic'></div></div>","null","10","Banana Bonanza","Fruit/bananas.png","Won","0.35,0.8","10","0.35","125","28","",""
"html-keyboard-response","93","272756","0.0-11.0-3.27","61650ba8e42101c561bf7335","bdp_rwlrn","Wed Mar 15 2023 22:17:47 GMT-0400 (Eastern Daylight Time)","520499","Trustworthy,Untrustworthy","","null","","","","feedback","","<div class='respPicDiv'><img src='img/responseButtonOffersNo0_wht.png' class='respPic'></div><div class='trialDiv'><img src='Fruit/bananas.png'><br><font class='baseline'><strong>Banana Bonanza</strong><p><strong><font class='posOutcome'>You WON</font><p>You bet: 5</strong></font> &nbsp; &nbsp; &nbsp; &nbsp; &nbsp; &nbsp;<font class='posOutcome'>you receive: <strong>10</strong></font></div>","null","10","Banana Bonanza","Fruit/bananas.png","Won","0.35,0.8","10","0.35","135","28","",""
"html-keyboard-response","94","273230","0.0-11.0-1.28","61650ba8e42101c561bf7335","bdp_rwlrn","Wed Mar 15 2023 22:17:47 GMT-0400 (Eastern Daylight Time)","520499","Trustworthy,Untrustworthy","","473","","","","decision","","<div class='trialDiv'><img src='Fruit/papayas.png'><br><font class='baseline'><strong>Papaya Payday</strong><p>Choose number of points to bet.</font><div class='respPicDiv'><img src='img/responseButtonOffersNo0L.png' class='respPic'></div></div>","1","10","Papaya Payday","Fruit/papayas.png","Lost","0.65,0.35","12","0.65","140","29","",""
"html-keyboard-response","95","273488","0.0-11.0-2.28","61650ba8e42101c561bf7335","bdp_rwlrn","Wed Mar 15 2023 22:17:47 GMT-0400 (Eastern Daylight Time)","520499","Trustworthy,Untrustworthy","","null","","","","decisionFB","","<div class='trialDiv'><img src='Fruit/papayas.png'><br><font class='baseline'><strong>Papaya Payday</strong><p>Choose number of points to bet.</font><div class='respPicDiv'><img src='img/responseButtonOffersNo0L1.png' class='respPic'></div></div>","null","10","Papaya Payday","Fruit/papayas.png","Lost","0.65,0.35","12","0.65","139","29","",""
"html-keyboard-response","96","274503","0.0-11.0-3.28","61650ba8e42101c561bf7335","bdp_rwlrn","Wed Mar 15 2023 22:17:47 GMT-0400 (Eastern Daylight Time)","520499","Trustworthy,Untrustworthy","","null","","","","feedback","","<div class='respPicDiv'><img src='img/responseButtonOffersNo0_wht.png' class='respPic'></div><div class='trialDiv'><img src='Fruit/papayas.png'><br><font class='baseline'><strong>Papaya Payday</strong><p><strong><font class='negOutcome'>You LOST</font><p>You bet: 1</strong></font> &nbsp; &nbsp; &nbsp; &nbsp; &nbsp; &nbsp;<font class='negOutcome'>You receive: <strong>0</strong></font></div>","null","10","Papaya Payday","Fruit/papayas.png","Lost","0.65,0.35","12","0.65","139","29","",""
"html-keyboard-response","97","274764","0.0-11.0-1.29","61650ba8e42101c561bf7335","bdp_rwlrn","Wed Mar 15 2023 22:17:47 GMT-0400 (Eastern Daylight Time)","520499","Trustworthy,Untrustworthy","","259","","","","decision","","<div class='trialDiv'><img src='Fruit/pears.png'><br><font class='baseline'><strong>Pears Aplenty</strong><p>Choose number of points to bet.</font><div class='respPicDiv'><img src='img/responseButtonOffersNo0L.png' class='respPic'></div></div>","2","10","Pears Aplenty","Fruit/pears.png","Won","0.65,0.2","10","0.65","144","30","",""
"html-keyboard-response","98","275020","0.0-11.0-2.29","61650ba8e42101c561bf7335","bdp_rwlrn","Wed Mar 15 2023 22:17:47 GMT-0400 (Eastern Daylight Time)","520499","Trustworthy,Untrustworthy","","null","","","","decisionFB","","<div class='trialDiv'><img src='Fruit/pears.png'><br><font class='baseline'><strong>Pears Aplenty</strong><p>Choose number of points to bet.</font><div class='respPicDiv'><img src='img/responseButtonOffersNo0L2.png' class='respPic'></div></div>","null","10","Pears Aplenty","Fruit/pears.png","Won","0.65,0.2","10","0.65","142","30","",""
"html-keyboard-response","99","276034","0.0-11.0-3.29","61650ba8e42101c561bf7335","bdp_rwlrn","Wed Mar 15 2023 22:17:47 GMT-0400 (Eastern Daylight Time)","520499","Trustworthy,Untrustworthy","","null","","","","feedback","","<div class='respPicDiv'><img src='img/responseButtonOffersNo0_wht.png' class='respPic'></div><div class='trialDiv'><img src='Fruit/pears.png'><br><font class='baseline'><strong>Pears Aplenty</strong><p><strong><font class='posOutcome'>You WON</font><p>You bet: 2</strong></font> &nbsp; &nbsp; &nbsp; &nbsp; &nbsp; &nbsp;<font class='posOutcome'>you receive: <strong>4</strong></font></div>","null","10","Pears Aplenty","Fruit/pears.png","Won","0.65,0.2","10","0.65","146","30","",""
"html-keyboard-response","100","276297","0.0-11.0-1.30","61650ba8e42101c561bf7335","bdp_rwlrn","Wed Mar 15 2023 22:17:47 GMT-0400 (Eastern Daylight Time)","520499","Trustworthy,Untrustworthy","","261","","","","decision","","<div class='trialDiv'><img src='Fruit/papayas.png'><br><font class='baseline'><strong>Papaya Payday</strong><p>Choose number of points to bet.</font><div class='respPicDiv'><img src='img/responseButtonOffersNo0L.png' class='respPic'></div></div>","3","11","Papaya Payday","Fruit/papayas.png","Won","0.65,0.35","12","0.65","151","31","",""
"html-keyboard-response","101","276550","0.0-11.0-2.30","61650ba8e42101c561bf7335","bdp_rwlrn","Wed Mar 15 2023 22:17:47 GMT-0400 (Eastern Daylight Time)","520499","Trustworthy,Untrustworthy","","null","","","","decisionFB","","<div class='trialDiv'><img src='Fruit/papayas.png'><br><font class='baseline'><strong>Papaya Payday</strong><p>Choose number of points to bet.</font><div class='respPicDiv'><img src='img/responseButtonOffersNo0L3.png' class='respPic'></div></div>","null","11","Papaya Payday","Fruit/papayas.png","Won","0.65,0.35","12","0.65","148","31","",""
"html-keyboard-response","102","277553","0.0-11.0-3.30","61650ba8e42101c561bf7335","bdp_rwlrn","Wed Mar 15 2023 22:17:47 GMT-0400 (Eastern Daylight Time)","520499","Trustworthy,Untrustworthy","","null","","","","feedback","","<div class='respPicDiv'><img src='img/responseButtonOffersNo0_wht.png' class='respPic'></div><div class='trialDiv'><img src='Fruit/papayas.png'><br><font class='baseline'><strong>Papaya Payday</strong><p><strong><font class='posOutcome'>You WON</font><p>You bet: 3</strong></font> &nbsp; &nbsp; &nbsp; &nbsp; &nbsp; &nbsp;<font class='posOutcome'>you receive: <strong>6</strong></font></div>","null","11","Papaya Payday","Fruit/papayas.png","Won","0.65,0.35","12","0.65","154","31","",""
"html-keyboard-response","103","277853","0.0-11.0-1.31","61650ba8e42101c561bf7335","bdp_rwlrn","Wed Mar 15 2023 22:17:47 GMT-0400 (Eastern Daylight Time)","520499","Trustworthy,Untrustworthy","","298","","","","decision","","<div class='trialDiv'><img src='Fruit/bananas.png'><br><font class='baseline'><strong>Banana Bonanza</strong><p>Choose number of points to bet.</font><div class='respPicDiv'><img src='img/responseButtonOffersNo0L.png' class='respPic'></div></div>","1","11","Banana Bonanza","Fruit/bananas.png","Won","0.35,0.8","10","0.35","159","32","",""
"html-keyboard-response","104","278115","0.0-11.0-2.31","61650ba8e42101c561bf7335","bdp_rwlrn","Wed Mar 15 2023 22:17:47 GMT-0400 (Eastern Daylight Time)","520499","Trustworthy,Untrustworthy","","null","","","","decisionFB","","<div class='trialDiv'><img src='Fruit/bananas.png'><br><font class='baseline'><strong>Banana Bonanza</strong><p>Choose number of points to bet.</font><div class='respPicDiv'><img src='img/responseButtonOffersNo0L1.png' class='respPic'></div></div>","null","11","Banana Bonanza","Fruit/bananas.png","Won","0.35,0.8","10","0.35","158","32","",""
"html-keyboard-response","105","279129","0.0-11.0-3.31","61650ba8e42101c561bf7335","bdp_rwlrn","Wed Mar 15 2023 22:17:47 GMT-0400 (Eastern Daylight Time)","520499","Trustworthy,Untrustworthy","","null","","","","feedback","","<div class='respPicDiv'><img src='img/responseButtonOffersNo0_wht.png' class='respPic'></div><div class='trialDiv'><img src='Fruit/bananas.png'><br><font class='baseline'><strong>Banana Bonanza</strong><p><strong><font class='posOutcome'>You WON</font><p>You bet: 1</strong></font> &nbsp; &nbsp; &nbsp; &nbsp; &nbsp; &nbsp;<font class='posOutcome'>you receive: <strong>2</strong></font></div>","null","11","Banana Bonanza","Fruit/bananas.png","Won","0.35,0.8","10","0.35","160","32","",""
"html-keyboard-response","106","279358","0.0-11.0-1.32","61650ba8e42101c561bf7335","bdp_rwlrn","Wed Mar 15 2023 22:17:47 GMT-0400 (Eastern Daylight Time)","520499","Trustworthy,Untrustworthy","","226","","","","decision","","<div class='trialDiv'><img src='Fruit/pears.png'><br><font class='baseline'><strong>Pears Aplenty</strong><p>Choose number of points to bet.</font><div class='respPicDiv'><img src='img/responseButtonOffersNo0L.png' class='respPic'></div></div>","5","11","Pears Aplenty","Fruit/pears.png","Lost","0.65,0.2","10","0.65","165","33","",""
"html-keyboard-response","107","279613","0.0-11.0-2.32","61650ba8e42101c561bf7335","bdp_rwlrn","Wed Mar 15 2023 22:17:47 GMT-0400 (Eastern Daylight Time)","520499","Trustworthy,Untrustworthy","","null","","","","decisionFB","","<div class='trialDiv'><img src='Fruit/pears.png'><br><font class='baseline'><strong>Pears Aplenty</strong><p>Choose number of points to bet.</font><div class='respPicDiv'><img src='img/responseButtonOffersNo0L5.png' class='respPic'></div></div>","null","11","Pears Aplenty","Fruit/pears.png","Lost","0.65,0.2","10","0.65","160","33","",""
"html-keyboard-response","108","280625","0.0-11.0-3.32","61650ba8e42101c561bf7335","bdp_rwlrn","Wed Mar 15 2023 22:17:47 GMT-0400 (Eastern Daylight Time)","520499","Trustworthy,Untrustworthy","","null","","","","feedback","","<div class='respPicDiv'><img src='img/responseButtonOffersNo0_wht.png' class='respPic'></div><div class='trialDiv'><img src='Fruit/pears.png'><br><font class='baseline'><strong>Pears Aplenty</strong><p><strong><font class='negOutcome'>You LOST</font><p>You bet: 5</strong></font> &nbsp; &nbsp; &nbsp; &nbsp; &nbsp; &nbsp;<font class='negOutcome'>You receive: <strong>0</strong></font></div>","null","11","Pears Aplenty","Fruit/pears.png","Lost","0.65,0.2","10","0.65","160","33","",""
"html-keyboard-response","109","280825","0.0-11.0-1.33","61650ba8e42101c561bf7335","bdp_rwlrn","Wed Mar 15 2023 22:17:47 GMT-0400 (Eastern Daylight Time)","520499","Trustworthy,Untrustworthy","","198","","","","decision","","<div class='trialDiv'><img src='Fruit/bananas.png'><br><font class='baseline'><strong>Banana Bonanza</strong><p>Choose number of points to bet.</font><div class='respPicDiv'><img src='img/responseButtonOffersNo0L.png' class='respPic'></div></div>","5","12","Banana Bonanza","Fruit/bananas.png","Won","0.35,0.8","10","0.35","165","34","",""
"html-keyboard-response","110","281091","0.0-11.0-2.33","61650ba8e42101c561bf7335","bdp_rwlrn","Wed Mar 15 2023 22:17:47 GMT-0400 (Eastern Daylight Time)","520499","Trustworthy,Untrustworthy","","null","","","","decisionFB","","<div class='trialDiv'><img src='Fruit/bananas.png'><br><font class='baseline'><strong>Banana Bonanza</strong><p>Choose number of points to bet.</font><div class='respPicDiv'><img src='img/responseButtonOffersNo0L5.png' class='respPic'></div></div>","null","12","Banana Bonanza","Fruit/bananas.png","Won","0.35,0.8","10","0.35","160","34","",""
"html-keyboard-response","111","282105","0.0-11.0-3.33","61650ba8e42101c561bf7335","bdp_rwlrn","Wed Mar 15 2023 22:17:47 GMT-0400 (Eastern Daylight Time)","520499","Trustworthy,Untrustworthy","","null","","","","feedback","","<div class='respPicDiv'><img src='img/responseButtonOffersNo0_wht.png' class='respPic'></div><div class='trialDiv'><img src='Fruit/bananas.png'><br><font class='baseline'><strong>Banana Bonanza</strong><p><strong><font class='posOutcome'>You WON</font><p>You bet: 5</strong></font> &nbsp; &nbsp; &nbsp; &nbsp; &nbsp; &nbsp;<font class='posOutcome'>you receive: <strong>10</strong></font></div>","null","12","Banana Bonanza","Fruit/bananas.png","Won","0.35,0.8","10","0.35","170","34","",""
"html-keyboard-response","112","282258","0.0-11.0-1.34","61650ba8e42101c561bf7335","bdp_rwlrn","Wed Mar 15 2023 22:17:47 GMT-0400 (Eastern Daylight Time)","520499","Trustworthy,Untrustworthy","","151","","","","decision","","<div class='trialDiv'><img src='Fruit/papayas.png'><br><font class='baseline'><strong>Papaya Payday</strong><p>Choose number of points to bet.</font><div class='respPicDiv'><img src='img/responseButtonOffersNo0L.png' class='respPic'></div></div>","3","12","Papaya Payday","Fruit/papayas.png","Lost","0.65,0.35","12","0.65","175","35","",""
"html-keyboard-response","113","282511","0.0-11.0-2.34","61650ba8e42101c561bf7335","bdp_rwlrn","Wed Mar 15 2023 22:17:47 GMT-0400 (Eastern Daylight Time)","520499","Trustworthy,Untrustworthy","","null","","","","decisionFB","","<div class='trialDiv'><img src='Fruit/papayas.png'><br><font class='baseline'><strong>Papaya Payday</strong><p>Choose number of points to bet.</font><div class='respPicDiv'><img src='img/responseButtonOffersNo0L3.png' class='respPic'></div></div>","null","12","Papaya Payday","Fruit/papayas.png","Lost","0.65,0.35","12","0.65","172","35","",""
"html-keyboard-response","114","283526","0.0-11.0-3.34","61650ba8e42101c561bf7335","bdp_rwlrn","Wed Mar 15 2023 22:17:47 GMT-0400 (Eastern Daylight Time)","520499","Trustworthy,Untrustworthy","","null","","","","feedback","","<div class='respPicDiv'><img src='img/responseButtonOffersNo0_wht.png' class='respPic'></div><div class='trialDiv'><img src='Fruit/papayas.png'><br><font class='baseline'><strong>Papaya Payday</strong><p><strong><font class='negOutcome'>You LOST</font><p>You bet: 3</strong></font> &nbsp; &nbsp; &nbsp; &nbsp; &nbsp; &nbsp;<font class='negOutcome'>You receive: <strong>0</strong></font></div>","null","12","Papaya Payday","Fruit/papayas.png","Lost","0.65,0.35","12","0.65","172","35","",""
"html-keyboard-response","115","283736","0.0-11.0-1.35","61650ba8e42101c561bf7335","bdp_rwlrn","Wed Mar 15 2023 22:17:47 GMT-0400 (Eastern Daylight Time)","520499","Trustworthy,Untrustworthy","","207","","","","decision","","<div class='trialDiv'><img src='Fruit/pears.png'><br><font class='baseline'><strong>Pears Aplenty</strong><p>Choose number of points to bet.</font><div class='respPicDiv'><img src='img/responseButtonOffersNo0L.png' class='respPic'></div></div>","4","12","Pears Aplenty","Fruit/pears.png","Lost","0.65,0.2","10","0.65","177","36","",""
"html-keyboard-response","116","283993","0.0-11.0-2.35","61650ba8e42101c561bf7335","bdp_rwlrn","Wed Mar 15 2023 22:17:47 GMT-0400 (Eastern Daylight Time)","520499","Trustworthy,Untrustworthy","","null","","","","decisionFB","","<div class='trialDiv'><img src='Fruit/pears.png'><br><font class='baseline'><strong>Pears Aplenty</strong><p>Choose number of points to bet.</font><div class='respPicDiv'><img src='img/responseButtonOffersNo0L4.png' class='respPic'></div></div>","null","12","Pears Aplenty","Fruit/pears.png","Lost","0.65,0.2","10","0.65","173","36","",""
"html-keyboard-response","117","285006","0.0-11.0-3.35","61650ba8e42101c561bf7335","bdp_rwlrn","Wed Mar 15 2023 22:17:47 GMT-0400 (Eastern Daylight Time)","520499","Trustworthy,Untrustworthy","","null","","","","feedback","","<div class='respPicDiv'><img src='img/responseButtonOffersNo0_wht.png' class='respPic'></div><div class='trialDiv'><img src='Fruit/pears.png'><br><font class='baseline'><strong>Pears Aplenty</strong><p><strong><font class='negOutcome'>You LOST</font><p>You bet: 4</strong></font> &nbsp; &nbsp; &nbsp; &nbsp; &nbsp; &nbsp;<font class='negOutcome'>You receive: <strong>0</strong></font></div>","null","12","Pears Aplenty","Fruit/pears.png","Lost","0.65,0.2","10","0.65","173","36","",""
"html-keyboard-response","118","285372","0.0-11.0-1.36","61650ba8e42101c561bf7335","bdp_rwlrn","Wed Mar 15 2023 22:17:47 GMT-0400 (Eastern Daylight Time)","520499","Trustworthy,Untrustworthy","","364","","","","decision","","<div class='trialDiv'><img src='Fruit/bananas.png'><br><font class='baseline'><strong>Banana Bonanza</strong><p>Choose number of points to bet.</font><div class='respPicDiv'><img src='img/responseButtonOffersNo0L.png' class='respPic'></div></div>","3","13","Banana Bonanza","Fruit/bananas.png","Won","0.35,0.8","10","0.35","178","37","",""
"html-keyboard-response","119","285627","0.0-11.0-2.36","61650ba8e42101c561bf7335","bdp_rwlrn","Wed Mar 15 2023 22:17:47 GMT-0400 (Eastern Daylight Time)","520499","Trustworthy,Untrustworthy","","null","","","","decisionFB","","<div class='trialDiv'><img src='Fruit/bananas.png'><br><font class='baseline'><strong>Banana Bonanza</strong><p>Choose number of points to bet.</font><div class='respPicDiv'><img src='img/responseButtonOffersNo0L3.png' class='respPic'></div></div>","null","13","Banana Bonanza","Fruit/bananas.png","Won","0.35,0.8","10","0.35","175","37","",""
"html-keyboard-response","120","286640","0.0-11.0-3.36","61650ba8e42101c561bf7335","bdp_rwlrn","Wed Mar 15 2023 22:17:47 GMT-0400 (Eastern Daylight Time)","520499","Trustworthy,Untrustworthy","","null","","","","feedback","","<div class='respPicDiv'><img src='img/responseButtonOffersNo0_wht.png' class='respPic'></div><div class='trialDiv'><img src='Fruit/bananas.png'><br><font class='baseline'><strong>Banana Bonanza</strong><p><strong><font class='posOutcome'>You WON</font><p>You bet: 3</strong></font> &nbsp; &nbsp; &nbsp; &nbsp; &nbsp; &nbsp;<font class='posOutcome'>you receive: <strong>6</strong></font></div>","null","13","Banana Bonanza","Fruit/bananas.png","Won","0.35,0.8","10","0.35","181","37","",""
"html-keyboard-response","121","286729","0.0-11.0-1.37","61650ba8e42101c561bf7335","bdp_rwlrn","Wed Mar 15 2023 22:17:47 GMT-0400 (Eastern Daylight Time)","520499","Trustworthy,Untrustworthy","","88","","","","decision","","<div class='trialDiv'><img src='Fruit/pears.png'><br><font class='baseline'><strong>Pears Aplenty</strong><p>Choose number of points to bet.</font><div class='respPicDiv'><img src='img/responseButtonOffersNo0L.png' class='respPic'></div></div>","5","13","Pears Aplenty","Fruit/pears.png","Lost","0.65,0.2","10","0.65","186","38","",""
"html-keyboard-response","122","286985","0.0-11.0-2.37","61650ba8e42101c561bf7335","bdp_rwlrn","Wed Mar 15 2023 22:17:47 GMT-0400 (Eastern Daylight Time)","520499","Trustworthy,Untrustworthy","","null","","","","decisionFB","","<div class='trialDiv'><img src='Fruit/pears.png'><br><font class='baseline'><strong>Pears Aplenty</strong><p>Choose number of points to bet.</font><div class='respPicDiv'><img src='img/responseButtonOffersNo0L5.png' class='respPic'></div></div>","null","13","Pears Aplenty","Fruit/pears.png","Lost","0.65,0.2","10","0.65","181","38","",""
"html-keyboard-response","123","287998","0.0-11.0-3.37","61650ba8e42101c561bf7335","bdp_rwlrn","Wed Mar 15 2023 22:17:47 GMT-0400 (Eastern Daylight Time)","520499","Trustworthy,Untrustworthy","","null","","","","feedback","","<div class='respPicDiv'><img src='img/responseButtonOffersNo0_wht.png' class='respPic'></div><div class='trialDiv'><img src='Fruit/pears.png'><br><font class='baseline'><strong>Pears Aplenty</strong><p><strong><font class='negOutcome'>You LOST</font><p>You bet: 5</strong></font> &nbsp; &nbsp; &nbsp; &nbsp; &nbsp; &nbsp;<font class='negOutcome'>You receive: <strong>0</strong></font></div>","null","13","Pears Aplenty","Fruit/pears.png","Lost","0.65,0.2","10","0.65","181","38","",""
"html-keyboard-response","124","288153","0.0-11.0-1.38","61650ba8e42101c561bf7335","bdp_rwlrn","Wed Mar 15 2023 22:17:47 GMT-0400 (Eastern Daylight Time)","520499","Trustworthy,Untrustworthy","","154","","","","decision","","<div class='trialDiv'><img src='Fruit/papayas.png'><br><font class='baseline'><strong>Papaya Payday</strong><p>Choose number of points to bet.</font><div class='respPicDiv'><img src='img/responseButtonOffersNo0L.png' class='respPic'></div></div>","1","13","Papaya Payday","Fruit/papayas.png","Lost","0.65,0.35","12","0.65","186","39","",""
"html-keyboard-response","125","288405","0.0-11.0-2.38","61650ba8e42101c561bf7335","bdp_rwlrn","Wed Mar 15 2023 22:17:47 GMT-0400 (Eastern Daylight Time)","520499","Trustworthy,Untrustworthy","","null","","","","decisionFB","","<div class='trialDiv'><img src='Fruit/papayas.png'><br><font class='baseline'><strong>Papaya Payday</strong><p>Choose number of points to bet.</font><div class='respPicDiv'><img src='img/responseButtonOffersNo0L1.png' class='respPic'></div></div>","null","13","Papaya Payday","Fruit/papayas.png","Lost","0.65,0.35","12","0.65","185","39","",""
"html-keyboard-response","126","289418","0.0-11.0-3.38","61650ba8e42101c561bf7335","bdp_rwlrn","Wed Mar 15 2023 22:17:47 GMT-0400 (Eastern Daylight Time)","520499","Trustworthy,Untrustworthy","","null","","","","feedback","","<div class='respPicDiv'><img src='img/responseButtonOffersNo0_wht.png' class='respPic'></div><div class='trialDiv'><img src='Fruit/papayas.png'><br><font class='baseline'><strong>Papaya Payday</strong><p><strong><font class='negOutcome'>You LOST</font><p>You bet: 1</strong></font> &nbsp; &nbsp; &nbsp; &nbsp; &nbsp; &nbsp;<font class='negOutcome'>You receive: <strong>0</strong></font></div>","null","13","Papaya Payday","Fruit/papayas.png","Lost","0.65,0.35","12","0.65","185","39","",""
"html-keyboard-response","127","289632","0.0-11.0-1.39","61650ba8e42101c561bf7335","bdp_rwlrn","Wed Mar 15 2023 22:17:47 GMT-0400 (Eastern Daylight Time)","520499","Trustworthy,Untrustworthy","","212","","","","decision","","<div class='trialDiv'><img src='Fruit/pears.png'><br><font class='baseline'><strong>Pears Aplenty</strong><p>Choose number of points to bet.</font><div class='respPicDiv'><img src='img/responseButtonOffersNo0L.png' class='respPic'></div></div>","5","14","Pears Aplenty","Fruit/pears.png","Lost","0.65,0.2","10","0.65","190","40","",""
"html-keyboard-response","128","289886","0.0-11.0-2.39","61650ba8e42101c561bf7335","bdp_rwlrn","Wed Mar 15 2023 22:17:47 GMT-0400 (Eastern Daylight Time)","520499","Trustworthy,Untrustworthy","","null","","","","decisionFB","","<div class='trialDiv'><img src='Fruit/pears.png'><br><font class='baseline'><strong>Pears Aplenty</strong><p>Choose number of points to bet.</font><div class='respPicDiv'><img src='img/responseButtonOffersNo0L5.png' class='respPic'></div></div>","null","14","Pears Aplenty","Fruit/pears.png","Lost","0.65,0.2","10","0.65","185","40","",""
"html-keyboard-response","129","290899","0.0-11.0-3.39","61650ba8e42101c561bf7335","bdp_rwlrn","Wed Mar 15 2023 22:17:47 GMT-0400 (Eastern Daylight Time)","520499","Trustworthy,Untrustworthy","","null","","","","feedback","","<div class='respPicDiv'><img src='img/responseButtonOffersNo0_wht.png' class='respPic'></div><div class='trialDiv'><img src='Fruit/pears.png'><br><font class='baseline'><strong>Pears Aplenty</strong><p><strong><font class='negOutcome'>You LOST</font><p>You bet: 5</strong></font> &nbsp; &nbsp; &nbsp; &nbsp; &nbsp; &nbsp;<font class='negOutcome'>You receive: <strong>0</strong></font></div>","null","14","Pears Aplenty","Fruit/pears.png","Lost","0.65,0.2","10","0.65","185","40","",""
"html-keyboard-response","130","291053","0.0-11.0-1.40","61650ba8e42101c561bf7335","bdp_rwlrn","Wed Mar 15 2023 22:17:47 GMT-0400 (Eastern Daylight Time)","520499","Trustworthy,Untrustworthy","","153","","","","decision","","<div class='trialDiv'><img src='Fruit/papayas.png'><br><font class='baseline'><strong>Papaya Payday</strong><p>Choose number of points to bet.</font><div class='respPicDiv'><img src='img/responseButtonOffersNo0L.png' class='respPic'></div></div>","4","14","Papaya Payday","Fruit/papayas.png","Won","0.65,0.35","12","0.65","190","41","",""
"html-keyboard-response","131","291305","0.0-11.0-2.40","61650ba8e42101c561bf7335","bdp_rwlrn","Wed Mar 15 2023 22:17:47 GMT-0400 (Eastern Daylight Time)","520499","Trustworthy,Untrustworthy","","null","","","","decisionFB","","<div class='trialDiv'><img src='Fruit/papayas.png'><br><font class='baseline'><strong>Papaya Payday</strong><p>Choose number of points to bet.</font><div class='respPicDiv'><img src='img/responseButtonOffersNo0L4.png' class='respPic'></div></div>","null","14","Papaya Payday","Fruit/papayas.png","Won","0.65,0.35","12","0.65","186","41","",""
"html-keyboard-response","132","292311","0.0-11.0-3.40","61650ba8e42101c561bf7335","bdp_rwlrn","Wed Mar 15 2023 22:17:47 GMT-0400 (Eastern Daylight Time)","520499","Trustworthy,Untrustworthy","","null","","","","feedback","","<div class='respPicDiv'><img src='img/responseButtonOffersNo0_wht.png' class='respPic'></div><div class='trialDiv'><img src='Fruit/papayas.png'><br><font class='baseline'><strong>Papaya Payday</strong><p><strong><font class='posOutcome'>You WON</font><p>You bet: 4</strong></font> &nbsp; &nbsp; &nbsp; &nbsp; &nbsp; &nbsp;<font class='posOutcome'>you receive: <strong>8</strong></font></div>","null","14","Papaya Payday","Fruit/papayas.png","Won","0.65,0.35","12","0.65","194","41","",""
"html-keyboard-response","133","292537","0.0-11.0-1.41","61650ba8e42101c561bf7335","bdp_rwlrn","Wed Mar 15 2023 22:17:47 GMT-0400 (Eastern Daylight Time)","520499","Trustworthy,Untrustworthy","","225","","","","decision","","<div class='trialDiv'><img src='Fruit/bananas.png'><br><font class='baseline'><strong>Banana Bonanza</strong><p>Choose number of points to bet.</font><div class='respPicDiv'><img src='img/responseButtonOffersNo0L.png' class='respPic'></div></div>","3","14","Banana Bonanza","Fruit/bananas.png","Lost","0.35,0.8","10","0.35","199","42","",""
"html-keyboard-response","134","292795","0.0-11.0-2.41","61650ba8e42101c561bf7335","bdp_rwlrn","Wed Mar 15 2023 22:17:47 GMT-0400 (Eastern Daylight Time)","520499","Trustworthy,Untrustworthy","","null","","","","decisionFB","","<div class='trialDiv'><img src='Fruit/bananas.png'><br><font class='baseline'><strong>Banana Bonanza</strong><p>Choose number of points to bet.</font><div class='respPicDiv'><img src='img/responseButtonOffersNo0L3.png' class='respPic'></div></div>","null","14","Banana Bonanza","Fruit/bananas.png","Lost","0.35,0.8","10","0.35","196","42","",""
"html-keyboard-response","135","293805","0.0-11.0-3.41","61650ba8e42101c561bf7335","bdp_rwlrn","Wed Mar 15 2023 22:17:47 GMT-0400 (Eastern Daylight Time)","520499","Trustworthy,Untrustworthy","","null","","","","feedback","","<div class='respPicDiv'><img src='img/responseButtonOffersNo0_wht.png' class='respPic'></div><div class='trialDiv'><img src='Fruit/bananas.png'><br><font class='baseline'><strong>Banana Bonanza</strong><p><strong><font class='negOutcome'>You LOST</font><p>You bet: 3</strong></font> &nbsp; &nbsp; &nbsp; &nbsp; &nbsp; &nbsp;<font class='negOutcome'>You receive: <strong>0</strong></font></div>","null","14","Banana Bonanza","Fruit/bananas.png","Lost","0.35,0.8","10","0.35","196","42","",""
"html-keyboard-response","136","294178","0.0-11.0-1.42","61650ba8e42101c561bf7335","bdp_rwlrn","Wed Mar 15 2023 22:17:47 GMT-0400 (Eastern Daylight Time)","520499","Trustworthy,Untrustworthy","","371","","","","decision","","<div class='trialDiv'><img src='Fruit/pears.png'><br><font class='baseline'><strong>Pears Aplenty</strong><p>Choose number of points to bet.</font><div class='respPicDiv'><img src='img/responseButtonOffersNo0L.png' class='respPic'></div></div>","2","15","Pears Aplenty","Fruit/pears.png","Lost","0.65,0.2","10","0.65","201","43","",""
"html-keyboard-response","137","294443","0.0-11.0-2.42","61650ba8e42101c561bf7335","bdp_rwlrn","Wed Mar 15 2023 22:17:47 GMT-0400 (Eastern Daylight Time)","520499","Trustworthy,Untrustworthy","","null","","","","decisionFB","","<div class='trialDiv'><img src='Fruit/pears.png'><br><font class='baseline'><strong>Pears Aplenty</strong><p>Choose number of points to bet.</font><div class='respPicDiv'><img src='img/responseButtonOffersNo0L2.png' class='respPic'></div></div>","null","15","Pears Aplenty","Fruit/pears.png","Lost","0.65,0.2","10","0.65","199","43","",""
"html-keyboard-response","138","295444","0.0-11.0-3.42","61650ba8e42101c561bf7335","bdp_rwlrn","Wed Mar 15 2023 22:17:47 GMT-0400 (Eastern Daylight Time)","520499","Trustworthy,Untrustworthy","","null","","","","feedback","","<div class='respPicDiv'><img src='img/responseButtonOffersNo0_wht.png' class='respPic'></div><div class='trialDiv'><img src='Fruit/pears.png'><br><font class='baseline'><strong>Pears Aplenty</strong><p><strong><font class='negOutcome'>You LOST</font><p>You bet: 2</strong></font> &nbsp; &nbsp; &nbsp; &nbsp; &nbsp; &nbsp;<font class='negOutcome'>You receive: <strong>0</strong></font></div>","null","15","Pears Aplenty","Fruit/pears.png","Lost","0.65,0.2","10","0.65","199","43","",""
"html-keyboard-response","139","296777","0.0-11.0-1.43","61650ba8e42101c561bf7335","bdp_rwlrn","Wed Mar 15 2023 22:17:47 GMT-0400 (Eastern Daylight Time)","520499","Trustworthy,Untrustworthy","","1330","","","","decision","","<div class='trialDiv'><img src='Fruit/bananas.png'><br><font class='baseline'><strong>Banana Bonanza</strong><p>Choose number of points to bet.</font><div class='respPicDiv'><img src='img/responseButtonOffersNo0L.png' class='respPic'></div></div>","4","15","Banana Bonanza","Fruit/bananas.png","Won","0.35,0.8","10","0.35","204","44","",""
"html-keyboard-response","140","297042","0.0-11.0-2.43","61650ba8e42101c561bf7335","bdp_rwlrn","Wed Mar 15 2023 22:17:47 GMT-0400 (Eastern Daylight Time)","520499","Trustworthy,Untrustworthy","","null","","","","decisionFB","","<div class='trialDiv'><img src='Fruit/bananas.png'><br><font class='baseline'><strong>Banana Bonanza</strong><p>Choose number of points to bet.</font><div class='respPicDiv'><img src='img/responseButtonOffersNo0L4.png' class='respPic'></div></div>","null","15","Banana Bonanza","Fruit/bananas.png","Won","0.35,0.8","10","0.35","200","44","",""
"html-keyboard-response","141","298055","0.0-11.0-3.43","61650ba8e42101c561bf7335","bdp_rwlrn","Wed Mar 15 2023 22:17:47 GMT-0400 (Eastern Daylight Time)","520499","Trustworthy,Untrustworthy","","null","","","","feedback","","<div class='respPicDiv'><img src='img/responseButtonOffersNo0_wht.png' class='respPic'></div><div class='trialDiv'><img src='Fruit/bananas.png'><br><font class='baseline'><strong>Banana Bonanza</strong><p><strong><font class='posOutcome'>You WON</font><p>You bet: 4</strong></font> &nbsp; &nbsp; &nbsp; &nbsp; &nbsp; &nbsp;<font class='posOutcome'>you receive: <strong>8</strong></font></div>","null","15","Banana Bonanza","Fruit/bananas.png","Won","0.35,0.8","10","0.35","208","44","",""
"html-keyboard-response","142","298967","0.0-11.0-1.44","61650ba8e42101c561bf7335","bdp_rwlrn","Wed Mar 15 2023 22:17:47 GMT-0400 (Eastern Daylight Time)","520499","Trustworthy,Untrustworthy","","910","","","","decision","","<div class='trialDiv'><img src='Fruit/papayas.png'><br><font class='baseline'><strong>Papaya Payday</strong><p>Choose number of points to bet.</font><div class='respPicDiv'><img src='img/responseButtonOffersNo0L.png' class='respPic'></div></div>","5","15","Papaya Payday","Fruit/papayas.png","Lost","0.65,0.35","12","0.65","213","45","",""
"html-keyboard-response","143","299224","0.0-11.0-2.44","61650ba8e42101c561bf7335","bdp_rwlrn","Wed Mar 15 2023 22:17:47 GMT-0400 (Eastern Daylight Time)","520499","Trustworthy,Untrustworthy","","null","","","","decisionFB","","<div class='trialDiv'><img src='Fruit/papayas.png'><br><font class='baseline'><strong>Papaya Payday</strong><p>Choose number of points to bet.</font><div class='respPicDiv'><img src='img/responseButtonOffersNo0L5.png' class='respPic'></div></div>","null","15","Papaya Payday","Fruit/papayas.png","Lost","0.65,0.35","12","0.65","208","45","",""
"html-keyboard-response","144","300239","0.0-11.0-3.44","61650ba8e42101c561bf7335","bdp_rwlrn","Wed Mar 15 2023 22:17:47 GMT-0400 (Eastern Daylight Time)","520499","Trustworthy,Untrustworthy","","null","","","","feedback","","<div class='respPicDiv'><img src='img/responseButtonOffersNo0_wht.png' class='respPic'></div><div class='trialDiv'><img src='Fruit/papayas.png'><br><font class='baseline'><strong>Papaya Payday</strong><p><strong><font class='negOutcome'>You LOST</font><p>You bet: 5</strong></font> &nbsp; &nbsp; &nbsp; &nbsp; &nbsp; &nbsp;<font class='negOutcome'>You receive: <strong>0</strong></font></div>","null","15","Papaya Payday","Fruit/papayas.png","Lost","0.65,0.35","12","0.65","208","45","",""
"html-keyboard-response","145","300851","0.0-11.0-1.45","61650ba8e42101c561bf7335","bdp_rwlrn","Wed Mar 15 2023 22:17:47 GMT-0400 (Eastern Daylight Time)","520499","Trustworthy,Untrustworthy","","609","","","","decision","","<div class='trialDiv'><img src='Fruit/pears.png'><br><font class='baseline'><strong>Pears Aplenty</strong><p>Choose number of points to bet.</font><div class='respPicDiv'><img src='img/responseButtonOffersNo0L.png' class='respPic'></div></div>","5","16","Pears Aplenty","Fruit/pears.png","Lost","0.65,0.2","10","0.65","213","46","",""
"html-keyboard-response","146","301107","0.0-11.0-2.45","61650ba8e42101c561bf7335","bdp_rwlrn","Wed Mar 15 2023 22:17:47 GMT-0400 (Eastern Daylight Time)","520499","Trustworthy,Untrustworthy","","null","","","","decisionFB","","<div class='trialDiv'><img src='Fruit/pears.png'><br><font class='baseline'><strong>Pears Aplenty</strong><p>Choose number of points to bet.</font><div class='respPicDiv'><img src='img/responseButtonOffersNo0L5.png' class='respPic'></div></div>","null","16","Pears Aplenty","Fruit/pears.png","Lost","0.65,0.2","10","0.65","208","46","",""
"html-keyboard-response","147","302123","0.0-11.0-3.45","61650ba8e42101c561bf7335","bdp_rwlrn","Wed Mar 15 2023 22:17:47 GMT-0400 (Eastern Daylight Time)","520499","Trustworthy,Untrustworthy","","null","","","","feedback","","<div class='respPicDiv'><img src='img/responseButtonOffersNo0_wht.png' class='respPic'></div><div class='trialDiv'><img src='Fruit/pears.png'><br><font class='baseline'><strong>Pears Aplenty</strong><p><strong><font class='negOutcome'>You LOST</font><p>You bet: 5</strong></font> &nbsp; &nbsp; &nbsp; &nbsp; &nbsp; &nbsp;<font class='negOutcome'>You receive: <strong>0</strong></font></div>","null","16","Pears Aplenty","Fruit/pears.png","Lost","0.65,0.2","10","0.65","208","46","",""
"html-keyboard-response","148","303450","0.0-11.0-1.46","61650ba8e42101c561bf7335","bdp_rwlrn","Wed Mar 15 2023 22:17:47 GMT-0400 (Eastern Daylight Time)","520499","Trustworthy,Untrustworthy","","1324","","","","decision","","<div class='trialDiv'><img src='Fruit/bananas.png'><br><font class='baseline'><strong>Banana Bonanza</strong><p>Choose number of points to bet.</font><div class='respPicDiv'><img src='img/responseButtonOffersNo0L.png' class='respPic'></div></div>","4","16","Banana Bonanza","Fruit/bananas.png","Lost","0.35,0.8","10","0.35","213","47","",""
"html-keyboard-response","149","303703","0.0-11.0-2.46","61650ba8e42101c561bf7335","bdp_rwlrn","Wed Mar 15 2023 22:17:47 GMT-0400 (Eastern Daylight Time)","520499","Trustworthy,Untrustworthy","","null","","","","decisionFB","","<div class='trialDiv'><img src='Fruit/bananas.png'><br><font class='baseline'><strong>Banana Bonanza</strong><p>Choose number of points to bet.</font><div class='respPicDiv'><img src='img/responseButtonOffersNo0L4.png' class='respPic'></div></div>","null","16","Banana Bonanza","Fruit/bananas.png","Lost","0.35,0.8","10","0.35","209","47","",""
"html-keyboard-response","150","304715","0.0-11.0-3.46","61650ba8e42101c561bf7335","bdp_rwlrn","Wed Mar 15 2023 22:17:47 GMT-0400 (Eastern Daylight Time)","520499","Trustworthy,Untrustworthy","","null","","","","feedback","","<div class='respPicDiv'><img src='img/responseButtonOffersNo0_wht.png' class='respPic'></div><div class='trialDiv'><img src='Fruit/bananas.png'><br><font class='baseline'><strong>Banana Bonanza</strong><p><strong><font class='negOutcome'>You LOST</font><p>You bet: 4</strong></font> &nbsp; &nbsp; &nbsp; &nbsp; &nbsp; &nbsp;<font class='negOutcome'>You receive: <strong>0</strong></font></div>","null","16","Banana Bonanza","Fruit/bananas.png","Lost","0.35,0.8","10","0.35","209","47","",""
"html-keyboard-response","151","305551","0.0-11.0-1.47","61650ba8e42101c561bf7335","bdp_rwlrn","Wed Mar 15 2023 22:17:47 GMT-0400 (Eastern Daylight Time)","520499","Trustworthy,Untrustworthy","","835","","","","decision","","<div class='trialDiv'><img src='Fruit/papayas.png'><br><font class='baseline'><strong>Papaya Payday</strong><p>Choose number of points to bet.</font><div class='respPicDiv'><img src='img/responseButtonOffersNo0L.png' class='respPic'></div></div>","4","16","Papaya Payday","Fruit/papayas.png","Lost","0.65,0.35","12","0.65","214","48","",""
"html-keyboard-response","152","305806","0.0-11.0-2.47","61650ba8e42101c561bf7335","bdp_rwlrn","Wed Mar 15 2023 22:17:47 GMT-0400 (Eastern Daylight Time)","520499","Trustworthy,Untrustworthy","","null","","","","decisionFB","","<div class='trialDiv'><img src='Fruit/papayas.png'><br><font class='baseline'><strong>Papaya Payday</strong><p>Choose number of points to bet.</font><div class='respPicDiv'><img src='img/responseButtonOffersNo0L4.png' class='respPic'></div></div>","null","16","Papaya Payday","Fruit/papayas.png","Lost","0.65,0.35","12","0.65","210","48","",""
"html-keyboard-response","153","306823","0.0-11.0-3.47","61650ba8e42101c561bf7335","bdp_rwlrn","Wed Mar 15 2023 22:17:47 GMT-0400 (Eastern Daylight Time)","520499","Trustworthy,Untrustworthy","","null","","","","feedback","","<div class='respPicDiv'><img src='img/responseButtonOffersNo0_wht.png' class='respPic'></div><div class='trialDiv'><img src='Fruit/papayas.png'><br><font class='baseline'><strong>Papaya Payday</strong><p><strong><font class='negOutcome'>You LOST</font><p>You bet: 4</strong></font> &nbsp; &nbsp; &nbsp; &nbsp; &nbsp; &nbsp;<font class='negOutcome'>You receive: <strong>0</strong></font></div>","null","16","Papaya Payday","Fruit/papayas.png","Lost","0.65,0.35","12","0.65","210","48","",""
"html-keyboard-response","154","307235","0.0-11.0-1.48","61650ba8e42101c561bf7335","bdp_rwlrn","Wed Mar 15 2023 22:17:47 GMT-0400 (Eastern Daylight Time)","520499","Trustworthy,Untrustworthy","","410","","","","decision","","<div class='trialDiv'><img src='Fruit/pears.png'><br><font class='baseline'><strong>Pears Aplenty</strong><p>Choose number of points to bet.</font><div class='respPicDiv'><img src='img/responseButtonOffersNo0L.png' class='respPic'></div></div>","4","17","Pears Aplenty","Fruit/pears.png","Lost","0.65,0.2","10","0.65","215","49","",""
"html-keyboard-response","155","307493","0.0-11.0-2.48","61650ba8e42101c561bf7335","bdp_rwlrn","Wed Mar 15 2023 22:17:47 GMT-0400 (Eastern Daylight Time)","520499","Trustworthy,Untrustworthy","","null","","","","decisionFB","","<div class='trialDiv'><img src='Fruit/pears.png'><br><font class='baseline'><strong>Pears Aplenty</strong><p>Choose number of points to bet.</font><div class='respPicDiv'><img src='img/responseButtonOffersNo0L4.png' class='respPic'></div></div>","null","17","Pears Aplenty","Fruit/pears.png","Lost","0.65,0.2","10","0.65","211","49","",""
"html-keyboard-response","156","308504","0.0-11.0-3.48","61650ba8e42101c561bf7335","bdp_rwlrn","Wed Mar 15 2023 22:17:47 GMT-0400 (Eastern Daylight Time)","520499","Trustworthy,Untrustworthy","","null","","","","feedback","","<div class='respPicDiv'><img src='img/responseButtonOffersNo0_wht.png' class='respPic'></div><div class='trialDiv'><img src='Fruit/pears.png'><br><font class='baseline'><strong>Pears Aplenty</strong><p><strong><font class='negOutcome'>You LOST</font><p>You bet: 4</strong></font> &nbsp; &nbsp; &nbsp; &nbsp; &nbsp; &nbsp;<font class='negOutcome'>You receive: <strong>0</strong></font></div>","null","17","Pears Aplenty","Fruit/pears.png","Lost","0.65,0.2","10","0.65","211","49","",""
"html-keyboard-response","157","308838","0.0-11.0-1.49","61650ba8e42101c561bf7335","bdp_rwlrn","Wed Mar 15 2023 22:17:47 GMT-0400 (Eastern Daylight Time)","520499","Trustworthy,Untrustworthy","","332","","","","decision","","<div class='trialDiv'><img src='Fruit/bananas.png'><br><font class='baseline'><strong>Banana Bonanza</strong><p>Choose number of points to bet.</font><div class='respPicDiv'><img src='img/responseButtonOffersNo0L.png' class='respPic'></div></div>","2","17","Banana Bonanza","Fruit/bananas.png","Won","0.35,0.8","10","0.35","216","50","",""
"html-keyboard-response","158","309095","0.0-11.0-2.49","61650ba8e42101c561bf7335","bdp_rwlrn","Wed Mar 15 2023 22:17:47 GMT-0400 (Eastern Daylight Time)","520499","Trustworthy,Untrustworthy","","null","","","","decisionFB","","<div class='trialDiv'><img src='Fruit/bananas.png'><br><font class='baseline'><strong>Banana Bonanza</strong><p>Choose number of points to bet.</font><div class='respPicDiv'><img src='img/responseButtonOffersNo0L2.png' class='respPic'></div></div>","null","17","Banana Bonanza","Fruit/bananas.png","Won","0.35,0.8","10","0.35","214","50","",""
"html-keyboard-response","159","310108","0.0-11.0-3.49","61650ba8e42101c561bf7335","bdp_rwlrn","Wed Mar 15 2023 22:17:47 GMT-0400 (Eastern Daylight Time)","520499","Trustworthy,Untrustworthy","","null","","","","feedback","","<div class='respPicDiv'><img src='img/responseButtonOffersNo0_wht.png' class='respPic'></div><div class='trialDiv'><img src='Fruit/bananas.png'><br><font class='baseline'><strong>Banana Bonanza</strong><p><strong><font class='posOutcome'>You WON</font><p>You bet: 2</strong></font> &nbsp; &nbsp; &nbsp; &nbsp; &nbsp; &nbsp;<font class='posOutcome'>you receive: <strong>4</strong></font></div>","null","17","Banana Bonanza","Fruit/bananas.png","Won","0.35,0.8","10","0.35","218","50","",""
"html-keyboard-response","160","310372","0.0-11.0-1.50","61650ba8e42101c561bf7335","bdp_rwlrn","Wed Mar 15 2023 22:17:47 GMT-0400 (Eastern Daylight Time)","520499","Trustworthy,Untrustworthy","","262","","","","decision","","<div class='trialDiv'><img src='Fruit/papayas.png'><br><font class='baseline'><strong>Papaya Payday</strong><p>Choose number of points to bet.</font><div class='respPicDiv'><img src='img/responseButtonOffersNo0L.png' class='respPic'></div></div>","3","17","Papaya Payday","Fruit/papayas.png","Won","0.65,0.35","12","0.65","223","51","",""
"html-keyboard-response","161","310637","0.0-11.0-2.50","61650ba8e42101c561bf7335","bdp_rwlrn","Wed Mar 15 2023 22:17:47 GMT-0400 (Eastern Daylight Time)","520499","Trustworthy,Untrustworthy","","null","","","","decisionFB","","<div class='trialDiv'><img src='Fruit/papayas.png'><br><font class='baseline'><strong>Papaya Payday</strong><p>Choose number of points to bet.</font><div class='respPicDiv'><img src='img/responseButtonOffersNo0L3.png' class='respPic'></div></div>","null","17","Papaya Payday","Fruit/papayas.png","Won","0.65,0.35","12","0.65","220","51","",""
"html-keyboard-response","162","311650","0.0-11.0-3.50","61650ba8e42101c561bf7335","bdp_rwlrn","Wed Mar 15 2023 22:17:47 GMT-0400 (Eastern Daylight Time)","520499","Trustworthy,Untrustworthy","","null","","","","feedback","","<div class='respPicDiv'><img src='img/responseButtonOffersNo0_wht.png' class='respPic'></div><div class='trialDiv'><img src='Fruit/papayas.png'><br><font class='baseline'><strong>Papaya Payday</strong><p><strong><font class='posOutcome'>You WON</font><p>You bet: 3</strong></font> &nbsp; &nbsp; &nbsp; &nbsp; &nbsp; &nbsp;<font class='posOutcome'>you receive: <strong>6</strong></font></div>","null","17","Papaya Payday","Fruit/papayas.png","Won","0.65,0.35","12","0.65","226","51","",""
