"trial_type","trial_index","time_elapsed","internal_node_id","subject_id","task","startTime","totalTime","labels","view_history","rt","event","trial","time","trialtype","success","stimulus","key_press","ltround","name","fileID","outcome","lottotype","lottoswpt","lottocurrpshare","point_total","round","faceID","face"
"pavlovia","0","5","0.0-0.0","5fe354a2e44df4fb4634bbc3","bdp_rwlrn","Sun Mar 12 2023 23:49:05 GMT-0400 (Eastern Daylight Time)","397853","Untrustworthy,Trustworthy","","","","","","","","","","","","","","","","","","","",""
"instructions","1","3208","0.0-1.0","5fe354a2e44df4fb4634bbc3","bdp_rwlrn","Sun Mar 12 2023 23:49:05 GMT-0400 (Eastern Daylight Time)","397853","Untrustworthy,Trustworthy","[{""page_index"":0,""viewing_time"":3203}]","3203","","","","","","","","","","","","","","","","","",""
"","","","","5fe354a2e44df4fb4634bbc3","bdp_rwlrn","Sun Mar 12 2023 23:49:05 GMT-0400 (Eastern Daylight Time)","397853","Untrustworthy,Trustworthy","","","fullscreenenter","2","5882","fullscreenenter","","","","","","","","","","","","","",""
"fullscreen","2","6879","0.0-2.0","5fe354a2e44df4fb4634bbc3","bdp_rwlrn","Sun Mar 12 2023 23:49:05 GMT-0400 (Eastern Daylight Time)","397853","Untrustworthy,Trustworthy","","","","","","","true","","","","","","","","","","","","",""
"instructions","3","57534","0.0-4.0","5fe354a2e44df4fb4634bbc3","bdp_rwlrn","Sun Mar 12 2023 23:49:05 GMT-0400 (Eastern Daylight Time)","397853","Untrustworthy,Trustworthy","[{""page_index"":0,""viewing_time"":7314},{""page_index"":1,""viewing_time"":16186},{""page_index"":2,""viewing_time"":7627},{""page_index"":3,""viewing_time"":7269},{""page_index"":4,""viewing_time"":10439},{""page_index"":5,""viewing_time"":1816}]","50651","","","","","","","","","","","","","","","","","",""
"html-keyboard-response","4","60140","0.0-5.0","5fe354a2e44df4fb4634bbc3","bdp_rwlrn","Sun Mar 12 2023 23:49:05 GMT-0400 (Eastern Daylight Time)","397853","Untrustworthy,Trustworthy","","2602","","","","","","<div class='header' style='text-align:left; position: absolute; top: 5%; left: 5%;'><small>Task 3 of 5</small></div><div class='instruxDiv'><p><strong>1) What is the maximum number of points you can choose to bet on a lottery?</strong></p><p>a) 0</p><p>b) 1</p><p>c) 5</p>","C","","","","","","","","","","",""
"html-keyboard-response","5","61450","0.0-6.0","5fe354a2e44df4fb4634bbc3","bdp_rwlrn","Sun Mar 12 2023 23:49:05 GMT-0400 (Eastern Daylight Time)","397853","Untrustworthy,Trustworthy","","1200","","","","","","<div class='header' style='text-align:left; position: absolute; top: 5%; left: 5%;'><small>Task 3 of 5</small></div><div class='instruxDiv'><p><strong>1) What is the maximum number of points you can choose to bet on a lottery?</strong></p><p>a) 1</p><p>b) 1</p><p style='color:#00FF00'>c) 5</p><h3 style='color:#00FF00'>Correct!</h3><h3 class='center-content'>The correct response is c).</h3><h3 class='center-content'>The maximum number of points you can choose to bet on a lottery is 5 points.</h3><p><em>Press SPACEBAR to continue</em></p></div>"," ","","","","","","","","","","",""
"html-keyboard-response","6","64178","0.0-7.0","5fe354a2e44df4fb4634bbc3","bdp_rwlrn","Sun Mar 12 2023 23:49:05 GMT-0400 (Eastern Daylight Time)","397853","Untrustworthy,Trustworthy","","2620","","","","","","<div class='header' style='text-align:left; position: absolute; top: 5%; left: 5%;'><small>Task 3 of 5</small></div><div class='instruxDiv'><p><strong>2) How many points can you win each round?</strong></p><p>a) 10 points</p><p>b) Double what you bet</p><p>c) Quadruple what you bet</p>","B","","","","","","","","","","",""
"html-keyboard-response","7","65018","0.0-8.0","5fe354a2e44df4fb4634bbc3","bdp_rwlrn","Sun Mar 12 2023 23:49:05 GMT-0400 (Eastern Daylight Time)","397853","Untrustworthy,Trustworthy","","732","","","","","","<div class='header' style='text-align:left; position: absolute; top: 5%; left: 5%;'><small>Task 3 of 5</small></div><div class='instruxDiv'><p><strong>2) How many points can you win each round?</strong></p><p>a) 10 points</p><p style='color:#00FF00'>b) Double what you bet</p><p>c) Quadruple what you bet</p><h3 style='color:#00FF00'>Correct!</h3><h3 class='center-content'>The correct response is b).</h3><h3 class='center-content'>You can win double the amount of points you bet.</h3><p><em>Press SPACEBAR to continue</em></p></div>"," ","","","","","","","","","","",""
"html-keyboard-response","8","70136","0.0-9.0","5fe354a2e44df4fb4634bbc3","bdp_rwlrn","Sun Mar 12 2023 23:49:05 GMT-0400 (Eastern Daylight Time)","397853","Untrustworthy,Trustworthy","","null","","","","","","<div class='header' style='text-align:left; position: absolute; top: 5%; left: 5%;'><small>Task 3 of 5</small></div><div class='instruxDiv'><p>Thank you for completing the quiz<p>These are the actual lotteries you will be playing in the next block:<p><div class='tc' align='center'><img class='introPic' src='Fruit/mango.png'><br><strong>Mega Mangos</strong></div><div class='bl' align='center'><img class='introPic' src='Fruit/watermelon.png'><br><strong>Watermelon Win$</strong></div><div class='br' align='center'><img class='introPic' src='Fruit/lemon.png'><br><strong>Lucky Lemons</strong></div></div><p>Across <strong>66 rounds</strong> you will play each lottery <strong>22 times</strong> (in random order).<p style='align:center; color:white'><font <em>Press SPACEBAR to continue</em></p>","null","","","","","","","","","","",""
"instructions","9","82146","0.0-10.0","5fe354a2e44df4fb4634bbc3","bdp_rwlrn","Sun Mar 12 2023 23:49:05 GMT-0400 (Eastern Daylight Time)","397853","Untrustworthy,Trustworthy","[{""page_index"":0,""viewing_time"":9823},{""page_index"":1,""viewing_time"":2186}]","12009","","","","","","","","","","","","","","","","","",""
"html-keyboard-response","10","87267","0.0-11.0-1.0","5fe354a2e44df4fb4634bbc3","bdp_rwlrn","Sun Mar 12 2023 23:49:05 GMT-0400 (Eastern Daylight Time)","397853","Untrustworthy,Trustworthy","","5011","","","","decision","","<div class='trialDiv'><img src='Fruit/watermelon.png'><br><font class='baseline'><strong>Watermelon Win$</strong><p>Choose number of points to bet.</font><div class='respPicDiv'><img src='img/responseButtonOffersNo0L.png' class='respPic'></div></div>","1","1","Watermelon Win$","Fruit/watermelon.png","Lost","0.2,0.65","14","0.2","5","1","",""
"html-keyboard-response","11","87527","0.0-11.0-2.0","5fe354a2e44df4fb4634bbc3","bdp_rwlrn","Sun Mar 12 2023 23:49:05 GMT-0400 (Eastern Daylight Time)","397853","Untrustworthy,Trustworthy","","null","","","","decisionFB","","<div class='trialDiv'><img src='Fruit/watermelon.png'><br><font class='baseline'><strong>Watermelon Win$</strong><p>Choose number of points to bet.</font><div class='respPicDiv'><img src='img/responseButtonOffersNo0L1.png' class='respPic'></div></div>","null","1","Watermelon Win$","Fruit/watermelon.png","Lost","0.2,0.65","14","0.2","4","1","",""
"html-keyboard-response","12","88535","0.0-11.0-3.0","5fe354a2e44df4fb4634bbc3","bdp_rwlrn","Sun Mar 12 2023 23:49:05 GMT-0400 (Eastern Daylight Time)","397853","Untrustworthy,Trustworthy","","null","","","","feedback","","<div class='respPicDiv'><img src='img/responseButtonOffersNo0_wht.png' class='respPic'></div><div class='trialDiv'><img src='Fruit/watermelon.png'><br><font class='baseline'><strong>Watermelon Win$</strong><p><strong><font class='negOutcome'>You LOST</font><p>You bet: 1</strong></font> &nbsp; &nbsp; &nbsp; &nbsp; &nbsp; &nbsp;<font class='negOutcome'>You receive: <strong>0</strong></font></div>","null","1","Watermelon Win$","Fruit/watermelon.png","Lost","0.2,0.65","14","0.2","4","1","",""
"html-keyboard-response","13","90433","0.0-11.0-1.1","5fe354a2e44df4fb4634bbc3","bdp_rwlrn","Sun Mar 12 2023 23:49:05 GMT-0400 (Eastern Daylight Time)","397853","Untrustworthy,Trustworthy","","1895","","","","decision","","<div class='trialDiv'><img src='Fruit/mango.png'><br><font class='baseline'><strong>Mega Mangos</strong><p>Choose number of points to bet.</font><div class='respPicDiv'><img src='img/responseButtonOffersNo0L.png' class='respPic'></div></div>","1","1","Mega Mangos","Fruit/mango.png","Won","0.8,0.35","13","0.8","9","2","",""
"html-keyboard-response","14","90695","0.0-11.0-2.1","5fe354a2e44df4fb4634bbc3","bdp_rwlrn","Sun Mar 12 2023 23:49:05 GMT-0400 (Eastern Daylight Time)","397853","Untrustworthy,Trustworthy","","null","","","","decisionFB","","<div class='trialDiv'><img src='Fruit/mango.png'><br><font class='baseline'><strong>Mega Mangos</strong><p>Choose number of points to bet.</font><div class='respPicDiv'><img src='img/responseButtonOffersNo0L1.png' class='respPic'></div></div>","null","1","Mega Mangos","Fruit/mango.png","Won","0.8,0.35","13","0.8","8","2","",""
"html-keyboard-response","15","91703","0.0-11.0-3.1","5fe354a2e44df4fb4634bbc3","bdp_rwlrn","Sun Mar 12 2023 23:49:05 GMT-0400 (Eastern Daylight Time)","397853","Untrustworthy,Trustworthy","","null","","","","feedback","","<div class='respPicDiv'><img src='img/responseButtonOffersNo0_wht.png' class='respPic'></div><div class='trialDiv'><img src='Fruit/mango.png'><br><font class='baseline'><strong>Mega Mangos</strong><p><strong><font class='posOutcome'>You WON</font><p>You bet: 1</strong></font> &nbsp; &nbsp; &nbsp; &nbsp; &nbsp; &nbsp;<font class='posOutcome'>you receive: <strong>2</strong></font></div>","null","1","Mega Mangos","Fruit/mango.png","Won","0.8,0.35","13","0.8","10","2","",""
"html-keyboard-response","16","95190","0.0-11.0-1.2","5fe354a2e44df4fb4634bbc3","bdp_rwlrn","Sun Mar 12 2023 23:49:05 GMT-0400 (Eastern Daylight Time)","397853","Untrustworthy,Trustworthy","","3486","","","","decision","","<div class='trialDiv'><img src='Fruit/lemon.png'><br><font class='baseline'><strong>Lucky Lemons</strong><p>Choose number of points to bet.</font><div class='respPicDiv'><img src='img/responseButtonOffersNo0L.png' class='respPic'></div></div>","1","1","Lucky Lemons","Fruit/lemon.png","Won","0.35,0.65","11","0.35","15","3","",""
"html-keyboard-response","17","95452","0.0-11.0-2.2","5fe354a2e44df4fb4634bbc3","bdp_rwlrn","Sun Mar 12 2023 23:49:05 GMT-0400 (Eastern Daylight Time)","397853","Untrustworthy,Trustworthy","","null","","","","decisionFB","","<div class='trialDiv'><img src='Fruit/lemon.png'><br><font class='baseline'><strong>Lucky Lemons</strong><p>Choose number of points to bet.</font><div class='respPicDiv'><img src='img/responseButtonOffersNo0L1.png' class='respPic'></div></div>","null","1","Lucky Lemons","Fruit/lemon.png","Won","0.35,0.65","11","0.35","14","3","",""
"html-keyboard-response","18","96460","0.0-11.0-3.2","5fe354a2e44df4fb4634bbc3","bdp_rwlrn","Sun Mar 12 2023 23:49:05 GMT-0400 (Eastern Daylight Time)","397853","Untrustworthy,Trustworthy","","null","","","","feedback","","<div class='respPicDiv'><img src='img/responseButtonOffersNo0_wht.png' class='respPic'></div><div class='trialDiv'><img src='Fruit/lemon.png'><br><font class='baseline'><strong>Lucky Lemons</strong><p><strong><font class='posOutcome'>You WON</font><p>You bet: 1</strong></font> &nbsp; &nbsp; &nbsp; &nbsp; &nbsp; &nbsp;<font class='posOutcome'>you receive: <strong>2</strong></font></div>","null","1","Lucky Lemons","Fruit/lemon.png","Won","0.35,0.65","11","0.35","16","3","",""
"html-keyboard-response","19","98445","0.0-11.0-1.3","5fe354a2e44df4fb4634bbc3","bdp_rwlrn","Sun Mar 12 2023 23:49:05 GMT-0400 (Eastern Daylight Time)","397853","Untrustworthy,Trustworthy","","1984","","","","decision","","<div class='trialDiv'><img src='Fruit/watermelon.png'><br><font class='baseline'><strong>Watermelon Win$</strong><p>Choose number of points to bet.</font><div class='respPicDiv'><img src='img/responseButtonOffersNo0L.png' class='respPic'></div></div>","1","2","Watermelon Win$","Fruit/watermelon.png","Won","0.2,0.65","14","0.2","21","4","",""
"html-keyboard-response","20","98700","0.0-11.0-2.3","5fe354a2e44df4fb4634bbc3","bdp_rwlrn","Sun Mar 12 2023 23:49:05 GMT-0400 (Eastern Daylight Time)","397853","Untrustworthy,Trustworthy","","null","","","","decisionFB","","<div class='trialDiv'><img src='Fruit/watermelon.png'><br><font class='baseline'><strong>Watermelon Win$</strong><p>Choose number of points to bet.</font><div class='respPicDiv'><img src='img/responseButtonOffersNo0L1.png' class='respPic'></div></div>","null","2","Watermelon Win$","Fruit/watermelon.png","Won","0.2,0.65","14","0.2","20","4","",""
"html-keyboard-response","21","99708","0.0-11.0-3.3","5fe354a2e44df4fb4634bbc3","bdp_rwlrn","Sun Mar 12 2023 23:49:05 GMT-0400 (Eastern Daylight Time)","397853","Untrustworthy,Trustworthy","","null","","","","feedback","","<div class='respPicDiv'><img src='img/responseButtonOffersNo0_wht.png' class='respPic'></div><div class='trialDiv'><img src='Fruit/watermelon.png'><br><font class='baseline'><strong>Watermelon Win$</strong><p><strong><font class='posOutcome'>You WON</font><p>You bet: 1</strong></font> &nbsp; &nbsp; &nbsp; &nbsp; &nbsp; &nbsp;<font class='posOutcome'>you receive: <strong>2</strong></font></div>","null","2","Watermelon Win$","Fruit/watermelon.png","Won","0.2,0.65","14","0.2","22","4","",""
"html-keyboard-response","22","102004","0.0-11.0-1.4","5fe354a2e44df4fb4634bbc3","bdp_rwlrn","Sun Mar 12 2023 23:49:05 GMT-0400 (Eastern Daylight Time)","397853","Untrustworthy,Trustworthy","","2294","","","","decision","","<div class='trialDiv'><img src='Fruit/lemon.png'><br><font class='baseline'><strong>Lucky Lemons</strong><p>Choose number of points to bet.</font><div class='respPicDiv'><img src='img/responseButtonOffersNo0L.png' class='respPic'></div></div>","3","2","Lucky Lemons","Fruit/lemon.png","Lost","0.35,0.65","11","0.35","27","5","",""
"html-keyboard-response","23","102262","0.0-11.0-2.4","5fe354a2e44df4fb4634bbc3","bdp_rwlrn","Sun Mar 12 2023 23:49:05 GMT-0400 (Eastern Daylight Time)","397853","Untrustworthy,Trustworthy","","null","","","","decisionFB","","<div class='trialDiv'><img src='Fruit/lemon.png'><br><font class='baseline'><strong>Lucky Lemons</strong><p>Choose number of points to bet.</font><div class='respPicDiv'><img src='img/responseButtonOffersNo0L3.png' class='respPic'></div></div>","null","2","Lucky Lemons","Fruit/lemon.png","Lost","0.35,0.65","11","0.35","24","5","",""
"html-keyboard-response","24","103270","0.0-11.0-3.4","5fe354a2e44df4fb4634bbc3","bdp_rwlrn","Sun Mar 12 2023 23:49:05 GMT-0400 (Eastern Daylight Time)","397853","Untrustworthy,Trustworthy","","null","","","","feedback","","<div class='respPicDiv'><img src='img/responseButtonOffersNo0_wht.png' class='respPic'></div><div class='trialDiv'><img src='Fruit/lemon.png'><br><font class='baseline'><strong>Lucky Lemons</strong><p><strong><font class='negOutcome'>You LOST</font><p>You bet: 3</strong></font> &nbsp; &nbsp; &nbsp; &nbsp; &nbsp; &nbsp;<font class='negOutcome'>You receive: <strong>0</strong></font></div>","null","2","Lucky Lemons","Fruit/lemon.png","Lost","0.35,0.65","11","0.35","24","5","",""
"html-keyboard-response","25","104684","0.0-11.0-1.5","5fe354a2e44df4fb4634bbc3","bdp_rwlrn","Sun Mar 12 2023 23:49:05 GMT-0400 (Eastern Daylight Time)","397853","Untrustworthy,Trustworthy","","1412","","","","decision","","<div class='trialDiv'><img src='Fruit/mango.png'><br><font class='baseline'><strong>Mega Mangos</strong><p>Choose number of points to bet.</font><div class='respPicDiv'><img src='img/responseButtonOffersNo0L.png' class='respPic'></div></div>","3","2","Mega Mangos","Fruit/mango.png","Lost","0.8,0.35","13","0.8","29","6","",""
"html-keyboard-response","26","104939","0.0-11.0-2.5","5fe354a2e44df4fb4634bbc3","bdp_rwlrn","Sun Mar 12 2023 23:49:05 GMT-0400 (Eastern Daylight Time)","397853","Untrustworthy,Trustworthy","","null","","","","decisionFB","","<div class='trialDiv'><img src='Fruit/mango.png'><br><font class='baseline'><strong>Mega Mangos</strong><p>Choose number of points to bet.</font><div class='respPicDiv'><img src='img/responseButtonOffersNo0L3.png' class='respPic'></div></div>","null","2","Mega Mangos","Fruit/mango.png","Lost","0.8,0.35","13","0.8","26","6","",""
"html-keyboard-response","27","105947","0.0-11.0-3.5","5fe354a2e44df4fb4634bbc3","bdp_rwlrn","Sun Mar 12 2023 23:49:05 GMT-0400 (Eastern Daylight Time)","397853","Untrustworthy,Trustworthy","","null","","","","feedback","","<div class='respPicDiv'><img src='img/responseButtonOffersNo0_wht.png' class='respPic'></div><div class='trialDiv'><img src='Fruit/mango.png'><br><font class='baseline'><strong>Mega Mangos</strong><p><strong><font class='negOutcome'>You LOST</font><p>You bet: 3</strong></font> &nbsp; &nbsp; &nbsp; &nbsp; &nbsp; &nbsp;<font class='negOutcome'>You receive: <strong>0</strong></font></div>","null","2","Mega Mangos","Fruit/mango.png","Lost","0.8,0.35","13","0.8","26","6","",""
"html-keyboard-response","28","107833","0.0-11.0-1.6","5fe354a2e44df4fb4634bbc3","bdp_rwlrn","Sun Mar 12 2023 23:49:05 GMT-0400 (Eastern Daylight Time)","397853","Untrustworthy,Trustworthy","","1883","","","","decision","","<div class='trialDiv'><img src='Fruit/lemon.png'><br><font class='baseline'><strong>Lucky Lemons</strong><p>Choose number of points to bet.</font><div class='respPicDiv'><img src='img/responseButtonOffersNo0L.png' class='respPic'></div></div>","1","3","Lucky Lemons","Fruit/lemon.png","Won","0.35,0.65","11","0.35","31","7","",""
"html-keyboard-response","29","108091","0.0-11.0-2.6","5fe354a2e44df4fb4634bbc3","bdp_rwlrn","Sun Mar 12 2023 23:49:05 GMT-0400 (Eastern Daylight Time)","397853","Untrustworthy,Trustworthy","","null","","","","decisionFB","","<div class='trialDiv'><img src='Fruit/lemon.png'><br><font class='baseline'><strong>Lucky Lemons</strong><p>Choose number of points to bet.</font><div class='respPicDiv'><img src='img/responseButtonOffersNo0L1.png' class='respPic'></div></div>","null","3","Lucky Lemons","Fruit/lemon.png","Won","0.35,0.65","11","0.35","30","7","",""
"html-keyboard-response","30","109099","0.0-11.0-3.6","5fe354a2e44df4fb4634bbc3","bdp_rwlrn","Sun Mar 12 2023 23:49:05 GMT-0400 (Eastern Daylight Time)","397853","Untrustworthy,Trustworthy","","null","","","","feedback","","<div class='respPicDiv'><img src='img/responseButtonOffersNo0_wht.png' class='respPic'></div><div class='trialDiv'><img src='Fruit/lemon.png'><br><font class='baseline'><strong>Lucky Lemons</strong><p><strong><font class='posOutcome'>You WON</font><p>You bet: 1</strong></font> &nbsp; &nbsp; &nbsp; &nbsp; &nbsp; &nbsp;<font class='posOutcome'>you receive: <strong>2</strong></font></div>","null","3","Lucky Lemons","Fruit/lemon.png","Won","0.35,0.65","11","0.35","32","7","",""
"html-keyboard-response","31","110646","0.0-11.0-1.7","5fe354a2e44df4fb4634bbc3","bdp_rwlrn","Sun Mar 12 2023 23:49:05 GMT-0400 (Eastern Daylight Time)","397853","Untrustworthy,Trustworthy","","1544","","","","decision","","<div class='trialDiv'><img src='Fruit/watermelon.png'><br><font class='baseline'><strong>Watermelon Win$</strong><p>Choose number of points to bet.</font><div class='respPicDiv'><img src='img/responseButtonOffersNo0L.png' class='respPic'></div></div>","3","3","Watermelon Win$","Fruit/watermelon.png","Lost","0.2,0.65","14","0.2","37","8","",""
"html-keyboard-response","32","110902","0.0-11.0-2.7","5fe354a2e44df4fb4634bbc3","bdp_rwlrn","Sun Mar 12 2023 23:49:05 GMT-0400 (Eastern Daylight Time)","397853","Untrustworthy,Trustworthy","","null","","","","decisionFB","","<div class='trialDiv'><img src='Fruit/watermelon.png'><br><font class='baseline'><strong>Watermelon Win$</strong><p>Choose number of points to bet.</font><div class='respPicDiv'><img src='img/responseButtonOffersNo0L3.png' class='respPic'></div></div>","null","3","Watermelon Win$","Fruit/watermelon.png","Lost","0.2,0.65","14","0.2","34","8","",""
"html-keyboard-response","33","111910","0.0-11.0-3.7","5fe354a2e44df4fb4634bbc3","bdp_rwlrn","Sun Mar 12 2023 23:49:05 GMT-0400 (Eastern Daylight Time)","397853","Untrustworthy,Trustworthy","","null","","","","feedback","","<div class='respPicDiv'><img src='img/responseButtonOffersNo0_wht.png' class='respPic'></div><div class='trialDiv'><img src='Fruit/watermelon.png'><br><font class='baseline'><strong>Watermelon Win$</strong><p><strong><font class='negOutcome'>You LOST</font><p>You bet: 3</strong></font> &nbsp; &nbsp; &nbsp; &nbsp; &nbsp; &nbsp;<font class='negOutcome'>You receive: <strong>0</strong></font></div>","null","3","Watermelon Win$","Fruit/watermelon.png","Lost","0.2,0.65","14","0.2","34","8","",""
"html-keyboard-response","34","113166","0.0-11.0-1.8","5fe354a2e44df4fb4634bbc3","bdp_rwlrn","Sun Mar 12 2023 23:49:05 GMT-0400 (Eastern Daylight Time)","397853","Untrustworthy,Trustworthy","","1255","","","","decision","","<div class='trialDiv'><img src='Fruit/mango.png'><br><font class='baseline'><strong>Mega Mangos</strong><p>Choose number of points to bet.</font><div class='respPicDiv'><img src='img/responseButtonOffersNo0L.png' class='respPic'></div></div>","3","3","Mega Mangos","Fruit/mango.png","Won","0.8,0.35","13","0.8","39","9","",""
"html-keyboard-response","35","113419","0.0-11.0-2.8","5fe354a2e44df4fb4634bbc3","bdp_rwlrn","Sun Mar 12 2023 23:49:05 GMT-0400 (Eastern Daylight Time)","397853","Untrustworthy,Trustworthy","","null","","","","decisionFB","","<div class='trialDiv'><img src='Fruit/mango.png'><br><font class='baseline'><strong>Mega Mangos</strong><p>Choose number of points to bet.</font><div class='respPicDiv'><img src='img/responseButtonOffersNo0L3.png' class='respPic'></div></div>","null","3","Mega Mangos","Fruit/mango.png","Won","0.8,0.35","13","0.8","36","9","",""
"html-keyboard-response","36","114427","0.0-11.0-3.8","5fe354a2e44df4fb4634bbc3","bdp_rwlrn","Sun Mar 12 2023 23:49:05 GMT-0400 (Eastern Daylight Time)","397853","Untrustworthy,Trustworthy","","null","","","","feedback","","<div class='respPicDiv'><img src='img/responseButtonOffersNo0_wht.png' class='respPic'></div><div class='trialDiv'><img src='Fruit/mango.png'><br><font class='baseline'><strong>Mega Mangos</strong><p><strong><font class='posOutcome'>You WON</font><p>You bet: 3</strong></font> &nbsp; &nbsp; &nbsp; &nbsp; &nbsp; &nbsp;<font class='posOutcome'>you receive: <strong>6</strong></font></div>","null","3","Mega Mangos","Fruit/mango.png","Won","0.8,0.35","13","0.8","42","9","",""
"html-keyboard-response","37","115683","0.0-11.0-1.9","5fe354a2e44df4fb4634bbc3","bdp_rwlrn","Sun Mar 12 2023 23:49:05 GMT-0400 (Eastern Daylight Time)","397853","Untrustworthy,Trustworthy","","1253","","","","decision","","<div class='trialDiv'><img src='Fruit/watermelon.png'><br><font class='baseline'><strong>Watermelon Win$</strong><p>Choose number of points to bet.</font><div class='respPicDiv'><img src='img/responseButtonOffersNo0L.png' class='respPic'></div></div>","3","4","Watermelon Win$","Fruit/watermelon.png","Won","0.2,0.65","14","0.2","47","10","",""
"html-keyboard-response","38","115940","0.0-11.0-2.9","5fe354a2e44df4fb4634bbc3","bdp_rwlrn","Sun Mar 12 2023 23:49:05 GMT-0400 (Eastern Daylight Time)","397853","Untrustworthy,Trustworthy","","null","","","","decisionFB","","<div class='trialDiv'><img src='Fruit/watermelon.png'><br><font class='baseline'><strong>Watermelon Win$</strong><p>Choose number of points to bet.</font><div class='respPicDiv'><img src='img/responseButtonOffersNo0L3.png' class='respPic'></div></div>","null","4","Watermelon Win$","Fruit/watermelon.png","Won","0.2,0.65","14","0.2","44","10","",""
"html-keyboard-response","39","116950","0.0-11.0-3.9","5fe354a2e44df4fb4634bbc3","bdp_rwlrn","Sun Mar 12 2023 23:49:05 GMT-0400 (Eastern Daylight Time)","397853","Untrustworthy,Trustworthy","","null","","","","feedback","","<div class='respPicDiv'><img src='img/responseButtonOffersNo0_wht.png' class='respPic'></div><div class='trialDiv'><img src='Fruit/watermelon.png'><br><font class='baseline'><strong>Watermelon Win$</strong><p><strong><font class='posOutcome'>You WON</font><p>You bet: 3</strong></font> &nbsp; &nbsp; &nbsp; &nbsp; &nbsp; &nbsp;<font class='posOutcome'>you receive: <strong>6</strong></font></div>","null","4","Watermelon Win$","Fruit/watermelon.png","Won","0.2,0.65","14","0.2","50","10","",""
"html-keyboard-response","40","118772","0.0-11.0-1.10","5fe354a2e44df4fb4634bbc3","bdp_rwlrn","Sun Mar 12 2023 23:49:05 GMT-0400 (Eastern Daylight Time)","397853","Untrustworthy,Trustworthy","","1821","","","","decision","","<div class='trialDiv'><img src='Fruit/lemon.png'><br><font class='baseline'><strong>Lucky Lemons</strong><p>Choose number of points to bet.</font><div class='respPicDiv'><img src='img/responseButtonOffersNo0L.png' class='respPic'></div></div>","5","4","Lucky Lemons","Fruit/lemon.png","Lost","0.35,0.65","11","0.35","55","11","",""
"html-keyboard-response","41","119028","0.0-11.0-2.10","5fe354a2e44df4fb4634bbc3","bdp_rwlrn","Sun Mar 12 2023 23:49:05 GMT-0400 (Eastern Daylight Time)","397853","Untrustworthy,Trustworthy","","null","","","","decisionFB","","<div class='trialDiv'><img src='Fruit/lemon.png'><br><font class='baseline'><strong>Lucky Lemons</strong><p>Choose number of points to bet.</font><div class='respPicDiv'><img src='img/responseButtonOffersNo0L5.png' class='respPic'></div></div>","null","4","Lucky Lemons","Fruit/lemon.png","Lost","0.35,0.65","11","0.35","50","11","",""
"html-keyboard-response","42","120038","0.0-11.0-3.10","5fe354a2e44df4fb4634bbc3","bdp_rwlrn","Sun Mar 12 2023 23:49:05 GMT-0400 (Eastern Daylight Time)","397853","Untrustworthy,Trustworthy","","null","","","","feedback","","<div class='respPicDiv'><img src='img/responseButtonOffersNo0_wht.png' class='respPic'></div><div class='trialDiv'><img src='Fruit/lemon.png'><br><font class='baseline'><strong>Lucky Lemons</strong><p><strong><font class='negOutcome'>You LOST</font><p>You bet: 5</strong></font> &nbsp; &nbsp; &nbsp; &nbsp; &nbsp; &nbsp;<font class='negOutcome'>You receive: <strong>0</strong></font></div>","null","4","Lucky Lemons","Fruit/lemon.png","Lost","0.35,0.65","11","0.35","50","11","",""
"html-keyboard-response","43","120825","0.0-11.0-1.11","5fe354a2e44df4fb4634bbc3","bdp_rwlrn","Sun Mar 12 2023 23:49:05 GMT-0400 (Eastern Daylight Time)","397853","Untrustworthy,Trustworthy","","786","","","","decision","","<div class='trialDiv'><img src='Fruit/mango.png'><br><font class='baseline'><strong>Mega Mangos</strong><p>Choose number of points to bet.</font><div class='respPicDiv'><img src='img/responseButtonOffersNo0L.png' class='respPic'></div></div>","5","4","Mega Mangos","Fruit/mango.png","Won","0.8,0.35","13","0.8","55","12","",""
"html-keyboard-response","44","121083","0.0-11.0-2.11","5fe354a2e44df4fb4634bbc3","bdp_rwlrn","Sun Mar 12 2023 23:49:05 GMT-0400 (Eastern Daylight Time)","397853","Untrustworthy,Trustworthy","","null","","","","decisionFB","","<div class='trialDiv'><img src='Fruit/mango.png'><br><font class='baseline'><strong>Mega Mangos</strong><p>Choose number of points to bet.</font><div class='respPicDiv'><img src='img/responseButtonOffersNo0L5.png' class='respPic'></div></div>","null","4","Mega Mangos","Fruit/mango.png","Won","0.8,0.35","13","0.8","50","12","",""
"html-keyboard-response","45","122091","0.0-11.0-3.11","5fe354a2e44df4fb4634bbc3","bdp_rwlrn","Sun Mar 12 2023 23:49:05 GMT-0400 (Eastern Daylight Time)","397853","Untrustworthy,Trustworthy","","null","","","","feedback","","<div class='respPicDiv'><img src='img/responseButtonOffersNo0_wht.png' class='respPic'></div><div class='trialDiv'><img src='Fruit/mango.png'><br><font class='baseline'><strong>Mega Mangos</strong><p><strong><font class='posOutcome'>You WON</font><p>You bet: 5</strong></font> &nbsp; &nbsp; &nbsp; &nbsp; &nbsp; &nbsp;<font class='posOutcome'>you receive: <strong>10</strong></font></div>","null","4","Mega Mangos","Fruit/mango.png","Won","0.8,0.35","13","0.8","60","12","",""
"html-keyboard-response","46","122918","0.0-11.0-1.12","5fe354a2e44df4fb4634bbc3","bdp_rwlrn","Sun Mar 12 2023 23:49:05 GMT-0400 (Eastern Daylight Time)","397853","Untrustworthy,Trustworthy","","825","","","","decision","","<div class='trialDiv'><img src='Fruit/watermelon.png'><br><font class='baseline'><strong>Watermelon Win$</strong><p>Choose number of points to bet.</font><div class='respPicDiv'><img src='img/responseButtonOffersNo0L.png' class='respPic'></div></div>","5","5","Watermelon Win$","Fruit/watermelon.png","Lost","0.2,0.65","14","0.2","65","13","",""
"html-keyboard-response","47","123179","0.0-11.0-2.12","5fe354a2e44df4fb4634bbc3","bdp_rwlrn","Sun Mar 12 2023 23:49:05 GMT-0400 (Eastern Daylight Time)","397853","Untrustworthy,Trustworthy","","null","","","","decisionFB","","<div class='trialDiv'><img src='Fruit/watermelon.png'><br><font class='baseline'><strong>Watermelon Win$</strong><p>Choose number of points to bet.</font><div class='respPicDiv'><img src='img/responseButtonOffersNo0L5.png' class='respPic'></div></div>","null","5","Watermelon Win$","Fruit/watermelon.png","Lost","0.2,0.65","14","0.2","60","13","",""
"html-keyboard-response","48","124187","0.0-11.0-3.12","5fe354a2e44df4fb4634bbc3","bdp_rwlrn","Sun Mar 12 2023 23:49:05 GMT-0400 (Eastern Daylight Time)","397853","Untrustworthy,Trustworthy","","null","","","","feedback","","<div class='respPicDiv'><img src='img/responseButtonOffersNo0_wht.png' class='respPic'></div><div class='trialDiv'><img src='Fruit/watermelon.png'><br><font class='baseline'><strong>Watermelon Win$</strong><p><strong><font class='negOutcome'>You LOST</font><p>You bet: 5</strong></font> &nbsp; &nbsp; &nbsp; &nbsp; &nbsp; &nbsp;<font class='negOutcome'>You receive: <strong>0</strong></font></div>","null","5","Watermelon Win$","Fruit/watermelon.png","Lost","0.2,0.65","14","0.2","60","13","",""
"html-keyboard-response","49","125063","0.0-11.0-1.13","5fe354a2e44df4fb4634bbc3","bdp_rwlrn","Sun Mar 12 2023 23:49:05 GMT-0400 (Eastern Daylight Time)","397853","Untrustworthy,Trustworthy","","874","","","","decision","","<div class='trialDiv'><img src='Fruit/lemon.png'><br><font class='baseline'><strong>Lucky Lemons</strong><p>Choose number of points to bet.</font><div class='respPicDiv'><img src='img/responseButtonOffersNo0L.png' class='respPic'></div></div>","5","5","Lucky Lemons","Fruit/lemon.png","Won","0.35,0.65","11","0.35","65","14","",""
"html-keyboard-response","50","125323","0.0-11.0-2.13","5fe354a2e44df4fb4634bbc3","bdp_rwlrn","Sun Mar 12 2023 23:49:05 GMT-0400 (Eastern Daylight Time)","397853","Untrustworthy,Trustworthy","","null","","","","decisionFB","","<div class='trialDiv'><img src='Fruit/lemon.png'><br><font class='baseline'><strong>Lucky Lemons</strong><p>Choose number of points to bet.</font><div class='respPicDiv'><img src='img/responseButtonOffersNo0L5.png' class='respPic'></div></div>","null","5","Lucky Lemons","Fruit/lemon.png","Won","0.35,0.65","11","0.35","60","14","",""
"html-keyboard-response","51","126331","0.0-11.0-3.13","5fe354a2e44df4fb4634bbc3","bdp_rwlrn","Sun Mar 12 2023 23:49:05 GMT-0400 (Eastern Daylight Time)","397853","Untrustworthy,Trustworthy","","null","","","","feedback","","<div class='respPicDiv'><img src='img/responseButtonOffersNo0_wht.png' class='respPic'></div><div class='trialDiv'><img src='Fruit/lemon.png'><br><font class='baseline'><strong>Lucky Lemons</strong><p><strong><font class='posOutcome'>You WON</font><p>You bet: 5</strong></font> &nbsp; &nbsp; &nbsp; &nbsp; &nbsp; &nbsp;<font class='posOutcome'>you receive: <strong>10</strong></font></div>","null","5","Lucky Lemons","Fruit/lemon.png","Won","0.35,0.65","11","0.35","70","14","",""
"html-keyboard-response","52","127208","0.0-11.0-1.14","5fe354a2e44df4fb4634bbc3","bdp_rwlrn","Sun Mar 12 2023 23:49:05 GMT-0400 (Eastern Daylight Time)","397853","Untrustworthy,Trustworthy","","875","","","","decision","","<div class='trialDiv'><img src='Fruit/mango.png'><br><font class='baseline'><strong>Mega Mangos</strong><p>Choose number of points to bet.</font><div class='respPicDiv'><img src='img/responseButtonOffersNo0L.png' class='respPic'></div></div>","5","5","Mega Mangos","Fruit/mango.png","Won","0.8,0.35","13","0.8","75","15","",""
"html-keyboard-response","53","127467","0.0-11.0-2.14","5fe354a2e44df4fb4634bbc3","bdp_rwlrn","Sun Mar 12 2023 23:49:05 GMT-0400 (Eastern Daylight Time)","397853","Untrustworthy,Trustworthy","","null","","","","decisionFB","","<div class='trialDiv'><img src='Fruit/mango.png'><br><font class='baseline'><strong>Mega Mangos</strong><p>Choose number of points to bet.</font><div class='respPicDiv'><img src='img/responseButtonOffersNo0L5.png' class='respPic'></div></div>","null","5","Mega Mangos","Fruit/mango.png","Won","0.8,0.35","13","0.8","70","15","",""
"html-keyboard-response","54","128475","0.0-11.0-3.14","5fe354a2e44df4fb4634bbc3","bdp_rwlrn","Sun Mar 12 2023 23:49:05 GMT-0400 (Eastern Daylight Time)","397853","Untrustworthy,Trustworthy","","null","","","","feedback","","<div class='respPicDiv'><img src='img/responseButtonOffersNo0_wht.png' class='respPic'></div><div class='trialDiv'><img src='Fruit/mango.png'><br><font class='baseline'><strong>Mega Mangos</strong><p><strong><font class='posOutcome'>You WON</font><p>You bet: 5</strong></font> &nbsp; &nbsp; &nbsp; &nbsp; &nbsp; &nbsp;<font class='posOutcome'>you receive: <strong>10</strong></font></div>","null","5","Mega Mangos","Fruit/mango.png","Won","0.8,0.35","13","0.8","80","15","",""
"html-keyboard-response","55","129372","0.0-11.0-1.15","5fe354a2e44df4fb4634bbc3","bdp_rwlrn","Sun Mar 12 2023 23:49:05 GMT-0400 (Eastern Daylight Time)","397853","Untrustworthy,Trustworthy","","895","","","","decision","","<div class='trialDiv'><img src='Fruit/lemon.png'><br><font class='baseline'><strong>Lucky Lemons</strong><p>Choose number of points to bet.</font><div class='respPicDiv'><img src='img/responseButtonOffersNo0L.png' class='respPic'></div></div>","5","6","Lucky Lemons","Fruit/lemon.png","Won","0.35,0.65","11","0.35","85","16","",""
"html-keyboard-response","56","129627","0.0-11.0-2.15","5fe354a2e44df4fb4634bbc3","bdp_rwlrn","Sun Mar 12 2023 23:49:05 GMT-0400 (Eastern Daylight Time)","397853","Untrustworthy,Trustworthy","","null","","","","decisionFB","","<div class='trialDiv'><img src='Fruit/lemon.png'><br><font class='baseline'><strong>Lucky Lemons</strong><p>Choose number of points to bet.</font><div class='respPicDiv'><img src='img/responseButtonOffersNo0L5.png' class='respPic'></div></div>","null","6","Lucky Lemons","Fruit/lemon.png","Won","0.35,0.65","11","0.35","80","16","",""
"html-keyboard-response","57","130635","0.0-11.0-3.15","5fe354a2e44df4fb4634bbc3","bdp_rwlrn","Sun Mar 12 2023 23:49:05 GMT-0400 (Eastern Daylight Time)","397853","Untrustworthy,Trustworthy","","null","","","","feedback","","<div class='respPicDiv'><img src='img/responseButtonOffersNo0_wht.png' class='respPic'></div><div class='trialDiv'><img src='Fruit/lemon.png'><br><font class='baseline'><strong>Lucky Lemons</strong><p><strong><font class='posOutcome'>You WON</font><p>You bet: 5</strong></font> &nbsp; &nbsp; &nbsp; &nbsp; &nbsp; &nbsp;<font class='posOutcome'>you receive: <strong>10</strong></font></div>","null","6","Lucky Lemons","Fruit/lemon.png","Won","0.35,0.65","11","0.35","90","16","",""
"html-keyboard-response","58","131672","0.0-11.0-1.16","5fe354a2e44df4fb4634bbc3","bdp_rwlrn","Sun Mar 12 2023 23:49:05 GMT-0400 (Eastern Daylight Time)","397853","Untrustworthy,Trustworthy","","1035","","","","decision","","<div class='trialDiv'><img src='Fruit/watermelon.png'><br><font class='baseline'><strong>Watermelon Win$</strong><p>Choose number of points to bet.</font><div class='respPicDiv'><img src='img/responseButtonOffersNo0L.png' class='respPic'></div></div>","2","6","Watermelon Win$","Fruit/watermelon.png","Lost","0.2,0.65","14","0.2","95","17","",""
"html-keyboard-response","59","131930","0.0-11.0-2.16","5fe354a2e44df4fb4634bbc3","bdp_rwlrn","Sun Mar 12 2023 23:49:05 GMT-0400 (Eastern Daylight Time)","397853","Untrustworthy,Trustworthy","","null","","","","decisionFB","","<div class='trialDiv'><img src='Fruit/watermelon.png'><br><font class='baseline'><strong>Watermelon Win$</strong><p>Choose number of points to bet.</font><div class='respPicDiv'><img src='img/responseButtonOffersNo0L2.png' class='respPic'></div></div>","null","6","Watermelon Win$","Fruit/watermelon.png","Lost","0.2,0.65","14","0.2","93","17","",""
"html-keyboard-response","60","132938","0.0-11.0-3.16","5fe354a2e44df4fb4634bbc3","bdp_rwlrn","Sun Mar 12 2023 23:49:05 GMT-0400 (Eastern Daylight Time)","397853","Untrustworthy,Trustworthy","","null","","","","feedback","","<div class='respPicDiv'><img src='img/responseButtonOffersNo0_wht.png' class='respPic'></div><div class='trialDiv'><img src='Fruit/watermelon.png'><br><font class='baseline'><strong>Watermelon Win$</strong><p><strong><font class='negOutcome'>You LOST</font><p>You bet: 2</strong></font> &nbsp; &nbsp; &nbsp; &nbsp; &nbsp; &nbsp;<font class='negOutcome'>You receive: <strong>0</strong></font></div>","null","6","Watermelon Win$","Fruit/watermelon.png","Lost","0.2,0.65","14","0.2","93","17","",""
"html-keyboard-response","61","134433","0.0-11.0-1.17","5fe354a2e44df4fb4634bbc3","bdp_rwlrn","Sun Mar 12 2023 23:49:05 GMT-0400 (Eastern Daylight Time)","397853","Untrustworthy,Trustworthy","","1493","","","","decision","","<div class='trialDiv'><img src='Fruit/mango.png'><br><font class='baseline'><strong>Mega Mangos</strong><p>Choose number of points to bet.</font><div class='respPicDiv'><img src='img/responseButtonOffersNo0L.png' class='respPic'></div></div>","5","6","Mega Mangos","Fruit/mango.png","Won","0.8,0.35","13","0.8","98","18","",""
"html-keyboard-response","62","134693","0.0-11.0-2.17","5fe354a2e44df4fb4634bbc3","bdp_rwlrn","Sun Mar 12 2023 23:49:05 GMT-0400 (Eastern Daylight Time)","397853","Untrustworthy,Trustworthy","","null","","","","decisionFB","","<div class='trialDiv'><img src='Fruit/mango.png'><br><font class='baseline'><strong>Mega Mangos</strong><p>Choose number of points to bet.</font><div class='respPicDiv'><img src='img/responseButtonOffersNo0L5.png' class='respPic'></div></div>","null","6","Mega Mangos","Fruit/mango.png","Won","0.8,0.35","13","0.8","93","18","",""
"html-keyboard-response","63","135701","0.0-11.0-3.17","5fe354a2e44df4fb4634bbc3","bdp_rwlrn","Sun Mar 12 2023 23:49:05 GMT-0400 (Eastern Daylight Time)","397853","Untrustworthy,Trustworthy","","null","","","","feedback","","<div class='respPicDiv'><img src='img/responseButtonOffersNo0_wht.png' class='respPic'></div><div class='trialDiv'><img src='Fruit/mango.png'><br><font class='baseline'><strong>Mega Mangos</strong><p><strong><font class='posOutcome'>You WON</font><p>You bet: 5</strong></font> &nbsp; &nbsp; &nbsp; &nbsp; &nbsp; &nbsp;<font class='posOutcome'>you receive: <strong>10</strong></font></div>","null","6","Mega Mangos","Fruit/mango.png","Won","0.8,0.35","13","0.8","103","18","",""
"html-keyboard-response","64","136427","0.0-11.0-1.18","5fe354a2e44df4fb4634bbc3","bdp_rwlrn","Sun Mar 12 2023 23:49:05 GMT-0400 (Eastern Daylight Time)","397853","Untrustworthy,Trustworthy","","723","","","","decision","","<div class='trialDiv'><img src='Fruit/lemon.png'><br><font class='baseline'><strong>Lucky Lemons</strong><p>Choose number of points to bet.</font><div class='respPicDiv'><img src='img/responseButtonOffersNo0L.png' class='respPic'></div></div>","5","7","Lucky Lemons","Fruit/lemon.png","Lost","0.35,0.65","11","0.35","108","19","",""
"html-keyboard-response","65","136682","0.0-11.0-2.18","5fe354a2e44df4fb4634bbc3","bdp_rwlrn","Sun Mar 12 2023 23:49:05 GMT-0400 (Eastern Daylight Time)","397853","Untrustworthy,Trustworthy","","null","","","","decisionFB","","<div class='trialDiv'><img src='Fruit/lemon.png'><br><font class='baseline'><strong>Lucky Lemons</strong><p>Choose number of points to bet.</font><div class='respPicDiv'><img src='img/responseButtonOffersNo0L5.png' class='respPic'></div></div>","null","7","Lucky Lemons","Fruit/lemon.png","Lost","0.35,0.65","11","0.35","103","19","",""
"html-keyboard-response","66","137690","0.0-11.0-3.18","5fe354a2e44df4fb4634bbc3","bdp_rwlrn","Sun Mar 12 2023 23:49:05 GMT-0400 (Eastern Daylight Time)","397853","Untrustworthy,Trustworthy","","null","","","","feedback","","<div class='respPicDiv'><img src='img/responseButtonOffersNo0_wht.png' class='respPic'></div><div class='trialDiv'><img src='Fruit/lemon.png'><br><font class='baseline'><strong>Lucky Lemons</strong><p><strong><font class='negOutcome'>You LOST</font><p>You bet: 5</strong></font> &nbsp; &nbsp; &nbsp; &nbsp; &nbsp; &nbsp;<font class='negOutcome'>You receive: <strong>0</strong></font></div>","null","7","Lucky Lemons","Fruit/lemon.png","Lost","0.35,0.65","11","0.35","103","19","",""
"html-keyboard-response","67","138432","0.0-11.0-1.19","5fe354a2e44df4fb4634bbc3","bdp_rwlrn","Sun Mar 12 2023 23:49:05 GMT-0400 (Eastern Daylight Time)","397853","Untrustworthy,Trustworthy","","740","","","","decision","","<div class='trialDiv'><img src='Fruit/mango.png'><br><font class='baseline'><strong>Mega Mangos</strong><p>Choose number of points to bet.</font><div class='respPicDiv'><img src='img/responseButtonOffersNo0L.png' class='respPic'></div></div>","5","7","Mega Mangos","Fruit/mango.png","Won","0.8,0.35","13","0.8","108","20","",""
"html-keyboard-response","68","138693","0.0-11.0-2.19","5fe354a2e44df4fb4634bbc3","bdp_rwlrn","Sun Mar 12 2023 23:49:05 GMT-0400 (Eastern Daylight Time)","397853","Untrustworthy,Trustworthy","","null","","","","decisionFB","","<div class='trialDiv'><img src='Fruit/mango.png'><br><font class='baseline'><strong>Mega Mangos</strong><p>Choose number of points to bet.</font><div class='respPicDiv'><img src='img/responseButtonOffersNo0L5.png' class='respPic'></div></div>","null","7","Mega Mangos","Fruit/mango.png","Won","0.8,0.35","13","0.8","103","20","",""
"html-keyboard-response","69","139701","0.0-11.0-3.19","5fe354a2e44df4fb4634bbc3","bdp_rwlrn","Sun Mar 12 2023 23:49:05 GMT-0400 (Eastern Daylight Time)","397853","Untrustworthy,Trustworthy","","null","","","","feedback","","<div class='respPicDiv'><img src='img/responseButtonOffersNo0_wht.png' class='respPic'></div><div class='trialDiv'><img src='Fruit/mango.png'><br><font class='baseline'><strong>Mega Mangos</strong><p><strong><font class='posOutcome'>You WON</font><p>You bet: 5</strong></font> &nbsp; &nbsp; &nbsp; &nbsp; &nbsp; &nbsp;<font class='posOutcome'>you receive: <strong>10</strong></font></div>","null","7","Mega Mangos","Fruit/mango.png","Won","0.8,0.35","13","0.8","113","20","",""
"html-keyboard-response","70","140848","0.0-11.0-1.20","5fe354a2e44df4fb4634bbc3","bdp_rwlrn","Sun Mar 12 2023 23:49:05 GMT-0400 (Eastern Daylight Time)","397853","Untrustworthy,Trustworthy","","1145","","","","decision","","<div class='trialDiv'><img src='Fruit/watermelon.png'><br><font class='baseline'><strong>Watermelon Win$</strong><p>Choose number of points to bet.</font><div class='respPicDiv'><img src='img/responseButtonOffersNo0L.png' class='respPic'></div></div>","2","7","Watermelon Win$","Fruit/watermelon.png","Lost","0.2,0.65","14","0.2","118","21","",""
"html-keyboard-response","71","141107","0.0-11.0-2.20","5fe354a2e44df4fb4634bbc3","bdp_rwlrn","Sun Mar 12 2023 23:49:05 GMT-0400 (Eastern Daylight Time)","397853","Untrustworthy,Trustworthy","","null","","","","decisionFB","","<div class='trialDiv'><img src='Fruit/watermelon.png'><br><font class='baseline'><strong>Watermelon Win$</strong><p>Choose number of points to bet.</font><div class='respPicDiv'><img src='img/responseButtonOffersNo0L2.png' class='respPic'></div></div>","null","7","Watermelon Win$","Fruit/watermelon.png","Lost","0.2,0.65","14","0.2","116","21","",""
"html-keyboard-response","72","142117","0.0-11.0-3.20","5fe354a2e44df4fb4634bbc3","bdp_rwlrn","Sun Mar 12 2023 23:49:05 GMT-0400 (Eastern Daylight Time)","397853","Untrustworthy,Trustworthy","","null","","","","feedback","","<div class='respPicDiv'><img src='img/responseButtonOffersNo0_wht.png' class='respPic'></div><div class='trialDiv'><img src='Fruit/watermelon.png'><br><font class='baseline'><strong>Watermelon Win$</strong><p><strong><font class='negOutcome'>You LOST</font><p>You bet: 2</strong></font> &nbsp; &nbsp; &nbsp; &nbsp; &nbsp; &nbsp;<font class='negOutcome'>You receive: <strong>0</strong></font></div>","null","7","Watermelon Win$","Fruit/watermelon.png","Lost","0.2,0.65","14","0.2","116","21","",""
"html-keyboard-response","73","143279","0.0-11.0-1.21","5fe354a2e44df4fb4634bbc3","bdp_rwlrn","Sun Mar 12 2023 23:49:05 GMT-0400 (Eastern Daylight Time)","397853","Untrustworthy,Trustworthy","","1160","","","","decision","","<div class='trialDiv'><img src='Fruit/lemon.png'><br><font class='baseline'><strong>Lucky Lemons</strong><p>Choose number of points to bet.</font><div class='respPicDiv'><img src='img/responseButtonOffersNo0L.png' class='respPic'></div></div>","4","8","Lucky Lemons","Fruit/lemon.png","Won","0.35,0.65","11","0.35","121","22","",""
"html-keyboard-response","74","143541","0.0-11.0-2.21","5fe354a2e44df4fb4634bbc3","bdp_rwlrn","Sun Mar 12 2023 23:49:05 GMT-0400 (Eastern Daylight Time)","397853","Untrustworthy,Trustworthy","","null","","","","decisionFB","","<div class='trialDiv'><img src='Fruit/lemon.png'><br><font class='baseline'><strong>Lucky Lemons</strong><p>Choose number of points to bet.</font><div class='respPicDiv'><img src='img/responseButtonOffersNo0L4.png' class='respPic'></div></div>","null","8","Lucky Lemons","Fruit/lemon.png","Won","0.35,0.65","11","0.35","117","22","",""
"html-keyboard-response","75","144549","0.0-11.0-3.21","5fe354a2e44df4fb4634bbc3","bdp_rwlrn","Sun Mar 12 2023 23:49:05 GMT-0400 (Eastern Daylight Time)","397853","Untrustworthy,Trustworthy","","null","","","","feedback","","<div class='respPicDiv'><img src='img/responseButtonOffersNo0_wht.png' class='respPic'></div><div class='trialDiv'><img src='Fruit/lemon.png'><br><font class='baseline'><strong>Lucky Lemons</strong><p><strong><font class='posOutcome'>You WON</font><p>You bet: 4</strong></font> &nbsp; &nbsp; &nbsp; &nbsp; &nbsp; &nbsp;<font class='posOutcome'>you receive: <strong>8</strong></font></div>","null","8","Lucky Lemons","Fruit/lemon.png","Won","0.35,0.65","11","0.35","125","22","",""
"html-keyboard-response","76","145264","0.0-11.0-1.22","5fe354a2e44df4fb4634bbc3","bdp_rwlrn","Sun Mar 12 2023 23:49:05 GMT-0400 (Eastern Daylight Time)","397853","Untrustworthy,Trustworthy","","714","","","","decision","","<div class='trialDiv'><img src='Fruit/mango.png'><br><font class='baseline'><strong>Mega Mangos</strong><p>Choose number of points to bet.</font><div class='respPicDiv'><img src='img/responseButtonOffersNo0L.png' class='respPic'></div></div>","5","8","Mega Mangos","Fruit/mango.png","Won","0.8,0.35","13","0.8","130","23","",""
"html-keyboard-response","77","145523","0.0-11.0-2.22","5fe354a2e44df4fb4634bbc3","bdp_rwlrn","Sun Mar 12 2023 23:49:05 GMT-0400 (Eastern Daylight Time)","397853","Untrustworthy,Trustworthy","","null","","","","decisionFB","","<div class='trialDiv'><img src='Fruit/mango.png'><br><font class='baseline'><strong>Mega Mangos</strong><p>Choose number of points to bet.</font><div class='respPicDiv'><img src='img/responseButtonOffersNo0L5.png' class='respPic'></div></div>","null","8","Mega Mangos","Fruit/mango.png","Won","0.8,0.35","13","0.8","125","23","",""
"html-keyboard-response","78","146531","0.0-11.0-3.22","5fe354a2e44df4fb4634bbc3","bdp_rwlrn","Sun Mar 12 2023 23:49:05 GMT-0400 (Eastern Daylight Time)","397853","Untrustworthy,Trustworthy","","null","","","","feedback","","<div class='respPicDiv'><img src='img/responseButtonOffersNo0_wht.png' class='respPic'></div><div class='trialDiv'><img src='Fruit/mango.png'><br><font class='baseline'><strong>Mega Mangos</strong><p><strong><font class='posOutcome'>You WON</font><p>You bet: 5</strong></font> &nbsp; &nbsp; &nbsp; &nbsp; &nbsp; &nbsp;<font class='posOutcome'>you receive: <strong>10</strong></font></div>","null","8","Mega Mangos","Fruit/mango.png","Won","0.8,0.35","13","0.8","135","23","",""
"html-keyboard-response","79","147816","0.0-11.0-1.23","5fe354a2e44df4fb4634bbc3","bdp_rwlrn","Sun Mar 12 2023 23:49:05 GMT-0400 (Eastern Daylight Time)","397853","Untrustworthy,Trustworthy","","1284","","","","decision","","<div class='trialDiv'><img src='Fruit/watermelon.png'><br><font class='baseline'><strong>Watermelon Win$</strong><p>Choose number of points to bet.</font><div class='respPicDiv'><img src='img/responseButtonOffersNo0L.png' class='respPic'></div></div>","1","8","Watermelon Win$","Fruit/watermelon.png","Won","0.2,0.65","14","0.2","140","24","",""
"html-keyboard-response","80","148074","0.0-11.0-2.23","5fe354a2e44df4fb4634bbc3","bdp_rwlrn","Sun Mar 12 2023 23:49:05 GMT-0400 (Eastern Daylight Time)","397853","Untrustworthy,Trustworthy","","null","","","","decisionFB","","<div class='trialDiv'><img src='Fruit/watermelon.png'><br><font class='baseline'><strong>Watermelon Win$</strong><p>Choose number of points to bet.</font><div class='respPicDiv'><img src='img/responseButtonOffersNo0L1.png' class='respPic'></div></div>","null","8","Watermelon Win$","Fruit/watermelon.png","Won","0.2,0.65","14","0.2","139","24","",""
"html-keyboard-response","81","149082","0.0-11.0-3.23","5fe354a2e44df4fb4634bbc3","bdp_rwlrn","Sun Mar 12 2023 23:49:05 GMT-0400 (Eastern Daylight Time)","397853","Untrustworthy,Trustworthy","","null","","","","feedback","","<div class='respPicDiv'><img src='img/responseButtonOffersNo0_wht.png' class='respPic'></div><div class='trialDiv'><img src='Fruit/watermelon.png'><br><font class='baseline'><strong>Watermelon Win$</strong><p><strong><font class='posOutcome'>You WON</font><p>You bet: 1</strong></font> &nbsp; &nbsp; &nbsp; &nbsp; &nbsp; &nbsp;<font class='posOutcome'>you receive: <strong>2</strong></font></div>","null","8","Watermelon Win$","Fruit/watermelon.png","Won","0.2,0.65","14","0.2","141","24","",""
"html-keyboard-response","82","149924","0.0-11.0-1.24","5fe354a2e44df4fb4634bbc3","bdp_rwlrn","Sun Mar 12 2023 23:49:05 GMT-0400 (Eastern Daylight Time)","397853","Untrustworthy,Trustworthy","","840","","","","decision","","<div class='trialDiv'><img src='Fruit/mango.png'><br><font class='baseline'><strong>Mega Mangos</strong><p>Choose number of points to bet.</font><div class='respPicDiv'><img src='img/responseButtonOffersNo0L.png' class='respPic'></div></div>","5","9","Mega Mangos","Fruit/mango.png","Won","0.8,0.35","13","0.8","146","25","",""
"html-keyboard-response","83","150181","0.0-11.0-2.24","5fe354a2e44df4fb4634bbc3","bdp_rwlrn","Sun Mar 12 2023 23:49:05 GMT-0400 (Eastern Daylight Time)","397853","Untrustworthy,Trustworthy","","null","","","","decisionFB","","<div class='trialDiv'><img src='Fruit/mango.png'><br><font class='baseline'><strong>Mega Mangos</strong><p>Choose number of points to bet.</font><div class='respPicDiv'><img src='img/responseButtonOffersNo0L5.png' class='respPic'></div></div>","null","9","Mega Mangos","Fruit/mango.png","Won","0.8,0.35","13","0.8","141","25","",""
"html-keyboard-response","84","151189","0.0-11.0-3.24","5fe354a2e44df4fb4634bbc3","bdp_rwlrn","Sun Mar 12 2023 23:49:05 GMT-0400 (Eastern Daylight Time)","397853","Untrustworthy,Trustworthy","","null","","","","feedback","","<div class='respPicDiv'><img src='img/responseButtonOffersNo0_wht.png' class='respPic'></div><div class='trialDiv'><img src='Fruit/mango.png'><br><font class='baseline'><strong>Mega Mangos</strong><p><strong><font class='posOutcome'>You WON</font><p>You bet: 5</strong></font> &nbsp; &nbsp; &nbsp; &nbsp; &nbsp; &nbsp;<font class='posOutcome'>you receive: <strong>10</strong></font></div>","null","9","Mega Mangos","Fruit/mango.png","Won","0.8,0.35","13","0.8","151","25","",""
"html-keyboard-response","85","152057","0.0-11.0-1.25","5fe354a2e44df4fb4634bbc3","bdp_rwlrn","Sun Mar 12 2023 23:49:05 GMT-0400 (Eastern Daylight Time)","397853","Untrustworthy,Trustworthy","","867","","","","decision","","<div class='trialDiv'><img src='Fruit/watermelon.png'><br><font class='baseline'><strong>Watermelon Win$</strong><p>Choose number of points to bet.</font><div class='respPicDiv'><img src='img/responseButtonOffersNo0L.png' class='respPic'></div></div>","1","9","Watermelon Win$","Fruit/watermelon.png","Lost","0.2,0.65","14","0.2","156","26","",""
"html-keyboard-response","86","152314","0.0-11.0-2.25","5fe354a2e44df4fb4634bbc3","bdp_rwlrn","Sun Mar 12 2023 23:49:05 GMT-0400 (Eastern Daylight Time)","397853","Untrustworthy,Trustworthy","","null","","","","decisionFB","","<div class='trialDiv'><img src='Fruit/watermelon.png'><br><font class='baseline'><strong>Watermelon Win$</strong><p>Choose number of points to bet.</font><div class='respPicDiv'><img src='img/responseButtonOffersNo0L1.png' class='respPic'></div></div>","null","9","Watermelon Win$","Fruit/watermelon.png","Lost","0.2,0.65","14","0.2","155","26","",""
"html-keyboard-response","87","153322","0.0-11.0-3.25","5fe354a2e44df4fb4634bbc3","bdp_rwlrn","Sun Mar 12 2023 23:49:05 GMT-0400 (Eastern Daylight Time)","397853","Untrustworthy,Trustworthy","","null","","","","feedback","","<div class='respPicDiv'><img src='img/responseButtonOffersNo0_wht.png' class='respPic'></div><div class='trialDiv'><img src='Fruit/watermelon.png'><br><font class='baseline'><strong>Watermelon Win$</strong><p><strong><font class='negOutcome'>You LOST</font><p>You bet: 1</strong></font> &nbsp; &nbsp; &nbsp; &nbsp; &nbsp; &nbsp;<font class='negOutcome'>You receive: <strong>0</strong></font></div>","null","9","Watermelon Win$","Fruit/watermelon.png","Lost","0.2,0.65","14","0.2","155","26","",""
"html-keyboard-response","88","154198","0.0-11.0-1.26","5fe354a2e44df4fb4634bbc3","bdp_rwlrn","Sun Mar 12 2023 23:49:05 GMT-0400 (Eastern Daylight Time)","397853","Untrustworthy,Trustworthy","","874","","","","decision","","<div class='trialDiv'><img src='Fruit/lemon.png'><br><font class='baseline'><strong>Lucky Lemons</strong><p>Choose number of points to bet.</font><div class='respPicDiv'><img src='img/responseButtonOffersNo0L.png' class='respPic'></div></div>","4","9","Lucky Lemons","Fruit/lemon.png","Lost","0.35,0.65","11","0.35","160","27","",""
"html-keyboard-response","89","154458","0.0-11.0-2.26","5fe354a2e44df4fb4634bbc3","bdp_rwlrn","Sun Mar 12 2023 23:49:05 GMT-0400 (Eastern Daylight Time)","397853","Untrustworthy,Trustworthy","","null","","","","decisionFB","","<div class='trialDiv'><img src='Fruit/lemon.png'><br><font class='baseline'><strong>Lucky Lemons</strong><p>Choose number of points to bet.</font><div class='respPicDiv'><img src='img/responseButtonOffersNo0L4.png' class='respPic'></div></div>","null","9","Lucky Lemons","Fruit/lemon.png","Lost","0.35,0.65","11","0.35","156","27","",""
"html-keyboard-response","90","155466","0.0-11.0-3.26","5fe354a2e44df4fb4634bbc3","bdp_rwlrn","Sun Mar 12 2023 23:49:05 GMT-0400 (Eastern Daylight Time)","397853","Untrustworthy,Trustworthy","","null","","","","feedback","","<div class='respPicDiv'><img src='img/responseButtonOffersNo0_wht.png' class='respPic'></div><div class='trialDiv'><img src='Fruit/lemon.png'><br><font class='baseline'><strong>Lucky Lemons</strong><p><strong><font class='negOutcome'>You LOST</font><p>You bet: 4</strong></font> &nbsp; &nbsp; &nbsp; &nbsp; &nbsp; &nbsp;<font class='negOutcome'>You receive: <strong>0</strong></font></div>","null","9","Lucky Lemons","Fruit/lemon.png","Lost","0.35,0.65","11","0.35","156","27","",""
"html-keyboard-response","91","155931","0.0-11.0-1.27","5fe354a2e44df4fb4634bbc3","bdp_rwlrn","Sun Mar 12 2023 23:49:05 GMT-0400 (Eastern Daylight Time)","397853","Untrustworthy,Trustworthy","","464","","","","decision","","<div class='trialDiv'><img src='Fruit/mango.png'><br><font class='baseline'><strong>Mega Mangos</strong><p>Choose number of points to bet.</font><div class='respPicDiv'><img src='img/responseButtonOffersNo0L.png' class='respPic'></div></div>","5","10","Mega Mangos","Fruit/mango.png","Won","0.8,0.35","13","0.8","161","28","",""
"html-keyboard-response","92","156186","0.0-11.0-2.27","5fe354a2e44df4fb4634bbc3","bdp_rwlrn","Sun Mar 12 2023 23:49:05 GMT-0400 (Eastern Daylight Time)","397853","Untrustworthy,Trustworthy","","null","","","","decisionFB","","<div class='trialDiv'><img src='Fruit/mango.png'><br><font class='baseline'><strong>Mega Mangos</strong><p>Choose number of points to bet.</font><div class='respPicDiv'><img src='img/responseButtonOffersNo0L5.png' class='respPic'></div></div>","null","10","Mega Mangos","Fruit/mango.png","Won","0.8,0.35","13","0.8","156","28","",""
"html-keyboard-response","93","157194","0.0-11.0-3.27","5fe354a2e44df4fb4634bbc3","bdp_rwlrn","Sun Mar 12 2023 23:49:05 GMT-0400 (Eastern Daylight Time)","397853","Untrustworthy,Trustworthy","","null","","","","feedback","","<div class='respPicDiv'><img src='img/responseButtonOffersNo0_wht.png' class='respPic'></div><div class='trialDiv'><img src='Fruit/mango.png'><br><font class='baseline'><strong>Mega Mangos</strong><p><strong><font class='posOutcome'>You WON</font><p>You bet: 5</strong></font> &nbsp; &nbsp; &nbsp; &nbsp; &nbsp; &nbsp;<font class='posOutcome'>you receive: <strong>10</strong></font></div>","null","10","Mega Mangos","Fruit/mango.png","Won","0.8,0.35","13","0.8","166","28","",""
"html-keyboard-response","94","158651","0.0-11.0-1.28","5fe354a2e44df4fb4634bbc3","bdp_rwlrn","Sun Mar 12 2023 23:49:05 GMT-0400 (Eastern Daylight Time)","397853","Untrustworthy,Trustworthy","","1456","","","","decision","","<div class='trialDiv'><img src='Fruit/lemon.png'><br><font class='baseline'><strong>Lucky Lemons</strong><p>Choose number of points to bet.</font><div class='respPicDiv'><img src='img/responseButtonOffersNo0L.png' class='respPic'></div></div>","5","10","Lucky Lemons","Fruit/lemon.png","Lost","0.35,0.65","11","0.35","171","29","",""
"html-keyboard-response","95","158905","0.0-11.0-2.28","5fe354a2e44df4fb4634bbc3","bdp_rwlrn","Sun Mar 12 2023 23:49:05 GMT-0400 (Eastern Daylight Time)","397853","Untrustworthy,Trustworthy","","null","","","","decisionFB","","<div class='trialDiv'><img src='Fruit/lemon.png'><br><font class='baseline'><strong>Lucky Lemons</strong><p>Choose number of points to bet.</font><div class='respPicDiv'><img src='img/responseButtonOffersNo0L5.png' class='respPic'></div></div>","null","10","Lucky Lemons","Fruit/lemon.png","Lost","0.35,0.65","11","0.35","166","29","",""
"html-keyboard-response","96","159913","0.0-11.0-3.28","5fe354a2e44df4fb4634bbc3","bdp_rwlrn","Sun Mar 12 2023 23:49:05 GMT-0400 (Eastern Daylight Time)","397853","Untrustworthy,Trustworthy","","null","","","","feedback","","<div class='respPicDiv'><img src='img/responseButtonOffersNo0_wht.png' class='respPic'></div><div class='trialDiv'><img src='Fruit/lemon.png'><br><font class='baseline'><strong>Lucky Lemons</strong><p><strong><font class='negOutcome'>You LOST</font><p>You bet: 5</strong></font> &nbsp; &nbsp; &nbsp; &nbsp; &nbsp; &nbsp;<font class='negOutcome'>You receive: <strong>0</strong></font></div>","null","10","Lucky Lemons","Fruit/lemon.png","Lost","0.35,0.65","11","0.35","166","29","",""
"html-keyboard-response","97","160787","0.0-11.0-1.29","5fe354a2e44df4fb4634bbc3","bdp_rwlrn","Sun Mar 12 2023 23:49:05 GMT-0400 (Eastern Daylight Time)","397853","Untrustworthy,Trustworthy","","872","","","","decision","","<div class='trialDiv'><img src='Fruit/watermelon.png'><br><font class='baseline'><strong>Watermelon Win$</strong><p>Choose number of points to bet.</font><div class='respPicDiv'><img src='img/responseButtonOffersNo0L.png' class='respPic'></div></div>","5","10","Watermelon Win$","Fruit/watermelon.png","Lost","0.2,0.65","14","0.2","171","30","",""
"html-keyboard-response","98","161044","0.0-11.0-2.29","5fe354a2e44df4fb4634bbc3","bdp_rwlrn","Sun Mar 12 2023 23:49:05 GMT-0400 (Eastern Daylight Time)","397853","Untrustworthy,Trustworthy","","null","","","","decisionFB","","<div class='trialDiv'><img src='Fruit/watermelon.png'><br><font class='baseline'><strong>Watermelon Win$</strong><p>Choose number of points to bet.</font><div class='respPicDiv'><img src='img/responseButtonOffersNo0L5.png' class='respPic'></div></div>","null","10","Watermelon Win$","Fruit/watermelon.png","Lost","0.2,0.65","14","0.2","166","30","",""
"html-keyboard-response","99","162052","0.0-11.0-3.29","5fe354a2e44df4fb4634bbc3","bdp_rwlrn","Sun Mar 12 2023 23:49:05 GMT-0400 (Eastern Daylight Time)","397853","Untrustworthy,Trustworthy","","null","","","","feedback","","<div class='respPicDiv'><img src='img/responseButtonOffersNo0_wht.png' class='respPic'></div><div class='trialDiv'><img src='Fruit/watermelon.png'><br><font class='baseline'><strong>Watermelon Win$</strong><p><strong><font class='negOutcome'>You LOST</font><p>You bet: 5</strong></font> &nbsp; &nbsp; &nbsp; &nbsp; &nbsp; &nbsp;<font class='negOutcome'>You receive: <strong>0</strong></font></div>","null","10","Watermelon Win$","Fruit/watermelon.png","Lost","0.2,0.65","14","0.2","166","30","",""
"html-keyboard-response","100","162578","0.0-11.0-1.30","5fe354a2e44df4fb4634bbc3","bdp_rwlrn","Sun Mar 12 2023 23:49:05 GMT-0400 (Eastern Daylight Time)","397853","Untrustworthy,Trustworthy","","524","","","","decision","","<div class='trialDiv'><img src='Fruit/mango.png'><br><font class='baseline'><strong>Mega Mangos</strong><p>Choose number of points to bet.</font><div class='respPicDiv'><img src='img/responseButtonOffersNo0L.png' class='respPic'></div></div>","5","11","Mega Mangos","Fruit/mango.png","Lost","0.8,0.35","13","0.8","171","31","",""
"html-keyboard-response","101","162836","0.0-11.0-2.30","5fe354a2e44df4fb4634bbc3","bdp_rwlrn","Sun Mar 12 2023 23:49:05 GMT-0400 (Eastern Daylight Time)","397853","Untrustworthy,Trustworthy","","null","","","","decisionFB","","<div class='trialDiv'><img src='Fruit/mango.png'><br><font class='baseline'><strong>Mega Mangos</strong><p>Choose number of points to bet.</font><div class='respPicDiv'><img src='img/responseButtonOffersNo0L5.png' class='respPic'></div></div>","null","11","Mega Mangos","Fruit/mango.png","Lost","0.8,0.35","13","0.8","166","31","",""
"html-keyboard-response","102","163844","0.0-11.0-3.30","5fe354a2e44df4fb4634bbc3","bdp_rwlrn","Sun Mar 12 2023 23:49:05 GMT-0400 (Eastern Daylight Time)","397853","Untrustworthy,Trustworthy","","null","","","","feedback","","<div class='respPicDiv'><img src='img/responseButtonOffersNo0_wht.png' class='respPic'></div><div class='trialDiv'><img src='Fruit/mango.png'><br><font class='baseline'><strong>Mega Mangos</strong><p><strong><font class='negOutcome'>You LOST</font><p>You bet: 5</strong></font> &nbsp; &nbsp; &nbsp; &nbsp; &nbsp; &nbsp;<font class='negOutcome'>You receive: <strong>0</strong></font></div>","null","11","Mega Mangos","Fruit/mango.png","Lost","0.8,0.35","13","0.8","166","31","",""
"html-keyboard-response","103","164268","0.0-11.0-1.31","5fe354a2e44df4fb4634bbc3","bdp_rwlrn","Sun Mar 12 2023 23:49:05 GMT-0400 (Eastern Daylight Time)","397853","Untrustworthy,Trustworthy","","422","","","","decision","","<div class='trialDiv'><img src='Fruit/lemon.png'><br><font class='baseline'><strong>Lucky Lemons</strong><p>Choose number of points to bet.</font><div class='respPicDiv'><img src='img/responseButtonOffersNo0L.png' class='respPic'></div></div>","5","11","Lucky Lemons","Fruit/lemon.png","Won","0.35,0.65","11","0.35","171","32","",""
"html-keyboard-response","104","164532","0.0-11.0-2.31","5fe354a2e44df4fb4634bbc3","bdp_rwlrn","Sun Mar 12 2023 23:49:05 GMT-0400 (Eastern Daylight Time)","397853","Untrustworthy,Trustworthy","","null","","","","decisionFB","","<div class='trialDiv'><img src='Fruit/lemon.png'><br><font class='baseline'><strong>Lucky Lemons</strong><p>Choose number of points to bet.</font><div class='respPicDiv'><img src='img/responseButtonOffersNo0L5.png' class='respPic'></div></div>","null","11","Lucky Lemons","Fruit/lemon.png","Won","0.35,0.65","11","0.35","166","32","",""
"html-keyboard-response","105","165540","0.0-11.0-3.31","5fe354a2e44df4fb4634bbc3","bdp_rwlrn","Sun Mar 12 2023 23:49:05 GMT-0400 (Eastern Daylight Time)","397853","Untrustworthy,Trustworthy","","null","","","","feedback","","<div class='respPicDiv'><img src='img/responseButtonOffersNo0_wht.png' class='respPic'></div><div class='trialDiv'><img src='Fruit/lemon.png'><br><font class='baseline'><strong>Lucky Lemons</strong><p><strong><font class='posOutcome'>You WON</font><p>You bet: 5</strong></font> &nbsp; &nbsp; &nbsp; &nbsp; &nbsp; &nbsp;<font class='posOutcome'>you receive: <strong>10</strong></font></div>","null","11","Lucky Lemons","Fruit/lemon.png","Won","0.35,0.65","11","0.35","176","32","",""
"html-keyboard-response","106","166126","0.0-11.0-1.32","5fe354a2e44df4fb4634bbc3","bdp_rwlrn","Sun Mar 12 2023 23:49:05 GMT-0400 (Eastern Daylight Time)","397853","Untrustworthy,Trustworthy","","585","","","","decision","","<div class='trialDiv'><img src='Fruit/watermelon.png'><br><font class='baseline'><strong>Watermelon Win$</strong><p>Choose number of points to bet.</font><div class='respPicDiv'><img src='img/responseButtonOffersNo0L.png' class='respPic'></div></div>","4","11","Watermelon Win$","Fruit/watermelon.png","Lost","0.2,0.65","14","0.2","181","33","",""
"html-keyboard-response","107","166386","0.0-11.0-2.32","5fe354a2e44df4fb4634bbc3","bdp_rwlrn","Sun Mar 12 2023 23:49:05 GMT-0400 (Eastern Daylight Time)","397853","Untrustworthy,Trustworthy","","null","","","","decisionFB","","<div class='trialDiv'><img src='Fruit/watermelon.png'><br><font class='baseline'><strong>Watermelon Win$</strong><p>Choose number of points to bet.</font><div class='respPicDiv'><img src='img/responseButtonOffersNo0L4.png' class='respPic'></div></div>","null","11","Watermelon Win$","Fruit/watermelon.png","Lost","0.2,0.65","14","0.2","177","33","",""
"html-keyboard-response","108","167396","0.0-11.0-3.32","5fe354a2e44df4fb4634bbc3","bdp_rwlrn","Sun Mar 12 2023 23:49:05 GMT-0400 (Eastern Daylight Time)","397853","Untrustworthy,Trustworthy","","null","","","","feedback","","<div class='respPicDiv'><img src='img/responseButtonOffersNo0_wht.png' class='respPic'></div><div class='trialDiv'><img src='Fruit/watermelon.png'><br><font class='baseline'><strong>Watermelon Win$</strong><p><strong><font class='negOutcome'>You LOST</font><p>You bet: 4</strong></font> &nbsp; &nbsp; &nbsp; &nbsp; &nbsp; &nbsp;<font class='negOutcome'>You receive: <strong>0</strong></font></div>","null","11","Watermelon Win$","Fruit/watermelon.png","Lost","0.2,0.65","14","0.2","177","33","",""
"html-keyboard-response","109","167945","0.0-11.0-1.33","5fe354a2e44df4fb4634bbc3","bdp_rwlrn","Sun Mar 12 2023 23:49:05 GMT-0400 (Eastern Daylight Time)","397853","Untrustworthy,Trustworthy","","546","","","","decision","","<div class='trialDiv'><img src='Fruit/lemon.png'><br><font class='baseline'><strong>Lucky Lemons</strong><p>Choose number of points to bet.</font><div class='respPicDiv'><img src='img/responseButtonOffersNo0L.png' class='respPic'></div></div>","5","12","Lucky Lemons","Fruit/lemon.png","Won","0.35,0.65","11","0.35","182","34","",""
"html-keyboard-response","110","168201","0.0-11.0-2.33","5fe354a2e44df4fb4634bbc3","bdp_rwlrn","Sun Mar 12 2023 23:49:05 GMT-0400 (Eastern Daylight Time)","397853","Untrustworthy,Trustworthy","","null","","","","decisionFB","","<div class='trialDiv'><img src='Fruit/lemon.png'><br><font class='baseline'><strong>Lucky Lemons</strong><p>Choose number of points to bet.</font><div class='respPicDiv'><img src='img/responseButtonOffersNo0L5.png' class='respPic'></div></div>","null","12","Lucky Lemons","Fruit/lemon.png","Won","0.35,0.65","11","0.35","177","34","",""
"html-keyboard-response","111","169209","0.0-11.0-3.33","5fe354a2e44df4fb4634bbc3","bdp_rwlrn","Sun Mar 12 2023 23:49:05 GMT-0400 (Eastern Daylight Time)","397853","Untrustworthy,Trustworthy","","null","","","","feedback","","<div class='respPicDiv'><img src='img/responseButtonOffersNo0_wht.png' class='respPic'></div><div class='trialDiv'><img src='Fruit/lemon.png'><br><font class='baseline'><strong>Lucky Lemons</strong><p><strong><font class='posOutcome'>You WON</font><p>You bet: 5</strong></font> &nbsp; &nbsp; &nbsp; &nbsp; &nbsp; &nbsp;<font class='posOutcome'>you receive: <strong>10</strong></font></div>","null","12","Lucky Lemons","Fruit/lemon.png","Won","0.35,0.65","11","0.35","187","34","",""
"html-keyboard-response","112","169903","0.0-11.0-1.34","5fe354a2e44df4fb4634bbc3","bdp_rwlrn","Sun Mar 12 2023 23:49:05 GMT-0400 (Eastern Daylight Time)","397853","Untrustworthy,Trustworthy","","693","","","","decision","","<div class='trialDiv'><img src='Fruit/mango.png'><br><font class='baseline'><strong>Mega Mangos</strong><p>Choose number of points to bet.</font><div class='respPicDiv'><img src='img/responseButtonOffersNo0L.png' class='respPic'></div></div>","5","12","Mega Mangos","Fruit/mango.png","Won","0.8,0.35","13","0.8","192","35","",""
"html-keyboard-response","113","170164","0.0-11.0-2.34","5fe354a2e44df4fb4634bbc3","bdp_rwlrn","Sun Mar 12 2023 23:49:05 GMT-0400 (Eastern Daylight Time)","397853","Untrustworthy,Trustworthy","","null","","","","decisionFB","","<div class='trialDiv'><img src='Fruit/mango.png'><br><font class='baseline'><strong>Mega Mangos</strong><p>Choose number of points to bet.</font><div class='respPicDiv'><img src='img/responseButtonOffersNo0L5.png' class='respPic'></div></div>","null","12","Mega Mangos","Fruit/mango.png","Won","0.8,0.35","13","0.8","187","35","",""
"html-keyboard-response","114","171172","0.0-11.0-3.34","5fe354a2e44df4fb4634bbc3","bdp_rwlrn","Sun Mar 12 2023 23:49:05 GMT-0400 (Eastern Daylight Time)","397853","Untrustworthy,Trustworthy","","null","","","","feedback","","<div class='respPicDiv'><img src='img/responseButtonOffersNo0_wht.png' class='respPic'></div><div class='trialDiv'><img src='Fruit/mango.png'><br><font class='baseline'><strong>Mega Mangos</strong><p><strong><font class='posOutcome'>You WON</font><p>You bet: 5</strong></font> &nbsp; &nbsp; &nbsp; &nbsp; &nbsp; &nbsp;<font class='posOutcome'>you receive: <strong>10</strong></font></div>","null","12","Mega Mangos","Fruit/mango.png","Won","0.8,0.35","13","0.8","197","35","",""
"html-keyboard-response","115","172121","0.0-11.0-1.35","5fe354a2e44df4fb4634bbc3","bdp_rwlrn","Sun Mar 12 2023 23:49:05 GMT-0400 (Eastern Daylight Time)","397853","Untrustworthy,Trustworthy","","946","","","","decision","","<div class='trialDiv'><img src='Fruit/watermelon.png'><br><font class='baseline'><strong>Watermelon Win$</strong><p>Choose number of points to bet.</font><div class='respPicDiv'><img src='img/responseButtonOffersNo0L.png' class='respPic'></div></div>","1","12","Watermelon Win$","Fruit/watermelon.png","Lost","0.2,0.65","14","0.2","202","36","",""
"html-keyboard-response","116","172377","0.0-11.0-2.35","5fe354a2e44df4fb4634bbc3","bdp_rwlrn","Sun Mar 12 2023 23:49:05 GMT-0400 (Eastern Daylight Time)","397853","Untrustworthy,Trustworthy","","null","","","","decisionFB","","<div class='trialDiv'><img src='Fruit/watermelon.png'><br><font class='baseline'><strong>Watermelon Win$</strong><p>Choose number of points to bet.</font><div class='respPicDiv'><img src='img/responseButtonOffersNo0L1.png' class='respPic'></div></div>","null","12","Watermelon Win$","Fruit/watermelon.png","Lost","0.2,0.65","14","0.2","201","36","",""
"html-keyboard-response","117","173385","0.0-11.0-3.35","5fe354a2e44df4fb4634bbc3","bdp_rwlrn","Sun Mar 12 2023 23:49:05 GMT-0400 (Eastern Daylight Time)","397853","Untrustworthy,Trustworthy","","null","","","","feedback","","<div class='respPicDiv'><img src='img/responseButtonOffersNo0_wht.png' class='respPic'></div><div class='trialDiv'><img src='Fruit/watermelon.png'><br><font class='baseline'><strong>Watermelon Win$</strong><p><strong><font class='negOutcome'>You LOST</font><p>You bet: 1</strong></font> &nbsp; &nbsp; &nbsp; &nbsp; &nbsp; &nbsp;<font class='negOutcome'>You receive: <strong>0</strong></font></div>","null","12","Watermelon Win$","Fruit/watermelon.png","Lost","0.2,0.65","14","0.2","201","36","",""
"html-keyboard-response","118","174522","0.0-11.0-1.36","5fe354a2e44df4fb4634bbc3","bdp_rwlrn","Sun Mar 12 2023 23:49:05 GMT-0400 (Eastern Daylight Time)","397853","Untrustworthy,Trustworthy","","1135","","","","decision","","<div class='trialDiv'><img src='Fruit/mango.png'><br><font class='baseline'><strong>Mega Mangos</strong><p>Choose number of points to bet.</font><div class='respPicDiv'><img src='img/responseButtonOffersNo0L.png' class='respPic'></div></div>","5","13","Mega Mangos","Fruit/mango.png","Won","0.8,0.35","13","0.8","206","37","",""
"html-keyboard-response","119","174777","0.0-11.0-2.36","5fe354a2e44df4fb4634bbc3","bdp_rwlrn","Sun Mar 12 2023 23:49:05 GMT-0400 (Eastern Daylight Time)","397853","Untrustworthy,Trustworthy","","null","","","","decisionFB","","<div class='trialDiv'><img src='Fruit/mango.png'><br><font class='baseline'><strong>Mega Mangos</strong><p>Choose number of points to bet.</font><div class='respPicDiv'><img src='img/responseButtonOffersNo0L5.png' class='respPic'></div></div>","null","13","Mega Mangos","Fruit/mango.png","Won","0.8,0.35","13","0.8","201","37","",""
"html-keyboard-response","120","175780","0.0-11.0-3.36","5fe354a2e44df4fb4634bbc3","bdp_rwlrn","Sun Mar 12 2023 23:49:05 GMT-0400 (Eastern Daylight Time)","397853","Untrustworthy,Trustworthy","","null","","","","feedback","","<div class='respPicDiv'><img src='img/responseButtonOffersNo0_wht.png' class='respPic'></div><div class='trialDiv'><img src='Fruit/mango.png'><br><font class='baseline'><strong>Mega Mangos</strong><p><strong><font class='posOutcome'>You WON</font><p>You bet: 5</strong></font> &nbsp; &nbsp; &nbsp; &nbsp; &nbsp; &nbsp;<font class='posOutcome'>you receive: <strong>10</strong></font></div>","null","13","Mega Mangos","Fruit/mango.png","Won","0.8,0.35","13","0.8","211","37","",""
"html-keyboard-response","121","177033","0.0-11.0-1.37","5fe354a2e44df4fb4634bbc3","bdp_rwlrn","Sun Mar 12 2023 23:49:05 GMT-0400 (Eastern Daylight Time)","397853","Untrustworthy,Trustworthy","","1252","","","","decision","","<div class='trialDiv'><img src='Fruit/lemon.png'><br><font class='baseline'><strong>Lucky Lemons</strong><p>Choose number of points to bet.</font><div class='respPicDiv'><img src='img/responseButtonOffersNo0L.png' class='respPic'></div></div>","2","13","Lucky Lemons","Fruit/lemon.png","Won","0.35,0.65","11","0.35","216","38","",""
"html-keyboard-response","122","177289","0.0-11.0-2.37","5fe354a2e44df4fb4634bbc3","bdp_rwlrn","Sun Mar 12 2023 23:49:05 GMT-0400 (Eastern Daylight Time)","397853","Untrustworthy,Trustworthy","","null","","","","decisionFB","","<div class='trialDiv'><img src='Fruit/lemon.png'><br><font class='baseline'><strong>Lucky Lemons</strong><p>Choose number of points to bet.</font><div class='respPicDiv'><img src='img/responseButtonOffersNo0L2.png' class='respPic'></div></div>","null","13","Lucky Lemons","Fruit/lemon.png","Won","0.35,0.65","11","0.35","214","38","",""
"html-keyboard-response","123","178297","0.0-11.0-3.37","5fe354a2e44df4fb4634bbc3","bdp_rwlrn","Sun Mar 12 2023 23:49:05 GMT-0400 (Eastern Daylight Time)","397853","Untrustworthy,Trustworthy","","null","","","","feedback","","<div class='respPicDiv'><img src='img/responseButtonOffersNo0_wht.png' class='respPic'></div><div class='trialDiv'><img src='Fruit/lemon.png'><br><font class='baseline'><strong>Lucky Lemons</strong><p><strong><font class='posOutcome'>You WON</font><p>You bet: 2</strong></font> &nbsp; &nbsp; &nbsp; &nbsp; &nbsp; &nbsp;<font class='posOutcome'>you receive: <strong>4</strong></font></div>","null","13","Lucky Lemons","Fruit/lemon.png","Won","0.35,0.65","11","0.35","218","38","",""
"html-keyboard-response","124","179061","0.0-11.0-1.38","5fe354a2e44df4fb4634bbc3","bdp_rwlrn","Sun Mar 12 2023 23:49:05 GMT-0400 (Eastern Daylight Time)","397853","Untrustworthy,Trustworthy","","762","","","","decision","","<div class='trialDiv'><img src='Fruit/watermelon.png'><br><font class='baseline'><strong>Watermelon Win$</strong><p>Choose number of points to bet.</font><div class='respPicDiv'><img src='img/responseButtonOffersNo0L.png' class='respPic'></div></div>","1","13","Watermelon Win$","Fruit/watermelon.png","Lost","0.2,0.65","14","0.2","223","39","",""
"html-keyboard-response","125","179321","0.0-11.0-2.38","5fe354a2e44df4fb4634bbc3","bdp_rwlrn","Sun Mar 12 2023 23:49:05 GMT-0400 (Eastern Daylight Time)","397853","Untrustworthy,Trustworthy","","null","","","","decisionFB","","<div class='trialDiv'><img src='Fruit/watermelon.png'><br><font class='baseline'><strong>Watermelon Win$</strong><p>Choose number of points to bet.</font><div class='respPicDiv'><img src='img/responseButtonOffersNo0L1.png' class='respPic'></div></div>","null","13","Watermelon Win$","Fruit/watermelon.png","Lost","0.2,0.65","14","0.2","222","39","",""
"html-keyboard-response","126","180329","0.0-11.0-3.38","5fe354a2e44df4fb4634bbc3","bdp_rwlrn","Sun Mar 12 2023 23:49:05 GMT-0400 (Eastern Daylight Time)","397853","Untrustworthy,Trustworthy","","null","","","","feedback","","<div class='respPicDiv'><img src='img/responseButtonOffersNo0_wht.png' class='respPic'></div><div class='trialDiv'><img src='Fruit/watermelon.png'><br><font class='baseline'><strong>Watermelon Win$</strong><p><strong><font class='negOutcome'>You LOST</font><p>You bet: 1</strong></font> &nbsp; &nbsp; &nbsp; &nbsp; &nbsp; &nbsp;<font class='negOutcome'>You receive: <strong>0</strong></font></div>","null","13","Watermelon Win$","Fruit/watermelon.png","Lost","0.2,0.65","14","0.2","222","39","",""
"html-keyboard-response","127","180933","0.0-11.0-1.39","5fe354a2e44df4fb4634bbc3","bdp_rwlrn","Sun Mar 12 2023 23:49:05 GMT-0400 (Eastern Daylight Time)","397853","Untrustworthy,Trustworthy","","603","","","","decision","","<div class='trialDiv'><img src='Fruit/mango.png'><br><font class='baseline'><strong>Mega Mangos</strong><p>Choose number of points to bet.</font><div class='respPicDiv'><img src='img/responseButtonOffersNo0L.png' class='respPic'></div></div>","5","14","Mega Mangos","Fruit/mango.png","Lost","0.8,0.35","13","0.8","227","40","",""
"html-keyboard-response","128","181193","0.0-11.0-2.39","5fe354a2e44df4fb4634bbc3","bdp_rwlrn","Sun Mar 12 2023 23:49:05 GMT-0400 (Eastern Daylight Time)","397853","Untrustworthy,Trustworthy","","null","","","","decisionFB","","<div class='trialDiv'><img src='Fruit/mango.png'><br><font class='baseline'><strong>Mega Mangos</strong><p>Choose number of points to bet.</font><div class='respPicDiv'><img src='img/responseButtonOffersNo0L5.png' class='respPic'></div></div>","null","14","Mega Mangos","Fruit/mango.png","Lost","0.8,0.35","13","0.8","222","40","",""
"html-keyboard-response","129","182201","0.0-11.0-3.39","5fe354a2e44df4fb4634bbc3","bdp_rwlrn","Sun Mar 12 2023 23:49:05 GMT-0400 (Eastern Daylight Time)","397853","Untrustworthy,Trustworthy","","null","","","","feedback","","<div class='respPicDiv'><img src='img/responseButtonOffersNo0_wht.png' class='respPic'></div><div class='trialDiv'><img src='Fruit/mango.png'><br><font class='baseline'><strong>Mega Mangos</strong><p><strong><font class='negOutcome'>You LOST</font><p>You bet: 5</strong></font> &nbsp; &nbsp; &nbsp; &nbsp; &nbsp; &nbsp;<font class='negOutcome'>You receive: <strong>0</strong></font></div>","null","14","Mega Mangos","Fruit/mango.png","Lost","0.8,0.35","13","0.8","222","40","",""
"html-keyboard-response","130","182898","0.0-11.0-1.40","5fe354a2e44df4fb4634bbc3","bdp_rwlrn","Sun Mar 12 2023 23:49:05 GMT-0400 (Eastern Daylight Time)","397853","Untrustworthy,Trustworthy","","696","","","","decision","","<div class='trialDiv'><img src='Fruit/watermelon.png'><br><font class='baseline'><strong>Watermelon Win$</strong><p>Choose number of points to bet.</font><div class='respPicDiv'><img src='img/responseButtonOffersNo0L.png' class='respPic'></div></div>","1","14","Watermelon Win$","Fruit/watermelon.png","Lost","0.2,0.65","14","0.2","227","41","",""
"html-keyboard-response","131","183155","0.0-11.0-2.40","5fe354a2e44df4fb4634bbc3","bdp_rwlrn","Sun Mar 12 2023 23:49:05 GMT-0400 (Eastern Daylight Time)","397853","Untrustworthy,Trustworthy","","null","","","","decisionFB","","<div class='trialDiv'><img src='Fruit/watermelon.png'><br><font class='baseline'><strong>Watermelon Win$</strong><p>Choose number of points to bet.</font><div class='respPicDiv'><img src='img/responseButtonOffersNo0L1.png' class='respPic'></div></div>","null","14","Watermelon Win$","Fruit/watermelon.png","Lost","0.2,0.65","14","0.2","226","41","",""
"html-keyboard-response","132","184163","0.0-11.0-3.40","5fe354a2e44df4fb4634bbc3","bdp_rwlrn","Sun Mar 12 2023 23:49:05 GMT-0400 (Eastern Daylight Time)","397853","Untrustworthy,Trustworthy","","null","","","","feedback","","<div class='respPicDiv'><img src='img/responseButtonOffersNo0_wht.png' class='respPic'></div><div class='trialDiv'><img src='Fruit/watermelon.png'><br><font class='baseline'><strong>Watermelon Win$</strong><p><strong><font class='negOutcome'>You LOST</font><p>You bet: 1</strong></font> &nbsp; &nbsp; &nbsp; &nbsp; &nbsp; &nbsp;<font class='negOutcome'>You receive: <strong>0</strong></font></div>","null","14","Watermelon Win$","Fruit/watermelon.png","Lost","0.2,0.65","14","0.2","226","41","",""
"html-keyboard-response","133","184757","0.0-11.0-1.41","5fe354a2e44df4fb4634bbc3","bdp_rwlrn","Sun Mar 12 2023 23:49:05 GMT-0400 (Eastern Daylight Time)","397853","Untrustworthy,Trustworthy","","592","","","","decision","","<div class='trialDiv'><img src='Fruit/lemon.png'><br><font class='baseline'><strong>Lucky Lemons</strong><p>Choose number of points to bet.</font><div class='respPicDiv'><img src='img/responseButtonOffersNo0L.png' class='respPic'></div></div>","2","14","Lucky Lemons","Fruit/lemon.png","Won","0.35,0.65","11","0.35","231","42","",""
"html-keyboard-response","134","185017","0.0-11.0-2.41","5fe354a2e44df4fb4634bbc3","bdp_rwlrn","Sun Mar 12 2023 23:49:05 GMT-0400 (Eastern Daylight Time)","397853","Untrustworthy,Trustworthy","","null","","","","decisionFB","","<div class='trialDiv'><img src='Fruit/lemon.png'><br><font class='baseline'><strong>Lucky Lemons</strong><p>Choose number of points to bet.</font><div class='respPicDiv'><img src='img/responseButtonOffersNo0L2.png' class='respPic'></div></div>","null","14","Lucky Lemons","Fruit/lemon.png","Won","0.35,0.65","11","0.35","229","42","",""
"html-keyboard-response","135","186025","0.0-11.0-3.41","5fe354a2e44df4fb4634bbc3","bdp_rwlrn","Sun Mar 12 2023 23:49:05 GMT-0400 (Eastern Daylight Time)","397853","Untrustworthy,Trustworthy","","null","","","","feedback","","<div class='respPicDiv'><img src='img/responseButtonOffersNo0_wht.png' class='respPic'></div><div class='trialDiv'><img src='Fruit/lemon.png'><br><font class='baseline'><strong>Lucky Lemons</strong><p><strong><font class='posOutcome'>You WON</font><p>You bet: 2</strong></font> &nbsp; &nbsp; &nbsp; &nbsp; &nbsp; &nbsp;<font class='posOutcome'>you receive: <strong>4</strong></font></div>","null","14","Lucky Lemons","Fruit/lemon.png","Won","0.35,0.65","11","0.35","233","42","",""
"html-keyboard-response","136","186638","0.0-11.0-1.42","5fe354a2e44df4fb4634bbc3","bdp_rwlrn","Sun Mar 12 2023 23:49:05 GMT-0400 (Eastern Daylight Time)","397853","Untrustworthy,Trustworthy","","611","","","","decision","","<div class='trialDiv'><img src='Fruit/mango.png'><br><font class='baseline'><strong>Mega Mangos</strong><p>Choose number of points to bet.</font><div class='respPicDiv'><img src='img/responseButtonOffersNo0L.png' class='respPic'></div></div>","2","15","Mega Mangos","Fruit/mango.png","Lost","0.8,0.35","13","0.8","238","43","",""
"html-keyboard-response","137","186899","0.0-11.0-2.42","5fe354a2e44df4fb4634bbc3","bdp_rwlrn","Sun Mar 12 2023 23:49:05 GMT-0400 (Eastern Daylight Time)","397853","Untrustworthy,Trustworthy","","null","","","","decisionFB","","<div class='trialDiv'><img src='Fruit/mango.png'><br><font class='baseline'><strong>Mega Mangos</strong><p>Choose number of points to bet.</font><div class='respPicDiv'><img src='img/responseButtonOffersNo0L2.png' class='respPic'></div></div>","null","15","Mega Mangos","Fruit/mango.png","Lost","0.8,0.35","13","0.8","236","43","",""
"html-keyboard-response","138","187907","0.0-11.0-3.42","5fe354a2e44df4fb4634bbc3","bdp_rwlrn","Sun Mar 12 2023 23:49:05 GMT-0400 (Eastern Daylight Time)","397853","Untrustworthy,Trustworthy","","null","","","","feedback","","<div class='respPicDiv'><img src='img/responseButtonOffersNo0_wht.png' class='respPic'></div><div class='trialDiv'><img src='Fruit/mango.png'><br><font class='baseline'><strong>Mega Mangos</strong><p><strong><font class='negOutcome'>You LOST</font><p>You bet: 2</strong></font> &nbsp; &nbsp; &nbsp; &nbsp; &nbsp; &nbsp;<font class='negOutcome'>You receive: <strong>0</strong></font></div>","null","15","Mega Mangos","Fruit/mango.png","Lost","0.8,0.35","13","0.8","236","43","",""
"html-keyboard-response","139","188465","0.0-11.0-1.43","5fe354a2e44df4fb4634bbc3","bdp_rwlrn","Sun Mar 12 2023 23:49:05 GMT-0400 (Eastern Daylight Time)","397853","Untrustworthy,Trustworthy","","556","","","","decision","","<div class='trialDiv'><img src='Fruit/watermelon.png'><br><font class='baseline'><strong>Watermelon Win$</strong><p>Choose number of points to bet.</font><div class='respPicDiv'><img src='img/responseButtonOffersNo0L.png' class='respPic'></div></div>","2","15","Watermelon Win$","Fruit/watermelon.png","Won","0.2,0.65","14","0.2","241","44","",""
"html-keyboard-response","140","188723","0.0-11.0-2.43","5fe354a2e44df4fb4634bbc3","bdp_rwlrn","Sun Mar 12 2023 23:49:05 GMT-0400 (Eastern Daylight Time)","397853","Untrustworthy,Trustworthy","","null","","","","decisionFB","","<div class='trialDiv'><img src='Fruit/watermelon.png'><br><font class='baseline'><strong>Watermelon Win$</strong><p>Choose number of points to bet.</font><div class='respPicDiv'><img src='img/responseButtonOffersNo0L2.png' class='respPic'></div></div>","null","15","Watermelon Win$","Fruit/watermelon.png","Won","0.2,0.65","14","0.2","239","44","",""
"html-keyboard-response","141","189731","0.0-11.0-3.43","5fe354a2e44df4fb4634bbc3","bdp_rwlrn","Sun Mar 12 2023 23:49:05 GMT-0400 (Eastern Daylight Time)","397853","Untrustworthy,Trustworthy","","null","","","","feedback","","<div class='respPicDiv'><img src='img/responseButtonOffersNo0_wht.png' class='respPic'></div><div class='trialDiv'><img src='Fruit/watermelon.png'><br><font class='baseline'><strong>Watermelon Win$</strong><p><strong><font class='posOutcome'>You WON</font><p>You bet: 2</strong></font> &nbsp; &nbsp; &nbsp; &nbsp; &nbsp; &nbsp;<font class='posOutcome'>you receive: <strong>4</strong></font></div>","null","15","Watermelon Win$","Fruit/watermelon.png","Won","0.2,0.65","14","0.2","243","44","",""
"html-keyboard-response","142","190465","0.0-11.0-1.44","5fe354a2e44df4fb4634bbc3","bdp_rwlrn","Sun Mar 12 2023 23:49:05 GMT-0400 (Eastern Daylight Time)","397853","Untrustworthy,Trustworthy","","732","","","","decision","","<div class='trialDiv'><img src='Fruit/lemon.png'><br><font class='baseline'><strong>Lucky Lemons</strong><p>Choose number of points to bet.</font><div class='respPicDiv'><img src='img/responseButtonOffersNo0L.png' class='respPic'></div></div>","5","15","Lucky Lemons","Fruit/lemon.png","Won","0.35,0.65","11","0.35","248","45","",""
"html-keyboard-response","143","190723","0.0-11.0-2.44","5fe354a2e44df4fb4634bbc3","bdp_rwlrn","Sun Mar 12 2023 23:49:05 GMT-0400 (Eastern Daylight Time)","397853","Untrustworthy,Trustworthy","","null","","","","decisionFB","","<div class='trialDiv'><img src='Fruit/lemon.png'><br><font class='baseline'><strong>Lucky Lemons</strong><p>Choose number of points to bet.</font><div class='respPicDiv'><img src='img/responseButtonOffersNo0L5.png' class='respPic'></div></div>","null","15","Lucky Lemons","Fruit/lemon.png","Won","0.35,0.65","11","0.35","243","45","",""
"html-keyboard-response","144","191731","0.0-11.0-3.44","5fe354a2e44df4fb4634bbc3","bdp_rwlrn","Sun Mar 12 2023 23:49:05 GMT-0400 (Eastern Daylight Time)","397853","Untrustworthy,Trustworthy","","null","","","","feedback","","<div class='respPicDiv'><img src='img/responseButtonOffersNo0_wht.png' class='respPic'></div><div class='trialDiv'><img src='Fruit/lemon.png'><br><font class='baseline'><strong>Lucky Lemons</strong><p><strong><font class='posOutcome'>You WON</font><p>You bet: 5</strong></font> &nbsp; &nbsp; &nbsp; &nbsp; &nbsp; &nbsp;<font class='posOutcome'>you receive: <strong>10</strong></font></div>","null","15","Lucky Lemons","Fruit/lemon.png","Won","0.35,0.65","11","0.35","253","45","",""
"html-keyboard-response","145","192624","0.0-11.0-1.45","5fe354a2e44df4fb4634bbc3","bdp_rwlrn","Sun Mar 12 2023 23:49:05 GMT-0400 (Eastern Daylight Time)","397853","Untrustworthy,Trustworthy","","891","","","","decision","","<div class='trialDiv'><img src='Fruit/watermelon.png'><br><font class='baseline'><strong>Watermelon Win$</strong><p>Choose number of points to bet.</font><div class='respPicDiv'><img src='img/responseButtonOffersNo0L.png' class='respPic'></div></div>","2","16","Watermelon Win$","Fruit/watermelon.png","Lost","0.2,0.65","14","0.2","258","46","",""
"html-keyboard-response","146","192881","0.0-11.0-2.45","5fe354a2e44df4fb4634bbc3","bdp_rwlrn","Sun Mar 12 2023 23:49:05 GMT-0400 (Eastern Daylight Time)","397853","Untrustworthy,Trustworthy","","null","","","","decisionFB","","<div class='trialDiv'><img src='Fruit/watermelon.png'><br><font class='baseline'><strong>Watermelon Win$</strong><p>Choose number of points to bet.</font><div class='respPicDiv'><img src='img/responseButtonOffersNo0L2.png' class='respPic'></div></div>","null","16","Watermelon Win$","Fruit/watermelon.png","Lost","0.2,0.65","14","0.2","256","46","",""
"html-keyboard-response","147","193891","0.0-11.0-3.45","5fe354a2e44df4fb4634bbc3","bdp_rwlrn","Sun Mar 12 2023 23:49:05 GMT-0400 (Eastern Daylight Time)","397853","Untrustworthy,Trustworthy","","null","","","","feedback","","<div class='respPicDiv'><img src='img/responseButtonOffersNo0_wht.png' class='respPic'></div><div class='trialDiv'><img src='Fruit/watermelon.png'><br><font class='baseline'><strong>Watermelon Win$</strong><p><strong><font class='negOutcome'>You LOST</font><p>You bet: 2</strong></font> &nbsp; &nbsp; &nbsp; &nbsp; &nbsp; &nbsp;<font class='negOutcome'>You receive: <strong>0</strong></font></div>","null","16","Watermelon Win$","Fruit/watermelon.png","Lost","0.2,0.65","14","0.2","256","46","",""
"html-keyboard-response","148","194378","0.0-11.0-1.46","5fe354a2e44df4fb4634bbc3","bdp_rwlrn","Sun Mar 12 2023 23:49:05 GMT-0400 (Eastern Daylight Time)","397853","Untrustworthy,Trustworthy","","484","","","","decision","","<div class='trialDiv'><img src='Fruit/mango.png'><br><font class='baseline'><strong>Mega Mangos</strong><p>Choose number of points to bet.</font><div class='respPicDiv'><img src='img/responseButtonOffersNo0L.png' class='respPic'></div></div>","5","16","Mega Mangos","Fruit/mango.png","Lost","0.8,0.35","13","0.8","261","47","",""
"html-keyboard-response","149","194632","0.0-11.0-2.46","5fe354a2e44df4fb4634bbc3","bdp_rwlrn","Sun Mar 12 2023 23:49:05 GMT-0400 (Eastern Daylight Time)","397853","Untrustworthy,Trustworthy","","null","","","","decisionFB","","<div class='trialDiv'><img src='Fruit/mango.png'><br><font class='baseline'><strong>Mega Mangos</strong><p>Choose number of points to bet.</font><div class='respPicDiv'><img src='img/responseButtonOffersNo0L5.png' class='respPic'></div></div>","null","16","Mega Mangos","Fruit/mango.png","Lost","0.8,0.35","13","0.8","256","47","",""
"html-keyboard-response","150","195640","0.0-11.0-3.46","5fe354a2e44df4fb4634bbc3","bdp_rwlrn","Sun Mar 12 2023 23:49:05 GMT-0400 (Eastern Daylight Time)","397853","Untrustworthy,Trustworthy","","null","","","","feedback","","<div class='respPicDiv'><img src='img/responseButtonOffersNo0_wht.png' class='respPic'></div><div class='trialDiv'><img src='Fruit/mango.png'><br><font class='baseline'><strong>Mega Mangos</strong><p><strong><font class='negOutcome'>You LOST</font><p>You bet: 5</strong></font> &nbsp; &nbsp; &nbsp; &nbsp; &nbsp; &nbsp;<font class='negOutcome'>You receive: <strong>0</strong></font></div>","null","16","Mega Mangos","Fruit/mango.png","Lost","0.8,0.35","13","0.8","256","47","",""
"html-keyboard-response","151","196056","0.0-11.0-1.47","5fe354a2e44df4fb4634bbc3","bdp_rwlrn","Sun Mar 12 2023 23:49:05 GMT-0400 (Eastern Daylight Time)","397853","Untrustworthy,Trustworthy","","413","","","","decision","","<div class='trialDiv'><img src='Fruit/lemon.png'><br><font class='baseline'><strong>Lucky Lemons</strong><p>Choose number of points to bet.</font><div class='respPicDiv'><img src='img/responseButtonOffersNo0L.png' class='respPic'></div></div>","5","16","Lucky Lemons","Fruit/lemon.png","Won","0.35,0.65","11","0.35","261","48","",""
"html-keyboard-response","152","196312","0.0-11.0-2.47","5fe354a2e44df4fb4634bbc3","bdp_rwlrn","Sun Mar 12 2023 23:49:05 GMT-0400 (Eastern Daylight Time)","397853","Untrustworthy,Trustworthy","","null","","","","decisionFB","","<div class='trialDiv'><img src='Fruit/lemon.png'><br><font class='baseline'><strong>Lucky Lemons</strong><p>Choose number of points to bet.</font><div class='respPicDiv'><img src='img/responseButtonOffersNo0L5.png' class='respPic'></div></div>","null","16","Lucky Lemons","Fruit/lemon.png","Won","0.35,0.65","11","0.35","256","48","",""
"html-keyboard-response","153","197320","0.0-11.0-3.47","5fe354a2e44df4fb4634bbc3","bdp_rwlrn","Sun Mar 12 2023 23:49:05 GMT-0400 (Eastern Daylight Time)","397853","Untrustworthy,Trustworthy","","null","","","","feedback","","<div class='respPicDiv'><img src='img/responseButtonOffersNo0_wht.png' class='respPic'></div><div class='trialDiv'><img src='Fruit/lemon.png'><br><font class='baseline'><strong>Lucky Lemons</strong><p><strong><font class='posOutcome'>You WON</font><p>You bet: 5</strong></font> &nbsp; &nbsp; &nbsp; &nbsp; &nbsp; &nbsp;<font class='posOutcome'>you receive: <strong>10</strong></font></div>","null","16","Lucky Lemons","Fruit/lemon.png","Won","0.35,0.65","11","0.35","266","48","",""
"html-keyboard-response","154","197852","0.0-11.0-1.48","5fe354a2e44df4fb4634bbc3","bdp_rwlrn","Sun Mar 12 2023 23:49:05 GMT-0400 (Eastern Daylight Time)","397853","Untrustworthy,Trustworthy","","529","","","","decision","","<div class='trialDiv'><img src='Fruit/watermelon.png'><br><font class='baseline'><strong>Watermelon Win$</strong><p>Choose number of points to bet.</font><div class='respPicDiv'><img src='img/responseButtonOffersNo0L.png' class='respPic'></div></div>","2","17","Watermelon Win$","Fruit/watermelon.png","Won","0.2,0.65","14","0.2","271","49","",""
"html-keyboard-response","155","198115","0.0-11.0-2.48","5fe354a2e44df4fb4634bbc3","bdp_rwlrn","Sun Mar 12 2023 23:49:05 GMT-0400 (Eastern Daylight Time)","397853","Untrustworthy,Trustworthy","","null","","","","decisionFB","","<div class='trialDiv'><img src='Fruit/watermelon.png'><br><font class='baseline'><strong>Watermelon Win$</strong><p>Choose number of points to bet.</font><div class='respPicDiv'><img src='img/responseButtonOffersNo0L2.png' class='respPic'></div></div>","null","17","Watermelon Win$","Fruit/watermelon.png","Won","0.2,0.65","14","0.2","269","49","",""
"html-keyboard-response","156","199123","0.0-11.0-3.48","5fe354a2e44df4fb4634bbc3","bdp_rwlrn","Sun Mar 12 2023 23:49:05 GMT-0400 (Eastern Daylight Time)","397853","Untrustworthy,Trustworthy","","null","","","","feedback","","<div class='respPicDiv'><img src='img/responseButtonOffersNo0_wht.png' class='respPic'></div><div class='trialDiv'><img src='Fruit/watermelon.png'><br><font class='baseline'><strong>Watermelon Win$</strong><p><strong><font class='posOutcome'>You WON</font><p>You bet: 2</strong></font> &nbsp; &nbsp; &nbsp; &nbsp; &nbsp; &nbsp;<font class='posOutcome'>you receive: <strong>4</strong></font></div>","null","17","Watermelon Win$","Fruit/watermelon.png","Won","0.2,0.65","14","0.2","273","49","",""
"html-keyboard-response","157","200120","0.0-11.0-1.49","5fe354a2e44df4fb4634bbc3","bdp_rwlrn","Sun Mar 12 2023 23:49:05 GMT-0400 (Eastern Daylight Time)","397853","Untrustworthy,Trustworthy","","996","","","","decision","","<div class='trialDiv'><img src='Fruit/lemon.png'><br><font class='baseline'><strong>Lucky Lemons</strong><p>Choose number of points to bet.</font><div class='respPicDiv'><img src='img/responseButtonOffersNo0L.png' class='respPic'></div></div>","1","17","Lucky Lemons","Fruit/lemon.png","Won","0.35,0.65","11","0.35","278","50","",""
"html-keyboard-response","158","200376","0.0-11.0-2.49","5fe354a2e44df4fb4634bbc3","bdp_rwlrn","Sun Mar 12 2023 23:49:05 GMT-0400 (Eastern Daylight Time)","397853","Untrustworthy,Trustworthy","","null","","","","decisionFB","","<div class='trialDiv'><img src='Fruit/lemon.png'><br><font class='baseline'><strong>Lucky Lemons</strong><p>Choose number of points to bet.</font><div class='respPicDiv'><img src='img/responseButtonOffersNo0L1.png' class='respPic'></div></div>","null","17","Lucky Lemons","Fruit/lemon.png","Won","0.35,0.65","11","0.35","277","50","",""
"html-keyboard-response","159","201384","0.0-11.0-3.49","5fe354a2e44df4fb4634bbc3","bdp_rwlrn","Sun Mar 12 2023 23:49:05 GMT-0400 (Eastern Daylight Time)","397853","Untrustworthy,Trustworthy","","null","","","","feedback","","<div class='respPicDiv'><img src='img/responseButtonOffersNo0_wht.png' class='respPic'></div><div class='trialDiv'><img src='Fruit/lemon.png'><br><font class='baseline'><strong>Lucky Lemons</strong><p><strong><font class='posOutcome'>You WON</font><p>You bet: 1</strong></font> &nbsp; &nbsp; &nbsp; &nbsp; &nbsp; &nbsp;<font class='posOutcome'>you receive: <strong>2</strong></font></div>","null","17","Lucky Lemons","Fruit/lemon.png","Won","0.35,0.65","11","0.35","279","50","",""
"html-keyboard-response","160","201944","0.0-11.0-1.50","5fe354a2e44df4fb4634bbc3","bdp_rwlrn","Sun Mar 12 2023 23:49:05 GMT-0400 (Eastern Daylight Time)","397853","Untrustworthy,Trustworthy","","559","","","","decision","","<div class='trialDiv'><img src='Fruit/mango.png'><br><font class='baseline'><strong>Mega Mangos</strong><p>Choose number of points to bet.</font><div class='respPicDiv'><img src='img/responseButtonOffersNo0L.png' class='respPic'></div></div>","1","17","Mega Mangos","Fruit/mango.png","Lost","0.8,0.35","13","0.8","284","51","",""
"html-keyboard-response","161","202200","0.0-11.0-2.50","5fe354a2e44df4fb4634bbc3","bdp_rwlrn","Sun Mar 12 2023 23:49:05 GMT-0400 (Eastern Daylight Time)","397853","Untrustworthy,Trustworthy","","null","","","","decisionFB","","<div class='trialDiv'><img src='Fruit/mango.png'><br><font class='baseline'><strong>Mega Mangos</strong><p>Choose number of points to bet.</font><div class='respPicDiv'><img src='img/responseButtonOffersNo0L1.png' class='respPic'></div></div>","null","17","Mega Mangos","Fruit/mango.png","Lost","0.8,0.35","13","0.8","283","51","",""
"html-keyboard-response","162","203208","0.0-11.0-3.50","5fe354a2e44df4fb4634bbc3","bdp_rwlrn","Sun Mar 12 2023 23:49:05 GMT-0400 (Eastern Daylight Time)","397853","Untrustworthy,Trustworthy","","null","","","","feedback","","<div class='respPicDiv'><img src='img/responseButtonOffersNo0_wht.png' class='respPic'></div><div class='trialDiv'><img src='Fruit/mango.png'><br><font class='baseline'><strong>Mega Mangos</strong><p><strong><font class='negOutcome'>You LOST</font><p>You bet: 1</strong></font> &nbsp; &nbsp; &nbsp; &nbsp; &nbsp; &nbsp;<font class='negOutcome'>You receive: <strong>0</strong></font></div>","null","17","Mega Mangos","Fruit/mango.png","Lost","0.8,0.35","13","0.8","283","51","",""
