"event","trial","time","trialtype","subject_id","task","startTime","totalTime","labels","trial_type","trial_index","time_elapsed","internal_node_id","view_history","rt","success","stimulus","key_press","ltround","name","fileID","outcome","lottotype","lottoswpt","lottocurrpshare","point_total","round","faceID","face"
"focus","0","0","focusevent","63d42c21dc6f4d60e34cc337","bdp_rwlrn","Fri Mar 10 2023 14:22:17 GMT-0600 (Central Standard Time)","503410","Trustworthy,Untrustworthy","","","","","","","","","","","","","","","","","","","",""
"focus","0","0","focusevent","63d42c21dc6f4d60e34cc337","bdp_rwlrn","Fri Mar 10 2023 14:22:17 GMT-0600 (Central Standard Time)","503410","Trustworthy,Untrustworthy","","","","","","","","","","","","","","","","","","","",""
"","","","","63d42c21dc6f4d60e34cc337","bdp_rwlrn","Fri Mar 10 2023 14:22:17 GMT-0600 (Central Standard Time)","503410","Trustworthy,Untrustworthy","pavlovia","0","10","0.0-0.0","","","","","","","","","","","","","","","",""
"","","","","63d42c21dc6f4d60e34cc337","bdp_rwlrn","Fri Mar 10 2023 14:22:17 GMT-0600 (Central Standard Time)","503410","Trustworthy,Untrustworthy","instructions","1","12288","0.0-1.0","[{""page_index"":0,""viewing_time"":12275}]","12275","","","","","","","","","","","","","",""
"fullscreenenter","2","16413","fullscreenenter","63d42c21dc6f4d60e34cc337","bdp_rwlrn","Fri Mar 10 2023 14:22:17 GMT-0600 (Central Standard Time)","503410","Trustworthy,Untrustworthy","","","","","","","","","","","","","","","","","","","",""
"","","","","63d42c21dc6f4d60e34cc337","bdp_rwlrn","Fri Mar 10 2023 14:22:17 GMT-0600 (Central Standard Time)","503410","Trustworthy,Untrustworthy","fullscreen","2","17129","0.0-2.0","","","true","","","","","","","","","","","","",""
"","","","","63d42c21dc6f4d60e34cc337","bdp_rwlrn","Fri Mar 10 2023 14:22:17 GMT-0600 (Central Standard Time)","503410","Trustworthy,Untrustworthy","instructions","3","142436","0.0-4.0","[{""page_index"":0,""viewing_time"":58197},{""page_index"":1,""viewing_time"":12337},{""page_index"":2,""viewing_time"":17579},{""page_index"":3,""viewing_time"":10130},{""page_index"":4,""viewing_time"":18348},{""page_index"":5,""viewing_time"":8712}]","125304","","","","","","","","","","","","","",""
"","","","","63d42c21dc6f4d60e34cc337","bdp_rwlrn","Fri Mar 10 2023 14:22:17 GMT-0600 (Central Standard Time)","503410","Trustworthy,Untrustworthy","html-keyboard-response","4","148040","0.0-5.0","","5598","","<div class='header' style='text-align:left; position: absolute; top: 5%; left: 5%;'><small>Task 1 of 5</small></div><div class='instruxDiv'><p><strong>1) What is the maximum number of points you can choose to bet on a lottery?</strong></p><p>a) 0</p><p>b) 1</p><p>c) 5</p>","C","","","","","","","","","","",""
"","","","","63d42c21dc6f4d60e34cc337","bdp_rwlrn","Fri Mar 10 2023 14:22:17 GMT-0600 (Central Standard Time)","503410","Trustworthy,Untrustworthy","html-keyboard-response","5","150530","0.0-6.0","","2386","","<div class='header' style='text-align:left; position: absolute; top: 5%; left: 5%;'><small>Task 1 of 5</small></div><div class='instruxDiv'><p><strong>1) What is the maximum number of points you can choose to bet on a lottery?</strong></p><p>a) 1</p><p>b) 1</p><p style='color:#00FF00'>c) 5</p><h3 style='color:#00FF00'>Correct!</h3><h3 class='center-content'>The correct response is c).</h3><h3 class='center-content'>The maximum number of points you can choose to bet on a lottery is 5 points.</h3><p><em>Press SPACEBAR to continue</em></p></div>"," ","","","","","","","","","","",""
"","","","","63d42c21dc6f4d60e34cc337","bdp_rwlrn","Fri Mar 10 2023 14:22:17 GMT-0600 (Central Standard Time)","503410","Trustworthy,Untrustworthy","html-keyboard-response","6","155216","0.0-7.0","","4570","","<div class='header' style='text-align:left; position: absolute; top: 5%; left: 5%;'><small>Task 1 of 5</small></div><div class='instruxDiv'><p><strong>2) How many points can you win each round?</strong></p><p>a) 10 points</p><p>b) Double what you bet</p><p>c) Quadruple what you bet</p>","B","","","","","","","","","","",""
"","","","","63d42c21dc6f4d60e34cc337","bdp_rwlrn","Fri Mar 10 2023 14:22:17 GMT-0600 (Central Standard Time)","503410","Trustworthy,Untrustworthy","html-keyboard-response","7","157368","0.0-8.0","","2037","","<div class='header' style='text-align:left; position: absolute; top: 5%; left: 5%;'><small>Task 1 of 5</small></div><div class='instruxDiv'><p><strong>2) How many points can you win each round?</strong></p><p>a) 10 points</p><p style='color:#00FF00'>b) Double what you bet</p><p>c) Quadruple what you bet</p><h3 style='color:#00FF00'>Correct!</h3><h3 class='center-content'>The correct response is b).</h3><h3 class='center-content'>You can win double the amount of points you bet.</h3><p><em>Press SPACEBAR to continue</em></p></div>"," ","","","","","","","","","","",""
"","","","","63d42c21dc6f4d60e34cc337","bdp_rwlrn","Fri Mar 10 2023 14:22:17 GMT-0600 (Central Standard Time)","503410","Trustworthy,Untrustworthy","html-keyboard-response","8","162492","0.0-9.0","","null","","<div class='header' style='text-align:left; position: absolute; top: 5%; left: 5%;'><small>Task 1 of 5</small></div><div class='instruxDiv'><p>Thank you for completing the quiz<p>These are the actual lotteries you will be playing in the next block:<p><div class='tc' align='center'><img class='introPic' src='Fruit/mixed-berries2.png'><br><strong>Berry Bla$t</strong></div><div class='bl' align='center'><img class='introPic' src='Fruit/cherrie.png'><br><strong>Cherry Chances</strong></div><div class='br' align='center'><img class='introPic' src='Fruit/pears.png'><br><strong>Pears Aplenty</strong></div></div><p>Across <strong>66 rounds</strong> you will play each lottery <strong>22 times</strong> (in random order).<p style='align:center; color:white'><font <em>Press SPACEBAR to continue</em></p>","null","","","","","","","","","","",""
"","","","","63d42c21dc6f4d60e34cc337","bdp_rwlrn","Fri Mar 10 2023 14:22:17 GMT-0600 (Central Standard Time)","503410","Trustworthy,Untrustworthy","instructions","9","173640","0.0-10.0","[{""page_index"":0,""viewing_time"":4791},{""page_index"":1,""viewing_time"":6355}]","11147","","","","","","","","","","","","","",""
"","","","decision","63d42c21dc6f4d60e34cc337","bdp_rwlrn","Fri Mar 10 2023 14:22:17 GMT-0600 (Central Standard Time)","503410","Trustworthy,Untrustworthy","html-keyboard-response","10","175714","0.0-11.0-1.0","","1958","","<div class='trialDiv'><img src='Fruit/mixed-berries2.png'><br><font class='baseline'><strong>Berry Bla$t</strong><p>Choose number of points to bet.</font><div class='respPicDiv'><img src='img/responseButtonOffersNo0L.png' class='respPic'></div></div>","3","1","Berry Bla$t","Fruit/mixed-berries2.png","Lost","0.2,0.65","12","0.2","5","1","",""
"","","","decisionFB","63d42c21dc6f4d60e34cc337","bdp_rwlrn","Fri Mar 10 2023 14:22:17 GMT-0600 (Central Standard Time)","503410","Trustworthy,Untrustworthy","html-keyboard-response","11","175978","0.0-11.0-2.0","","null","","<div class='trialDiv'><img src='Fruit/mixed-berries2.png'><br><font class='baseline'><strong>Berry Bla$t</strong><p>Choose number of points to bet.</font><div class='respPicDiv'><img src='img/responseButtonOffersNo0L3.png' class='respPic'></div></div>","null","1","Berry Bla$t","Fruit/mixed-berries2.png","Lost","0.2,0.65","12","0.2","2","1","",""
"","","","feedback","63d42c21dc6f4d60e34cc337","bdp_rwlrn","Fri Mar 10 2023 14:22:17 GMT-0600 (Central Standard Time)","503410","Trustworthy,Untrustworthy","html-keyboard-response","12","176992","0.0-11.0-3.0","","null","","<div class='respPicDiv'><img src='img/responseButtonOffersNo0_wht.png' class='respPic'></div><div class='trialDiv'><img src='Fruit/mixed-berries2.png'><br><font class='baseline'><strong>Berry Bla$t</strong><p><strong><font class='negOutcome'>You LOST</font><p>You bet: 3</strong></font> &nbsp; &nbsp; &nbsp; &nbsp; &nbsp; &nbsp;<font class='negOutcome'>You receive: <strong>0</strong></font></div>","null","1","Berry Bla$t","Fruit/mixed-berries2.png","Lost","0.2,0.65","12","0.2","2","1","",""
"","","","decision","63d42c21dc6f4d60e34cc337","bdp_rwlrn","Fri Mar 10 2023 14:22:17 GMT-0600 (Central Standard Time)","503410","Trustworthy,Untrustworthy","html-keyboard-response","13","177554","0.0-11.0-1.1","","560","","<div class='trialDiv'><img src='Fruit/cherrie.png'><br><font class='baseline'><strong>Cherry Chances</strong><p>Choose number of points to bet.</font><div class='respPicDiv'><img src='img/responseButtonOffersNo0L.png' class='respPic'></div></div>","2","1","Cherry Chances","Fruit/cherrie.png","Won","0.8,0.2","9","0.8","7","2","",""
"","","","decisionFB","63d42c21dc6f4d60e34cc337","bdp_rwlrn","Fri Mar 10 2023 14:22:17 GMT-0600 (Central Standard Time)","503410","Trustworthy,Untrustworthy","html-keyboard-response","14","177825","0.0-11.0-2.1","","null","","<div class='trialDiv'><img src='Fruit/cherrie.png'><br><font class='baseline'><strong>Cherry Chances</strong><p>Choose number of points to bet.</font><div class='respPicDiv'><img src='img/responseButtonOffersNo0L2.png' class='respPic'></div></div>","null","1","Cherry Chances","Fruit/cherrie.png","Won","0.8,0.2","9","0.8","5","2","",""
"","","","feedback","63d42c21dc6f4d60e34cc337","bdp_rwlrn","Fri Mar 10 2023 14:22:17 GMT-0600 (Central Standard Time)","503410","Trustworthy,Untrustworthy","html-keyboard-response","15","178839","0.0-11.0-3.1","","null","","<div class='respPicDiv'><img src='img/responseButtonOffersNo0_wht.png' class='respPic'></div><div class='trialDiv'><img src='Fruit/cherrie.png'><br><font class='baseline'><strong>Cherry Chances</strong><p><strong><font class='posOutcome'>You WON</font><p>You bet: 2</strong></font> &nbsp; &nbsp; &nbsp; &nbsp; &nbsp; &nbsp;<font class='posOutcome'>you receive: <strong>4</strong></font></div>","null","1","Cherry Chances","Fruit/cherrie.png","Won","0.8,0.2","9","0.8","9","2","",""
"","","","decision","63d42c21dc6f4d60e34cc337","bdp_rwlrn","Fri Mar 10 2023 14:22:17 GMT-0600 (Central Standard Time)","503410","Trustworthy,Untrustworthy","html-keyboard-response","16","181530","0.0-11.0-1.2","","2688","","<div class='trialDiv'><img src='Fruit/pears.png'><br><font class='baseline'><strong>Pears Aplenty</strong><p>Choose number of points to bet.</font><div class='respPicDiv'><img src='img/responseButtonOffersNo0L.png' class='respPic'></div></div>","5","1","Pears Aplenty","Fruit/pears.png","Won","0.8,0.35","11","0.8","14","3","",""
"","","","decisionFB","63d42c21dc6f4d60e34cc337","bdp_rwlrn","Fri Mar 10 2023 14:22:17 GMT-0600 (Central Standard Time)","503410","Trustworthy,Untrustworthy","html-keyboard-response","17","181794","0.0-11.0-2.2","","null","","<div class='trialDiv'><img src='Fruit/pears.png'><br><font class='baseline'><strong>Pears Aplenty</strong><p>Choose number of points to bet.</font><div class='respPicDiv'><img src='img/responseButtonOffersNo0L5.png' class='respPic'></div></div>","null","1","Pears Aplenty","Fruit/pears.png","Won","0.8,0.35","11","0.8","9","3","",""
"","","","feedback","63d42c21dc6f4d60e34cc337","bdp_rwlrn","Fri Mar 10 2023 14:22:17 GMT-0600 (Central Standard Time)","503410","Trustworthy,Untrustworthy","html-keyboard-response","18","182807","0.0-11.0-3.2","","null","","<div class='respPicDiv'><img src='img/responseButtonOffersNo0_wht.png' class='respPic'></div><div class='trialDiv'><img src='Fruit/pears.png'><br><font class='baseline'><strong>Pears Aplenty</strong><p><strong><font class='posOutcome'>You WON</font><p>You bet: 5</strong></font> &nbsp; &nbsp; &nbsp; &nbsp; &nbsp; &nbsp;<font class='posOutcome'>you receive: <strong>10</strong></font></div>","null","1","Pears Aplenty","Fruit/pears.png","Won","0.8,0.35","11","0.8","19","3","",""
"","","","decision","63d42c21dc6f4d60e34cc337","bdp_rwlrn","Fri Mar 10 2023 14:22:17 GMT-0600 (Central Standard Time)","503410","Trustworthy,Untrustworthy","html-keyboard-response","19","183379","0.0-11.0-1.3","","570","","<div class='trialDiv'><img src='Fruit/cherrie.png'><br><font class='baseline'><strong>Cherry Chances</strong><p>Choose number of points to bet.</font><div class='respPicDiv'><img src='img/responseButtonOffersNo0L.png' class='respPic'></div></div>","4","2","Cherry Chances","Fruit/cherrie.png","Won","0.8,0.2","9","0.8","24","4","",""
"","","","decisionFB","63d42c21dc6f4d60e34cc337","bdp_rwlrn","Fri Mar 10 2023 14:22:17 GMT-0600 (Central Standard Time)","503410","Trustworthy,Untrustworthy","html-keyboard-response","20","183644","0.0-11.0-2.3","","null","","<div class='trialDiv'><img src='Fruit/cherrie.png'><br><font class='baseline'><strong>Cherry Chances</strong><p>Choose number of points to bet.</font><div class='respPicDiv'><img src='img/responseButtonOffersNo0L4.png' class='respPic'></div></div>","null","2","Cherry Chances","Fruit/cherrie.png","Won","0.8,0.2","9","0.8","20","4","",""
"","","","feedback","63d42c21dc6f4d60e34cc337","bdp_rwlrn","Fri Mar 10 2023 14:22:17 GMT-0600 (Central Standard Time)","503410","Trustworthy,Untrustworthy","html-keyboard-response","21","184658","0.0-11.0-3.3","","null","","<div class='respPicDiv'><img src='img/responseButtonOffersNo0_wht.png' class='respPic'></div><div class='trialDiv'><img src='Fruit/cherrie.png'><br><font class='baseline'><strong>Cherry Chances</strong><p><strong><font class='posOutcome'>You WON</font><p>You bet: 4</strong></font> &nbsp; &nbsp; &nbsp; &nbsp; &nbsp; &nbsp;<font class='posOutcome'>you receive: <strong>8</strong></font></div>","null","2","Cherry Chances","Fruit/cherrie.png","Won","0.8,0.2","9","0.8","28","4","",""
"","","","decision","63d42c21dc6f4d60e34cc337","bdp_rwlrn","Fri Mar 10 2023 14:22:17 GMT-0600 (Central Standard Time)","503410","Trustworthy,Untrustworthy","html-keyboard-response","22","185347","0.0-11.0-1.4","","687","","<div class='trialDiv'><img src='Fruit/pears.png'><br><font class='baseline'><strong>Pears Aplenty</strong><p>Choose number of points to bet.</font><div class='respPicDiv'><img src='img/responseButtonOffersNo0L.png' class='respPic'></div></div>","4","2","Pears Aplenty","Fruit/pears.png","Won","0.8,0.35","11","0.8","33","5","",""
"","","","decisionFB","63d42c21dc6f4d60e34cc337","bdp_rwlrn","Fri Mar 10 2023 14:22:17 GMT-0600 (Central Standard Time)","503410","Trustworthy,Untrustworthy","html-keyboard-response","23","185608","0.0-11.0-2.4","","null","","<div class='trialDiv'><img src='Fruit/pears.png'><br><font class='baseline'><strong>Pears Aplenty</strong><p>Choose number of points to bet.</font><div class='respPicDiv'><img src='img/responseButtonOffersNo0L4.png' class='respPic'></div></div>","null","2","Pears Aplenty","Fruit/pears.png","Won","0.8,0.35","11","0.8","29","5","",""
"","","","feedback","63d42c21dc6f4d60e34cc337","bdp_rwlrn","Fri Mar 10 2023 14:22:17 GMT-0600 (Central Standard Time)","503410","Trustworthy,Untrustworthy","html-keyboard-response","24","186625","0.0-11.0-3.4","","null","","<div class='respPicDiv'><img src='img/responseButtonOffersNo0_wht.png' class='respPic'></div><div class='trialDiv'><img src='Fruit/pears.png'><br><font class='baseline'><strong>Pears Aplenty</strong><p><strong><font class='posOutcome'>You WON</font><p>You bet: 4</strong></font> &nbsp; &nbsp; &nbsp; &nbsp; &nbsp; &nbsp;<font class='posOutcome'>you receive: <strong>8</strong></font></div>","null","2","Pears Aplenty","Fruit/pears.png","Won","0.8,0.35","11","0.8","37","5","",""
"","","","decision","63d42c21dc6f4d60e34cc337","bdp_rwlrn","Fri Mar 10 2023 14:22:17 GMT-0600 (Central Standard Time)","503410","Trustworthy,Untrustworthy","html-keyboard-response","25","188052","0.0-11.0-1.5","","1425","","<div class='trialDiv'><img src='Fruit/mixed-berries2.png'><br><font class='baseline'><strong>Berry Bla$t</strong><p>Choose number of points to bet.</font><div class='respPicDiv'><img src='img/responseButtonOffersNo0L.png' class='respPic'></div></div>","5","2","Berry Bla$t","Fruit/mixed-berries2.png","Lost","0.2,0.65","12","0.2","42","6","",""
"","","","decisionFB","63d42c21dc6f4d60e34cc337","bdp_rwlrn","Fri Mar 10 2023 14:22:17 GMT-0600 (Central Standard Time)","503410","Trustworthy,Untrustworthy","html-keyboard-response","26","188313","0.0-11.0-2.5","","null","","<div class='trialDiv'><img src='Fruit/mixed-berries2.png'><br><font class='baseline'><strong>Berry Bla$t</strong><p>Choose number of points to bet.</font><div class='respPicDiv'><img src='img/responseButtonOffersNo0L5.png' class='respPic'></div></div>","null","2","Berry Bla$t","Fruit/mixed-berries2.png","Lost","0.2,0.65","12","0.2","37","6","",""
"","","","feedback","63d42c21dc6f4d60e34cc337","bdp_rwlrn","Fri Mar 10 2023 14:22:17 GMT-0600 (Central Standard Time)","503410","Trustworthy,Untrustworthy","html-keyboard-response","27","189325","0.0-11.0-3.5","","null","","<div class='respPicDiv'><img src='img/responseButtonOffersNo0_wht.png' class='respPic'></div><div class='trialDiv'><img src='Fruit/mixed-berries2.png'><br><font class='baseline'><strong>Berry Bla$t</strong><p><strong><font class='negOutcome'>You LOST</font><p>You bet: 5</strong></font> &nbsp; &nbsp; &nbsp; &nbsp; &nbsp; &nbsp;<font class='negOutcome'>You receive: <strong>0</strong></font></div>","null","2","Berry Bla$t","Fruit/mixed-berries2.png","Lost","0.2,0.65","12","0.2","37","6","",""
"","","","decision","63d42c21dc6f4d60e34cc337","bdp_rwlrn","Fri Mar 10 2023 14:22:17 GMT-0600 (Central Standard Time)","503410","Trustworthy,Untrustworthy","html-keyboard-response","28","190025","0.0-11.0-1.6","","697","","<div class='trialDiv'><img src='Fruit/cherrie.png'><br><font class='baseline'><strong>Cherry Chances</strong><p>Choose number of points to bet.</font><div class='respPicDiv'><img src='img/responseButtonOffersNo0L.png' class='respPic'></div></div>","3","3","Cherry Chances","Fruit/cherrie.png","Won","0.8,0.2","9","0.8","42","7","",""
"","","","decisionFB","63d42c21dc6f4d60e34cc337","bdp_rwlrn","Fri Mar 10 2023 14:22:17 GMT-0600 (Central Standard Time)","503410","Trustworthy,Untrustworthy","html-keyboard-response","29","190292","0.0-11.0-2.6","","null","","<div class='trialDiv'><img src='Fruit/cherrie.png'><br><font class='baseline'><strong>Cherry Chances</strong><p>Choose number of points to bet.</font><div class='respPicDiv'><img src='img/responseButtonOffersNo0L3.png' class='respPic'></div></div>","null","3","Cherry Chances","Fruit/cherrie.png","Won","0.8,0.2","9","0.8","39","7","",""
"","","","feedback","63d42c21dc6f4d60e34cc337","bdp_rwlrn","Fri Mar 10 2023 14:22:17 GMT-0600 (Central Standard Time)","503410","Trustworthy,Untrustworthy","html-keyboard-response","30","191309","0.0-11.0-3.6","","null","","<div class='respPicDiv'><img src='img/responseButtonOffersNo0_wht.png' class='respPic'></div><div class='trialDiv'><img src='Fruit/cherrie.png'><br><font class='baseline'><strong>Cherry Chances</strong><p><strong><font class='posOutcome'>You WON</font><p>You bet: 3</strong></font> &nbsp; &nbsp; &nbsp; &nbsp; &nbsp; &nbsp;<font class='posOutcome'>you receive: <strong>6</strong></font></div>","null","3","Cherry Chances","Fruit/cherrie.png","Won","0.8,0.2","9","0.8","45","7","",""
"","","","decision","63d42c21dc6f4d60e34cc337","bdp_rwlrn","Fri Mar 10 2023 14:22:17 GMT-0600 (Central Standard Time)","503410","Trustworthy,Untrustworthy","html-keyboard-response","31","191610","0.0-11.0-1.7","","298","","<div class='trialDiv'><img src='Fruit/mixed-berries2.png'><br><font class='baseline'><strong>Berry Bla$t</strong><p>Choose number of points to bet.</font><div class='respPicDiv'><img src='img/responseButtonOffersNo0L.png' class='respPic'></div></div>","3","3","Berry Bla$t","Fruit/mixed-berries2.png","Lost","0.2,0.65","12","0.2","50","8","",""
"","","","decisionFB","63d42c21dc6f4d60e34cc337","bdp_rwlrn","Fri Mar 10 2023 14:22:17 GMT-0600 (Central Standard Time)","503410","Trustworthy,Untrustworthy","html-keyboard-response","32","191878","0.0-11.0-2.7","","null","","<div class='trialDiv'><img src='Fruit/mixed-berries2.png'><br><font class='baseline'><strong>Berry Bla$t</strong><p>Choose number of points to bet.</font><div class='respPicDiv'><img src='img/responseButtonOffersNo0L3.png' class='respPic'></div></div>","null","3","Berry Bla$t","Fruit/mixed-berries2.png","Lost","0.2,0.65","12","0.2","47","8","",""
"","","","feedback","63d42c21dc6f4d60e34cc337","bdp_rwlrn","Fri Mar 10 2023 14:22:17 GMT-0600 (Central Standard Time)","503410","Trustworthy,Untrustworthy","html-keyboard-response","33","192893","0.0-11.0-3.7","","null","","<div class='respPicDiv'><img src='img/responseButtonOffersNo0_wht.png' class='respPic'></div><div class='trialDiv'><img src='Fruit/mixed-berries2.png'><br><font class='baseline'><strong>Berry Bla$t</strong><p><strong><font class='negOutcome'>You LOST</font><p>You bet: 3</strong></font> &nbsp; &nbsp; &nbsp; &nbsp; &nbsp; &nbsp;<font class='negOutcome'>You receive: <strong>0</strong></font></div>","null","3","Berry Bla$t","Fruit/mixed-berries2.png","Lost","0.2,0.65","12","0.2","47","8","",""
"","","","decision","63d42c21dc6f4d60e34cc337","bdp_rwlrn","Fri Mar 10 2023 14:22:17 GMT-0600 (Central Standard Time)","503410","Trustworthy,Untrustworthy","html-keyboard-response","34","193150","0.0-11.0-1.8","","254","","<div class='trialDiv'><img src='Fruit/pears.png'><br><font class='baseline'><strong>Pears Aplenty</strong><p>Choose number of points to bet.</font><div class='respPicDiv'><img src='img/responseButtonOffersNo0L.png' class='respPic'></div></div>","4","3","Pears Aplenty","Fruit/pears.png","Won","0.8,0.35","11","0.8","52","9","",""
"","","","decisionFB","63d42c21dc6f4d60e34cc337","bdp_rwlrn","Fri Mar 10 2023 14:22:17 GMT-0600 (Central Standard Time)","503410","Trustworthy,Untrustworthy","html-keyboard-response","35","193410","0.0-11.0-2.8","","null","","<div class='trialDiv'><img src='Fruit/pears.png'><br><font class='baseline'><strong>Pears Aplenty</strong><p>Choose number of points to bet.</font><div class='respPicDiv'><img src='img/responseButtonOffersNo0L4.png' class='respPic'></div></div>","null","3","Pears Aplenty","Fruit/pears.png","Won","0.8,0.35","11","0.8","48","9","",""
"","","","feedback","63d42c21dc6f4d60e34cc337","bdp_rwlrn","Fri Mar 10 2023 14:22:17 GMT-0600 (Central Standard Time)","503410","Trustworthy,Untrustworthy","html-keyboard-response","36","194427","0.0-11.0-3.8","","null","","<div class='respPicDiv'><img src='img/responseButtonOffersNo0_wht.png' class='respPic'></div><div class='trialDiv'><img src='Fruit/pears.png'><br><font class='baseline'><strong>Pears Aplenty</strong><p><strong><font class='posOutcome'>You WON</font><p>You bet: 4</strong></font> &nbsp; &nbsp; &nbsp; &nbsp; &nbsp; &nbsp;<font class='posOutcome'>you receive: <strong>8</strong></font></div>","null","3","Pears Aplenty","Fruit/pears.png","Won","0.8,0.35","11","0.8","56","9","",""
"","","","decision","63d42c21dc6f4d60e34cc337","bdp_rwlrn","Fri Mar 10 2023 14:22:17 GMT-0600 (Central Standard Time)","503410","Trustworthy,Untrustworthy","html-keyboard-response","37","195056","0.0-11.0-1.9","","628","","<div class='trialDiv'><img src='Fruit/cherrie.png'><br><font class='baseline'><strong>Cherry Chances</strong><p>Choose number of points to bet.</font><div class='respPicDiv'><img src='img/responseButtonOffersNo0L.png' class='respPic'></div></div>","5","4","Cherry Chances","Fruit/cherrie.png","Won","0.8,0.2","9","0.8","61","10","",""
"","","","decisionFB","63d42c21dc6f4d60e34cc337","bdp_rwlrn","Fri Mar 10 2023 14:22:17 GMT-0600 (Central Standard Time)","503410","Trustworthy,Untrustworthy","html-keyboard-response","38","195312","0.0-11.0-2.9","","null","","<div class='trialDiv'><img src='Fruit/cherrie.png'><br><font class='baseline'><strong>Cherry Chances</strong><p>Choose number of points to bet.</font><div class='respPicDiv'><img src='img/responseButtonOffersNo0L5.png' class='respPic'></div></div>","null","4","Cherry Chances","Fruit/cherrie.png","Won","0.8,0.2","9","0.8","56","10","",""
"","","","feedback","63d42c21dc6f4d60e34cc337","bdp_rwlrn","Fri Mar 10 2023 14:22:17 GMT-0600 (Central Standard Time)","503410","Trustworthy,Untrustworthy","html-keyboard-response","39","196327","0.0-11.0-3.9","","null","","<div class='respPicDiv'><img src='img/responseButtonOffersNo0_wht.png' class='respPic'></div><div class='trialDiv'><img src='Fruit/cherrie.png'><br><font class='baseline'><strong>Cherry Chances</strong><p><strong><font class='posOutcome'>You WON</font><p>You bet: 5</strong></font> &nbsp; &nbsp; &nbsp; &nbsp; &nbsp; &nbsp;<font class='posOutcome'>you receive: <strong>10</strong></font></div>","null","4","Cherry Chances","Fruit/cherrie.png","Won","0.8,0.2","9","0.8","66","10","",""
"","","","decision","63d42c21dc6f4d60e34cc337","bdp_rwlrn","Fri Mar 10 2023 14:22:17 GMT-0600 (Central Standard Time)","503410","Trustworthy,Untrustworthy","html-keyboard-response","40","196641","0.0-11.0-1.10","","312","","<div class='trialDiv'><img src='Fruit/pears.png'><br><font class='baseline'><strong>Pears Aplenty</strong><p>Choose number of points to bet.</font><div class='respPicDiv'><img src='img/responseButtonOffersNo0L.png' class='respPic'></div></div>","5","4","Pears Aplenty","Fruit/pears.png","Lost","0.8,0.35","11","0.8","71","11","",""
"","","","decisionFB","63d42c21dc6f4d60e34cc337","bdp_rwlrn","Fri Mar 10 2023 14:22:17 GMT-0600 (Central Standard Time)","503410","Trustworthy,Untrustworthy","html-keyboard-response","41","196895","0.0-11.0-2.10","","null","","<div class='trialDiv'><img src='Fruit/pears.png'><br><font class='baseline'><strong>Pears Aplenty</strong><p>Choose number of points to bet.</font><div class='respPicDiv'><img src='img/responseButtonOffersNo0L5.png' class='respPic'></div></div>","null","4","Pears Aplenty","Fruit/pears.png","Lost","0.8,0.35","11","0.8","66","11","",""
"","","","feedback","63d42c21dc6f4d60e34cc337","bdp_rwlrn","Fri Mar 10 2023 14:22:17 GMT-0600 (Central Standard Time)","503410","Trustworthy,Untrustworthy","html-keyboard-response","42","197911","0.0-11.0-3.10","","null","","<div class='respPicDiv'><img src='img/responseButtonOffersNo0_wht.png' class='respPic'></div><div class='trialDiv'><img src='Fruit/pears.png'><br><font class='baseline'><strong>Pears Aplenty</strong><p><strong><font class='negOutcome'>You LOST</font><p>You bet: 5</strong></font> &nbsp; &nbsp; &nbsp; &nbsp; &nbsp; &nbsp;<font class='negOutcome'>You receive: <strong>0</strong></font></div>","null","4","Pears Aplenty","Fruit/pears.png","Lost","0.8,0.35","11","0.8","66","11","",""
"","","","decision","63d42c21dc6f4d60e34cc337","bdp_rwlrn","Fri Mar 10 2023 14:22:17 GMT-0600 (Central Standard Time)","503410","Trustworthy,Untrustworthy","html-keyboard-response","43","198242","0.0-11.0-1.11","","330","","<div class='trialDiv'><img src='Fruit/mixed-berries2.png'><br><font class='baseline'><strong>Berry Bla$t</strong><p>Choose number of points to bet.</font><div class='respPicDiv'><img src='img/responseButtonOffersNo0L.png' class='respPic'></div></div>","5","4","Berry Bla$t","Fruit/mixed-berries2.png","Lost","0.2,0.65","12","0.2","71","12","",""
"","","","decisionFB","63d42c21dc6f4d60e34cc337","bdp_rwlrn","Fri Mar 10 2023 14:22:17 GMT-0600 (Central Standard Time)","503410","Trustworthy,Untrustworthy","html-keyboard-response","44","198511","0.0-11.0-2.11","","null","","<div class='trialDiv'><img src='Fruit/mixed-berries2.png'><br><font class='baseline'><strong>Berry Bla$t</strong><p>Choose number of points to bet.</font><div class='respPicDiv'><img src='img/responseButtonOffersNo0L5.png' class='respPic'></div></div>","null","4","Berry Bla$t","Fruit/mixed-berries2.png","Lost","0.2,0.65","12","0.2","66","12","",""
"","","","feedback","63d42c21dc6f4d60e34cc337","bdp_rwlrn","Fri Mar 10 2023 14:22:17 GMT-0600 (Central Standard Time)","503410","Trustworthy,Untrustworthy","html-keyboard-response","45","199527","0.0-11.0-3.11","","null","","<div class='respPicDiv'><img src='img/responseButtonOffersNo0_wht.png' class='respPic'></div><div class='trialDiv'><img src='Fruit/mixed-berries2.png'><br><font class='baseline'><strong>Berry Bla$t</strong><p><strong><font class='negOutcome'>You LOST</font><p>You bet: 5</strong></font> &nbsp; &nbsp; &nbsp; &nbsp; &nbsp; &nbsp;<font class='negOutcome'>You receive: <strong>0</strong></font></div>","null","4","Berry Bla$t","Fruit/mixed-berries2.png","Lost","0.2,0.65","12","0.2","66","12","",""
"","","","decision","63d42c21dc6f4d60e34cc337","bdp_rwlrn","Fri Mar 10 2023 14:22:17 GMT-0600 (Central Standard Time)","503410","Trustworthy,Untrustworthy","html-keyboard-response","46","199804","0.0-11.0-1.12","","275","","<div class='trialDiv'><img src='Fruit/pears.png'><br><font class='baseline'><strong>Pears Aplenty</strong><p>Choose number of points to bet.</font><div class='respPicDiv'><img src='img/responseButtonOffersNo0L.png' class='respPic'></div></div>","4","5","Pears Aplenty","Fruit/pears.png","Won","0.8,0.35","11","0.8","71","13","",""
"","","","decisionFB","63d42c21dc6f4d60e34cc337","bdp_rwlrn","Fri Mar 10 2023 14:22:17 GMT-0600 (Central Standard Time)","503410","Trustworthy,Untrustworthy","html-keyboard-response","47","200062","0.0-11.0-2.12","","null","","<div class='trialDiv'><img src='Fruit/pears.png'><br><font class='baseline'><strong>Pears Aplenty</strong><p>Choose number of points to bet.</font><div class='respPicDiv'><img src='img/responseButtonOffersNo0L4.png' class='respPic'></div></div>","null","5","Pears Aplenty","Fruit/pears.png","Won","0.8,0.35","11","0.8","67","13","",""
"","","","feedback","63d42c21dc6f4d60e34cc337","bdp_rwlrn","Fri Mar 10 2023 14:22:17 GMT-0600 (Central Standard Time)","503410","Trustworthy,Untrustworthy","html-keyboard-response","48","201077","0.0-11.0-3.12","","null","","<div class='respPicDiv'><img src='img/responseButtonOffersNo0_wht.png' class='respPic'></div><div class='trialDiv'><img src='Fruit/pears.png'><br><font class='baseline'><strong>Pears Aplenty</strong><p><strong><font class='posOutcome'>You WON</font><p>You bet: 4</strong></font> &nbsp; &nbsp; &nbsp; &nbsp; &nbsp; &nbsp;<font class='posOutcome'>you receive: <strong>8</strong></font></div>","null","5","Pears Aplenty","Fruit/pears.png","Won","0.8,0.35","11","0.8","75","13","",""
"","","","decision","63d42c21dc6f4d60e34cc337","bdp_rwlrn","Fri Mar 10 2023 14:22:17 GMT-0600 (Central Standard Time)","503410","Trustworthy,Untrustworthy","html-keyboard-response","49","201340","0.0-11.0-1.13","","259","","<div class='trialDiv'><img src='Fruit/cherrie.png'><br><font class='baseline'><strong>Cherry Chances</strong><p>Choose number of points to bet.</font><div class='respPicDiv'><img src='img/responseButtonOffersNo0L.png' class='respPic'></div></div>","5","5","Cherry Chances","Fruit/cherrie.png","Won","0.8,0.2","9","0.8","80","14","",""
"","","","decisionFB","63d42c21dc6f4d60e34cc337","bdp_rwlrn","Fri Mar 10 2023 14:22:17 GMT-0600 (Central Standard Time)","503410","Trustworthy,Untrustworthy","html-keyboard-response","50","201612","0.0-11.0-2.13","","null","","<div class='trialDiv'><img src='Fruit/cherrie.png'><br><font class='baseline'><strong>Cherry Chances</strong><p>Choose number of points to bet.</font><div class='respPicDiv'><img src='img/responseButtonOffersNo0L5.png' class='respPic'></div></div>","null","5","Cherry Chances","Fruit/cherrie.png","Won","0.8,0.2","9","0.8","75","14","",""
"","","","feedback","63d42c21dc6f4d60e34cc337","bdp_rwlrn","Fri Mar 10 2023 14:22:17 GMT-0600 (Central Standard Time)","503410","Trustworthy,Untrustworthy","html-keyboard-response","51","202628","0.0-11.0-3.13","","null","","<div class='respPicDiv'><img src='img/responseButtonOffersNo0_wht.png' class='respPic'></div><div class='trialDiv'><img src='Fruit/cherrie.png'><br><font class='baseline'><strong>Cherry Chances</strong><p><strong><font class='posOutcome'>You WON</font><p>You bet: 5</strong></font> &nbsp; &nbsp; &nbsp; &nbsp; &nbsp; &nbsp;<font class='posOutcome'>you receive: <strong>10</strong></font></div>","null","5","Cherry Chances","Fruit/cherrie.png","Won","0.8,0.2","9","0.8","85","14","",""
"","","","decision","63d42c21dc6f4d60e34cc337","bdp_rwlrn","Fri Mar 10 2023 14:22:17 GMT-0600 (Central Standard Time)","503410","Trustworthy,Untrustworthy","html-keyboard-response","52","203772","0.0-11.0-1.14","","1142","","<div class='trialDiv'><img src='Fruit/mixed-berries2.png'><br><font class='baseline'><strong>Berry Bla$t</strong><p>Choose number of points to bet.</font><div class='respPicDiv'><img src='img/responseButtonOffersNo0L.png' class='respPic'></div></div>","3","5","Berry Bla$t","Fruit/mixed-berries2.png","Won","0.2,0.65","12","0.2","90","15","",""
"","","","decisionFB","63d42c21dc6f4d60e34cc337","bdp_rwlrn","Fri Mar 10 2023 14:22:17 GMT-0600 (Central Standard Time)","503410","Trustworthy,Untrustworthy","html-keyboard-response","53","204029","0.0-11.0-2.14","","null","","<div class='trialDiv'><img src='Fruit/mixed-berries2.png'><br><font class='baseline'><strong>Berry Bla$t</strong><p>Choose number of points to bet.</font><div class='respPicDiv'><img src='img/responseButtonOffersNo0L3.png' class='respPic'></div></div>","null","5","Berry Bla$t","Fruit/mixed-berries2.png","Won","0.2,0.65","12","0.2","87","15","",""
"","","","feedback","63d42c21dc6f4d60e34cc337","bdp_rwlrn","Fri Mar 10 2023 14:22:17 GMT-0600 (Central Standard Time)","503410","Trustworthy,Untrustworthy","html-keyboard-response","54","205045","0.0-11.0-3.14","","null","","<div class='respPicDiv'><img src='img/responseButtonOffersNo0_wht.png' class='respPic'></div><div class='trialDiv'><img src='Fruit/mixed-berries2.png'><br><font class='baseline'><strong>Berry Bla$t</strong><p><strong><font class='posOutcome'>You WON</font><p>You bet: 3</strong></font> &nbsp; &nbsp; &nbsp; &nbsp; &nbsp; &nbsp;<font class='posOutcome'>you receive: <strong>6</strong></font></div>","null","5","Berry Bla$t","Fruit/mixed-berries2.png","Won","0.2,0.65","12","0.2","93","15","",""
"","","","decision","63d42c21dc6f4d60e34cc337","bdp_rwlrn","Fri Mar 10 2023 14:22:17 GMT-0600 (Central Standard Time)","503410","Trustworthy,Untrustworthy","html-keyboard-response","55","205412","0.0-11.0-1.15","","365","","<div class='trialDiv'><img src='Fruit/pears.png'><br><font class='baseline'><strong>Pears Aplenty</strong><p>Choose number of points to bet.</font><div class='respPicDiv'><img src='img/responseButtonOffersNo0L.png' class='respPic'></div></div>","3","6","Pears Aplenty","Fruit/pears.png","Won","0.8,0.35","11","0.8","98","16","",""
"","","","decisionFB","63d42c21dc6f4d60e34cc337","bdp_rwlrn","Fri Mar 10 2023 14:22:17 GMT-0600 (Central Standard Time)","503410","Trustworthy,Untrustworthy","html-keyboard-response","56","205679","0.0-11.0-2.15","","null","","<div class='trialDiv'><img src='Fruit/pears.png'><br><font class='baseline'><strong>Pears Aplenty</strong><p>Choose number of points to bet.</font><div class='respPicDiv'><img src='img/responseButtonOffersNo0L3.png' class='respPic'></div></div>","null","6","Pears Aplenty","Fruit/pears.png","Won","0.8,0.35","11","0.8","95","16","",""
"","","","feedback","63d42c21dc6f4d60e34cc337","bdp_rwlrn","Fri Mar 10 2023 14:22:17 GMT-0600 (Central Standard Time)","503410","Trustworthy,Untrustworthy","html-keyboard-response","57","206696","0.0-11.0-3.15","","null","","<div class='respPicDiv'><img src='img/responseButtonOffersNo0_wht.png' class='respPic'></div><div class='trialDiv'><img src='Fruit/pears.png'><br><font class='baseline'><strong>Pears Aplenty</strong><p><strong><font class='posOutcome'>You WON</font><p>You bet: 3</strong></font> &nbsp; &nbsp; &nbsp; &nbsp; &nbsp; &nbsp;<font class='posOutcome'>you receive: <strong>6</strong></font></div>","null","6","Pears Aplenty","Fruit/pears.png","Won","0.8,0.35","11","0.8","101","16","",""
"","","","decision","63d42c21dc6f4d60e34cc337","bdp_rwlrn","Fri Mar 10 2023 14:22:17 GMT-0600 (Central Standard Time)","503410","Trustworthy,Untrustworthy","html-keyboard-response","58","207154","0.0-11.0-1.16","","457","","<div class='trialDiv'><img src='Fruit/cherrie.png'><br><font class='baseline'><strong>Cherry Chances</strong><p>Choose number of points to bet.</font><div class='respPicDiv'><img src='img/responseButtonOffersNo0L.png' class='respPic'></div></div>","4","6","Cherry Chances","Fruit/cherrie.png","Won","0.8,0.2","9","0.8","106","17","",""
"","","","decisionFB","63d42c21dc6f4d60e34cc337","bdp_rwlrn","Fri Mar 10 2023 14:22:17 GMT-0600 (Central Standard Time)","503410","Trustworthy,Untrustworthy","html-keyboard-response","59","207428","0.0-11.0-2.16","","null","","<div class='trialDiv'><img src='Fruit/cherrie.png'><br><font class='baseline'><strong>Cherry Chances</strong><p>Choose number of points to bet.</font><div class='respPicDiv'><img src='img/responseButtonOffersNo0L4.png' class='respPic'></div></div>","null","6","Cherry Chances","Fruit/cherrie.png","Won","0.8,0.2","9","0.8","102","17","",""
"","","","feedback","63d42c21dc6f4d60e34cc337","bdp_rwlrn","Fri Mar 10 2023 14:22:17 GMT-0600 (Central Standard Time)","503410","Trustworthy,Untrustworthy","html-keyboard-response","60","208457","0.0-11.0-3.16","","null","","<div class='respPicDiv'><img src='img/responseButtonOffersNo0_wht.png' class='respPic'></div><div class='trialDiv'><img src='Fruit/cherrie.png'><br><font class='baseline'><strong>Cherry Chances</strong><p><strong><font class='posOutcome'>You WON</font><p>You bet: 4</strong></font> &nbsp; &nbsp; &nbsp; &nbsp; &nbsp; &nbsp;<font class='posOutcome'>you receive: <strong>8</strong></font></div>","null","6","Cherry Chances","Fruit/cherrie.png","Won","0.8,0.2","9","0.8","110","17","",""
"","","","decision","63d42c21dc6f4d60e34cc337","bdp_rwlrn","Fri Mar 10 2023 14:22:17 GMT-0600 (Central Standard Time)","503410","Trustworthy,Untrustworthy","html-keyboard-response","61","209503","0.0-11.0-1.17","","1043","","<div class='trialDiv'><img src='Fruit/mixed-berries2.png'><br><font class='baseline'><strong>Berry Bla$t</strong><p>Choose number of points to bet.</font><div class='respPicDiv'><img src='img/responseButtonOffersNo0L.png' class='respPic'></div></div>","5","6","Berry Bla$t","Fruit/mixed-berries2.png","Lost","0.2,0.65","12","0.2","115","18","",""
"","","","decisionFB","63d42c21dc6f4d60e34cc337","bdp_rwlrn","Fri Mar 10 2023 14:22:17 GMT-0600 (Central Standard Time)","503410","Trustworthy,Untrustworthy","html-keyboard-response","62","209763","0.0-11.0-2.17","","null","","<div class='trialDiv'><img src='Fruit/mixed-berries2.png'><br><font class='baseline'><strong>Berry Bla$t</strong><p>Choose number of points to bet.</font><div class='respPicDiv'><img src='img/responseButtonOffersNo0L5.png' class='respPic'></div></div>","null","6","Berry Bla$t","Fruit/mixed-berries2.png","Lost","0.2,0.65","12","0.2","110","18","",""
"","","","feedback","63d42c21dc6f4d60e34cc337","bdp_rwlrn","Fri Mar 10 2023 14:22:17 GMT-0600 (Central Standard Time)","503410","Trustworthy,Untrustworthy","html-keyboard-response","63","210779","0.0-11.0-3.17","","null","","<div class='respPicDiv'><img src='img/responseButtonOffersNo0_wht.png' class='respPic'></div><div class='trialDiv'><img src='Fruit/mixed-berries2.png'><br><font class='baseline'><strong>Berry Bla$t</strong><p><strong><font class='negOutcome'>You LOST</font><p>You bet: 5</strong></font> &nbsp; &nbsp; &nbsp; &nbsp; &nbsp; &nbsp;<font class='negOutcome'>You receive: <strong>0</strong></font></div>","null","6","Berry Bla$t","Fruit/mixed-berries2.png","Lost","0.2,0.65","12","0.2","110","18","",""
"","","","decision","63d42c21dc6f4d60e34cc337","bdp_rwlrn","Fri Mar 10 2023 14:22:17 GMT-0600 (Central Standard Time)","503410","Trustworthy,Untrustworthy","html-keyboard-response","64","211262","0.0-11.0-1.18","","481","","<div class='trialDiv'><img src='Fruit/pears.png'><br><font class='baseline'><strong>Pears Aplenty</strong><p>Choose number of points to bet.</font><div class='respPicDiv'><img src='img/responseButtonOffersNo0L.png' class='respPic'></div></div>","4","7","Pears Aplenty","Fruit/pears.png","Lost","0.8,0.35","11","0.8","115","19","",""
"","","","decisionFB","63d42c21dc6f4d60e34cc337","bdp_rwlrn","Fri Mar 10 2023 14:22:17 GMT-0600 (Central Standard Time)","503410","Trustworthy,Untrustworthy","html-keyboard-response","65","211530","0.0-11.0-2.18","","null","","<div class='trialDiv'><img src='Fruit/pears.png'><br><font class='baseline'><strong>Pears Aplenty</strong><p>Choose number of points to bet.</font><div class='respPicDiv'><img src='img/responseButtonOffersNo0L4.png' class='respPic'></div></div>","null","7","Pears Aplenty","Fruit/pears.png","Lost","0.8,0.35","11","0.8","111","19","",""
"","","","feedback","63d42c21dc6f4d60e34cc337","bdp_rwlrn","Fri Mar 10 2023 14:22:17 GMT-0600 (Central Standard Time)","503410","Trustworthy,Untrustworthy","html-keyboard-response","66","212536","0.0-11.0-3.18","","null","","<div class='respPicDiv'><img src='img/responseButtonOffersNo0_wht.png' class='respPic'></div><div class='trialDiv'><img src='Fruit/pears.png'><br><font class='baseline'><strong>Pears Aplenty</strong><p><strong><font class='negOutcome'>You LOST</font><p>You bet: 4</strong></font> &nbsp; &nbsp; &nbsp; &nbsp; &nbsp; &nbsp;<font class='negOutcome'>You receive: <strong>0</strong></font></div>","null","7","Pears Aplenty","Fruit/pears.png","Lost","0.8,0.35","11","0.8","111","19","",""
"","","","decision","63d42c21dc6f4d60e34cc337","bdp_rwlrn","Fri Mar 10 2023 14:22:17 GMT-0600 (Central Standard Time)","503410","Trustworthy,Untrustworthy","html-keyboard-response","67","215182","0.0-11.0-1.19","","2644","","<div class='trialDiv'><img src='Fruit/mixed-berries2.png'><br><font class='baseline'><strong>Berry Bla$t</strong><p>Choose number of points to bet.</font><div class='respPicDiv'><img src='img/responseButtonOffersNo0L.png' class='respPic'></div></div>","2","7","Berry Bla$t","Fruit/mixed-berries2.png","Lost","0.2,0.65","12","0.2","116","20","",""
"","","","decisionFB","63d42c21dc6f4d60e34cc337","bdp_rwlrn","Fri Mar 10 2023 14:22:17 GMT-0600 (Central Standard Time)","503410","Trustworthy,Untrustworthy","html-keyboard-response","68","215446","0.0-11.0-2.19","","null","","<div class='trialDiv'><img src='Fruit/mixed-berries2.png'><br><font class='baseline'><strong>Berry Bla$t</strong><p>Choose number of points to bet.</font><div class='respPicDiv'><img src='img/responseButtonOffersNo0L2.png' class='respPic'></div></div>","null","7","Berry Bla$t","Fruit/mixed-berries2.png","Lost","0.2,0.65","12","0.2","114","20","",""
"","","","feedback","63d42c21dc6f4d60e34cc337","bdp_rwlrn","Fri Mar 10 2023 14:22:17 GMT-0600 (Central Standard Time)","503410","Trustworthy,Untrustworthy","html-keyboard-response","69","216464","0.0-11.0-3.19","","null","","<div class='respPicDiv'><img src='img/responseButtonOffersNo0_wht.png' class='respPic'></div><div class='trialDiv'><img src='Fruit/mixed-berries2.png'><br><font class='baseline'><strong>Berry Bla$t</strong><p><strong><font class='negOutcome'>You LOST</font><p>You bet: 2</strong></font> &nbsp; &nbsp; &nbsp; &nbsp; &nbsp; &nbsp;<font class='negOutcome'>You receive: <strong>0</strong></font></div>","null","7","Berry Bla$t","Fruit/mixed-berries2.png","Lost","0.2,0.65","12","0.2","114","20","",""
"","","","decision","63d42c21dc6f4d60e34cc337","bdp_rwlrn","Fri Mar 10 2023 14:22:17 GMT-0600 (Central Standard Time)","503410","Trustworthy,Untrustworthy","html-keyboard-response","70","217510","0.0-11.0-1.20","","1044","","<div class='trialDiv'><img src='Fruit/cherrie.png'><br><font class='baseline'><strong>Cherry Chances</strong><p>Choose number of points to bet.</font><div class='respPicDiv'><img src='img/responseButtonOffersNo0L.png' class='respPic'></div></div>","2","7","Cherry Chances","Fruit/cherrie.png","Lost","0.8,0.2","9","0.8","119","21","",""
"","","","decisionFB","63d42c21dc6f4d60e34cc337","bdp_rwlrn","Fri Mar 10 2023 14:22:17 GMT-0600 (Central Standard Time)","503410","Trustworthy,Untrustworthy","html-keyboard-response","71","217763","0.0-11.0-2.20","","null","","<div class='trialDiv'><img src='Fruit/cherrie.png'><br><font class='baseline'><strong>Cherry Chances</strong><p>Choose number of points to bet.</font><div class='respPicDiv'><img src='img/responseButtonOffersNo0L2.png' class='respPic'></div></div>","null","7","Cherry Chances","Fruit/cherrie.png","Lost","0.8,0.2","9","0.8","117","21","",""
"","","","feedback","63d42c21dc6f4d60e34cc337","bdp_rwlrn","Fri Mar 10 2023 14:22:17 GMT-0600 (Central Standard Time)","503410","Trustworthy,Untrustworthy","html-keyboard-response","72","218783","0.0-11.0-3.20","","null","","<div class='respPicDiv'><img src='img/responseButtonOffersNo0_wht.png' class='respPic'></div><div class='trialDiv'><img src='Fruit/cherrie.png'><br><font class='baseline'><strong>Cherry Chances</strong><p><strong><font class='negOutcome'>You LOST</font><p>You bet: 2</strong></font> &nbsp; &nbsp; &nbsp; &nbsp; &nbsp; &nbsp;<font class='negOutcome'>You receive: <strong>0</strong></font></div>","null","7","Cherry Chances","Fruit/cherrie.png","Lost","0.8,0.2","9","0.8","117","21","",""
"","","","decision","63d42c21dc6f4d60e34cc337","bdp_rwlrn","Fri Mar 10 2023 14:22:17 GMT-0600 (Central Standard Time)","503410","Trustworthy,Untrustworthy","html-keyboard-response","73","219242","0.0-11.0-1.21","","458","","<div class='trialDiv'><img src='Fruit/pears.png'><br><font class='baseline'><strong>Pears Aplenty</strong><p>Choose number of points to bet.</font><div class='respPicDiv'><img src='img/responseButtonOffersNo0L.png' class='respPic'></div></div>","4","8","Pears Aplenty","Fruit/pears.png","Won","0.8,0.35","11","0.8","122","22","",""
"","","","decisionFB","63d42c21dc6f4d60e34cc337","bdp_rwlrn","Fri Mar 10 2023 14:22:17 GMT-0600 (Central Standard Time)","503410","Trustworthy,Untrustworthy","html-keyboard-response","74","219515","0.0-11.0-2.21","","null","","<div class='trialDiv'><img src='Fruit/pears.png'><br><font class='baseline'><strong>Pears Aplenty</strong><p>Choose number of points to bet.</font><div class='respPicDiv'><img src='img/responseButtonOffersNo0L4.png' class='respPic'></div></div>","null","8","Pears Aplenty","Fruit/pears.png","Won","0.8,0.35","11","0.8","118","22","",""
"","","","feedback","63d42c21dc6f4d60e34cc337","bdp_rwlrn","Fri Mar 10 2023 14:22:17 GMT-0600 (Central Standard Time)","503410","Trustworthy,Untrustworthy","html-keyboard-response","75","220519","0.0-11.0-3.21","","null","","<div class='respPicDiv'><img src='img/responseButtonOffersNo0_wht.png' class='respPic'></div><div class='trialDiv'><img src='Fruit/pears.png'><br><font class='baseline'><strong>Pears Aplenty</strong><p><strong><font class='posOutcome'>You WON</font><p>You bet: 4</strong></font> &nbsp; &nbsp; &nbsp; &nbsp; &nbsp; &nbsp;<font class='posOutcome'>you receive: <strong>8</strong></font></div>","null","8","Pears Aplenty","Fruit/pears.png","Won","0.8,0.35","11","0.8","126","22","",""
"","","","decision","63d42c21dc6f4d60e34cc337","bdp_rwlrn","Fri Mar 10 2023 14:22:17 GMT-0600 (Central Standard Time)","503410","Trustworthy,Untrustworthy","html-keyboard-response","76","223428","0.0-11.0-1.22","","2907","","<div class='trialDiv'><img src='Fruit/mixed-berries2.png'><br><font class='baseline'><strong>Berry Bla$t</strong><p>Choose number of points to bet.</font><div class='respPicDiv'><img src='img/responseButtonOffersNo0L.png' class='respPic'></div></div>","5","8","Berry Bla$t","Fruit/mixed-berries2.png","Lost","0.2,0.65","12","0.2","131","23","",""
"","","","decisionFB","63d42c21dc6f4d60e34cc337","bdp_rwlrn","Fri Mar 10 2023 14:22:17 GMT-0600 (Central Standard Time)","503410","Trustworthy,Untrustworthy","html-keyboard-response","77","223686","0.0-11.0-2.22","","null","","<div class='trialDiv'><img src='Fruit/mixed-berries2.png'><br><font class='baseline'><strong>Berry Bla$t</strong><p>Choose number of points to bet.</font><div class='respPicDiv'><img src='img/responseButtonOffersNo0L5.png' class='respPic'></div></div>","null","8","Berry Bla$t","Fruit/mixed-berries2.png","Lost","0.2,0.65","12","0.2","126","23","",""
"","","","feedback","63d42c21dc6f4d60e34cc337","bdp_rwlrn","Fri Mar 10 2023 14:22:17 GMT-0600 (Central Standard Time)","503410","Trustworthy,Untrustworthy","html-keyboard-response","78","224699","0.0-11.0-3.22","","null","","<div class='respPicDiv'><img src='img/responseButtonOffersNo0_wht.png' class='respPic'></div><div class='trialDiv'><img src='Fruit/mixed-berries2.png'><br><font class='baseline'><strong>Berry Bla$t</strong><p><strong><font class='negOutcome'>You LOST</font><p>You bet: 5</strong></font> &nbsp; &nbsp; &nbsp; &nbsp; &nbsp; &nbsp;<font class='negOutcome'>You receive: <strong>0</strong></font></div>","null","8","Berry Bla$t","Fruit/mixed-berries2.png","Lost","0.2,0.65","12","0.2","126","23","",""
"","","","decision","63d42c21dc6f4d60e34cc337","bdp_rwlrn","Fri Mar 10 2023 14:22:17 GMT-0600 (Central Standard Time)","503410","Trustworthy,Untrustworthy","html-keyboard-response","79","225114","0.0-11.0-1.23","","413","","<div class='trialDiv'><img src='Fruit/cherrie.png'><br><font class='baseline'><strong>Cherry Chances</strong><p>Choose number of points to bet.</font><div class='respPicDiv'><img src='img/responseButtonOffersNo0L.png' class='respPic'></div></div>","4","8","Cherry Chances","Fruit/cherrie.png","Won","0.8,0.2","9","0.8","131","24","",""
"","","","decisionFB","63d42c21dc6f4d60e34cc337","bdp_rwlrn","Fri Mar 10 2023 14:22:17 GMT-0600 (Central Standard Time)","503410","Trustworthy,Untrustworthy","html-keyboard-response","80","225383","0.0-11.0-2.23","","null","","<div class='trialDiv'><img src='Fruit/cherrie.png'><br><font class='baseline'><strong>Cherry Chances</strong><p>Choose number of points to bet.</font><div class='respPicDiv'><img src='img/responseButtonOffersNo0L4.png' class='respPic'></div></div>","null","8","Cherry Chances","Fruit/cherrie.png","Won","0.8,0.2","9","0.8","127","24","",""
"","","","feedback","63d42c21dc6f4d60e34cc337","bdp_rwlrn","Fri Mar 10 2023 14:22:17 GMT-0600 (Central Standard Time)","503410","Trustworthy,Untrustworthy","html-keyboard-response","81","226399","0.0-11.0-3.23","","null","","<div class='respPicDiv'><img src='img/responseButtonOffersNo0_wht.png' class='respPic'></div><div class='trialDiv'><img src='Fruit/cherrie.png'><br><font class='baseline'><strong>Cherry Chances</strong><p><strong><font class='posOutcome'>You WON</font><p>You bet: 4</strong></font> &nbsp; &nbsp; &nbsp; &nbsp; &nbsp; &nbsp;<font class='posOutcome'>you receive: <strong>8</strong></font></div>","null","8","Cherry Chances","Fruit/cherrie.png","Won","0.8,0.2","9","0.8","135","24","",""
"","","","decision","63d42c21dc6f4d60e34cc337","bdp_rwlrn","Fri Mar 10 2023 14:22:17 GMT-0600 (Central Standard Time)","503410","Trustworthy,Untrustworthy","html-keyboard-response","82","226867","0.0-11.0-1.24","","465","","<div class='trialDiv'><img src='Fruit/pears.png'><br><font class='baseline'><strong>Pears Aplenty</strong><p>Choose number of points to bet.</font><div class='respPicDiv'><img src='img/responseButtonOffersNo0L.png' class='respPic'></div></div>","3","9","Pears Aplenty","Fruit/pears.png","Won","0.8,0.35","11","0.8","140","25","",""
"","","","decisionFB","63d42c21dc6f4d60e34cc337","bdp_rwlrn","Fri Mar 10 2023 14:22:17 GMT-0600 (Central Standard Time)","503410","Trustworthy,Untrustworthy","html-keyboard-response","83","227133","0.0-11.0-2.24","","null","","<div class='trialDiv'><img src='Fruit/pears.png'><br><font class='baseline'><strong>Pears Aplenty</strong><p>Choose number of points to bet.</font><div class='respPicDiv'><img src='img/responseButtonOffersNo0L3.png' class='respPic'></div></div>","null","9","Pears Aplenty","Fruit/pears.png","Won","0.8,0.35","11","0.8","137","25","",""
"","","","feedback","63d42c21dc6f4d60e34cc337","bdp_rwlrn","Fri Mar 10 2023 14:22:17 GMT-0600 (Central Standard Time)","503410","Trustworthy,Untrustworthy","html-keyboard-response","84","228150","0.0-11.0-3.24","","null","","<div class='respPicDiv'><img src='img/responseButtonOffersNo0_wht.png' class='respPic'></div><div class='trialDiv'><img src='Fruit/pears.png'><br><font class='baseline'><strong>Pears Aplenty</strong><p><strong><font class='posOutcome'>You WON</font><p>You bet: 3</strong></font> &nbsp; &nbsp; &nbsp; &nbsp; &nbsp; &nbsp;<font class='posOutcome'>you receive: <strong>6</strong></font></div>","null","9","Pears Aplenty","Fruit/pears.png","Won","0.8,0.35","11","0.8","143","25","",""
"","","","decision","63d42c21dc6f4d60e34cc337","bdp_rwlrn","Fri Mar 10 2023 14:22:17 GMT-0600 (Central Standard Time)","503410","Trustworthy,Untrustworthy","html-keyboard-response","85","228474","0.0-11.0-1.25","","323","","<div class='trialDiv'><img src='Fruit/cherrie.png'><br><font class='baseline'><strong>Cherry Chances</strong><p>Choose number of points to bet.</font><div class='respPicDiv'><img src='img/responseButtonOffersNo0L.png' class='respPic'></div></div>","3","9","Cherry Chances","Fruit/cherrie.png","Lost","0.8,0.2","9","0.8","148","26","",""
"","","","decisionFB","63d42c21dc6f4d60e34cc337","bdp_rwlrn","Fri Mar 10 2023 14:22:17 GMT-0600 (Central Standard Time)","503410","Trustworthy,Untrustworthy","html-keyboard-response","86","228734","0.0-11.0-2.25","","null","","<div class='trialDiv'><img src='Fruit/cherrie.png'><br><font class='baseline'><strong>Cherry Chances</strong><p>Choose number of points to bet.</font><div class='respPicDiv'><img src='img/responseButtonOffersNo0L3.png' class='respPic'></div></div>","null","9","Cherry Chances","Fruit/cherrie.png","Lost","0.8,0.2","9","0.8","145","26","",""
"","","","feedback","63d42c21dc6f4d60e34cc337","bdp_rwlrn","Fri Mar 10 2023 14:22:17 GMT-0600 (Central Standard Time)","503410","Trustworthy,Untrustworthy","html-keyboard-response","87","229751","0.0-11.0-3.25","","null","","<div class='respPicDiv'><img src='img/responseButtonOffersNo0_wht.png' class='respPic'></div><div class='trialDiv'><img src='Fruit/cherrie.png'><br><font class='baseline'><strong>Cherry Chances</strong><p><strong><font class='negOutcome'>You LOST</font><p>You bet: 3</strong></font> &nbsp; &nbsp; &nbsp; &nbsp; &nbsp; &nbsp;<font class='negOutcome'>You receive: <strong>0</strong></font></div>","null","9","Cherry Chances","Fruit/cherrie.png","Lost","0.8,0.2","9","0.8","145","26","",""
"","","","decision","63d42c21dc6f4d60e34cc337","bdp_rwlrn","Fri Mar 10 2023 14:22:17 GMT-0600 (Central Standard Time)","503410","Trustworthy,Untrustworthy","html-keyboard-response","88","229840","0.0-11.0-1.26","","87","","<div class='trialDiv'><img src='Fruit/mixed-berries2.png'><br><font class='baseline'><strong>Berry Bla$t</strong><p>Choose number of points to bet.</font><div class='respPicDiv'><img src='img/responseButtonOffersNo0L.png' class='respPic'></div></div>","4","9","Berry Bla$t","Fruit/mixed-berries2.png","Lost","0.2,0.65","12","0.2","150","27","",""
"","","","decisionFB","63d42c21dc6f4d60e34cc337","bdp_rwlrn","Fri Mar 10 2023 14:22:17 GMT-0600 (Central Standard Time)","503410","Trustworthy,Untrustworthy","html-keyboard-response","89","230100","0.0-11.0-2.26","","null","","<div class='trialDiv'><img src='Fruit/mixed-berries2.png'><br><font class='baseline'><strong>Berry Bla$t</strong><p>Choose number of points to bet.</font><div class='respPicDiv'><img src='img/responseButtonOffersNo0L4.png' class='respPic'></div></div>","null","9","Berry Bla$t","Fruit/mixed-berries2.png","Lost","0.2,0.65","12","0.2","146","27","",""
"","","","feedback","63d42c21dc6f4d60e34cc337","bdp_rwlrn","Fri Mar 10 2023 14:22:17 GMT-0600 (Central Standard Time)","503410","Trustworthy,Untrustworthy","html-keyboard-response","90","231116","0.0-11.0-3.26","","null","","<div class='respPicDiv'><img src='img/responseButtonOffersNo0_wht.png' class='respPic'></div><div class='trialDiv'><img src='Fruit/mixed-berries2.png'><br><font class='baseline'><strong>Berry Bla$t</strong><p><strong><font class='negOutcome'>You LOST</font><p>You bet: 4</strong></font> &nbsp; &nbsp; &nbsp; &nbsp; &nbsp; &nbsp;<font class='negOutcome'>You receive: <strong>0</strong></font></div>","null","9","Berry Bla$t","Fruit/mixed-berries2.png","Lost","0.2,0.65","12","0.2","146","27","",""
"","","","decision","63d42c21dc6f4d60e34cc337","bdp_rwlrn","Fri Mar 10 2023 14:22:17 GMT-0600 (Central Standard Time)","503410","Trustworthy,Untrustworthy","html-keyboard-response","91","231336","0.0-11.0-1.27","","218","","<div class='trialDiv'><img src='Fruit/pears.png'><br><font class='baseline'><strong>Pears Aplenty</strong><p>Choose number of points to bet.</font><div class='respPicDiv'><img src='img/responseButtonOffersNo0L.png' class='respPic'></div></div>","5","10","Pears Aplenty","Fruit/pears.png","Won","0.8,0.35","11","0.8","151","28","",""
"","","","decisionFB","63d42c21dc6f4d60e34cc337","bdp_rwlrn","Fri Mar 10 2023 14:22:17 GMT-0600 (Central Standard Time)","503410","Trustworthy,Untrustworthy","html-keyboard-response","92","231600","0.0-11.0-2.27","","null","","<div class='trialDiv'><img src='Fruit/pears.png'><br><font class='baseline'><strong>Pears Aplenty</strong><p>Choose number of points to bet.</font><div class='respPicDiv'><img src='img/responseButtonOffersNo0L5.png' class='respPic'></div></div>","null","10","Pears Aplenty","Fruit/pears.png","Won","0.8,0.35","11","0.8","146","28","",""
"","","","feedback","63d42c21dc6f4d60e34cc337","bdp_rwlrn","Fri Mar 10 2023 14:22:17 GMT-0600 (Central Standard Time)","503410","Trustworthy,Untrustworthy","html-keyboard-response","93","232617","0.0-11.0-3.27","","null","","<div class='respPicDiv'><img src='img/responseButtonOffersNo0_wht.png' class='respPic'></div><div class='trialDiv'><img src='Fruit/pears.png'><br><font class='baseline'><strong>Pears Aplenty</strong><p><strong><font class='posOutcome'>You WON</font><p>You bet: 5</strong></font> &nbsp; &nbsp; &nbsp; &nbsp; &nbsp; &nbsp;<font class='posOutcome'>you receive: <strong>10</strong></font></div>","null","10","Pears Aplenty","Fruit/pears.png","Won","0.8,0.35","11","0.8","156","28","",""
"","","","decision","63d42c21dc6f4d60e34cc337","bdp_rwlrn","Fri Mar 10 2023 14:22:17 GMT-0600 (Central Standard Time)","503410","Trustworthy,Untrustworthy","html-keyboard-response","94","232970","0.0-11.0-1.28","","351","","<div class='trialDiv'><img src='Fruit/cherrie.png'><br><font class='baseline'><strong>Cherry Chances</strong><p>Choose number of points to bet.</font><div class='respPicDiv'><img src='img/responseButtonOffersNo0L.png' class='respPic'></div></div>","5","10","Cherry Chances","Fruit/cherrie.png","Lost","0.8,0.2","9","0.8","161","29","",""
"","","","decisionFB","63d42c21dc6f4d60e34cc337","bdp_rwlrn","Fri Mar 10 2023 14:22:17 GMT-0600 (Central Standard Time)","503410","Trustworthy,Untrustworthy","html-keyboard-response","95","233235","0.0-11.0-2.28","","null","","<div class='trialDiv'><img src='Fruit/cherrie.png'><br><font class='baseline'><strong>Cherry Chances</strong><p>Choose number of points to bet.</font><div class='respPicDiv'><img src='img/responseButtonOffersNo0L5.png' class='respPic'></div></div>","null","10","Cherry Chances","Fruit/cherrie.png","Lost","0.8,0.2","9","0.8","156","29","",""
"","","","feedback","63d42c21dc6f4d60e34cc337","bdp_rwlrn","Fri Mar 10 2023 14:22:17 GMT-0600 (Central Standard Time)","503410","Trustworthy,Untrustworthy","html-keyboard-response","96","234252","0.0-11.0-3.28","","null","","<div class='respPicDiv'><img src='img/responseButtonOffersNo0_wht.png' class='respPic'></div><div class='trialDiv'><img src='Fruit/cherrie.png'><br><font class='baseline'><strong>Cherry Chances</strong><p><strong><font class='negOutcome'>You LOST</font><p>You bet: 5</strong></font> &nbsp; &nbsp; &nbsp; &nbsp; &nbsp; &nbsp;<font class='negOutcome'>You receive: <strong>0</strong></font></div>","null","10","Cherry Chances","Fruit/cherrie.png","Lost","0.8,0.2","9","0.8","156","29","",""
"","","","decision","63d42c21dc6f4d60e34cc337","bdp_rwlrn","Fri Mar 10 2023 14:22:17 GMT-0600 (Central Standard Time)","503410","Trustworthy,Untrustworthy","html-keyboard-response","97","234558","0.0-11.0-1.29","","303","","<div class='trialDiv'><img src='Fruit/mixed-berries2.png'><br><font class='baseline'><strong>Berry Bla$t</strong><p>Choose number of points to bet.</font><div class='respPicDiv'><img src='img/responseButtonOffersNo0L.png' class='respPic'></div></div>","3","10","Berry Bla$t","Fruit/mixed-berries2.png","Lost","0.2,0.65","12","0.2","161","30","",""
"","","","decisionFB","63d42c21dc6f4d60e34cc337","bdp_rwlrn","Fri Mar 10 2023 14:22:17 GMT-0600 (Central Standard Time)","503410","Trustworthy,Untrustworthy","html-keyboard-response","98","234827","0.0-11.0-2.29","","null","","<div class='trialDiv'><img src='Fruit/mixed-berries2.png'><br><font class='baseline'><strong>Berry Bla$t</strong><p>Choose number of points to bet.</font><div class='respPicDiv'><img src='img/responseButtonOffersNo0L3.png' class='respPic'></div></div>","null","10","Berry Bla$t","Fruit/mixed-berries2.png","Lost","0.2,0.65","12","0.2","158","30","",""
"","","","feedback","63d42c21dc6f4d60e34cc337","bdp_rwlrn","Fri Mar 10 2023 14:22:17 GMT-0600 (Central Standard Time)","503410","Trustworthy,Untrustworthy","html-keyboard-response","99","235835","0.0-11.0-3.29","","null","","<div class='respPicDiv'><img src='img/responseButtonOffersNo0_wht.png' class='respPic'></div><div class='trialDiv'><img src='Fruit/mixed-berries2.png'><br><font class='baseline'><strong>Berry Bla$t</strong><p><strong><font class='negOutcome'>You LOST</font><p>You bet: 3</strong></font> &nbsp; &nbsp; &nbsp; &nbsp; &nbsp; &nbsp;<font class='negOutcome'>You receive: <strong>0</strong></font></div>","null","10","Berry Bla$t","Fruit/mixed-berries2.png","Lost","0.2,0.65","12","0.2","158","30","",""
"","","","decision","63d42c21dc6f4d60e34cc337","bdp_rwlrn","Fri Mar 10 2023 14:22:17 GMT-0600 (Central Standard Time)","503410","Trustworthy,Untrustworthy","html-keyboard-response","100","236021","0.0-11.0-1.30","","185","","<div class='trialDiv'><img src='Fruit/pears.png'><br><font class='baseline'><strong>Pears Aplenty</strong><p>Choose number of points to bet.</font><div class='respPicDiv'><img src='img/responseButtonOffersNo0L.png' class='respPic'></div></div>","4","11","Pears Aplenty","Fruit/pears.png","Won","0.8,0.35","11","0.8","163","31","",""
"","","","decisionFB","63d42c21dc6f4d60e34cc337","bdp_rwlrn","Fri Mar 10 2023 14:22:17 GMT-0600 (Central Standard Time)","503410","Trustworthy,Untrustworthy","html-keyboard-response","101","236285","0.0-11.0-2.30","","null","","<div class='trialDiv'><img src='Fruit/pears.png'><br><font class='baseline'><strong>Pears Aplenty</strong><p>Choose number of points to bet.</font><div class='respPicDiv'><img src='img/responseButtonOffersNo0L4.png' class='respPic'></div></div>","null","11","Pears Aplenty","Fruit/pears.png","Won","0.8,0.35","11","0.8","159","31","",""
"","","","feedback","63d42c21dc6f4d60e34cc337","bdp_rwlrn","Fri Mar 10 2023 14:22:17 GMT-0600 (Central Standard Time)","503410","Trustworthy,Untrustworthy","html-keyboard-response","102","237301","0.0-11.0-3.30","","null","","<div class='respPicDiv'><img src='img/responseButtonOffersNo0_wht.png' class='respPic'></div><div class='trialDiv'><img src='Fruit/pears.png'><br><font class='baseline'><strong>Pears Aplenty</strong><p><strong><font class='posOutcome'>You WON</font><p>You bet: 4</strong></font> &nbsp; &nbsp; &nbsp; &nbsp; &nbsp; &nbsp;<font class='posOutcome'>you receive: <strong>8</strong></font></div>","null","11","Pears Aplenty","Fruit/pears.png","Won","0.8,0.35","11","0.8","167","31","",""
"","","","decision","63d42c21dc6f4d60e34cc337","bdp_rwlrn","Fri Mar 10 2023 14:22:17 GMT-0600 (Central Standard Time)","503410","Trustworthy,Untrustworthy","html-keyboard-response","103","237656","0.0-11.0-1.31","","353","","<div class='trialDiv'><img src='Fruit/cherrie.png'><br><font class='baseline'><strong>Cherry Chances</strong><p>Choose number of points to bet.</font><div class='respPicDiv'><img src='img/responseButtonOffersNo0L.png' class='respPic'></div></div>","5","11","Cherry Chances","Fruit/cherrie.png","Won","0.8,0.2","9","0.8","172","32","",""
"","","","decisionFB","63d42c21dc6f4d60e34cc337","bdp_rwlrn","Fri Mar 10 2023 14:22:17 GMT-0600 (Central Standard Time)","503410","Trustworthy,Untrustworthy","html-keyboard-response","104","237917","0.0-11.0-2.31","","null","","<div class='trialDiv'><img src='Fruit/cherrie.png'><br><font class='baseline'><strong>Cherry Chances</strong><p>Choose number of points to bet.</font><div class='respPicDiv'><img src='img/responseButtonOffersNo0L5.png' class='respPic'></div></div>","null","11","Cherry Chances","Fruit/cherrie.png","Won","0.8,0.2","9","0.8","167","32","",""
"","","","feedback","63d42c21dc6f4d60e34cc337","bdp_rwlrn","Fri Mar 10 2023 14:22:17 GMT-0600 (Central Standard Time)","503410","Trustworthy,Untrustworthy","html-keyboard-response","105","238935","0.0-11.0-3.31","","null","","<div class='respPicDiv'><img src='img/responseButtonOffersNo0_wht.png' class='respPic'></div><div class='trialDiv'><img src='Fruit/cherrie.png'><br><font class='baseline'><strong>Cherry Chances</strong><p><strong><font class='posOutcome'>You WON</font><p>You bet: 5</strong></font> &nbsp; &nbsp; &nbsp; &nbsp; &nbsp; &nbsp;<font class='posOutcome'>you receive: <strong>10</strong></font></div>","null","11","Cherry Chances","Fruit/cherrie.png","Won","0.8,0.2","9","0.8","177","32","",""
"","","","decision","63d42c21dc6f4d60e34cc337","bdp_rwlrn","Fri Mar 10 2023 14:22:17 GMT-0600 (Central Standard Time)","503410","Trustworthy,Untrustworthy","html-keyboard-response","106","239337","0.0-11.0-1.32","","401","","<div class='trialDiv'><img src='Fruit/mixed-berries2.png'><br><font class='baseline'><strong>Berry Bla$t</strong><p>Choose number of points to bet.</font><div class='respPicDiv'><img src='img/responseButtonOffersNo0L.png' class='respPic'></div></div>","4","11","Berry Bla$t","Fruit/mixed-berries2.png","Lost","0.2,0.65","12","0.2","182","33","",""
"","","","decisionFB","63d42c21dc6f4d60e34cc337","bdp_rwlrn","Fri Mar 10 2023 14:22:17 GMT-0600 (Central Standard Time)","503410","Trustworthy,Untrustworthy","html-keyboard-response","107","239602","0.0-11.0-2.32","","null","","<div class='trialDiv'><img src='Fruit/mixed-berries2.png'><br><font class='baseline'><strong>Berry Bla$t</strong><p>Choose number of points to bet.</font><div class='respPicDiv'><img src='img/responseButtonOffersNo0L4.png' class='respPic'></div></div>","null","11","Berry Bla$t","Fruit/mixed-berries2.png","Lost","0.2,0.65","12","0.2","178","33","",""
"","","","feedback","63d42c21dc6f4d60e34cc337","bdp_rwlrn","Fri Mar 10 2023 14:22:17 GMT-0600 (Central Standard Time)","503410","Trustworthy,Untrustworthy","html-keyboard-response","108","240619","0.0-11.0-3.32","","null","","<div class='respPicDiv'><img src='img/responseButtonOffersNo0_wht.png' class='respPic'></div><div class='trialDiv'><img src='Fruit/mixed-berries2.png'><br><font class='baseline'><strong>Berry Bla$t</strong><p><strong><font class='negOutcome'>You LOST</font><p>You bet: 4</strong></font> &nbsp; &nbsp; &nbsp; &nbsp; &nbsp; &nbsp;<font class='negOutcome'>You receive: <strong>0</strong></font></div>","null","11","Berry Bla$t","Fruit/mixed-berries2.png","Lost","0.2,0.65","12","0.2","178","33","",""
"","","","decision","63d42c21dc6f4d60e34cc337","bdp_rwlrn","Fri Mar 10 2023 14:22:17 GMT-0600 (Central Standard Time)","503410","Trustworthy,Untrustworthy","html-keyboard-response","109","241090","0.0-11.0-1.33","","470","","<div class='trialDiv'><img src='Fruit/pears.png'><br><font class='baseline'><strong>Pears Aplenty</strong><p>Choose number of points to bet.</font><div class='respPicDiv'><img src='img/responseButtonOffersNo0L.png' class='respPic'></div></div>","5","12","Pears Aplenty","Fruit/pears.png","Won","0.8,0.35","11","0.8","183","34","",""
"","","","decisionFB","63d42c21dc6f4d60e34cc337","bdp_rwlrn","Fri Mar 10 2023 14:22:17 GMT-0600 (Central Standard Time)","503410","Trustworthy,Untrustworthy","html-keyboard-response","110","241353","0.0-11.0-2.33","","null","","<div class='trialDiv'><img src='Fruit/pears.png'><br><font class='baseline'><strong>Pears Aplenty</strong><p>Choose number of points to bet.</font><div class='respPicDiv'><img src='img/responseButtonOffersNo0L5.png' class='respPic'></div></div>","null","12","Pears Aplenty","Fruit/pears.png","Won","0.8,0.35","11","0.8","178","34","",""
"","","","feedback","63d42c21dc6f4d60e34cc337","bdp_rwlrn","Fri Mar 10 2023 14:22:17 GMT-0600 (Central Standard Time)","503410","Trustworthy,Untrustworthy","html-keyboard-response","111","242368","0.0-11.0-3.33","","null","","<div class='respPicDiv'><img src='img/responseButtonOffersNo0_wht.png' class='respPic'></div><div class='trialDiv'><img src='Fruit/pears.png'><br><font class='baseline'><strong>Pears Aplenty</strong><p><strong><font class='posOutcome'>You WON</font><p>You bet: 5</strong></font> &nbsp; &nbsp; &nbsp; &nbsp; &nbsp; &nbsp;<font class='posOutcome'>you receive: <strong>10</strong></font></div>","null","12","Pears Aplenty","Fruit/pears.png","Won","0.8,0.35","11","0.8","188","34","",""
"","","","decision","63d42c21dc6f4d60e34cc337","bdp_rwlrn","Fri Mar 10 2023 14:22:17 GMT-0600 (Central Standard Time)","503410","Trustworthy,Untrustworthy","html-keyboard-response","112","243239","0.0-11.0-1.34","","868","","<div class='trialDiv'><img src='Fruit/mixed-berries2.png'><br><font class='baseline'><strong>Berry Bla$t</strong><p>Choose number of points to bet.</font><div class='respPicDiv'><img src='img/responseButtonOffersNo0L.png' class='respPic'></div></div>","3","12","Berry Bla$t","Fruit/mixed-berries2.png","Won","0.2,0.65","12","0.2","193","35","",""
"","","","decisionFB","63d42c21dc6f4d60e34cc337","bdp_rwlrn","Fri Mar 10 2023 14:22:17 GMT-0600 (Central Standard Time)","503410","Trustworthy,Untrustworthy","html-keyboard-response","113","243492","0.0-11.0-2.34","","null","","<div class='trialDiv'><img src='Fruit/mixed-berries2.png'><br><font class='baseline'><strong>Berry Bla$t</strong><p>Choose number of points to bet.</font><div class='respPicDiv'><img src='img/responseButtonOffersNo0L3.png' class='respPic'></div></div>","null","12","Berry Bla$t","Fruit/mixed-berries2.png","Won","0.2,0.65","12","0.2","190","35","",""
"","","","feedback","63d42c21dc6f4d60e34cc337","bdp_rwlrn","Fri Mar 10 2023 14:22:17 GMT-0600 (Central Standard Time)","503410","Trustworthy,Untrustworthy","html-keyboard-response","114","244503","0.0-11.0-3.34","","null","","<div class='respPicDiv'><img src='img/responseButtonOffersNo0_wht.png' class='respPic'></div><div class='trialDiv'><img src='Fruit/mixed-berries2.png'><br><font class='baseline'><strong>Berry Bla$t</strong><p><strong><font class='posOutcome'>You WON</font><p>You bet: 3</strong></font> &nbsp; &nbsp; &nbsp; &nbsp; &nbsp; &nbsp;<font class='posOutcome'>you receive: <strong>6</strong></font></div>","null","12","Berry Bla$t","Fruit/mixed-berries2.png","Won","0.2,0.65","12","0.2","196","35","",""
"","","","decision","63d42c21dc6f4d60e34cc337","bdp_rwlrn","Fri Mar 10 2023 14:22:17 GMT-0600 (Central Standard Time)","503410","Trustworthy,Untrustworthy","html-keyboard-response","115","245017","0.0-11.0-1.35","","512","","<div class='trialDiv'><img src='Fruit/cherrie.png'><br><font class='baseline'><strong>Cherry Chances</strong><p>Choose number of points to bet.</font><div class='respPicDiv'><img src='img/responseButtonOffersNo0L.png' class='respPic'></div></div>","3","12","Cherry Chances","Fruit/cherrie.png","Lost","0.8,0.2","9","0.8","201","36","",""
"","","","decisionFB","63d42c21dc6f4d60e34cc337","bdp_rwlrn","Fri Mar 10 2023 14:22:17 GMT-0600 (Central Standard Time)","503410","Trustworthy,Untrustworthy","html-keyboard-response","116","245270","0.0-11.0-2.35","","null","","<div class='trialDiv'><img src='Fruit/cherrie.png'><br><font class='baseline'><strong>Cherry Chances</strong><p>Choose number of points to bet.</font><div class='respPicDiv'><img src='img/responseButtonOffersNo0L3.png' class='respPic'></div></div>","null","12","Cherry Chances","Fruit/cherrie.png","Lost","0.8,0.2","9","0.8","198","36","",""
"","","","feedback","63d42c21dc6f4d60e34cc337","bdp_rwlrn","Fri Mar 10 2023 14:22:17 GMT-0600 (Central Standard Time)","503410","Trustworthy,Untrustworthy","html-keyboard-response","117","246288","0.0-11.0-3.35","","null","","<div class='respPicDiv'><img src='img/responseButtonOffersNo0_wht.png' class='respPic'></div><div class='trialDiv'><img src='Fruit/cherrie.png'><br><font class='baseline'><strong>Cherry Chances</strong><p><strong><font class='negOutcome'>You LOST</font><p>You bet: 3</strong></font> &nbsp; &nbsp; &nbsp; &nbsp; &nbsp; &nbsp;<font class='negOutcome'>You receive: <strong>0</strong></font></div>","null","12","Cherry Chances","Fruit/cherrie.png","Lost","0.8,0.2","9","0.8","198","36","",""
"","","","decision","63d42c21dc6f4d60e34cc337","bdp_rwlrn","Fri Mar 10 2023 14:22:17 GMT-0600 (Central Standard Time)","503410","Trustworthy,Untrustworthy","html-keyboard-response","118","246758","0.0-11.0-1.36","","467","","<div class='trialDiv'><img src='Fruit/mixed-berries2.png'><br><font class='baseline'><strong>Berry Bla$t</strong><p>Choose number of points to bet.</font><div class='respPicDiv'><img src='img/responseButtonOffersNo0L.png' class='respPic'></div></div>","2","13","Berry Bla$t","Fruit/mixed-berries2.png","Won","0.2,0.65","12","0.2","203","37","",""
"","","","decisionFB","63d42c21dc6f4d60e34cc337","bdp_rwlrn","Fri Mar 10 2023 14:22:17 GMT-0600 (Central Standard Time)","503410","Trustworthy,Untrustworthy","html-keyboard-response","119","247020","0.0-11.0-2.36","","null","","<div class='trialDiv'><img src='Fruit/mixed-berries2.png'><br><font class='baseline'><strong>Berry Bla$t</strong><p>Choose number of points to bet.</font><div class='respPicDiv'><img src='img/responseButtonOffersNo0L2.png' class='respPic'></div></div>","null","13","Berry Bla$t","Fruit/mixed-berries2.png","Won","0.2,0.65","12","0.2","201","37","",""
"","","","feedback","63d42c21dc6f4d60e34cc337","bdp_rwlrn","Fri Mar 10 2023 14:22:17 GMT-0600 (Central Standard Time)","503410","Trustworthy,Untrustworthy","html-keyboard-response","120","248037","0.0-11.0-3.36","","null","","<div class='respPicDiv'><img src='img/responseButtonOffersNo0_wht.png' class='respPic'></div><div class='trialDiv'><img src='Fruit/mixed-berries2.png'><br><font class='baseline'><strong>Berry Bla$t</strong><p><strong><font class='posOutcome'>You WON</font><p>You bet: 2</strong></font> &nbsp; &nbsp; &nbsp; &nbsp; &nbsp; &nbsp;<font class='posOutcome'>you receive: <strong>4</strong></font></div>","null","13","Berry Bla$t","Fruit/mixed-berries2.png","Won","0.2,0.65","12","0.2","205","37","",""
"","","","decision","63d42c21dc6f4d60e34cc337","bdp_rwlrn","Fri Mar 10 2023 14:22:17 GMT-0600 (Central Standard Time)","503410","Trustworthy,Untrustworthy","html-keyboard-response","121","249084","0.0-11.0-1.37","","1045","","<div class='trialDiv'><img src='Fruit/pears.png'><br><font class='baseline'><strong>Pears Aplenty</strong><p>Choose number of points to bet.</font><div class='respPicDiv'><img src='img/responseButtonOffersNo0L.png' class='respPic'></div></div>","1","13","Pears Aplenty","Fruit/pears.png","Lost","0.8,0.35","11","0.8","210","38","",""
"","","","decisionFB","63d42c21dc6f4d60e34cc337","bdp_rwlrn","Fri Mar 10 2023 14:22:17 GMT-0600 (Central Standard Time)","503410","Trustworthy,Untrustworthy","html-keyboard-response","122","249348","0.0-11.0-2.37","","null","","<div class='trialDiv'><img src='Fruit/pears.png'><br><font class='baseline'><strong>Pears Aplenty</strong><p>Choose number of points to bet.</font><div class='respPicDiv'><img src='img/responseButtonOffersNo0L1.png' class='respPic'></div></div>","null","13","Pears Aplenty","Fruit/pears.png","Lost","0.8,0.35","11","0.8","209","38","",""
"","","","feedback","63d42c21dc6f4d60e34cc337","bdp_rwlrn","Fri Mar 10 2023 14:22:17 GMT-0600 (Central Standard Time)","503410","Trustworthy,Untrustworthy","html-keyboard-response","123","250371","0.0-11.0-3.37","","null","","<div class='respPicDiv'><img src='img/responseButtonOffersNo0_wht.png' class='respPic'></div><div class='trialDiv'><img src='Fruit/pears.png'><br><font class='baseline'><strong>Pears Aplenty</strong><p><strong><font class='negOutcome'>You LOST</font><p>You bet: 1</strong></font> &nbsp; &nbsp; &nbsp; &nbsp; &nbsp; &nbsp;<font class='negOutcome'>You receive: <strong>0</strong></font></div>","null","13","Pears Aplenty","Fruit/pears.png","Lost","0.8,0.35","11","0.8","209","38","",""
"","","","decision","63d42c21dc6f4d60e34cc337","bdp_rwlrn","Fri Mar 10 2023 14:22:17 GMT-0600 (Central Standard Time)","503410","Trustworthy,Untrustworthy","html-keyboard-response","124","250655","0.0-11.0-1.38","","283","","<div class='trialDiv'><img src='Fruit/cherrie.png'><br><font class='baseline'><strong>Cherry Chances</strong><p>Choose number of points to bet.</font><div class='respPicDiv'><img src='img/responseButtonOffersNo0L.png' class='respPic'></div></div>","4","13","Cherry Chances","Fruit/cherrie.png","Lost","0.8,0.2","9","0.8","214","39","",""
"","","","decisionFB","63d42c21dc6f4d60e34cc337","bdp_rwlrn","Fri Mar 10 2023 14:22:17 GMT-0600 (Central Standard Time)","503410","Trustworthy,Untrustworthy","html-keyboard-response","125","250921","0.0-11.0-2.38","","null","","<div class='trialDiv'><img src='Fruit/cherrie.png'><br><font class='baseline'><strong>Cherry Chances</strong><p>Choose number of points to bet.</font><div class='respPicDiv'><img src='img/responseButtonOffersNo0L4.png' class='respPic'></div></div>","null","13","Cherry Chances","Fruit/cherrie.png","Lost","0.8,0.2","9","0.8","210","39","",""
"","","","feedback","63d42c21dc6f4d60e34cc337","bdp_rwlrn","Fri Mar 10 2023 14:22:17 GMT-0600 (Central Standard Time)","503410","Trustworthy,Untrustworthy","html-keyboard-response","126","251937","0.0-11.0-3.38","","null","","<div class='respPicDiv'><img src='img/responseButtonOffersNo0_wht.png' class='respPic'></div><div class='trialDiv'><img src='Fruit/cherrie.png'><br><font class='baseline'><strong>Cherry Chances</strong><p><strong><font class='negOutcome'>You LOST</font><p>You bet: 4</strong></font> &nbsp; &nbsp; &nbsp; &nbsp; &nbsp; &nbsp;<font class='negOutcome'>You receive: <strong>0</strong></font></div>","null","13","Cherry Chances","Fruit/cherrie.png","Lost","0.8,0.2","9","0.8","210","39","",""
"","","","decision","63d42c21dc6f4d60e34cc337","bdp_rwlrn","Fri Mar 10 2023 14:22:17 GMT-0600 (Central Standard Time)","503410","Trustworthy,Untrustworthy","html-keyboard-response","127","252761","0.0-11.0-1.39","","821","","<div class='trialDiv'><img src='Fruit/pears.png'><br><font class='baseline'><strong>Pears Aplenty</strong><p>Choose number of points to bet.</font><div class='respPicDiv'><img src='img/responseButtonOffersNo0L.png' class='respPic'></div></div>","4","14","Pears Aplenty","Fruit/pears.png","Won","0.8,0.35","11","0.8","215","40","",""
"","","","decisionFB","63d42c21dc6f4d60e34cc337","bdp_rwlrn","Fri Mar 10 2023 14:22:17 GMT-0600 (Central Standard Time)","503410","Trustworthy,Untrustworthy","html-keyboard-response","128","253021","0.0-11.0-2.39","","null","","<div class='trialDiv'><img src='Fruit/pears.png'><br><font class='baseline'><strong>Pears Aplenty</strong><p>Choose number of points to bet.</font><div class='respPicDiv'><img src='img/responseButtonOffersNo0L4.png' class='respPic'></div></div>","null","14","Pears Aplenty","Fruit/pears.png","Won","0.8,0.35","11","0.8","211","40","",""
"","","","feedback","63d42c21dc6f4d60e34cc337","bdp_rwlrn","Fri Mar 10 2023 14:22:17 GMT-0600 (Central Standard Time)","503410","Trustworthy,Untrustworthy","html-keyboard-response","129","254037","0.0-11.0-3.39","","null","","<div class='respPicDiv'><img src='img/responseButtonOffersNo0_wht.png' class='respPic'></div><div class='trialDiv'><img src='Fruit/pears.png'><br><font class='baseline'><strong>Pears Aplenty</strong><p><strong><font class='posOutcome'>You WON</font><p>You bet: 4</strong></font> &nbsp; &nbsp; &nbsp; &nbsp; &nbsp; &nbsp;<font class='posOutcome'>you receive: <strong>8</strong></font></div>","null","14","Pears Aplenty","Fruit/pears.png","Won","0.8,0.35","11","0.8","219","40","",""
"","","","decision","63d42c21dc6f4d60e34cc337","bdp_rwlrn","Fri Mar 10 2023 14:22:17 GMT-0600 (Central Standard Time)","503410","Trustworthy,Untrustworthy","html-keyboard-response","130","255102","0.0-11.0-1.40","","1063","","<div class='trialDiv'><img src='Fruit/mixed-berries2.png'><br><font class='baseline'><strong>Berry Bla$t</strong><p>Choose number of points to bet.</font><div class='respPicDiv'><img src='img/responseButtonOffersNo0L.png' class='respPic'></div></div>","5","14","Berry Bla$t","Fruit/mixed-berries2.png","Won","0.2,0.65","12","0.2","224","41","",""
"","","","decisionFB","63d42c21dc6f4d60e34cc337","bdp_rwlrn","Fri Mar 10 2023 14:22:17 GMT-0600 (Central Standard Time)","503410","Trustworthy,Untrustworthy","html-keyboard-response","131","255375","0.0-11.0-2.40","","null","","<div class='trialDiv'><img src='Fruit/mixed-berries2.png'><br><font class='baseline'><strong>Berry Bla$t</strong><p>Choose number of points to bet.</font><div class='respPicDiv'><img src='img/responseButtonOffersNo0L5.png' class='respPic'></div></div>","null","14","Berry Bla$t","Fruit/mixed-berries2.png","Won","0.2,0.65","12","0.2","219","41","",""
"","","","feedback","63d42c21dc6f4d60e34cc337","bdp_rwlrn","Fri Mar 10 2023 14:22:17 GMT-0600 (Central Standard Time)","503410","Trustworthy,Untrustworthy","html-keyboard-response","132","256389","0.0-11.0-3.40","","null","","<div class='respPicDiv'><img src='img/responseButtonOffersNo0_wht.png' class='respPic'></div><div class='trialDiv'><img src='Fruit/mixed-berries2.png'><br><font class='baseline'><strong>Berry Bla$t</strong><p><strong><font class='posOutcome'>You WON</font><p>You bet: 5</strong></font> &nbsp; &nbsp; &nbsp; &nbsp; &nbsp; &nbsp;<font class='posOutcome'>you receive: <strong>10</strong></font></div>","null","14","Berry Bla$t","Fruit/mixed-berries2.png","Won","0.2,0.65","12","0.2","229","41","",""
"","","","decision","63d42c21dc6f4d60e34cc337","bdp_rwlrn","Fri Mar 10 2023 14:22:17 GMT-0600 (Central Standard Time)","503410","Trustworthy,Untrustworthy","html-keyboard-response","133","256850","0.0-11.0-1.41","","460","","<div class='trialDiv'><img src='Fruit/cherrie.png'><br><font class='baseline'><strong>Cherry Chances</strong><p>Choose number of points to bet.</font><div class='respPicDiv'><img src='img/responseButtonOffersNo0L.png' class='respPic'></div></div>","3","14","Cherry Chances","Fruit/cherrie.png","Lost","0.8,0.2","9","0.8","234","42","",""
"","","","decisionFB","63d42c21dc6f4d60e34cc337","bdp_rwlrn","Fri Mar 10 2023 14:22:17 GMT-0600 (Central Standard Time)","503410","Trustworthy,Untrustworthy","html-keyboard-response","134","257122","0.0-11.0-2.41","","null","","<div class='trialDiv'><img src='Fruit/cherrie.png'><br><font class='baseline'><strong>Cherry Chances</strong><p>Choose number of points to bet.</font><div class='respPicDiv'><img src='img/responseButtonOffersNo0L3.png' class='respPic'></div></div>","null","14","Cherry Chances","Fruit/cherrie.png","Lost","0.8,0.2","9","0.8","231","42","",""
"","","","feedback","63d42c21dc6f4d60e34cc337","bdp_rwlrn","Fri Mar 10 2023 14:22:17 GMT-0600 (Central Standard Time)","503410","Trustworthy,Untrustworthy","html-keyboard-response","135","258138","0.0-11.0-3.41","","null","","<div class='respPicDiv'><img src='img/responseButtonOffersNo0_wht.png' class='respPic'></div><div class='trialDiv'><img src='Fruit/cherrie.png'><br><font class='baseline'><strong>Cherry Chances</strong><p><strong><font class='negOutcome'>You LOST</font><p>You bet: 3</strong></font> &nbsp; &nbsp; &nbsp; &nbsp; &nbsp; &nbsp;<font class='negOutcome'>You receive: <strong>0</strong></font></div>","null","14","Cherry Chances","Fruit/cherrie.png","Lost","0.8,0.2","9","0.8","231","42","",""
"","","","decision","63d42c21dc6f4d60e34cc337","bdp_rwlrn","Fri Mar 10 2023 14:22:17 GMT-0600 (Central Standard Time)","503410","Trustworthy,Untrustworthy","html-keyboard-response","136","258633","0.0-11.0-1.42","","493","","<div class='trialDiv'><img src='Fruit/pears.png'><br><font class='baseline'><strong>Pears Aplenty</strong><p>Choose number of points to bet.</font><div class='respPicDiv'><img src='img/responseButtonOffersNo0L.png' class='respPic'></div></div>","2","15","Pears Aplenty","Fruit/pears.png","Won","0.8,0.35","11","0.8","236","43","",""
"","","","decisionFB","63d42c21dc6f4d60e34cc337","bdp_rwlrn","Fri Mar 10 2023 14:22:17 GMT-0600 (Central Standard Time)","503410","Trustworthy,Untrustworthy","html-keyboard-response","137","258901","0.0-11.0-2.42","","null","","<div class='trialDiv'><img src='Fruit/pears.png'><br><font class='baseline'><strong>Pears Aplenty</strong><p>Choose number of points to bet.</font><div class='respPicDiv'><img src='img/responseButtonOffersNo0L2.png' class='respPic'></div></div>","null","15","Pears Aplenty","Fruit/pears.png","Won","0.8,0.35","11","0.8","234","43","",""
"","","","feedback","63d42c21dc6f4d60e34cc337","bdp_rwlrn","Fri Mar 10 2023 14:22:17 GMT-0600 (Central Standard Time)","503410","Trustworthy,Untrustworthy","html-keyboard-response","138","259913","0.0-11.0-3.42","","null","","<div class='respPicDiv'><img src='img/responseButtonOffersNo0_wht.png' class='respPic'></div><div class='trialDiv'><img src='Fruit/pears.png'><br><font class='baseline'><strong>Pears Aplenty</strong><p><strong><font class='posOutcome'>You WON</font><p>You bet: 2</strong></font> &nbsp; &nbsp; &nbsp; &nbsp; &nbsp; &nbsp;<font class='posOutcome'>you receive: <strong>4</strong></font></div>","null","15","Pears Aplenty","Fruit/pears.png","Won","0.8,0.35","11","0.8","238","43","",""
"","","","decision","63d42c21dc6f4d60e34cc337","bdp_rwlrn","Fri Mar 10 2023 14:22:17 GMT-0600 (Central Standard Time)","503410","Trustworthy,Untrustworthy","html-keyboard-response","139","260228","0.0-11.0-1.43","","313","","<div class='trialDiv'><img src='Fruit/mixed-berries2.png'><br><font class='baseline'><strong>Berry Bla$t</strong><p>Choose number of points to bet.</font><div class='respPicDiv'><img src='img/responseButtonOffersNo0L.png' class='respPic'></div></div>","4","15","Berry Bla$t","Fruit/mixed-berries2.png","Won","0.2,0.65","12","0.2","243","44","",""
"","","","decisionFB","63d42c21dc6f4d60e34cc337","bdp_rwlrn","Fri Mar 10 2023 14:22:17 GMT-0600 (Central Standard Time)","503410","Trustworthy,Untrustworthy","html-keyboard-response","140","260500","0.0-11.0-2.43","","null","","<div class='trialDiv'><img src='Fruit/mixed-berries2.png'><br><font class='baseline'><strong>Berry Bla$t</strong><p>Choose number of points to bet.</font><div class='respPicDiv'><img src='img/responseButtonOffersNo0L4.png' class='respPic'></div></div>","null","15","Berry Bla$t","Fruit/mixed-berries2.png","Won","0.2,0.65","12","0.2","239","44","",""
"","","","feedback","63d42c21dc6f4d60e34cc337","bdp_rwlrn","Fri Mar 10 2023 14:22:17 GMT-0600 (Central Standard Time)","503410","Trustworthy,Untrustworthy","html-keyboard-response","141","261515","0.0-11.0-3.43","","null","","<div class='respPicDiv'><img src='img/responseButtonOffersNo0_wht.png' class='respPic'></div><div class='trialDiv'><img src='Fruit/mixed-berries2.png'><br><font class='baseline'><strong>Berry Bla$t</strong><p><strong><font class='posOutcome'>You WON</font><p>You bet: 4</strong></font> &nbsp; &nbsp; &nbsp; &nbsp; &nbsp; &nbsp;<font class='posOutcome'>you receive: <strong>8</strong></font></div>","null","15","Berry Bla$t","Fruit/mixed-berries2.png","Won","0.2,0.65","12","0.2","247","44","",""
"","","","decision","63d42c21dc6f4d60e34cc337","bdp_rwlrn","Fri Mar 10 2023 14:22:17 GMT-0600 (Central Standard Time)","503410","Trustworthy,Untrustworthy","html-keyboard-response","142","263801","0.0-11.0-1.44","","2283","","<div class='trialDiv'><img src='Fruit/cherrie.png'><br><font class='baseline'><strong>Cherry Chances</strong><p>Choose number of points to bet.</font><div class='respPicDiv'><img src='img/responseButtonOffersNo0L.png' class='respPic'></div></div>","5","15","Cherry Chances","Fruit/cherrie.png","Won","0.8,0.2","9","0.8","252","45","",""
"","","","decisionFB","63d42c21dc6f4d60e34cc337","bdp_rwlrn","Fri Mar 10 2023 14:22:17 GMT-0600 (Central Standard Time)","503410","Trustworthy,Untrustworthy","html-keyboard-response","143","264072","0.0-11.0-2.44","","null","","<div class='trialDiv'><img src='Fruit/cherrie.png'><br><font class='baseline'><strong>Cherry Chances</strong><p>Choose number of points to bet.</font><div class='respPicDiv'><img src='img/responseButtonOffersNo0L5.png' class='respPic'></div></div>","null","15","Cherry Chances","Fruit/cherrie.png","Won","0.8,0.2","9","0.8","247","45","",""
"","","","feedback","63d42c21dc6f4d60e34cc337","bdp_rwlrn","Fri Mar 10 2023 14:22:17 GMT-0600 (Central Standard Time)","503410","Trustworthy,Untrustworthy","html-keyboard-response","144","265087","0.0-11.0-3.44","","null","","<div class='respPicDiv'><img src='img/responseButtonOffersNo0_wht.png' class='respPic'></div><div class='trialDiv'><img src='Fruit/cherrie.png'><br><font class='baseline'><strong>Cherry Chances</strong><p><strong><font class='posOutcome'>You WON</font><p>You bet: 5</strong></font> &nbsp; &nbsp; &nbsp; &nbsp; &nbsp; &nbsp;<font class='posOutcome'>you receive: <strong>10</strong></font></div>","null","15","Cherry Chances","Fruit/cherrie.png","Won","0.8,0.2","9","0.8","257","45","",""
"","","","decision","63d42c21dc6f4d60e34cc337","bdp_rwlrn","Fri Mar 10 2023 14:22:17 GMT-0600 (Central Standard Time)","503410","Trustworthy,Untrustworthy","html-keyboard-response","145","265476","0.0-11.0-1.45","","386","","<div class='trialDiv'><img src='Fruit/pears.png'><br><font class='baseline'><strong>Pears Aplenty</strong><p>Choose number of points to bet.</font><div class='respPicDiv'><img src='img/responseButtonOffersNo0L.png' class='respPic'></div></div>","2","16","Pears Aplenty","Fruit/pears.png","Won","0.8,0.35","11","0.8","262","46","",""
"","","","decisionFB","63d42c21dc6f4d60e34cc337","bdp_rwlrn","Fri Mar 10 2023 14:22:17 GMT-0600 (Central Standard Time)","503410","Trustworthy,Untrustworthy","html-keyboard-response","146","265739","0.0-11.0-2.45","","null","","<div class='trialDiv'><img src='Fruit/pears.png'><br><font class='baseline'><strong>Pears Aplenty</strong><p>Choose number of points to bet.</font><div class='respPicDiv'><img src='img/responseButtonOffersNo0L2.png' class='respPic'></div></div>","null","16","Pears Aplenty","Fruit/pears.png","Won","0.8,0.35","11","0.8","260","46","",""
"","","","feedback","63d42c21dc6f4d60e34cc337","bdp_rwlrn","Fri Mar 10 2023 14:22:17 GMT-0600 (Central Standard Time)","503410","Trustworthy,Untrustworthy","html-keyboard-response","147","266757","0.0-11.0-3.45","","null","","<div class='respPicDiv'><img src='img/responseButtonOffersNo0_wht.png' class='respPic'></div><div class='trialDiv'><img src='Fruit/pears.png'><br><font class='baseline'><strong>Pears Aplenty</strong><p><strong><font class='posOutcome'>You WON</font><p>You bet: 2</strong></font> &nbsp; &nbsp; &nbsp; &nbsp; &nbsp; &nbsp;<font class='posOutcome'>you receive: <strong>4</strong></font></div>","null","16","Pears Aplenty","Fruit/pears.png","Won","0.8,0.35","11","0.8","264","46","",""
"","","","decision","63d42c21dc6f4d60e34cc337","bdp_rwlrn","Fri Mar 10 2023 14:22:17 GMT-0600 (Central Standard Time)","503410","Trustworthy,Untrustworthy","html-keyboard-response","148","267041","0.0-11.0-1.46","","281","","<div class='trialDiv'><img src='Fruit/mixed-berries2.png'><br><font class='baseline'><strong>Berry Bla$t</strong><p>Choose number of points to bet.</font><div class='respPicDiv'><img src='img/responseButtonOffersNo0L.png' class='respPic'></div></div>","5","16","Berry Bla$t","Fruit/mixed-berries2.png","Won","0.2,0.65","12","0.2","269","47","",""
"","","","decisionFB","63d42c21dc6f4d60e34cc337","bdp_rwlrn","Fri Mar 10 2023 14:22:17 GMT-0600 (Central Standard Time)","503410","Trustworthy,Untrustworthy","html-keyboard-response","149","267307","0.0-11.0-2.46","","null","","<div class='trialDiv'><img src='Fruit/mixed-berries2.png'><br><font class='baseline'><strong>Berry Bla$t</strong><p>Choose number of points to bet.</font><div class='respPicDiv'><img src='img/responseButtonOffersNo0L5.png' class='respPic'></div></div>","null","16","Berry Bla$t","Fruit/mixed-berries2.png","Won","0.2,0.65","12","0.2","264","47","",""
"","","","feedback","63d42c21dc6f4d60e34cc337","bdp_rwlrn","Fri Mar 10 2023 14:22:17 GMT-0600 (Central Standard Time)","503410","Trustworthy,Untrustworthy","html-keyboard-response","150","268323","0.0-11.0-3.46","","null","","<div class='respPicDiv'><img src='img/responseButtonOffersNo0_wht.png' class='respPic'></div><div class='trialDiv'><img src='Fruit/mixed-berries2.png'><br><font class='baseline'><strong>Berry Bla$t</strong><p><strong><font class='posOutcome'>You WON</font><p>You bet: 5</strong></font> &nbsp; &nbsp; &nbsp; &nbsp; &nbsp; &nbsp;<font class='posOutcome'>you receive: <strong>10</strong></font></div>","null","16","Berry Bla$t","Fruit/mixed-berries2.png","Won","0.2,0.65","12","0.2","274","47","",""
"","","","decision","63d42c21dc6f4d60e34cc337","bdp_rwlrn","Fri Mar 10 2023 14:22:17 GMT-0600 (Central Standard Time)","503410","Trustworthy,Untrustworthy","html-keyboard-response","151","268866","0.0-11.0-1.47","","540","","<div class='trialDiv'><img src='Fruit/cherrie.png'><br><font class='baseline'><strong>Cherry Chances</strong><p>Choose number of points to bet.</font><div class='respPicDiv'><img src='img/responseButtonOffersNo0L.png' class='respPic'></div></div>","3","16","Cherry Chances","Fruit/cherrie.png","Lost","0.8,0.2","9","0.8","279","48","",""
"","","","decisionFB","63d42c21dc6f4d60e34cc337","bdp_rwlrn","Fri Mar 10 2023 14:22:17 GMT-0600 (Central Standard Time)","503410","Trustworthy,Untrustworthy","html-keyboard-response","152","269123","0.0-11.0-2.47","","null","","<div class='trialDiv'><img src='Fruit/cherrie.png'><br><font class='baseline'><strong>Cherry Chances</strong><p>Choose number of points to bet.</font><div class='respPicDiv'><img src='img/responseButtonOffersNo0L3.png' class='respPic'></div></div>","null","16","Cherry Chances","Fruit/cherrie.png","Lost","0.8,0.2","9","0.8","276","48","",""
"","","","feedback","63d42c21dc6f4d60e34cc337","bdp_rwlrn","Fri Mar 10 2023 14:22:17 GMT-0600 (Central Standard Time)","503410","Trustworthy,Untrustworthy","html-keyboard-response","153","270140","0.0-11.0-3.47","","null","","<div class='respPicDiv'><img src='img/responseButtonOffersNo0_wht.png' class='respPic'></div><div class='trialDiv'><img src='Fruit/cherrie.png'><br><font class='baseline'><strong>Cherry Chances</strong><p><strong><font class='negOutcome'>You LOST</font><p>You bet: 3</strong></font> &nbsp; &nbsp; &nbsp; &nbsp; &nbsp; &nbsp;<font class='negOutcome'>You receive: <strong>0</strong></font></div>","null","16","Cherry Chances","Fruit/cherrie.png","Lost","0.8,0.2","9","0.8","276","48","",""
"","","","decision","63d42c21dc6f4d60e34cc337","bdp_rwlrn","Fri Mar 10 2023 14:22:17 GMT-0600 (Central Standard Time)","503410","Trustworthy,Untrustworthy","html-keyboard-response","154","270897","0.0-11.0-1.48","","754","","<div class='trialDiv'><img src='Fruit/pears.png'><br><font class='baseline'><strong>Pears Aplenty</strong><p>Choose number of points to bet.</font><div class='respPicDiv'><img src='img/responseButtonOffersNo0L.png' class='respPic'></div></div>","4","17","Pears Aplenty","Fruit/pears.png","Lost","0.8,0.35","11","0.8","281","49","",""
"","","","decisionFB","63d42c21dc6f4d60e34cc337","bdp_rwlrn","Fri Mar 10 2023 14:22:17 GMT-0600 (Central Standard Time)","503410","Trustworthy,Untrustworthy","html-keyboard-response","155","271157","0.0-11.0-2.48","","null","","<div class='trialDiv'><img src='Fruit/pears.png'><br><font class='baseline'><strong>Pears Aplenty</strong><p>Choose number of points to bet.</font><div class='respPicDiv'><img src='img/responseButtonOffersNo0L4.png' class='respPic'></div></div>","null","17","Pears Aplenty","Fruit/pears.png","Lost","0.8,0.35","11","0.8","277","49","",""
"","","","feedback","63d42c21dc6f4d60e34cc337","bdp_rwlrn","Fri Mar 10 2023 14:22:17 GMT-0600 (Central Standard Time)","503410","Trustworthy,Untrustworthy","html-keyboard-response","156","272175","0.0-11.0-3.48","","null","","<div class='respPicDiv'><img src='img/responseButtonOffersNo0_wht.png' class='respPic'></div><div class='trialDiv'><img src='Fruit/pears.png'><br><font class='baseline'><strong>Pears Aplenty</strong><p><strong><font class='negOutcome'>You LOST</font><p>You bet: 4</strong></font> &nbsp; &nbsp; &nbsp; &nbsp; &nbsp; &nbsp;<font class='negOutcome'>You receive: <strong>0</strong></font></div>","null","17","Pears Aplenty","Fruit/pears.png","Lost","0.8,0.35","11","0.8","277","49","",""
"","","","decision","63d42c21dc6f4d60e34cc337","bdp_rwlrn","Fri Mar 10 2023 14:22:17 GMT-0600 (Central Standard Time)","503410","Trustworthy,Untrustworthy","html-keyboard-response","157","272178","0.0-11.0-1.49","","1","","<div class='trialDiv'><img src='Fruit/cherrie.png'><br><font class='baseline'><strong>Cherry Chances</strong><p>Choose number of points to bet.</font><div class='respPicDiv'><img src='img/responseButtonOffersNo0L.png' class='respPic'></div></div>","5","17","Cherry Chances","Fruit/cherrie.png","Lost","0.8,0.2","9","0.8","282","50","",""
"","","","decisionFB","63d42c21dc6f4d60e34cc337","bdp_rwlrn","Fri Mar 10 2023 14:22:17 GMT-0600 (Central Standard Time)","503410","Trustworthy,Untrustworthy","html-keyboard-response","158","272440","0.0-11.0-2.49","","null","","<div class='trialDiv'><img src='Fruit/cherrie.png'><br><font class='baseline'><strong>Cherry Chances</strong><p>Choose number of points to bet.</font><div class='respPicDiv'><img src='img/responseButtonOffersNo0L5.png' class='respPic'></div></div>","null","17","Cherry Chances","Fruit/cherrie.png","Lost","0.8,0.2","9","0.8","277","50","",""
"","","","feedback","63d42c21dc6f4d60e34cc337","bdp_rwlrn","Fri Mar 10 2023 14:22:17 GMT-0600 (Central Standard Time)","503410","Trustworthy,Untrustworthy","html-keyboard-response","159","273461","0.0-11.0-3.49","","null","","<div class='respPicDiv'><img src='img/responseButtonOffersNo0_wht.png' class='respPic'></div><div class='trialDiv'><img src='Fruit/cherrie.png'><br><font class='baseline'><strong>Cherry Chances</strong><p><strong><font class='negOutcome'>You LOST</font><p>You bet: 5</strong></font> &nbsp; &nbsp; &nbsp; &nbsp; &nbsp; &nbsp;<font class='negOutcome'>You receive: <strong>0</strong></font></div>","null","17","Cherry Chances","Fruit/cherrie.png","Lost","0.8,0.2","9","0.8","277","50","",""
"","","","decision","63d42c21dc6f4d60e34cc337","bdp_rwlrn","Fri Mar 10 2023 14:22:17 GMT-0600 (Central Standard Time)","503410","Trustworthy,Untrustworthy","html-keyboard-response","160","273704","0.0-11.0-1.50","","241","","<div class='trialDiv'><img src='Fruit/mixed-berries2.png'><br><font class='baseline'><strong>Berry Bla$t</strong><p>Choose number of points to bet.</font><div class='respPicDiv'><img src='img/responseButtonOffersNo0L.png' class='respPic'></div></div>","5","17","Berry Bla$t","Fruit/mixed-berries2.png","Won","0.2,0.65","12","0.2","282","51","",""
"","","","decisionFB","63d42c21dc6f4d60e34cc337","bdp_rwlrn","Fri Mar 10 2023 14:22:17 GMT-0600 (Central Standard Time)","503410","Trustworthy,Untrustworthy","html-keyboard-response","161","273959","0.0-11.0-2.50","","null","","<div class='trialDiv'><img src='Fruit/mixed-berries2.png'><br><font class='baseline'><strong>Berry Bla$t</strong><p>Choose number of points to bet.</font><div class='respPicDiv'><img src='img/responseButtonOffersNo0L5.png' class='respPic'></div></div>","null","17","Berry Bla$t","Fruit/mixed-berries2.png","Won","0.2,0.65","12","0.2","277","51","",""
