"trial_type","trial_index","time_elapsed","internal_node_id","subject_id","task","startTime","totalTime","labels","view_history","rt","event","trial","time","trialtype","success","stimulus","key_press","ltround","name","fileID","outcome","lottotype","lottoswpt","lottocurrpshare","point_total","round","faceID","face"
"pavlovia","0","5","0.0-0.0","602b3ed14ae791260d6d12c5","bdp_rwlrn","Mon Mar 13 2023 14:14:58 GMT-0400 (Eastern Daylight Time)","330088","Untrustworthy,Trustworthy","","","","","","","","","","","","","","","","","","","",""
"instructions","1","6609","0.0-1.0","602b3ed14ae791260d6d12c5","bdp_rwlrn","Mon Mar 13 2023 14:14:58 GMT-0400 (Eastern Daylight Time)","330088","Untrustworthy,Trustworthy","[{""page_index"":0,""viewing_time"":6604}]","6604","","","","","","","","","","","","","","","","","",""
"","","","","602b3ed14ae791260d6d12c5","bdp_rwlrn","Mon Mar 13 2023 14:14:58 GMT-0400 (Eastern Daylight Time)","330088","Untrustworthy,Trustworthy","","","fullscreenenter","2","9801","fullscreenenter","","","","","","","","","","","","","",""
"fullscreen","2","10773","0.0-2.0","602b3ed14ae791260d6d12c5","bdp_rwlrn","Mon Mar 13 2023 14:14:58 GMT-0400 (Eastern Daylight Time)","330088","Untrustworthy,Trustworthy","","","","","","","true","","","","","","","","","","","","",""
"instructions","3","44694","0.0-4.0","602b3ed14ae791260d6d12c5","bdp_rwlrn","Mon Mar 13 2023 14:14:58 GMT-0400 (Eastern Daylight Time)","330088","Untrustworthy,Trustworthy","[{""page_index"":0,""viewing_time"":11815},{""page_index"":1,""viewing_time"":9068},{""page_index"":2,""viewing_time"":3375},{""page_index"":3,""viewing_time"":2938},{""page_index"":4,""viewing_time"":5464},{""page_index"":5,""viewing_time"":1257}]","33918","","","","","","","","","","","","","","","","","",""
"html-keyboard-response","4","50024","0.0-5.0","602b3ed14ae791260d6d12c5","bdp_rwlrn","Mon Mar 13 2023 14:14:58 GMT-0400 (Eastern Daylight Time)","330088","Untrustworthy,Trustworthy","","5326","","","","","","<div class='header' style='text-align:left; position: absolute; top: 5%; left: 5%;'><small>Task 3 of 5</small></div><div class='instruxDiv'><p><strong>1) What is the maximum number of points you can choose to bet on a lottery?</strong></p><p>a) 0</p><p>b) 1</p><p>c) 5</p>","C","","","","","","","","","","",""
"html-keyboard-response","5","51493","0.0-6.0","602b3ed14ae791260d6d12c5","bdp_rwlrn","Mon Mar 13 2023 14:14:58 GMT-0400 (Eastern Daylight Time)","330088","Untrustworthy,Trustworthy","","1366","","","","","","<div class='header' style='text-align:left; position: absolute; top: 5%; left: 5%;'><small>Task 3 of 5</small></div><div class='instruxDiv'><p><strong>1) What is the maximum number of points you can choose to bet on a lottery?</strong></p><p>a) 1</p><p>b) 1</p><p style='color:#00FF00'>c) 5</p><h3 style='color:#00FF00'>Correct!</h3><h3 class='center-content'>The correct response is c).</h3><h3 class='center-content'>The maximum number of points you can choose to bet on a lottery is 5 points.</h3><p><em>Press SPACEBAR to continue</em></p></div>"," ","","","","","","","","","","",""
"html-keyboard-response","6","54261","0.0-7.0","602b3ed14ae791260d6d12c5","bdp_rwlrn","Mon Mar 13 2023 14:14:58 GMT-0400 (Eastern Daylight Time)","330088","Untrustworthy,Trustworthy","","2666","","","","","","<div class='header' style='text-align:left; position: absolute; top: 5%; left: 5%;'><small>Task 3 of 5</small></div><div class='instruxDiv'><p><strong>2) How many points can you win each round?</strong></p><p>a) 10 points</p><p>b) Double what you bet</p><p>c) Quadruple what you bet</p>","B","","","","","","","","","","",""
"html-keyboard-response","7","55605","0.0-8.0","602b3ed14ae791260d6d12c5","bdp_rwlrn","Mon Mar 13 2023 14:14:58 GMT-0400 (Eastern Daylight Time)","330088","Untrustworthy,Trustworthy","","1241","","","","","","<div class='header' style='text-align:left; position: absolute; top: 5%; left: 5%;'><small>Task 3 of 5</small></div><div class='instruxDiv'><p><strong>2) How many points can you win each round?</strong></p><p>a) 10 points</p><p style='color:#00FF00'>b) Double what you bet</p><p>c) Quadruple what you bet</p><h3 style='color:#00FF00'>Correct!</h3><h3 class='center-content'>The correct response is b).</h3><h3 class='center-content'>You can win double the amount of points you bet.</h3><p><em>Press SPACEBAR to continue</em></p></div>"," ","","","","","","","","","","",""
"html-keyboard-response","8","60709","0.0-9.0","602b3ed14ae791260d6d12c5","bdp_rwlrn","Mon Mar 13 2023 14:14:58 GMT-0400 (Eastern Daylight Time)","330088","Untrustworthy,Trustworthy","","null","","","","","","<div class='header' style='text-align:left; position: absolute; top: 5%; left: 5%;'><small>Task 3 of 5</small></div><div class='instruxDiv'><p>Thank you for completing the quiz<p>These are the actual lotteries you will be playing in the next block:<p><div class='tc' align='center'><img class='introPic' src='Fruit/pineapple.png'><br><strong>Primo Pineapple</strong></div><div class='bl' align='center'><img class='introPic' src='Fruit/Kiwi.png'><br><strong>Kiwi Kash</strong></div><div class='br' align='center'><img class='introPic' src='Fruit/watermelon.png'><br><strong>Watermelon Win$</strong></div></div><p>Across <strong>66 rounds</strong> you will play each lottery <strong>22 times</strong> (in random order).<p style='align:center; color:white'><font <em>Press SPACEBAR to continue</em></p>","null","","","","","","","","","","",""
"instructions","9","62348","0.0-10.0","602b3ed14ae791260d6d12c5","bdp_rwlrn","Mon Mar 13 2023 14:14:58 GMT-0400 (Eastern Daylight Time)","330088","Untrustworthy,Trustworthy","[{""page_index"":0,""viewing_time"":775},{""page_index"":1,""viewing_time"":862}]","1637","","","","","","","","","","","","","","","","","",""
"html-keyboard-response","10","64279","0.0-11.0-1.0","602b3ed14ae791260d6d12c5","bdp_rwlrn","Mon Mar 13 2023 14:14:58 GMT-0400 (Eastern Daylight Time)","330088","Untrustworthy,Trustworthy","","1824","","","","decision","","<div class='trialDiv'><img src='Fruit/pineapple.png'><br><font class='baseline'><strong>Primo Pineapple</strong><p>Choose number of points to bet.</font><div class='respPicDiv'><img src='img/responseButtonOffersNo0L.png' class='respPic'></div></div>","1","1","Primo Pineapple","Fruit/pineapple.png","Lost","0.2,0.8","8","0.2","5","1","",""
"html-keyboard-response","11","64534","0.0-11.0-2.0","602b3ed14ae791260d6d12c5","bdp_rwlrn","Mon Mar 13 2023 14:14:58 GMT-0400 (Eastern Daylight Time)","330088","Untrustworthy,Trustworthy","","null","","","","decisionFB","","<div class='trialDiv'><img src='Fruit/pineapple.png'><br><font class='baseline'><strong>Primo Pineapple</strong><p>Choose number of points to bet.</font><div class='respPicDiv'><img src='img/responseButtonOffersNo0L1.png' class='respPic'></div></div>","null","1","Primo Pineapple","Fruit/pineapple.png","Lost","0.2,0.8","8","0.2","4","1","",""
"html-keyboard-response","12","65538","0.0-11.0-3.0","602b3ed14ae791260d6d12c5","bdp_rwlrn","Mon Mar 13 2023 14:14:58 GMT-0400 (Eastern Daylight Time)","330088","Untrustworthy,Trustworthy","","null","","","","feedback","","<div class='respPicDiv'><img src='img/responseButtonOffersNo0_wht.png' class='respPic'></div><div class='trialDiv'><img src='Fruit/pineapple.png'><br><font class='baseline'><strong>Primo Pineapple</strong><p><strong><font class='negOutcome'>You LOST</font><p>You bet: 1</strong></font> &nbsp; &nbsp; &nbsp; &nbsp; &nbsp; &nbsp;<font class='negOutcome'>You receive: <strong>0</strong></font></div>","null","1","Primo Pineapple","Fruit/pineapple.png","Lost","0.2,0.8","8","0.2","4","1","",""
"html-keyboard-response","13","66421","0.0-11.0-1.1","602b3ed14ae791260d6d12c5","bdp_rwlrn","Mon Mar 13 2023 14:14:58 GMT-0400 (Eastern Daylight Time)","330088","Untrustworthy,Trustworthy","","880","","","","decision","","<div class='trialDiv'><img src='Fruit/watermelon.png'><br><font class='baseline'><strong>Watermelon Win$</strong><p>Choose number of points to bet.</font><div class='respPicDiv'><img src='img/responseButtonOffersNo0L.png' class='respPic'></div></div>","2","1","Watermelon Win$","Fruit/watermelon.png","Won","0.65,0.2","8","0.65","9","2","",""
"html-keyboard-response","14","66674","0.0-11.0-2.1","602b3ed14ae791260d6d12c5","bdp_rwlrn","Mon Mar 13 2023 14:14:58 GMT-0400 (Eastern Daylight Time)","330088","Untrustworthy,Trustworthy","","null","","","","decisionFB","","<div class='trialDiv'><img src='Fruit/watermelon.png'><br><font class='baseline'><strong>Watermelon Win$</strong><p>Choose number of points to bet.</font><div class='respPicDiv'><img src='img/responseButtonOffersNo0L2.png' class='respPic'></div></div>","null","1","Watermelon Win$","Fruit/watermelon.png","Won","0.65,0.2","8","0.65","7","2","",""
"html-keyboard-response","15","67676","0.0-11.0-3.1","602b3ed14ae791260d6d12c5","bdp_rwlrn","Mon Mar 13 2023 14:14:58 GMT-0400 (Eastern Daylight Time)","330088","Untrustworthy,Trustworthy","","null","","","","feedback","","<div class='respPicDiv'><img src='img/responseButtonOffersNo0_wht.png' class='respPic'></div><div class='trialDiv'><img src='Fruit/watermelon.png'><br><font class='baseline'><strong>Watermelon Win$</strong><p><strong><font class='posOutcome'>You WON</font><p>You bet: 2</strong></font> &nbsp; &nbsp; &nbsp; &nbsp; &nbsp; &nbsp;<font class='posOutcome'>you receive: <strong>4</strong></font></div>","null","1","Watermelon Win$","Fruit/watermelon.png","Won","0.65,0.2","8","0.65","11","2","",""
"html-keyboard-response","16","68301","0.0-11.0-1.2","602b3ed14ae791260d6d12c5","bdp_rwlrn","Mon Mar 13 2023 14:14:58 GMT-0400 (Eastern Daylight Time)","330088","Untrustworthy,Trustworthy","","622","","","","decision","","<div class='trialDiv'><img src='Fruit/Kiwi.png'><br><font class='baseline'><strong>Kiwi Kash</strong><p>Choose number of points to bet.</font><div class='respPicDiv'><img src='img/responseButtonOffersNo0L.png' class='respPic'></div></div>","2","1","Kiwi Kash","Fruit/Kiwi.png","Lost","0.2,0.65","12","0.2","16","3","",""
"html-keyboard-response","17","68556","0.0-11.0-2.2","602b3ed14ae791260d6d12c5","bdp_rwlrn","Mon Mar 13 2023 14:14:58 GMT-0400 (Eastern Daylight Time)","330088","Untrustworthy,Trustworthy","","null","","","","decisionFB","","<div class='trialDiv'><img src='Fruit/Kiwi.png'><br><font class='baseline'><strong>Kiwi Kash</strong><p>Choose number of points to bet.</font><div class='respPicDiv'><img src='img/responseButtonOffersNo0L2.png' class='respPic'></div></div>","null","1","Kiwi Kash","Fruit/Kiwi.png","Lost","0.2,0.65","12","0.2","14","3","",""
"html-keyboard-response","18","69559","0.0-11.0-3.2","602b3ed14ae791260d6d12c5","bdp_rwlrn","Mon Mar 13 2023 14:14:58 GMT-0400 (Eastern Daylight Time)","330088","Untrustworthy,Trustworthy","","null","","","","feedback","","<div class='respPicDiv'><img src='img/responseButtonOffersNo0_wht.png' class='respPic'></div><div class='trialDiv'><img src='Fruit/Kiwi.png'><br><font class='baseline'><strong>Kiwi Kash</strong><p><strong><font class='negOutcome'>You LOST</font><p>You bet: 2</strong></font> &nbsp; &nbsp; &nbsp; &nbsp; &nbsp; &nbsp;<font class='negOutcome'>You receive: <strong>0</strong></font></div>","null","1","Kiwi Kash","Fruit/Kiwi.png","Lost","0.2,0.65","12","0.2","14","3","",""
"html-keyboard-response","19","70128","0.0-11.0-1.3","602b3ed14ae791260d6d12c5","bdp_rwlrn","Mon Mar 13 2023 14:14:58 GMT-0400 (Eastern Daylight Time)","330088","Untrustworthy,Trustworthy","","566","","","","decision","","<div class='trialDiv'><img src='Fruit/watermelon.png'><br><font class='baseline'><strong>Watermelon Win$</strong><p>Choose number of points to bet.</font><div class='respPicDiv'><img src='img/responseButtonOffersNo0L.png' class='respPic'></div></div>","2","2","Watermelon Win$","Fruit/watermelon.png","Won","0.65,0.2","8","0.65","19","4","",""
"html-keyboard-response","20","70381","0.0-11.0-2.3","602b3ed14ae791260d6d12c5","bdp_rwlrn","Mon Mar 13 2023 14:14:58 GMT-0400 (Eastern Daylight Time)","330088","Untrustworthy,Trustworthy","","null","","","","decisionFB","","<div class='trialDiv'><img src='Fruit/watermelon.png'><br><font class='baseline'><strong>Watermelon Win$</strong><p>Choose number of points to bet.</font><div class='respPicDiv'><img src='img/responseButtonOffersNo0L2.png' class='respPic'></div></div>","null","2","Watermelon Win$","Fruit/watermelon.png","Won","0.65,0.2","8","0.65","17","4","",""
"html-keyboard-response","21","71384","0.0-11.0-3.3","602b3ed14ae791260d6d12c5","bdp_rwlrn","Mon Mar 13 2023 14:14:58 GMT-0400 (Eastern Daylight Time)","330088","Untrustworthy,Trustworthy","","null","","","","feedback","","<div class='respPicDiv'><img src='img/responseButtonOffersNo0_wht.png' class='respPic'></div><div class='trialDiv'><img src='Fruit/watermelon.png'><br><font class='baseline'><strong>Watermelon Win$</strong><p><strong><font class='posOutcome'>You WON</font><p>You bet: 2</strong></font> &nbsp; &nbsp; &nbsp; &nbsp; &nbsp; &nbsp;<font class='posOutcome'>you receive: <strong>4</strong></font></div>","null","2","Watermelon Win$","Fruit/watermelon.png","Won","0.65,0.2","8","0.65","21","4","",""
"html-keyboard-response","22","72002","0.0-11.0-1.4","602b3ed14ae791260d6d12c5","bdp_rwlrn","Mon Mar 13 2023 14:14:58 GMT-0400 (Eastern Daylight Time)","330088","Untrustworthy,Trustworthy","","615","","","","decision","","<div class='trialDiv'><img src='Fruit/pineapple.png'><br><font class='baseline'><strong>Primo Pineapple</strong><p>Choose number of points to bet.</font><div class='respPicDiv'><img src='img/responseButtonOffersNo0L.png' class='respPic'></div></div>","1","2","Primo Pineapple","Fruit/pineapple.png","Lost","0.2,0.8","8","0.2","26","5","",""
"html-keyboard-response","23","72255","0.0-11.0-2.4","602b3ed14ae791260d6d12c5","bdp_rwlrn","Mon Mar 13 2023 14:14:58 GMT-0400 (Eastern Daylight Time)","330088","Untrustworthy,Trustworthy","","null","","","","decisionFB","","<div class='trialDiv'><img src='Fruit/pineapple.png'><br><font class='baseline'><strong>Primo Pineapple</strong><p>Choose number of points to bet.</font><div class='respPicDiv'><img src='img/responseButtonOffersNo0L1.png' class='respPic'></div></div>","null","2","Primo Pineapple","Fruit/pineapple.png","Lost","0.2,0.8","8","0.2","25","5","",""
"html-keyboard-response","24","73259","0.0-11.0-3.4","602b3ed14ae791260d6d12c5","bdp_rwlrn","Mon Mar 13 2023 14:14:58 GMT-0400 (Eastern Daylight Time)","330088","Untrustworthy,Trustworthy","","null","","","","feedback","","<div class='respPicDiv'><img src='img/responseButtonOffersNo0_wht.png' class='respPic'></div><div class='trialDiv'><img src='Fruit/pineapple.png'><br><font class='baseline'><strong>Primo Pineapple</strong><p><strong><font class='negOutcome'>You LOST</font><p>You bet: 1</strong></font> &nbsp; &nbsp; &nbsp; &nbsp; &nbsp; &nbsp;<font class='negOutcome'>You receive: <strong>0</strong></font></div>","null","2","Primo Pineapple","Fruit/pineapple.png","Lost","0.2,0.8","8","0.2","25","5","",""
"html-keyboard-response","25","74340","0.0-11.0-1.5","602b3ed14ae791260d6d12c5","bdp_rwlrn","Mon Mar 13 2023 14:14:58 GMT-0400 (Eastern Daylight Time)","330088","Untrustworthy,Trustworthy","","1078","","","","decision","","<div class='trialDiv'><img src='Fruit/Kiwi.png'><br><font class='baseline'><strong>Kiwi Kash</strong><p>Choose number of points to bet.</font><div class='respPicDiv'><img src='img/responseButtonOffersNo0L.png' class='respPic'></div></div>","2","2","Kiwi Kash","Fruit/Kiwi.png","Won","0.2,0.65","12","0.2","30","6","",""
"html-keyboard-response","26","74594","0.0-11.0-2.5","602b3ed14ae791260d6d12c5","bdp_rwlrn","Mon Mar 13 2023 14:14:58 GMT-0400 (Eastern Daylight Time)","330088","Untrustworthy,Trustworthy","","null","","","","decisionFB","","<div class='trialDiv'><img src='Fruit/Kiwi.png'><br><font class='baseline'><strong>Kiwi Kash</strong><p>Choose number of points to bet.</font><div class='respPicDiv'><img src='img/responseButtonOffersNo0L2.png' class='respPic'></div></div>","null","2","Kiwi Kash","Fruit/Kiwi.png","Won","0.2,0.65","12","0.2","28","6","",""
"html-keyboard-response","27","75597","0.0-11.0-3.5","602b3ed14ae791260d6d12c5","bdp_rwlrn","Mon Mar 13 2023 14:14:58 GMT-0400 (Eastern Daylight Time)","330088","Untrustworthy,Trustworthy","","null","","","","feedback","","<div class='respPicDiv'><img src='img/responseButtonOffersNo0_wht.png' class='respPic'></div><div class='trialDiv'><img src='Fruit/Kiwi.png'><br><font class='baseline'><strong>Kiwi Kash</strong><p><strong><font class='posOutcome'>You WON</font><p>You bet: 2</strong></font> &nbsp; &nbsp; &nbsp; &nbsp; &nbsp; &nbsp;<font class='posOutcome'>you receive: <strong>4</strong></font></div>","null","2","Kiwi Kash","Fruit/Kiwi.png","Won","0.2,0.65","12","0.2","32","6","",""
"html-keyboard-response","28","76271","0.0-11.0-1.6","602b3ed14ae791260d6d12c5","bdp_rwlrn","Mon Mar 13 2023 14:14:58 GMT-0400 (Eastern Daylight Time)","330088","Untrustworthy,Trustworthy","","672","","","","decision","","<div class='trialDiv'><img src='Fruit/watermelon.png'><br><font class='baseline'><strong>Watermelon Win$</strong><p>Choose number of points to bet.</font><div class='respPicDiv'><img src='img/responseButtonOffersNo0L.png' class='respPic'></div></div>","2","3","Watermelon Win$","Fruit/watermelon.png","Won","0.65,0.2","8","0.65","37","7","",""
"html-keyboard-response","29","76524","0.0-11.0-2.6","602b3ed14ae791260d6d12c5","bdp_rwlrn","Mon Mar 13 2023 14:14:58 GMT-0400 (Eastern Daylight Time)","330088","Untrustworthy,Trustworthy","","null","","","","decisionFB","","<div class='trialDiv'><img src='Fruit/watermelon.png'><br><font class='baseline'><strong>Watermelon Win$</strong><p>Choose number of points to bet.</font><div class='respPicDiv'><img src='img/responseButtonOffersNo0L2.png' class='respPic'></div></div>","null","3","Watermelon Win$","Fruit/watermelon.png","Won","0.65,0.2","8","0.65","35","7","",""
"html-keyboard-response","30","77527","0.0-11.0-3.6","602b3ed14ae791260d6d12c5","bdp_rwlrn","Mon Mar 13 2023 14:14:58 GMT-0400 (Eastern Daylight Time)","330088","Untrustworthy,Trustworthy","","null","","","","feedback","","<div class='respPicDiv'><img src='img/responseButtonOffersNo0_wht.png' class='respPic'></div><div class='trialDiv'><img src='Fruit/watermelon.png'><br><font class='baseline'><strong>Watermelon Win$</strong><p><strong><font class='posOutcome'>You WON</font><p>You bet: 2</strong></font> &nbsp; &nbsp; &nbsp; &nbsp; &nbsp; &nbsp;<font class='posOutcome'>you receive: <strong>4</strong></font></div>","null","3","Watermelon Win$","Fruit/watermelon.png","Won","0.65,0.2","8","0.65","39","7","",""
"html-keyboard-response","31","78012","0.0-11.0-1.7","602b3ed14ae791260d6d12c5","bdp_rwlrn","Mon Mar 13 2023 14:14:58 GMT-0400 (Eastern Daylight Time)","330088","Untrustworthy,Trustworthy","","483","","","","decision","","<div class='trialDiv'><img src='Fruit/pineapple.png'><br><font class='baseline'><strong>Primo Pineapple</strong><p>Choose number of points to bet.</font><div class='respPicDiv'><img src='img/responseButtonOffersNo0L.png' class='respPic'></div></div>","1","3","Primo Pineapple","Fruit/pineapple.png","Lost","0.2,0.8","8","0.2","44","8","",""
"html-keyboard-response","32","78265","0.0-11.0-2.7","602b3ed14ae791260d6d12c5","bdp_rwlrn","Mon Mar 13 2023 14:14:58 GMT-0400 (Eastern Daylight Time)","330088","Untrustworthy,Trustworthy","","null","","","","decisionFB","","<div class='trialDiv'><img src='Fruit/pineapple.png'><br><font class='baseline'><strong>Primo Pineapple</strong><p>Choose number of points to bet.</font><div class='respPicDiv'><img src='img/responseButtonOffersNo0L1.png' class='respPic'></div></div>","null","3","Primo Pineapple","Fruit/pineapple.png","Lost","0.2,0.8","8","0.2","43","8","",""
"html-keyboard-response","33","79268","0.0-11.0-3.7","602b3ed14ae791260d6d12c5","bdp_rwlrn","Mon Mar 13 2023 14:14:58 GMT-0400 (Eastern Daylight Time)","330088","Untrustworthy,Trustworthy","","null","","","","feedback","","<div class='respPicDiv'><img src='img/responseButtonOffersNo0_wht.png' class='respPic'></div><div class='trialDiv'><img src='Fruit/pineapple.png'><br><font class='baseline'><strong>Primo Pineapple</strong><p><strong><font class='negOutcome'>You LOST</font><p>You bet: 1</strong></font> &nbsp; &nbsp; &nbsp; &nbsp; &nbsp; &nbsp;<font class='negOutcome'>You receive: <strong>0</strong></font></div>","null","3","Primo Pineapple","Fruit/pineapple.png","Lost","0.2,0.8","8","0.2","43","8","",""
"html-keyboard-response","34","79822","0.0-11.0-1.8","602b3ed14ae791260d6d12c5","bdp_rwlrn","Mon Mar 13 2023 14:14:58 GMT-0400 (Eastern Daylight Time)","330088","Untrustworthy,Trustworthy","","551","","","","decision","","<div class='trialDiv'><img src='Fruit/Kiwi.png'><br><font class='baseline'><strong>Kiwi Kash</strong><p>Choose number of points to bet.</font><div class='respPicDiv'><img src='img/responseButtonOffersNo0L.png' class='respPic'></div></div>","1","3","Kiwi Kash","Fruit/Kiwi.png","Won","0.2,0.65","12","0.2","48","9","",""
"html-keyboard-response","35","80076","0.0-11.0-2.8","602b3ed14ae791260d6d12c5","bdp_rwlrn","Mon Mar 13 2023 14:14:58 GMT-0400 (Eastern Daylight Time)","330088","Untrustworthy,Trustworthy","","null","","","","decisionFB","","<div class='trialDiv'><img src='Fruit/Kiwi.png'><br><font class='baseline'><strong>Kiwi Kash</strong><p>Choose number of points to bet.</font><div class='respPicDiv'><img src='img/responseButtonOffersNo0L1.png' class='respPic'></div></div>","null","3","Kiwi Kash","Fruit/Kiwi.png","Won","0.2,0.65","12","0.2","47","9","",""
"html-keyboard-response","36","81079","0.0-11.0-3.8","602b3ed14ae791260d6d12c5","bdp_rwlrn","Mon Mar 13 2023 14:14:58 GMT-0400 (Eastern Daylight Time)","330088","Untrustworthy,Trustworthy","","null","","","","feedback","","<div class='respPicDiv'><img src='img/responseButtonOffersNo0_wht.png' class='respPic'></div><div class='trialDiv'><img src='Fruit/Kiwi.png'><br><font class='baseline'><strong>Kiwi Kash</strong><p><strong><font class='posOutcome'>You WON</font><p>You bet: 1</strong></font> &nbsp; &nbsp; &nbsp; &nbsp; &nbsp; &nbsp;<font class='posOutcome'>you receive: <strong>2</strong></font></div>","null","3","Kiwi Kash","Fruit/Kiwi.png","Won","0.2,0.65","12","0.2","49","9","",""
"html-keyboard-response","37","82337","0.0-11.0-1.9","602b3ed14ae791260d6d12c5","bdp_rwlrn","Mon Mar 13 2023 14:14:58 GMT-0400 (Eastern Daylight Time)","330088","Untrustworthy,Trustworthy","","1255","","","","decision","","<div class='trialDiv'><img src='Fruit/watermelon.png'><br><font class='baseline'><strong>Watermelon Win$</strong><p>Choose number of points to bet.</font><div class='respPicDiv'><img src='img/responseButtonOffersNo0L.png' class='respPic'></div></div>","3","4","Watermelon Win$","Fruit/watermelon.png","Won","0.65,0.2","8","0.65","54","10","",""
"html-keyboard-response","38","82591","0.0-11.0-2.9","602b3ed14ae791260d6d12c5","bdp_rwlrn","Mon Mar 13 2023 14:14:58 GMT-0400 (Eastern Daylight Time)","330088","Untrustworthy,Trustworthy","","null","","","","decisionFB","","<div class='trialDiv'><img src='Fruit/watermelon.png'><br><font class='baseline'><strong>Watermelon Win$</strong><p>Choose number of points to bet.</font><div class='respPicDiv'><img src='img/responseButtonOffersNo0L3.png' class='respPic'></div></div>","null","4","Watermelon Win$","Fruit/watermelon.png","Won","0.65,0.2","8","0.65","51","10","",""
"html-keyboard-response","39","83595","0.0-11.0-3.9","602b3ed14ae791260d6d12c5","bdp_rwlrn","Mon Mar 13 2023 14:14:58 GMT-0400 (Eastern Daylight Time)","330088","Untrustworthy,Trustworthy","","null","","","","feedback","","<div class='respPicDiv'><img src='img/responseButtonOffersNo0_wht.png' class='respPic'></div><div class='trialDiv'><img src='Fruit/watermelon.png'><br><font class='baseline'><strong>Watermelon Win$</strong><p><strong><font class='posOutcome'>You WON</font><p>You bet: 3</strong></font> &nbsp; &nbsp; &nbsp; &nbsp; &nbsp; &nbsp;<font class='posOutcome'>you receive: <strong>6</strong></font></div>","null","4","Watermelon Win$","Fruit/watermelon.png","Won","0.65,0.2","8","0.65","57","10","",""
"html-keyboard-response","40","84597","0.0-11.0-1.10","602b3ed14ae791260d6d12c5","bdp_rwlrn","Mon Mar 13 2023 14:14:58 GMT-0400 (Eastern Daylight Time)","330088","Untrustworthy,Trustworthy","","999","","","","decision","","<div class='trialDiv'><img src='Fruit/Kiwi.png'><br><font class='baseline'><strong>Kiwi Kash</strong><p>Choose number of points to bet.</font><div class='respPicDiv'><img src='img/responseButtonOffersNo0L.png' class='respPic'></div></div>","3","4","Kiwi Kash","Fruit/Kiwi.png","Lost","0.2,0.65","12","0.2","62","11","",""
"html-keyboard-response","41","84849","0.0-11.0-2.10","602b3ed14ae791260d6d12c5","bdp_rwlrn","Mon Mar 13 2023 14:14:58 GMT-0400 (Eastern Daylight Time)","330088","Untrustworthy,Trustworthy","","null","","","","decisionFB","","<div class='trialDiv'><img src='Fruit/Kiwi.png'><br><font class='baseline'><strong>Kiwi Kash</strong><p>Choose number of points to bet.</font><div class='respPicDiv'><img src='img/responseButtonOffersNo0L3.png' class='respPic'></div></div>","null","4","Kiwi Kash","Fruit/Kiwi.png","Lost","0.2,0.65","12","0.2","59","11","",""
"html-keyboard-response","42","85853","0.0-11.0-3.10","602b3ed14ae791260d6d12c5","bdp_rwlrn","Mon Mar 13 2023 14:14:58 GMT-0400 (Eastern Daylight Time)","330088","Untrustworthy,Trustworthy","","null","","","","feedback","","<div class='respPicDiv'><img src='img/responseButtonOffersNo0_wht.png' class='respPic'></div><div class='trialDiv'><img src='Fruit/Kiwi.png'><br><font class='baseline'><strong>Kiwi Kash</strong><p><strong><font class='negOutcome'>You LOST</font><p>You bet: 3</strong></font> &nbsp; &nbsp; &nbsp; &nbsp; &nbsp; &nbsp;<font class='negOutcome'>You receive: <strong>0</strong></font></div>","null","4","Kiwi Kash","Fruit/Kiwi.png","Lost","0.2,0.65","12","0.2","59","11","",""
"html-keyboard-response","43","86575","0.0-11.0-1.11","602b3ed14ae791260d6d12c5","bdp_rwlrn","Mon Mar 13 2023 14:14:58 GMT-0400 (Eastern Daylight Time)","330088","Untrustworthy,Trustworthy","","719","","","","decision","","<div class='trialDiv'><img src='Fruit/pineapple.png'><br><font class='baseline'><strong>Primo Pineapple</strong><p>Choose number of points to bet.</font><div class='respPicDiv'><img src='img/responseButtonOffersNo0L.png' class='respPic'></div></div>","2","4","Primo Pineapple","Fruit/pineapple.png","Lost","0.2,0.8","8","0.2","64","12","",""
"html-keyboard-response","44","86828","0.0-11.0-2.11","602b3ed14ae791260d6d12c5","bdp_rwlrn","Mon Mar 13 2023 14:14:58 GMT-0400 (Eastern Daylight Time)","330088","Untrustworthy,Trustworthy","","null","","","","decisionFB","","<div class='trialDiv'><img src='Fruit/pineapple.png'><br><font class='baseline'><strong>Primo Pineapple</strong><p>Choose number of points to bet.</font><div class='respPicDiv'><img src='img/responseButtonOffersNo0L2.png' class='respPic'></div></div>","null","4","Primo Pineapple","Fruit/pineapple.png","Lost","0.2,0.8","8","0.2","62","12","",""
"html-keyboard-response","45","87832","0.0-11.0-3.11","602b3ed14ae791260d6d12c5","bdp_rwlrn","Mon Mar 13 2023 14:14:58 GMT-0400 (Eastern Daylight Time)","330088","Untrustworthy,Trustworthy","","null","","","","feedback","","<div class='respPicDiv'><img src='img/responseButtonOffersNo0_wht.png' class='respPic'></div><div class='trialDiv'><img src='Fruit/pineapple.png'><br><font class='baseline'><strong>Primo Pineapple</strong><p><strong><font class='negOutcome'>You LOST</font><p>You bet: 2</strong></font> &nbsp; &nbsp; &nbsp; &nbsp; &nbsp; &nbsp;<font class='negOutcome'>You receive: <strong>0</strong></font></div>","null","4","Primo Pineapple","Fruit/pineapple.png","Lost","0.2,0.8","8","0.2","62","12","",""
"html-keyboard-response","46","88077","0.0-11.0-1.12","602b3ed14ae791260d6d12c5","bdp_rwlrn","Mon Mar 13 2023 14:14:58 GMT-0400 (Eastern Daylight Time)","330088","Untrustworthy,Trustworthy","","242","","","","decision","","<div class='trialDiv'><img src='Fruit/watermelon.png'><br><font class='baseline'><strong>Watermelon Win$</strong><p>Choose number of points to bet.</font><div class='respPicDiv'><img src='img/responseButtonOffersNo0L.png' class='respPic'></div></div>","1","5","Watermelon Win$","Fruit/watermelon.png","Lost","0.65,0.2","8","0.65","67","13","",""
"html-keyboard-response","47","88331","0.0-11.0-2.12","602b3ed14ae791260d6d12c5","bdp_rwlrn","Mon Mar 13 2023 14:14:58 GMT-0400 (Eastern Daylight Time)","330088","Untrustworthy,Trustworthy","","null","","","","decisionFB","","<div class='trialDiv'><img src='Fruit/watermelon.png'><br><font class='baseline'><strong>Watermelon Win$</strong><p>Choose number of points to bet.</font><div class='respPicDiv'><img src='img/responseButtonOffersNo0L1.png' class='respPic'></div></div>","null","5","Watermelon Win$","Fruit/watermelon.png","Lost","0.65,0.2","8","0.65","66","13","",""
"html-keyboard-response","48","89334","0.0-11.0-3.12","602b3ed14ae791260d6d12c5","bdp_rwlrn","Mon Mar 13 2023 14:14:58 GMT-0400 (Eastern Daylight Time)","330088","Untrustworthy,Trustworthy","","null","","","","feedback","","<div class='respPicDiv'><img src='img/responseButtonOffersNo0_wht.png' class='respPic'></div><div class='trialDiv'><img src='Fruit/watermelon.png'><br><font class='baseline'><strong>Watermelon Win$</strong><p><strong><font class='negOutcome'>You LOST</font><p>You bet: 1</strong></font> &nbsp; &nbsp; &nbsp; &nbsp; &nbsp; &nbsp;<font class='negOutcome'>You receive: <strong>0</strong></font></div>","null","5","Watermelon Win$","Fruit/watermelon.png","Lost","0.65,0.2","8","0.65","66","13","",""
"html-keyboard-response","49","89799","0.0-11.0-1.13","602b3ed14ae791260d6d12c5","bdp_rwlrn","Mon Mar 13 2023 14:14:58 GMT-0400 (Eastern Daylight Time)","330088","Untrustworthy,Trustworthy","","463","","","","decision","","<div class='trialDiv'><img src='Fruit/Kiwi.png'><br><font class='baseline'><strong>Kiwi Kash</strong><p>Choose number of points to bet.</font><div class='respPicDiv'><img src='img/responseButtonOffersNo0L.png' class='respPic'></div></div>","1","5","Kiwi Kash","Fruit/Kiwi.png","Lost","0.2,0.65","12","0.2","71","14","",""
"html-keyboard-response","50","90053","0.0-11.0-2.13","602b3ed14ae791260d6d12c5","bdp_rwlrn","Mon Mar 13 2023 14:14:58 GMT-0400 (Eastern Daylight Time)","330088","Untrustworthy,Trustworthy","","null","","","","decisionFB","","<div class='trialDiv'><img src='Fruit/Kiwi.png'><br><font class='baseline'><strong>Kiwi Kash</strong><p>Choose number of points to bet.</font><div class='respPicDiv'><img src='img/responseButtonOffersNo0L1.png' class='respPic'></div></div>","null","5","Kiwi Kash","Fruit/Kiwi.png","Lost","0.2,0.65","12","0.2","70","14","",""
"html-keyboard-response","51","91056","0.0-11.0-3.13","602b3ed14ae791260d6d12c5","bdp_rwlrn","Mon Mar 13 2023 14:14:58 GMT-0400 (Eastern Daylight Time)","330088","Untrustworthy,Trustworthy","","null","","","","feedback","","<div class='respPicDiv'><img src='img/responseButtonOffersNo0_wht.png' class='respPic'></div><div class='trialDiv'><img src='Fruit/Kiwi.png'><br><font class='baseline'><strong>Kiwi Kash</strong><p><strong><font class='negOutcome'>You LOST</font><p>You bet: 1</strong></font> &nbsp; &nbsp; &nbsp; &nbsp; &nbsp; &nbsp;<font class='negOutcome'>You receive: <strong>0</strong></font></div>","null","5","Kiwi Kash","Fruit/Kiwi.png","Lost","0.2,0.65","12","0.2","70","14","",""
"html-keyboard-response","52","91517","0.0-11.0-1.14","602b3ed14ae791260d6d12c5","bdp_rwlrn","Mon Mar 13 2023 14:14:58 GMT-0400 (Eastern Daylight Time)","330088","Untrustworthy,Trustworthy","","458","","","","decision","","<div class='trialDiv'><img src='Fruit/pineapple.png'><br><font class='baseline'><strong>Primo Pineapple</strong><p>Choose number of points to bet.</font><div class='respPicDiv'><img src='img/responseButtonOffersNo0L.png' class='respPic'></div></div>","1","5","Primo Pineapple","Fruit/pineapple.png","Lost","0.2,0.8","8","0.2","75","15","",""
"html-keyboard-response","53","91770","0.0-11.0-2.14","602b3ed14ae791260d6d12c5","bdp_rwlrn","Mon Mar 13 2023 14:14:58 GMT-0400 (Eastern Daylight Time)","330088","Untrustworthy,Trustworthy","","null","","","","decisionFB","","<div class='trialDiv'><img src='Fruit/pineapple.png'><br><font class='baseline'><strong>Primo Pineapple</strong><p>Choose number of points to bet.</font><div class='respPicDiv'><img src='img/responseButtonOffersNo0L1.png' class='respPic'></div></div>","null","5","Primo Pineapple","Fruit/pineapple.png","Lost","0.2,0.8","8","0.2","74","15","",""
"html-keyboard-response","54","92774","0.0-11.0-3.14","602b3ed14ae791260d6d12c5","bdp_rwlrn","Mon Mar 13 2023 14:14:58 GMT-0400 (Eastern Daylight Time)","330088","Untrustworthy,Trustworthy","","null","","","","feedback","","<div class='respPicDiv'><img src='img/responseButtonOffersNo0_wht.png' class='respPic'></div><div class='trialDiv'><img src='Fruit/pineapple.png'><br><font class='baseline'><strong>Primo Pineapple</strong><p><strong><font class='negOutcome'>You LOST</font><p>You bet: 1</strong></font> &nbsp; &nbsp; &nbsp; &nbsp; &nbsp; &nbsp;<font class='negOutcome'>You receive: <strong>0</strong></font></div>","null","5","Primo Pineapple","Fruit/pineapple.png","Lost","0.2,0.8","8","0.2","74","15","",""
"html-keyboard-response","55","93448","0.0-11.0-1.15","602b3ed14ae791260d6d12c5","bdp_rwlrn","Mon Mar 13 2023 14:14:58 GMT-0400 (Eastern Daylight Time)","330088","Untrustworthy,Trustworthy","","672","","","","decision","","<div class='trialDiv'><img src='Fruit/Kiwi.png'><br><font class='baseline'><strong>Kiwi Kash</strong><p>Choose number of points to bet.</font><div class='respPicDiv'><img src='img/responseButtonOffersNo0L.png' class='respPic'></div></div>","2","6","Kiwi Kash","Fruit/Kiwi.png","Lost","0.2,0.65","12","0.2","79","16","",""
"html-keyboard-response","56","93703","0.0-11.0-2.15","602b3ed14ae791260d6d12c5","bdp_rwlrn","Mon Mar 13 2023 14:14:58 GMT-0400 (Eastern Daylight Time)","330088","Untrustworthy,Trustworthy","","null","","","","decisionFB","","<div class='trialDiv'><img src='Fruit/Kiwi.png'><br><font class='baseline'><strong>Kiwi Kash</strong><p>Choose number of points to bet.</font><div class='respPicDiv'><img src='img/responseButtonOffersNo0L2.png' class='respPic'></div></div>","null","6","Kiwi Kash","Fruit/Kiwi.png","Lost","0.2,0.65","12","0.2","77","16","",""
"html-keyboard-response","57","94707","0.0-11.0-3.15","602b3ed14ae791260d6d12c5","bdp_rwlrn","Mon Mar 13 2023 14:14:58 GMT-0400 (Eastern Daylight Time)","330088","Untrustworthy,Trustworthy","","null","","","","feedback","","<div class='respPicDiv'><img src='img/responseButtonOffersNo0_wht.png' class='respPic'></div><div class='trialDiv'><img src='Fruit/Kiwi.png'><br><font class='baseline'><strong>Kiwi Kash</strong><p><strong><font class='negOutcome'>You LOST</font><p>You bet: 2</strong></font> &nbsp; &nbsp; &nbsp; &nbsp; &nbsp; &nbsp;<font class='negOutcome'>You receive: <strong>0</strong></font></div>","null","6","Kiwi Kash","Fruit/Kiwi.png","Lost","0.2,0.65","12","0.2","77","16","",""
"html-keyboard-response","58","95108","0.0-11.0-1.16","602b3ed14ae791260d6d12c5","bdp_rwlrn","Mon Mar 13 2023 14:14:58 GMT-0400 (Eastern Daylight Time)","330088","Untrustworthy,Trustworthy","","399","","","","decision","","<div class='trialDiv'><img src='Fruit/pineapple.png'><br><font class='baseline'><strong>Primo Pineapple</strong><p>Choose number of points to bet.</font><div class='respPicDiv'><img src='img/responseButtonOffersNo0L.png' class='respPic'></div></div>","1","6","Primo Pineapple","Fruit/pineapple.png","Won","0.2,0.8","8","0.2","82","17","",""
"html-keyboard-response","59","95361","0.0-11.0-2.16","602b3ed14ae791260d6d12c5","bdp_rwlrn","Mon Mar 13 2023 14:14:58 GMT-0400 (Eastern Daylight Time)","330088","Untrustworthy,Trustworthy","","null","","","","decisionFB","","<div class='trialDiv'><img src='Fruit/pineapple.png'><br><font class='baseline'><strong>Primo Pineapple</strong><p>Choose number of points to bet.</font><div class='respPicDiv'><img src='img/responseButtonOffersNo0L1.png' class='respPic'></div></div>","null","6","Primo Pineapple","Fruit/pineapple.png","Won","0.2,0.8","8","0.2","81","17","",""
"html-keyboard-response","60","96363","0.0-11.0-3.16","602b3ed14ae791260d6d12c5","bdp_rwlrn","Mon Mar 13 2023 14:14:58 GMT-0400 (Eastern Daylight Time)","330088","Untrustworthy,Trustworthy","","null","","","","feedback","","<div class='respPicDiv'><img src='img/responseButtonOffersNo0_wht.png' class='respPic'></div><div class='trialDiv'><img src='Fruit/pineapple.png'><br><font class='baseline'><strong>Primo Pineapple</strong><p><strong><font class='posOutcome'>You WON</font><p>You bet: 1</strong></font> &nbsp; &nbsp; &nbsp; &nbsp; &nbsp; &nbsp;<font class='posOutcome'>you receive: <strong>2</strong></font></div>","null","6","Primo Pineapple","Fruit/pineapple.png","Won","0.2,0.8","8","0.2","83","17","",""
"html-keyboard-response","61","96379","0.0-11.0-1.17","602b3ed14ae791260d6d12c5","bdp_rwlrn","Mon Mar 13 2023 14:14:58 GMT-0400 (Eastern Daylight Time)","330088","Untrustworthy,Trustworthy","","13","","","","decision","","<div class='trialDiv'><img src='Fruit/watermelon.png'><br><font class='baseline'><strong>Watermelon Win$</strong><p>Choose number of points to bet.</font><div class='respPicDiv'><img src='img/responseButtonOffersNo0L.png' class='respPic'></div></div>","1","6","Watermelon Win$","Fruit/watermelon.png","Won","0.65,0.2","8","0.65","88","18","",""
"html-keyboard-response","62","96632","0.0-11.0-2.17","602b3ed14ae791260d6d12c5","bdp_rwlrn","Mon Mar 13 2023 14:14:58 GMT-0400 (Eastern Daylight Time)","330088","Untrustworthy,Trustworthy","","null","","","","decisionFB","","<div class='trialDiv'><img src='Fruit/watermelon.png'><br><font class='baseline'><strong>Watermelon Win$</strong><p>Choose number of points to bet.</font><div class='respPicDiv'><img src='img/responseButtonOffersNo0L1.png' class='respPic'></div></div>","null","6","Watermelon Win$","Fruit/watermelon.png","Won","0.65,0.2","8","0.65","87","18","",""
"html-keyboard-response","63","97635","0.0-11.0-3.17","602b3ed14ae791260d6d12c5","bdp_rwlrn","Mon Mar 13 2023 14:14:58 GMT-0400 (Eastern Daylight Time)","330088","Untrustworthy,Trustworthy","","null","","","","feedback","","<div class='respPicDiv'><img src='img/responseButtonOffersNo0_wht.png' class='respPic'></div><div class='trialDiv'><img src='Fruit/watermelon.png'><br><font class='baseline'><strong>Watermelon Win$</strong><p><strong><font class='posOutcome'>You WON</font><p>You bet: 1</strong></font> &nbsp; &nbsp; &nbsp; &nbsp; &nbsp; &nbsp;<font class='posOutcome'>you receive: <strong>2</strong></font></div>","null","6","Watermelon Win$","Fruit/watermelon.png","Won","0.65,0.2","8","0.65","89","18","",""
"html-keyboard-response","64","97917","0.0-11.0-1.18","602b3ed14ae791260d6d12c5","bdp_rwlrn","Mon Mar 13 2023 14:14:58 GMT-0400 (Eastern Daylight Time)","330088","Untrustworthy,Trustworthy","","279","","","","decision","","<div class='trialDiv'><img src='Fruit/Kiwi.png'><br><font class='baseline'><strong>Kiwi Kash</strong><p>Choose number of points to bet.</font><div class='respPicDiv'><img src='img/responseButtonOffersNo0L.png' class='respPic'></div></div>","1","7","Kiwi Kash","Fruit/Kiwi.png","Lost","0.2,0.65","12","0.2","94","19","",""
"html-keyboard-response","65","98170","0.0-11.0-2.18","602b3ed14ae791260d6d12c5","bdp_rwlrn","Mon Mar 13 2023 14:14:58 GMT-0400 (Eastern Daylight Time)","330088","Untrustworthy,Trustworthy","","null","","","","decisionFB","","<div class='trialDiv'><img src='Fruit/Kiwi.png'><br><font class='baseline'><strong>Kiwi Kash</strong><p>Choose number of points to bet.</font><div class='respPicDiv'><img src='img/responseButtonOffersNo0L1.png' class='respPic'></div></div>","null","7","Kiwi Kash","Fruit/Kiwi.png","Lost","0.2,0.65","12","0.2","93","19","",""
"html-keyboard-response","66","99174","0.0-11.0-3.18","602b3ed14ae791260d6d12c5","bdp_rwlrn","Mon Mar 13 2023 14:14:58 GMT-0400 (Eastern Daylight Time)","330088","Untrustworthy,Trustworthy","","null","","","","feedback","","<div class='respPicDiv'><img src='img/responseButtonOffersNo0_wht.png' class='respPic'></div><div class='trialDiv'><img src='Fruit/Kiwi.png'><br><font class='baseline'><strong>Kiwi Kash</strong><p><strong><font class='negOutcome'>You LOST</font><p>You bet: 1</strong></font> &nbsp; &nbsp; &nbsp; &nbsp; &nbsp; &nbsp;<font class='negOutcome'>You receive: <strong>0</strong></font></div>","null","7","Kiwi Kash","Fruit/Kiwi.png","Lost","0.2,0.65","12","0.2","93","19","",""
"html-keyboard-response","67","99377","0.0-11.0-1.19","602b3ed14ae791260d6d12c5","bdp_rwlrn","Mon Mar 13 2023 14:14:58 GMT-0400 (Eastern Daylight Time)","330088","Untrustworthy,Trustworthy","","200","","","","decision","","<div class='trialDiv'><img src='Fruit/watermelon.png'><br><font class='baseline'><strong>Watermelon Win$</strong><p>Choose number of points to bet.</font><div class='respPicDiv'><img src='img/responseButtonOffersNo0L.png' class='respPic'></div></div>","1","7","Watermelon Win$","Fruit/watermelon.png","Lost","0.65,0.2","8","0.65","98","20","",""
"html-keyboard-response","68","99630","0.0-11.0-2.19","602b3ed14ae791260d6d12c5","bdp_rwlrn","Mon Mar 13 2023 14:14:58 GMT-0400 (Eastern Daylight Time)","330088","Untrustworthy,Trustworthy","","null","","","","decisionFB","","<div class='trialDiv'><img src='Fruit/watermelon.png'><br><font class='baseline'><strong>Watermelon Win$</strong><p>Choose number of points to bet.</font><div class='respPicDiv'><img src='img/responseButtonOffersNo0L1.png' class='respPic'></div></div>","null","7","Watermelon Win$","Fruit/watermelon.png","Lost","0.65,0.2","8","0.65","97","20","",""
"html-keyboard-response","69","100634","0.0-11.0-3.19","602b3ed14ae791260d6d12c5","bdp_rwlrn","Mon Mar 13 2023 14:14:58 GMT-0400 (Eastern Daylight Time)","330088","Untrustworthy,Trustworthy","","null","","","","feedback","","<div class='respPicDiv'><img src='img/responseButtonOffersNo0_wht.png' class='respPic'></div><div class='trialDiv'><img src='Fruit/watermelon.png'><br><font class='baseline'><strong>Watermelon Win$</strong><p><strong><font class='negOutcome'>You LOST</font><p>You bet: 1</strong></font> &nbsp; &nbsp; &nbsp; &nbsp; &nbsp; &nbsp;<font class='negOutcome'>You receive: <strong>0</strong></font></div>","null","7","Watermelon Win$","Fruit/watermelon.png","Lost","0.65,0.2","8","0.65","97","20","",""
"html-keyboard-response","70","101484","0.0-11.0-1.20","602b3ed14ae791260d6d12c5","bdp_rwlrn","Mon Mar 13 2023 14:14:58 GMT-0400 (Eastern Daylight Time)","330088","Untrustworthy,Trustworthy","","847","","","","decision","","<div class='trialDiv'><img src='Fruit/pineapple.png'><br><font class='baseline'><strong>Primo Pineapple</strong><p>Choose number of points to bet.</font><div class='respPicDiv'><img src='img/responseButtonOffersNo0L.png' class='respPic'></div></div>","1","7","Primo Pineapple","Fruit/pineapple.png","Lost","0.2,0.8","8","0.2","102","21","",""
"html-keyboard-response","71","101737","0.0-11.0-2.20","602b3ed14ae791260d6d12c5","bdp_rwlrn","Mon Mar 13 2023 14:14:58 GMT-0400 (Eastern Daylight Time)","330088","Untrustworthy,Trustworthy","","null","","","","decisionFB","","<div class='trialDiv'><img src='Fruit/pineapple.png'><br><font class='baseline'><strong>Primo Pineapple</strong><p>Choose number of points to bet.</font><div class='respPicDiv'><img src='img/responseButtonOffersNo0L1.png' class='respPic'></div></div>","null","7","Primo Pineapple","Fruit/pineapple.png","Lost","0.2,0.8","8","0.2","101","21","",""
"html-keyboard-response","72","102741","0.0-11.0-3.20","602b3ed14ae791260d6d12c5","bdp_rwlrn","Mon Mar 13 2023 14:14:58 GMT-0400 (Eastern Daylight Time)","330088","Untrustworthy,Trustworthy","","null","","","","feedback","","<div class='respPicDiv'><img src='img/responseButtonOffersNo0_wht.png' class='respPic'></div><div class='trialDiv'><img src='Fruit/pineapple.png'><br><font class='baseline'><strong>Primo Pineapple</strong><p><strong><font class='negOutcome'>You LOST</font><p>You bet: 1</strong></font> &nbsp; &nbsp; &nbsp; &nbsp; &nbsp; &nbsp;<font class='negOutcome'>You receive: <strong>0</strong></font></div>","null","7","Primo Pineapple","Fruit/pineapple.png","Lost","0.2,0.8","8","0.2","101","21","",""
"html-keyboard-response","73","103562","0.0-11.0-1.21","602b3ed14ae791260d6d12c5","bdp_rwlrn","Mon Mar 13 2023 14:14:58 GMT-0400 (Eastern Daylight Time)","330088","Untrustworthy,Trustworthy","","819","","","","decision","","<div class='trialDiv'><img src='Fruit/Kiwi.png'><br><font class='baseline'><strong>Kiwi Kash</strong><p>Choose number of points to bet.</font><div class='respPicDiv'><img src='img/responseButtonOffersNo0L.png' class='respPic'></div></div>","2","8","Kiwi Kash","Fruit/Kiwi.png","Lost","0.2,0.65","12","0.2","106","22","",""
"html-keyboard-response","74","103829","0.0-11.0-2.21","602b3ed14ae791260d6d12c5","bdp_rwlrn","Mon Mar 13 2023 14:14:58 GMT-0400 (Eastern Daylight Time)","330088","Untrustworthy,Trustworthy","","null","","","","decisionFB","","<div class='trialDiv'><img src='Fruit/Kiwi.png'><br><font class='baseline'><strong>Kiwi Kash</strong><p>Choose number of points to bet.</font><div class='respPicDiv'><img src='img/responseButtonOffersNo0L2.png' class='respPic'></div></div>","null","8","Kiwi Kash","Fruit/Kiwi.png","Lost","0.2,0.65","12","0.2","104","22","",""
"html-keyboard-response","75","104832","0.0-11.0-3.21","602b3ed14ae791260d6d12c5","bdp_rwlrn","Mon Mar 13 2023 14:14:58 GMT-0400 (Eastern Daylight Time)","330088","Untrustworthy,Trustworthy","","null","","","","feedback","","<div class='respPicDiv'><img src='img/responseButtonOffersNo0_wht.png' class='respPic'></div><div class='trialDiv'><img src='Fruit/Kiwi.png'><br><font class='baseline'><strong>Kiwi Kash</strong><p><strong><font class='negOutcome'>You LOST</font><p>You bet: 2</strong></font> &nbsp; &nbsp; &nbsp; &nbsp; &nbsp; &nbsp;<font class='negOutcome'>You receive: <strong>0</strong></font></div>","null","8","Kiwi Kash","Fruit/Kiwi.png","Lost","0.2,0.65","12","0.2","104","22","",""
"html-keyboard-response","76","105635","0.0-11.0-1.22","602b3ed14ae791260d6d12c5","bdp_rwlrn","Mon Mar 13 2023 14:14:58 GMT-0400 (Eastern Daylight Time)","330088","Untrustworthy,Trustworthy","","801","","","","decision","","<div class='trialDiv'><img src='Fruit/watermelon.png'><br><font class='baseline'><strong>Watermelon Win$</strong><p>Choose number of points to bet.</font><div class='respPicDiv'><img src='img/responseButtonOffersNo0L.png' class='respPic'></div></div>","2","8","Watermelon Win$","Fruit/watermelon.png","Lost","0.65,0.2","8","0.65","109","23","",""
"html-keyboard-response","77","105888","0.0-11.0-2.22","602b3ed14ae791260d6d12c5","bdp_rwlrn","Mon Mar 13 2023 14:14:58 GMT-0400 (Eastern Daylight Time)","330088","Untrustworthy,Trustworthy","","null","","","","decisionFB","","<div class='trialDiv'><img src='Fruit/watermelon.png'><br><font class='baseline'><strong>Watermelon Win$</strong><p>Choose number of points to bet.</font><div class='respPicDiv'><img src='img/responseButtonOffersNo0L2.png' class='respPic'></div></div>","null","8","Watermelon Win$","Fruit/watermelon.png","Lost","0.65,0.2","8","0.65","107","23","",""
"html-keyboard-response","78","106891","0.0-11.0-3.22","602b3ed14ae791260d6d12c5","bdp_rwlrn","Mon Mar 13 2023 14:14:58 GMT-0400 (Eastern Daylight Time)","330088","Untrustworthy,Trustworthy","","null","","","","feedback","","<div class='respPicDiv'><img src='img/responseButtonOffersNo0_wht.png' class='respPic'></div><div class='trialDiv'><img src='Fruit/watermelon.png'><br><font class='baseline'><strong>Watermelon Win$</strong><p><strong><font class='negOutcome'>You LOST</font><p>You bet: 2</strong></font> &nbsp; &nbsp; &nbsp; &nbsp; &nbsp; &nbsp;<font class='negOutcome'>You receive: <strong>0</strong></font></div>","null","8","Watermelon Win$","Fruit/watermelon.png","Lost","0.65,0.2","8","0.65","107","23","",""
"html-keyboard-response","79","107733","0.0-11.0-1.23","602b3ed14ae791260d6d12c5","bdp_rwlrn","Mon Mar 13 2023 14:14:58 GMT-0400 (Eastern Daylight Time)","330088","Untrustworthy,Trustworthy","","840","","","","decision","","<div class='trialDiv'><img src='Fruit/pineapple.png'><br><font class='baseline'><strong>Primo Pineapple</strong><p>Choose number of points to bet.</font><div class='respPicDiv'><img src='img/responseButtonOffersNo0L.png' class='respPic'></div></div>","2","8","Primo Pineapple","Fruit/pineapple.png","Won","0.2,0.8","8","0.2","112","24","",""
"html-keyboard-response","80","107986","0.0-11.0-2.23","602b3ed14ae791260d6d12c5","bdp_rwlrn","Mon Mar 13 2023 14:14:58 GMT-0400 (Eastern Daylight Time)","330088","Untrustworthy,Trustworthy","","null","","","","decisionFB","","<div class='trialDiv'><img src='Fruit/pineapple.png'><br><font class='baseline'><strong>Primo Pineapple</strong><p>Choose number of points to bet.</font><div class='respPicDiv'><img src='img/responseButtonOffersNo0L2.png' class='respPic'></div></div>","null","8","Primo Pineapple","Fruit/pineapple.png","Won","0.2,0.8","8","0.2","110","24","",""
"html-keyboard-response","81","108990","0.0-11.0-3.23","602b3ed14ae791260d6d12c5","bdp_rwlrn","Mon Mar 13 2023 14:14:58 GMT-0400 (Eastern Daylight Time)","330088","Untrustworthy,Trustworthy","","null","","","","feedback","","<div class='respPicDiv'><img src='img/responseButtonOffersNo0_wht.png' class='respPic'></div><div class='trialDiv'><img src='Fruit/pineapple.png'><br><font class='baseline'><strong>Primo Pineapple</strong><p><strong><font class='posOutcome'>You WON</font><p>You bet: 2</strong></font> &nbsp; &nbsp; &nbsp; &nbsp; &nbsp; &nbsp;<font class='posOutcome'>you receive: <strong>4</strong></font></div>","null","8","Primo Pineapple","Fruit/pineapple.png","Won","0.2,0.8","8","0.2","114","24","",""
"html-keyboard-response","82","109652","0.0-11.0-1.24","602b3ed14ae791260d6d12c5","bdp_rwlrn","Mon Mar 13 2023 14:14:58 GMT-0400 (Eastern Daylight Time)","330088","Untrustworthy,Trustworthy","","660","","","","decision","","<div class='trialDiv'><img src='Fruit/watermelon.png'><br><font class='baseline'><strong>Watermelon Win$</strong><p>Choose number of points to bet.</font><div class='respPicDiv'><img src='img/responseButtonOffersNo0L.png' class='respPic'></div></div>","3","9","Watermelon Win$","Fruit/watermelon.png","Lost","0.65,0.2","8","0.65","119","25","",""
"html-keyboard-response","83","109906","0.0-11.0-2.24","602b3ed14ae791260d6d12c5","bdp_rwlrn","Mon Mar 13 2023 14:14:58 GMT-0400 (Eastern Daylight Time)","330088","Untrustworthy,Trustworthy","","null","","","","decisionFB","","<div class='trialDiv'><img src='Fruit/watermelon.png'><br><font class='baseline'><strong>Watermelon Win$</strong><p>Choose number of points to bet.</font><div class='respPicDiv'><img src='img/responseButtonOffersNo0L3.png' class='respPic'></div></div>","null","9","Watermelon Win$","Fruit/watermelon.png","Lost","0.65,0.2","8","0.65","116","25","",""
"html-keyboard-response","84","110909","0.0-11.0-3.24","602b3ed14ae791260d6d12c5","bdp_rwlrn","Mon Mar 13 2023 14:14:58 GMT-0400 (Eastern Daylight Time)","330088","Untrustworthy,Trustworthy","","null","","","","feedback","","<div class='respPicDiv'><img src='img/responseButtonOffersNo0_wht.png' class='respPic'></div><div class='trialDiv'><img src='Fruit/watermelon.png'><br><font class='baseline'><strong>Watermelon Win$</strong><p><strong><font class='negOutcome'>You LOST</font><p>You bet: 3</strong></font> &nbsp; &nbsp; &nbsp; &nbsp; &nbsp; &nbsp;<font class='negOutcome'>You receive: <strong>0</strong></font></div>","null","9","Watermelon Win$","Fruit/watermelon.png","Lost","0.65,0.2","8","0.65","116","25","",""
"html-keyboard-response","85","111510","0.0-11.0-1.25","602b3ed14ae791260d6d12c5","bdp_rwlrn","Mon Mar 13 2023 14:14:58 GMT-0400 (Eastern Daylight Time)","330088","Untrustworthy,Trustworthy","","598","","","","decision","","<div class='trialDiv'><img src='Fruit/Kiwi.png'><br><font class='baseline'><strong>Kiwi Kash</strong><p>Choose number of points to bet.</font><div class='respPicDiv'><img src='img/responseButtonOffersNo0L.png' class='respPic'></div></div>","1","9","Kiwi Kash","Fruit/Kiwi.png","Lost","0.2,0.65","12","0.2","121","26","",""
"html-keyboard-response","86","111763","0.0-11.0-2.25","602b3ed14ae791260d6d12c5","bdp_rwlrn","Mon Mar 13 2023 14:14:58 GMT-0400 (Eastern Daylight Time)","330088","Untrustworthy,Trustworthy","","null","","","","decisionFB","","<div class='trialDiv'><img src='Fruit/Kiwi.png'><br><font class='baseline'><strong>Kiwi Kash</strong><p>Choose number of points to bet.</font><div class='respPicDiv'><img src='img/responseButtonOffersNo0L1.png' class='respPic'></div></div>","null","9","Kiwi Kash","Fruit/Kiwi.png","Lost","0.2,0.65","12","0.2","120","26","",""
"html-keyboard-response","87","112775","0.0-11.0-3.25","602b3ed14ae791260d6d12c5","bdp_rwlrn","Mon Mar 13 2023 14:14:58 GMT-0400 (Eastern Daylight Time)","330088","Untrustworthy,Trustworthy","","null","","","","feedback","","<div class='respPicDiv'><img src='img/responseButtonOffersNo0_wht.png' class='respPic'></div><div class='trialDiv'><img src='Fruit/Kiwi.png'><br><font class='baseline'><strong>Kiwi Kash</strong><p><strong><font class='negOutcome'>You LOST</font><p>You bet: 1</strong></font> &nbsp; &nbsp; &nbsp; &nbsp; &nbsp; &nbsp;<font class='negOutcome'>You receive: <strong>0</strong></font></div>","null","9","Kiwi Kash","Fruit/Kiwi.png","Lost","0.2,0.65","12","0.2","120","26","",""
"html-keyboard-response","88","113202","0.0-11.0-1.26","602b3ed14ae791260d6d12c5","bdp_rwlrn","Mon Mar 13 2023 14:14:58 GMT-0400 (Eastern Daylight Time)","330088","Untrustworthy,Trustworthy","","425","","","","decision","","<div class='trialDiv'><img src='Fruit/pineapple.png'><br><font class='baseline'><strong>Primo Pineapple</strong><p>Choose number of points to bet.</font><div class='respPicDiv'><img src='img/responseButtonOffersNo0L.png' class='respPic'></div></div>","2","9","Primo Pineapple","Fruit/pineapple.png","Won","0.2,0.8","8","0.2","125","27","",""
"html-keyboard-response","89","113455","0.0-11.0-2.26","602b3ed14ae791260d6d12c5","bdp_rwlrn","Mon Mar 13 2023 14:14:58 GMT-0400 (Eastern Daylight Time)","330088","Untrustworthy,Trustworthy","","null","","","","decisionFB","","<div class='trialDiv'><img src='Fruit/pineapple.png'><br><font class='baseline'><strong>Primo Pineapple</strong><p>Choose number of points to bet.</font><div class='respPicDiv'><img src='img/responseButtonOffersNo0L2.png' class='respPic'></div></div>","null","9","Primo Pineapple","Fruit/pineapple.png","Won","0.2,0.8","8","0.2","123","27","",""
"html-keyboard-response","90","114459","0.0-11.0-3.26","602b3ed14ae791260d6d12c5","bdp_rwlrn","Mon Mar 13 2023 14:14:58 GMT-0400 (Eastern Daylight Time)","330088","Untrustworthy,Trustworthy","","null","","","","feedback","","<div class='respPicDiv'><img src='img/responseButtonOffersNo0_wht.png' class='respPic'></div><div class='trialDiv'><img src='Fruit/pineapple.png'><br><font class='baseline'><strong>Primo Pineapple</strong><p><strong><font class='posOutcome'>You WON</font><p>You bet: 2</strong></font> &nbsp; &nbsp; &nbsp; &nbsp; &nbsp; &nbsp;<font class='posOutcome'>you receive: <strong>4</strong></font></div>","null","9","Primo Pineapple","Fruit/pineapple.png","Won","0.2,0.8","8","0.2","127","27","",""
"html-keyboard-response","91","115320","0.0-11.0-1.27","602b3ed14ae791260d6d12c5","bdp_rwlrn","Mon Mar 13 2023 14:14:58 GMT-0400 (Eastern Daylight Time)","330088","Untrustworthy,Trustworthy","","859","","","","decision","","<div class='trialDiv'><img src='Fruit/watermelon.png'><br><font class='baseline'><strong>Watermelon Win$</strong><p>Choose number of points to bet.</font><div class='respPicDiv'><img src='img/responseButtonOffersNo0L.png' class='respPic'></div></div>","2","10","Watermelon Win$","Fruit/watermelon.png","Won","0.65,0.2","8","0.65","132","28","",""
"html-keyboard-response","92","115573","0.0-11.0-2.27","602b3ed14ae791260d6d12c5","bdp_rwlrn","Mon Mar 13 2023 14:14:58 GMT-0400 (Eastern Daylight Time)","330088","Untrustworthy,Trustworthy","","null","","","","decisionFB","","<div class='trialDiv'><img src='Fruit/watermelon.png'><br><font class='baseline'><strong>Watermelon Win$</strong><p>Choose number of points to bet.</font><div class='respPicDiv'><img src='img/responseButtonOffersNo0L2.png' class='respPic'></div></div>","null","10","Watermelon Win$","Fruit/watermelon.png","Won","0.65,0.2","8","0.65","130","28","",""
"html-keyboard-response","93","116577","0.0-11.0-3.27","602b3ed14ae791260d6d12c5","bdp_rwlrn","Mon Mar 13 2023 14:14:58 GMT-0400 (Eastern Daylight Time)","330088","Untrustworthy,Trustworthy","","null","","","","feedback","","<div class='respPicDiv'><img src='img/responseButtonOffersNo0_wht.png' class='respPic'></div><div class='trialDiv'><img src='Fruit/watermelon.png'><br><font class='baseline'><strong>Watermelon Win$</strong><p><strong><font class='posOutcome'>You WON</font><p>You bet: 2</strong></font> &nbsp; &nbsp; &nbsp; &nbsp; &nbsp; &nbsp;<font class='posOutcome'>you receive: <strong>4</strong></font></div>","null","10","Watermelon Win$","Fruit/watermelon.png","Won","0.65,0.2","8","0.65","134","28","",""
"html-keyboard-response","94","117153","0.0-11.0-1.28","602b3ed14ae791260d6d12c5","bdp_rwlrn","Mon Mar 13 2023 14:14:58 GMT-0400 (Eastern Daylight Time)","330088","Untrustworthy,Trustworthy","","574","","","","decision","","<div class='trialDiv'><img src='Fruit/pineapple.png'><br><font class='baseline'><strong>Primo Pineapple</strong><p>Choose number of points to bet.</font><div class='respPicDiv'><img src='img/responseButtonOffersNo0L.png' class='respPic'></div></div>","1","10","Primo Pineapple","Fruit/pineapple.png","Won","0.2,0.8","8","0.2","139","29","",""
"html-keyboard-response","95","117406","0.0-11.0-2.28","602b3ed14ae791260d6d12c5","bdp_rwlrn","Mon Mar 13 2023 14:14:58 GMT-0400 (Eastern Daylight Time)","330088","Untrustworthy,Trustworthy","","null","","","","decisionFB","","<div class='trialDiv'><img src='Fruit/pineapple.png'><br><font class='baseline'><strong>Primo Pineapple</strong><p>Choose number of points to bet.</font><div class='respPicDiv'><img src='img/responseButtonOffersNo0L1.png' class='respPic'></div></div>","null","10","Primo Pineapple","Fruit/pineapple.png","Won","0.2,0.8","8","0.2","138","29","",""
"html-keyboard-response","96","118408","0.0-11.0-3.28","602b3ed14ae791260d6d12c5","bdp_rwlrn","Mon Mar 13 2023 14:14:58 GMT-0400 (Eastern Daylight Time)","330088","Untrustworthy,Trustworthy","","null","","","","feedback","","<div class='respPicDiv'><img src='img/responseButtonOffersNo0_wht.png' class='respPic'></div><div class='trialDiv'><img src='Fruit/pineapple.png'><br><font class='baseline'><strong>Primo Pineapple</strong><p><strong><font class='posOutcome'>You WON</font><p>You bet: 1</strong></font> &nbsp; &nbsp; &nbsp; &nbsp; &nbsp; &nbsp;<font class='posOutcome'>you receive: <strong>2</strong></font></div>","null","10","Primo Pineapple","Fruit/pineapple.png","Won","0.2,0.8","8","0.2","140","29","",""
"html-keyboard-response","97","118767","0.0-11.0-1.29","602b3ed14ae791260d6d12c5","bdp_rwlrn","Mon Mar 13 2023 14:14:58 GMT-0400 (Eastern Daylight Time)","330088","Untrustworthy,Trustworthy","","358","","","","decision","","<div class='trialDiv'><img src='Fruit/Kiwi.png'><br><font class='baseline'><strong>Kiwi Kash</strong><p>Choose number of points to bet.</font><div class='respPicDiv'><img src='img/responseButtonOffersNo0L.png' class='respPic'></div></div>","1","10","Kiwi Kash","Fruit/Kiwi.png","Lost","0.2,0.65","12","0.2","145","30","",""
"html-keyboard-response","98","119019","0.0-11.0-2.29","602b3ed14ae791260d6d12c5","bdp_rwlrn","Mon Mar 13 2023 14:14:58 GMT-0400 (Eastern Daylight Time)","330088","Untrustworthy,Trustworthy","","null","","","","decisionFB","","<div class='trialDiv'><img src='Fruit/Kiwi.png'><br><font class='baseline'><strong>Kiwi Kash</strong><p>Choose number of points to bet.</font><div class='respPicDiv'><img src='img/responseButtonOffersNo0L1.png' class='respPic'></div></div>","null","10","Kiwi Kash","Fruit/Kiwi.png","Lost","0.2,0.65","12","0.2","144","30","",""
"html-keyboard-response","99","120020","0.0-11.0-3.29","602b3ed14ae791260d6d12c5","bdp_rwlrn","Mon Mar 13 2023 14:14:58 GMT-0400 (Eastern Daylight Time)","330088","Untrustworthy,Trustworthy","","null","","","","feedback","","<div class='respPicDiv'><img src='img/responseButtonOffersNo0_wht.png' class='respPic'></div><div class='trialDiv'><img src='Fruit/Kiwi.png'><br><font class='baseline'><strong>Kiwi Kash</strong><p><strong><font class='negOutcome'>You LOST</font><p>You bet: 1</strong></font> &nbsp; &nbsp; &nbsp; &nbsp; &nbsp; &nbsp;<font class='negOutcome'>You receive: <strong>0</strong></font></div>","null","10","Kiwi Kash","Fruit/Kiwi.png","Lost","0.2,0.65","12","0.2","144","30","",""
"html-keyboard-response","100","120505","0.0-11.0-1.30","602b3ed14ae791260d6d12c5","bdp_rwlrn","Mon Mar 13 2023 14:14:58 GMT-0400 (Eastern Daylight Time)","330088","Untrustworthy,Trustworthy","","484","","","","decision","","<div class='trialDiv'><img src='Fruit/pineapple.png'><br><font class='baseline'><strong>Primo Pineapple</strong><p>Choose number of points to bet.</font><div class='respPicDiv'><img src='img/responseButtonOffersNo0L.png' class='respPic'></div></div>","1","11","Primo Pineapple","Fruit/pineapple.png","Won","0.2,0.8","8","0.2","149","31","",""
"html-keyboard-response","101","120758","0.0-11.0-2.30","602b3ed14ae791260d6d12c5","bdp_rwlrn","Mon Mar 13 2023 14:14:58 GMT-0400 (Eastern Daylight Time)","330088","Untrustworthy,Trustworthy","","null","","","","decisionFB","","<div class='trialDiv'><img src='Fruit/pineapple.png'><br><font class='baseline'><strong>Primo Pineapple</strong><p>Choose number of points to bet.</font><div class='respPicDiv'><img src='img/responseButtonOffersNo0L1.png' class='respPic'></div></div>","null","11","Primo Pineapple","Fruit/pineapple.png","Won","0.2,0.8","8","0.2","148","31","",""
"html-keyboard-response","102","121760","0.0-11.0-3.30","602b3ed14ae791260d6d12c5","bdp_rwlrn","Mon Mar 13 2023 14:14:58 GMT-0400 (Eastern Daylight Time)","330088","Untrustworthy,Trustworthy","","null","","","","feedback","","<div class='respPicDiv'><img src='img/responseButtonOffersNo0_wht.png' class='respPic'></div><div class='trialDiv'><img src='Fruit/pineapple.png'><br><font class='baseline'><strong>Primo Pineapple</strong><p><strong><font class='posOutcome'>You WON</font><p>You bet: 1</strong></font> &nbsp; &nbsp; &nbsp; &nbsp; &nbsp; &nbsp;<font class='posOutcome'>you receive: <strong>2</strong></font></div>","null","11","Primo Pineapple","Fruit/pineapple.png","Won","0.2,0.8","8","0.2","150","31","",""
"html-keyboard-response","103","122165","0.0-11.0-1.31","602b3ed14ae791260d6d12c5","bdp_rwlrn","Mon Mar 13 2023 14:14:58 GMT-0400 (Eastern Daylight Time)","330088","Untrustworthy,Trustworthy","","403","","","","decision","","<div class='trialDiv'><img src='Fruit/watermelon.png'><br><font class='baseline'><strong>Watermelon Win$</strong><p>Choose number of points to bet.</font><div class='respPicDiv'><img src='img/responseButtonOffersNo0L.png' class='respPic'></div></div>","2","11","Watermelon Win$","Fruit/watermelon.png","Lost","0.65,0.2","8","0.65","155","32","",""
"html-keyboard-response","104","122418","0.0-11.0-2.31","602b3ed14ae791260d6d12c5","bdp_rwlrn","Mon Mar 13 2023 14:14:58 GMT-0400 (Eastern Daylight Time)","330088","Untrustworthy,Trustworthy","","null","","","","decisionFB","","<div class='trialDiv'><img src='Fruit/watermelon.png'><br><font class='baseline'><strong>Watermelon Win$</strong><p>Choose number of points to bet.</font><div class='respPicDiv'><img src='img/responseButtonOffersNo0L2.png' class='respPic'></div></div>","null","11","Watermelon Win$","Fruit/watermelon.png","Lost","0.65,0.2","8","0.65","153","32","",""
"html-keyboard-response","105","123421","0.0-11.0-3.31","602b3ed14ae791260d6d12c5","bdp_rwlrn","Mon Mar 13 2023 14:14:58 GMT-0400 (Eastern Daylight Time)","330088","Untrustworthy,Trustworthy","","null","","","","feedback","","<div class='respPicDiv'><img src='img/responseButtonOffersNo0_wht.png' class='respPic'></div><div class='trialDiv'><img src='Fruit/watermelon.png'><br><font class='baseline'><strong>Watermelon Win$</strong><p><strong><font class='negOutcome'>You LOST</font><p>You bet: 2</strong></font> &nbsp; &nbsp; &nbsp; &nbsp; &nbsp; &nbsp;<font class='negOutcome'>You receive: <strong>0</strong></font></div>","null","11","Watermelon Win$","Fruit/watermelon.png","Lost","0.65,0.2","8","0.65","153","32","",""
"html-keyboard-response","106","124092","0.0-11.0-1.32","602b3ed14ae791260d6d12c5","bdp_rwlrn","Mon Mar 13 2023 14:14:58 GMT-0400 (Eastern Daylight Time)","330088","Untrustworthy,Trustworthy","","667","","","","decision","","<div class='trialDiv'><img src='Fruit/Kiwi.png'><br><font class='baseline'><strong>Kiwi Kash</strong><p>Choose number of points to bet.</font><div class='respPicDiv'><img src='img/responseButtonOffersNo0L.png' class='respPic'></div></div>","1","11","Kiwi Kash","Fruit/Kiwi.png","Lost","0.2,0.65","12","0.2","158","33","",""
"html-keyboard-response","107","124345","0.0-11.0-2.32","602b3ed14ae791260d6d12c5","bdp_rwlrn","Mon Mar 13 2023 14:14:58 GMT-0400 (Eastern Daylight Time)","330088","Untrustworthy,Trustworthy","","null","","","","decisionFB","","<div class='trialDiv'><img src='Fruit/Kiwi.png'><br><font class='baseline'><strong>Kiwi Kash</strong><p>Choose number of points to bet.</font><div class='respPicDiv'><img src='img/responseButtonOffersNo0L1.png' class='respPic'></div></div>","null","11","Kiwi Kash","Fruit/Kiwi.png","Lost","0.2,0.65","12","0.2","157","33","",""
"html-keyboard-response","108","125348","0.0-11.0-3.32","602b3ed14ae791260d6d12c5","bdp_rwlrn","Mon Mar 13 2023 14:14:58 GMT-0400 (Eastern Daylight Time)","330088","Untrustworthy,Trustworthy","","null","","","","feedback","","<div class='respPicDiv'><img src='img/responseButtonOffersNo0_wht.png' class='respPic'></div><div class='trialDiv'><img src='Fruit/Kiwi.png'><br><font class='baseline'><strong>Kiwi Kash</strong><p><strong><font class='negOutcome'>You LOST</font><p>You bet: 1</strong></font> &nbsp; &nbsp; &nbsp; &nbsp; &nbsp; &nbsp;<font class='negOutcome'>You receive: <strong>0</strong></font></div>","null","11","Kiwi Kash","Fruit/Kiwi.png","Lost","0.2,0.65","12","0.2","157","33","",""
"html-keyboard-response","109","126000","0.0-11.0-1.33","602b3ed14ae791260d6d12c5","bdp_rwlrn","Mon Mar 13 2023 14:14:58 GMT-0400 (Eastern Daylight Time)","330088","Untrustworthy,Trustworthy","","649","","","","decision","","<div class='trialDiv'><img src='Fruit/watermelon.png'><br><font class='baseline'><strong>Watermelon Win$</strong><p>Choose number of points to bet.</font><div class='respPicDiv'><img src='img/responseButtonOffersNo0L.png' class='respPic'></div></div>","1","12","Watermelon Win$","Fruit/watermelon.png","Lost","0.65,0.2","8","0.65","162","34","",""
"html-keyboard-response","110","126254","0.0-11.0-2.33","602b3ed14ae791260d6d12c5","bdp_rwlrn","Mon Mar 13 2023 14:14:58 GMT-0400 (Eastern Daylight Time)","330088","Untrustworthy,Trustworthy","","null","","","","decisionFB","","<div class='trialDiv'><img src='Fruit/watermelon.png'><br><font class='baseline'><strong>Watermelon Win$</strong><p>Choose number of points to bet.</font><div class='respPicDiv'><img src='img/responseButtonOffersNo0L1.png' class='respPic'></div></div>","null","12","Watermelon Win$","Fruit/watermelon.png","Lost","0.65,0.2","8","0.65","161","34","",""
"html-keyboard-response","111","127257","0.0-11.0-3.33","602b3ed14ae791260d6d12c5","bdp_rwlrn","Mon Mar 13 2023 14:14:58 GMT-0400 (Eastern Daylight Time)","330088","Untrustworthy,Trustworthy","","null","","","","feedback","","<div class='respPicDiv'><img src='img/responseButtonOffersNo0_wht.png' class='respPic'></div><div class='trialDiv'><img src='Fruit/watermelon.png'><br><font class='baseline'><strong>Watermelon Win$</strong><p><strong><font class='negOutcome'>You LOST</font><p>You bet: 1</strong></font> &nbsp; &nbsp; &nbsp; &nbsp; &nbsp; &nbsp;<font class='negOutcome'>You receive: <strong>0</strong></font></div>","null","12","Watermelon Win$","Fruit/watermelon.png","Lost","0.65,0.2","8","0.65","161","34","",""
"html-keyboard-response","112","128183","0.0-11.0-1.34","602b3ed14ae791260d6d12c5","bdp_rwlrn","Mon Mar 13 2023 14:14:58 GMT-0400 (Eastern Daylight Time)","330088","Untrustworthy,Trustworthy","","924","","","","decision","","<div class='trialDiv'><img src='Fruit/Kiwi.png'><br><font class='baseline'><strong>Kiwi Kash</strong><p>Choose number of points to bet.</font><div class='respPicDiv'><img src='img/responseButtonOffersNo0L.png' class='respPic'></div></div>","1","12","Kiwi Kash","Fruit/Kiwi.png","Lost","0.2,0.65","12","0.2","166","35","",""
"html-keyboard-response","113","128436","0.0-11.0-2.34","602b3ed14ae791260d6d12c5","bdp_rwlrn","Mon Mar 13 2023 14:14:58 GMT-0400 (Eastern Daylight Time)","330088","Untrustworthy,Trustworthy","","null","","","","decisionFB","","<div class='trialDiv'><img src='Fruit/Kiwi.png'><br><font class='baseline'><strong>Kiwi Kash</strong><p>Choose number of points to bet.</font><div class='respPicDiv'><img src='img/responseButtonOffersNo0L1.png' class='respPic'></div></div>","null","12","Kiwi Kash","Fruit/Kiwi.png","Lost","0.2,0.65","12","0.2","165","35","",""
"html-keyboard-response","114","129439","0.0-11.0-3.34","602b3ed14ae791260d6d12c5","bdp_rwlrn","Mon Mar 13 2023 14:14:58 GMT-0400 (Eastern Daylight Time)","330088","Untrustworthy,Trustworthy","","null","","","","feedback","","<div class='respPicDiv'><img src='img/responseButtonOffersNo0_wht.png' class='respPic'></div><div class='trialDiv'><img src='Fruit/Kiwi.png'><br><font class='baseline'><strong>Kiwi Kash</strong><p><strong><font class='negOutcome'>You LOST</font><p>You bet: 1</strong></font> &nbsp; &nbsp; &nbsp; &nbsp; &nbsp; &nbsp;<font class='negOutcome'>You receive: <strong>0</strong></font></div>","null","12","Kiwi Kash","Fruit/Kiwi.png","Lost","0.2,0.65","12","0.2","165","35","",""
"html-keyboard-response","115","129836","0.0-11.0-1.35","602b3ed14ae791260d6d12c5","bdp_rwlrn","Mon Mar 13 2023 14:14:58 GMT-0400 (Eastern Daylight Time)","330088","Untrustworthy,Trustworthy","","394","","","","decision","","<div class='trialDiv'><img src='Fruit/pineapple.png'><br><font class='baseline'><strong>Primo Pineapple</strong><p>Choose number of points to bet.</font><div class='respPicDiv'><img src='img/responseButtonOffersNo0L.png' class='respPic'></div></div>","5","12","Primo Pineapple","Fruit/pineapple.png","Won","0.2,0.8","8","0.2","170","36","",""
"html-keyboard-response","116","130089","0.0-11.0-2.35","602b3ed14ae791260d6d12c5","bdp_rwlrn","Mon Mar 13 2023 14:14:58 GMT-0400 (Eastern Daylight Time)","330088","Untrustworthy,Trustworthy","","null","","","","decisionFB","","<div class='trialDiv'><img src='Fruit/pineapple.png'><br><font class='baseline'><strong>Primo Pineapple</strong><p>Choose number of points to bet.</font><div class='respPicDiv'><img src='img/responseButtonOffersNo0L5.png' class='respPic'></div></div>","null","12","Primo Pineapple","Fruit/pineapple.png","Won","0.2,0.8","8","0.2","165","36","",""
"html-keyboard-response","117","131093","0.0-11.0-3.35","602b3ed14ae791260d6d12c5","bdp_rwlrn","Mon Mar 13 2023 14:14:58 GMT-0400 (Eastern Daylight Time)","330088","Untrustworthy,Trustworthy","","null","","","","feedback","","<div class='respPicDiv'><img src='img/responseButtonOffersNo0_wht.png' class='respPic'></div><div class='trialDiv'><img src='Fruit/pineapple.png'><br><font class='baseline'><strong>Primo Pineapple</strong><p><strong><font class='posOutcome'>You WON</font><p>You bet: 5</strong></font> &nbsp; &nbsp; &nbsp; &nbsp; &nbsp; &nbsp;<font class='posOutcome'>you receive: <strong>10</strong></font></div>","null","12","Primo Pineapple","Fruit/pineapple.png","Won","0.2,0.8","8","0.2","175","36","",""
"html-keyboard-response","118","131764","0.0-11.0-1.36","602b3ed14ae791260d6d12c5","bdp_rwlrn","Mon Mar 13 2023 14:14:58 GMT-0400 (Eastern Daylight Time)","330088","Untrustworthy,Trustworthy","","669","","","","decision","","<div class='trialDiv'><img src='Fruit/Kiwi.png'><br><font class='baseline'><strong>Kiwi Kash</strong><p>Choose number of points to bet.</font><div class='respPicDiv'><img src='img/responseButtonOffersNo0L.png' class='respPic'></div></div>","1","13","Kiwi Kash","Fruit/Kiwi.png","Lost","0.2,0.65","12","0.2","180","37","",""
"html-keyboard-response","119","132017","0.0-11.0-2.36","602b3ed14ae791260d6d12c5","bdp_rwlrn","Mon Mar 13 2023 14:14:58 GMT-0400 (Eastern Daylight Time)","330088","Untrustworthy,Trustworthy","","null","","","","decisionFB","","<div class='trialDiv'><img src='Fruit/Kiwi.png'><br><font class='baseline'><strong>Kiwi Kash</strong><p>Choose number of points to bet.</font><div class='respPicDiv'><img src='img/responseButtonOffersNo0L1.png' class='respPic'></div></div>","null","13","Kiwi Kash","Fruit/Kiwi.png","Lost","0.2,0.65","12","0.2","179","37","",""
"html-keyboard-response","120","133021","0.0-11.0-3.36","602b3ed14ae791260d6d12c5","bdp_rwlrn","Mon Mar 13 2023 14:14:58 GMT-0400 (Eastern Daylight Time)","330088","Untrustworthy,Trustworthy","","null","","","","feedback","","<div class='respPicDiv'><img src='img/responseButtonOffersNo0_wht.png' class='respPic'></div><div class='trialDiv'><img src='Fruit/Kiwi.png'><br><font class='baseline'><strong>Kiwi Kash</strong><p><strong><font class='negOutcome'>You LOST</font><p>You bet: 1</strong></font> &nbsp; &nbsp; &nbsp; &nbsp; &nbsp; &nbsp;<font class='negOutcome'>You receive: <strong>0</strong></font></div>","null","13","Kiwi Kash","Fruit/Kiwi.png","Lost","0.2,0.65","12","0.2","179","37","",""
"html-keyboard-response","121","134302","0.0-11.0-1.37","602b3ed14ae791260d6d12c5","bdp_rwlrn","Mon Mar 13 2023 14:14:58 GMT-0400 (Eastern Daylight Time)","330088","Untrustworthy,Trustworthy","","1278","","","","decision","","<div class='trialDiv'><img src='Fruit/pineapple.png'><br><font class='baseline'><strong>Primo Pineapple</strong><p>Choose number of points to bet.</font><div class='respPicDiv'><img src='img/responseButtonOffersNo0L.png' class='respPic'></div></div>","2","13","Primo Pineapple","Fruit/pineapple.png","Lost","0.2,0.8","8","0.2","184","38","",""
"html-keyboard-response","122","134555","0.0-11.0-2.37","602b3ed14ae791260d6d12c5","bdp_rwlrn","Mon Mar 13 2023 14:14:58 GMT-0400 (Eastern Daylight Time)","330088","Untrustworthy,Trustworthy","","null","","","","decisionFB","","<div class='trialDiv'><img src='Fruit/pineapple.png'><br><font class='baseline'><strong>Primo Pineapple</strong><p>Choose number of points to bet.</font><div class='respPicDiv'><img src='img/responseButtonOffersNo0L2.png' class='respPic'></div></div>","null","13","Primo Pineapple","Fruit/pineapple.png","Lost","0.2,0.8","8","0.2","182","38","",""
"html-keyboard-response","123","135563","0.0-11.0-3.37","602b3ed14ae791260d6d12c5","bdp_rwlrn","Mon Mar 13 2023 14:14:58 GMT-0400 (Eastern Daylight Time)","330088","Untrustworthy,Trustworthy","","null","","","","feedback","","<div class='respPicDiv'><img src='img/responseButtonOffersNo0_wht.png' class='respPic'></div><div class='trialDiv'><img src='Fruit/pineapple.png'><br><font class='baseline'><strong>Primo Pineapple</strong><p><strong><font class='negOutcome'>You LOST</font><p>You bet: 2</strong></font> &nbsp; &nbsp; &nbsp; &nbsp; &nbsp; &nbsp;<font class='negOutcome'>You receive: <strong>0</strong></font></div>","null","13","Primo Pineapple","Fruit/pineapple.png","Lost","0.2,0.8","8","0.2","182","38","",""
"html-keyboard-response","124","136039","0.0-11.0-1.38","602b3ed14ae791260d6d12c5","bdp_rwlrn","Mon Mar 13 2023 14:14:58 GMT-0400 (Eastern Daylight Time)","330088","Untrustworthy,Trustworthy","","474","","","","decision","","<div class='trialDiv'><img src='Fruit/watermelon.png'><br><font class='baseline'><strong>Watermelon Win$</strong><p>Choose number of points to bet.</font><div class='respPicDiv'><img src='img/responseButtonOffersNo0L.png' class='respPic'></div></div>","2","13","Watermelon Win$","Fruit/watermelon.png","Lost","0.65,0.2","8","0.65","187","39","",""
"html-keyboard-response","125","136292","0.0-11.0-2.38","602b3ed14ae791260d6d12c5","bdp_rwlrn","Mon Mar 13 2023 14:14:58 GMT-0400 (Eastern Daylight Time)","330088","Untrustworthy,Trustworthy","","null","","","","decisionFB","","<div class='trialDiv'><img src='Fruit/watermelon.png'><br><font class='baseline'><strong>Watermelon Win$</strong><p>Choose number of points to bet.</font><div class='respPicDiv'><img src='img/responseButtonOffersNo0L2.png' class='respPic'></div></div>","null","13","Watermelon Win$","Fruit/watermelon.png","Lost","0.65,0.2","8","0.65","185","39","",""
"html-keyboard-response","126","137296","0.0-11.0-3.38","602b3ed14ae791260d6d12c5","bdp_rwlrn","Mon Mar 13 2023 14:14:58 GMT-0400 (Eastern Daylight Time)","330088","Untrustworthy,Trustworthy","","null","","","","feedback","","<div class='respPicDiv'><img src='img/responseButtonOffersNo0_wht.png' class='respPic'></div><div class='trialDiv'><img src='Fruit/watermelon.png'><br><font class='baseline'><strong>Watermelon Win$</strong><p><strong><font class='negOutcome'>You LOST</font><p>You bet: 2</strong></font> &nbsp; &nbsp; &nbsp; &nbsp; &nbsp; &nbsp;<font class='negOutcome'>You receive: <strong>0</strong></font></div>","null","13","Watermelon Win$","Fruit/watermelon.png","Lost","0.65,0.2","8","0.65","185","39","",""
"html-keyboard-response","127","137546","0.0-11.0-1.39","602b3ed14ae791260d6d12c5","bdp_rwlrn","Mon Mar 13 2023 14:14:58 GMT-0400 (Eastern Daylight Time)","330088","Untrustworthy,Trustworthy","","247","","","","decision","","<div class='trialDiv'><img src='Fruit/Kiwi.png'><br><font class='baseline'><strong>Kiwi Kash</strong><p>Choose number of points to bet.</font><div class='respPicDiv'><img src='img/responseButtonOffersNo0L.png' class='respPic'></div></div>","1","14","Kiwi Kash","Fruit/Kiwi.png","Won","0.2,0.65","12","0.2","190","40","",""
"html-keyboard-response","128","137800","0.0-11.0-2.39","602b3ed14ae791260d6d12c5","bdp_rwlrn","Mon Mar 13 2023 14:14:58 GMT-0400 (Eastern Daylight Time)","330088","Untrustworthy,Trustworthy","","null","","","","decisionFB","","<div class='trialDiv'><img src='Fruit/Kiwi.png'><br><font class='baseline'><strong>Kiwi Kash</strong><p>Choose number of points to bet.</font><div class='respPicDiv'><img src='img/responseButtonOffersNo0L1.png' class='respPic'></div></div>","null","14","Kiwi Kash","Fruit/Kiwi.png","Won","0.2,0.65","12","0.2","189","40","",""
"html-keyboard-response","129","138807","0.0-11.0-3.39","602b3ed14ae791260d6d12c5","bdp_rwlrn","Mon Mar 13 2023 14:14:58 GMT-0400 (Eastern Daylight Time)","330088","Untrustworthy,Trustworthy","","null","","","","feedback","","<div class='respPicDiv'><img src='img/responseButtonOffersNo0_wht.png' class='respPic'></div><div class='trialDiv'><img src='Fruit/Kiwi.png'><br><font class='baseline'><strong>Kiwi Kash</strong><p><strong><font class='posOutcome'>You WON</font><p>You bet: 1</strong></font> &nbsp; &nbsp; &nbsp; &nbsp; &nbsp; &nbsp;<font class='posOutcome'>you receive: <strong>2</strong></font></div>","null","14","Kiwi Kash","Fruit/Kiwi.png","Won","0.2,0.65","12","0.2","191","40","",""
"html-keyboard-response","130","139471","0.0-11.0-1.40","602b3ed14ae791260d6d12c5","bdp_rwlrn","Mon Mar 13 2023 14:14:58 GMT-0400 (Eastern Daylight Time)","330088","Untrustworthy,Trustworthy","","662","","","","decision","","<div class='trialDiv'><img src='Fruit/watermelon.png'><br><font class='baseline'><strong>Watermelon Win$</strong><p>Choose number of points to bet.</font><div class='respPicDiv'><img src='img/responseButtonOffersNo0L.png' class='respPic'></div></div>","1","14","Watermelon Win$","Fruit/watermelon.png","Lost","0.65,0.2","8","0.65","196","41","",""
"html-keyboard-response","131","139724","0.0-11.0-2.40","602b3ed14ae791260d6d12c5","bdp_rwlrn","Mon Mar 13 2023 14:14:58 GMT-0400 (Eastern Daylight Time)","330088","Untrustworthy,Trustworthy","","null","","","","decisionFB","","<div class='trialDiv'><img src='Fruit/watermelon.png'><br><font class='baseline'><strong>Watermelon Win$</strong><p>Choose number of points to bet.</font><div class='respPicDiv'><img src='img/responseButtonOffersNo0L1.png' class='respPic'></div></div>","null","14","Watermelon Win$","Fruit/watermelon.png","Lost","0.65,0.2","8","0.65","195","41","",""
"html-keyboard-response","132","140727","0.0-11.0-3.40","602b3ed14ae791260d6d12c5","bdp_rwlrn","Mon Mar 13 2023 14:14:58 GMT-0400 (Eastern Daylight Time)","330088","Untrustworthy,Trustworthy","","null","","","","feedback","","<div class='respPicDiv'><img src='img/responseButtonOffersNo0_wht.png' class='respPic'></div><div class='trialDiv'><img src='Fruit/watermelon.png'><br><font class='baseline'><strong>Watermelon Win$</strong><p><strong><font class='negOutcome'>You LOST</font><p>You bet: 1</strong></font> &nbsp; &nbsp; &nbsp; &nbsp; &nbsp; &nbsp;<font class='negOutcome'>You receive: <strong>0</strong></font></div>","null","14","Watermelon Win$","Fruit/watermelon.png","Lost","0.65,0.2","8","0.65","195","41","",""
"html-keyboard-response","133","141098","0.0-11.0-1.41","602b3ed14ae791260d6d12c5","bdp_rwlrn","Mon Mar 13 2023 14:14:58 GMT-0400 (Eastern Daylight Time)","330088","Untrustworthy,Trustworthy","","369","","","","decision","","<div class='trialDiv'><img src='Fruit/pineapple.png'><br><font class='baseline'><strong>Primo Pineapple</strong><p>Choose number of points to bet.</font><div class='respPicDiv'><img src='img/responseButtonOffersNo0L.png' class='respPic'></div></div>","1","14","Primo Pineapple","Fruit/pineapple.png","Lost","0.2,0.8","8","0.2","200","42","",""
"html-keyboard-response","134","141352","0.0-11.0-2.41","602b3ed14ae791260d6d12c5","bdp_rwlrn","Mon Mar 13 2023 14:14:58 GMT-0400 (Eastern Daylight Time)","330088","Untrustworthy,Trustworthy","","null","","","","decisionFB","","<div class='trialDiv'><img src='Fruit/pineapple.png'><br><font class='baseline'><strong>Primo Pineapple</strong><p>Choose number of points to bet.</font><div class='respPicDiv'><img src='img/responseButtonOffersNo0L1.png' class='respPic'></div></div>","null","14","Primo Pineapple","Fruit/pineapple.png","Lost","0.2,0.8","8","0.2","199","42","",""
"html-keyboard-response","135","142356","0.0-11.0-3.41","602b3ed14ae791260d6d12c5","bdp_rwlrn","Mon Mar 13 2023 14:14:58 GMT-0400 (Eastern Daylight Time)","330088","Untrustworthy,Trustworthy","","null","","","","feedback","","<div class='respPicDiv'><img src='img/responseButtonOffersNo0_wht.png' class='respPic'></div><div class='trialDiv'><img src='Fruit/pineapple.png'><br><font class='baseline'><strong>Primo Pineapple</strong><p><strong><font class='negOutcome'>You LOST</font><p>You bet: 1</strong></font> &nbsp; &nbsp; &nbsp; &nbsp; &nbsp; &nbsp;<font class='negOutcome'>You receive: <strong>0</strong></font></div>","null","14","Primo Pineapple","Fruit/pineapple.png","Lost","0.2,0.8","8","0.2","199","42","",""
"html-keyboard-response","136","142824","0.0-11.0-1.42","602b3ed14ae791260d6d12c5","bdp_rwlrn","Mon Mar 13 2023 14:14:58 GMT-0400 (Eastern Daylight Time)","330088","Untrustworthy,Trustworthy","","465","","","","decision","","<div class='trialDiv'><img src='Fruit/watermelon.png'><br><font class='baseline'><strong>Watermelon Win$</strong><p>Choose number of points to bet.</font><div class='respPicDiv'><img src='img/responseButtonOffersNo0L.png' class='respPic'></div></div>","1","15","Watermelon Win$","Fruit/watermelon.png","Won","0.65,0.2","8","0.65","204","43","",""
"html-keyboard-response","137","143077","0.0-11.0-2.42","602b3ed14ae791260d6d12c5","bdp_rwlrn","Mon Mar 13 2023 14:14:58 GMT-0400 (Eastern Daylight Time)","330088","Untrustworthy,Trustworthy","","null","","","","decisionFB","","<div class='trialDiv'><img src='Fruit/watermelon.png'><br><font class='baseline'><strong>Watermelon Win$</strong><p>Choose number of points to bet.</font><div class='respPicDiv'><img src='img/responseButtonOffersNo0L1.png' class='respPic'></div></div>","null","15","Watermelon Win$","Fruit/watermelon.png","Won","0.65,0.2","8","0.65","203","43","",""
"html-keyboard-response","138","144081","0.0-11.0-3.42","602b3ed14ae791260d6d12c5","bdp_rwlrn","Mon Mar 13 2023 14:14:58 GMT-0400 (Eastern Daylight Time)","330088","Untrustworthy,Trustworthy","","null","","","","feedback","","<div class='respPicDiv'><img src='img/responseButtonOffersNo0_wht.png' class='respPic'></div><div class='trialDiv'><img src='Fruit/watermelon.png'><br><font class='baseline'><strong>Watermelon Win$</strong><p><strong><font class='posOutcome'>You WON</font><p>You bet: 1</strong></font> &nbsp; &nbsp; &nbsp; &nbsp; &nbsp; &nbsp;<font class='posOutcome'>you receive: <strong>2</strong></font></div>","null","15","Watermelon Win$","Fruit/watermelon.png","Won","0.65,0.2","8","0.65","205","43","",""
"html-keyboard-response","139","144571","0.0-11.0-1.43","602b3ed14ae791260d6d12c5","bdp_rwlrn","Mon Mar 13 2023 14:14:58 GMT-0400 (Eastern Daylight Time)","330088","Untrustworthy,Trustworthy","","488","","","","decision","","<div class='trialDiv'><img src='Fruit/Kiwi.png'><br><font class='baseline'><strong>Kiwi Kash</strong><p>Choose number of points to bet.</font><div class='respPicDiv'><img src='img/responseButtonOffersNo0L.png' class='respPic'></div></div>","5","15","Kiwi Kash","Fruit/Kiwi.png","Won","0.2,0.65","12","0.2","210","44","",""
"html-keyboard-response","140","144825","0.0-11.0-2.43","602b3ed14ae791260d6d12c5","bdp_rwlrn","Mon Mar 13 2023 14:14:58 GMT-0400 (Eastern Daylight Time)","330088","Untrustworthy,Trustworthy","","null","","","","decisionFB","","<div class='trialDiv'><img src='Fruit/Kiwi.png'><br><font class='baseline'><strong>Kiwi Kash</strong><p>Choose number of points to bet.</font><div class='respPicDiv'><img src='img/responseButtonOffersNo0L5.png' class='respPic'></div></div>","null","15","Kiwi Kash","Fruit/Kiwi.png","Won","0.2,0.65","12","0.2","205","44","",""
"html-keyboard-response","141","145829","0.0-11.0-3.43","602b3ed14ae791260d6d12c5","bdp_rwlrn","Mon Mar 13 2023 14:14:58 GMT-0400 (Eastern Daylight Time)","330088","Untrustworthy,Trustworthy","","null","","","","feedback","","<div class='respPicDiv'><img src='img/responseButtonOffersNo0_wht.png' class='respPic'></div><div class='trialDiv'><img src='Fruit/Kiwi.png'><br><font class='baseline'><strong>Kiwi Kash</strong><p><strong><font class='posOutcome'>You WON</font><p>You bet: 5</strong></font> &nbsp; &nbsp; &nbsp; &nbsp; &nbsp; &nbsp;<font class='posOutcome'>you receive: <strong>10</strong></font></div>","null","15","Kiwi Kash","Fruit/Kiwi.png","Won","0.2,0.65","12","0.2","215","44","",""
"html-keyboard-response","142","146494","0.0-11.0-1.44","602b3ed14ae791260d6d12c5","bdp_rwlrn","Mon Mar 13 2023 14:14:58 GMT-0400 (Eastern Daylight Time)","330088","Untrustworthy,Trustworthy","","663","","","","decision","","<div class='trialDiv'><img src='Fruit/pineapple.png'><br><font class='baseline'><strong>Primo Pineapple</strong><p>Choose number of points to bet.</font><div class='respPicDiv'><img src='img/responseButtonOffersNo0L.png' class='respPic'></div></div>","1","15","Primo Pineapple","Fruit/pineapple.png","Won","0.2,0.8","8","0.2","220","45","",""
"html-keyboard-response","143","146748","0.0-11.0-2.44","602b3ed14ae791260d6d12c5","bdp_rwlrn","Mon Mar 13 2023 14:14:58 GMT-0400 (Eastern Daylight Time)","330088","Untrustworthy,Trustworthy","","null","","","","decisionFB","","<div class='trialDiv'><img src='Fruit/pineapple.png'><br><font class='baseline'><strong>Primo Pineapple</strong><p>Choose number of points to bet.</font><div class='respPicDiv'><img src='img/responseButtonOffersNo0L1.png' class='respPic'></div></div>","null","15","Primo Pineapple","Fruit/pineapple.png","Won","0.2,0.8","8","0.2","219","45","",""
"html-keyboard-response","144","147752","0.0-11.0-3.44","602b3ed14ae791260d6d12c5","bdp_rwlrn","Mon Mar 13 2023 14:14:58 GMT-0400 (Eastern Daylight Time)","330088","Untrustworthy,Trustworthy","","null","","","","feedback","","<div class='respPicDiv'><img src='img/responseButtonOffersNo0_wht.png' class='respPic'></div><div class='trialDiv'><img src='Fruit/pineapple.png'><br><font class='baseline'><strong>Primo Pineapple</strong><p><strong><font class='posOutcome'>You WON</font><p>You bet: 1</strong></font> &nbsp; &nbsp; &nbsp; &nbsp; &nbsp; &nbsp;<font class='posOutcome'>you receive: <strong>2</strong></font></div>","null","15","Primo Pineapple","Fruit/pineapple.png","Won","0.2,0.8","8","0.2","221","45","",""
"html-keyboard-response","145","148132","0.0-11.0-1.45","602b3ed14ae791260d6d12c5","bdp_rwlrn","Mon Mar 13 2023 14:14:58 GMT-0400 (Eastern Daylight Time)","330088","Untrustworthy,Trustworthy","","378","","","","decision","","<div class='trialDiv'><img src='Fruit/Kiwi.png'><br><font class='baseline'><strong>Kiwi Kash</strong><p>Choose number of points to bet.</font><div class='respPicDiv'><img src='img/responseButtonOffersNo0L.png' class='respPic'></div></div>","2","16","Kiwi Kash","Fruit/Kiwi.png","Won","0.2,0.65","12","0.2","226","46","",""
"html-keyboard-response","146","148386","0.0-11.0-2.45","602b3ed14ae791260d6d12c5","bdp_rwlrn","Mon Mar 13 2023 14:14:58 GMT-0400 (Eastern Daylight Time)","330088","Untrustworthy,Trustworthy","","null","","","","decisionFB","","<div class='trialDiv'><img src='Fruit/Kiwi.png'><br><font class='baseline'><strong>Kiwi Kash</strong><p>Choose number of points to bet.</font><div class='respPicDiv'><img src='img/responseButtonOffersNo0L2.png' class='respPic'></div></div>","null","16","Kiwi Kash","Fruit/Kiwi.png","Won","0.2,0.65","12","0.2","224","46","",""
"html-keyboard-response","147","149399","0.0-11.0-3.45","602b3ed14ae791260d6d12c5","bdp_rwlrn","Mon Mar 13 2023 14:14:58 GMT-0400 (Eastern Daylight Time)","330088","Untrustworthy,Trustworthy","","null","","","","feedback","","<div class='respPicDiv'><img src='img/responseButtonOffersNo0_wht.png' class='respPic'></div><div class='trialDiv'><img src='Fruit/Kiwi.png'><br><font class='baseline'><strong>Kiwi Kash</strong><p><strong><font class='posOutcome'>You WON</font><p>You bet: 2</strong></font> &nbsp; &nbsp; &nbsp; &nbsp; &nbsp; &nbsp;<font class='posOutcome'>you receive: <strong>4</strong></font></div>","null","16","Kiwi Kash","Fruit/Kiwi.png","Won","0.2,0.65","12","0.2","228","46","",""
"html-keyboard-response","148","149940","0.0-11.0-1.46","602b3ed14ae791260d6d12c5","bdp_rwlrn","Mon Mar 13 2023 14:14:58 GMT-0400 (Eastern Daylight Time)","330088","Untrustworthy,Trustworthy","","539","","","","decision","","<div class='trialDiv'><img src='Fruit/watermelon.png'><br><font class='baseline'><strong>Watermelon Win$</strong><p>Choose number of points to bet.</font><div class='respPicDiv'><img src='img/responseButtonOffersNo0L.png' class='respPic'></div></div>","2","16","Watermelon Win$","Fruit/watermelon.png","Lost","0.65,0.2","8","0.65","233","47","",""
"html-keyboard-response","149","150194","0.0-11.0-2.46","602b3ed14ae791260d6d12c5","bdp_rwlrn","Mon Mar 13 2023 14:14:58 GMT-0400 (Eastern Daylight Time)","330088","Untrustworthy,Trustworthy","","null","","","","decisionFB","","<div class='trialDiv'><img src='Fruit/watermelon.png'><br><font class='baseline'><strong>Watermelon Win$</strong><p>Choose number of points to bet.</font><div class='respPicDiv'><img src='img/responseButtonOffersNo0L2.png' class='respPic'></div></div>","null","16","Watermelon Win$","Fruit/watermelon.png","Lost","0.65,0.2","8","0.65","231","47","",""
"html-keyboard-response","150","151197","0.0-11.0-3.46","602b3ed14ae791260d6d12c5","bdp_rwlrn","Mon Mar 13 2023 14:14:58 GMT-0400 (Eastern Daylight Time)","330088","Untrustworthy,Trustworthy","","null","","","","feedback","","<div class='respPicDiv'><img src='img/responseButtonOffersNo0_wht.png' class='respPic'></div><div class='trialDiv'><img src='Fruit/watermelon.png'><br><font class='baseline'><strong>Watermelon Win$</strong><p><strong><font class='negOutcome'>You LOST</font><p>You bet: 2</strong></font> &nbsp; &nbsp; &nbsp; &nbsp; &nbsp; &nbsp;<font class='negOutcome'>You receive: <strong>0</strong></font></div>","null","16","Watermelon Win$","Fruit/watermelon.png","Lost","0.65,0.2","8","0.65","231","47","",""
"html-keyboard-response","151","151574","0.0-11.0-1.47","602b3ed14ae791260d6d12c5","bdp_rwlrn","Mon Mar 13 2023 14:14:58 GMT-0400 (Eastern Daylight Time)","330088","Untrustworthy,Trustworthy","","374","","","","decision","","<div class='trialDiv'><img src='Fruit/pineapple.png'><br><font class='baseline'><strong>Primo Pineapple</strong><p>Choose number of points to bet.</font><div class='respPicDiv'><img src='img/responseButtonOffersNo0L.png' class='respPic'></div></div>","1","16","Primo Pineapple","Fruit/pineapple.png","Won","0.2,0.8","8","0.2","236","48","",""
"html-keyboard-response","152","151827","0.0-11.0-2.47","602b3ed14ae791260d6d12c5","bdp_rwlrn","Mon Mar 13 2023 14:14:58 GMT-0400 (Eastern Daylight Time)","330088","Untrustworthy,Trustworthy","","null","","","","decisionFB","","<div class='trialDiv'><img src='Fruit/pineapple.png'><br><font class='baseline'><strong>Primo Pineapple</strong><p>Choose number of points to bet.</font><div class='respPicDiv'><img src='img/responseButtonOffersNo0L1.png' class='respPic'></div></div>","null","16","Primo Pineapple","Fruit/pineapple.png","Won","0.2,0.8","8","0.2","235","48","",""
"html-keyboard-response","153","152831","0.0-11.0-3.47","602b3ed14ae791260d6d12c5","bdp_rwlrn","Mon Mar 13 2023 14:14:58 GMT-0400 (Eastern Daylight Time)","330088","Untrustworthy,Trustworthy","","null","","","","feedback","","<div class='respPicDiv'><img src='img/responseButtonOffersNo0_wht.png' class='respPic'></div><div class='trialDiv'><img src='Fruit/pineapple.png'><br><font class='baseline'><strong>Primo Pineapple</strong><p><strong><font class='posOutcome'>You WON</font><p>You bet: 1</strong></font> &nbsp; &nbsp; &nbsp; &nbsp; &nbsp; &nbsp;<font class='posOutcome'>you receive: <strong>2</strong></font></div>","null","16","Primo Pineapple","Fruit/pineapple.png","Won","0.2,0.8","8","0.2","237","48","",""
"html-keyboard-response","154","153348","0.0-11.0-1.48","602b3ed14ae791260d6d12c5","bdp_rwlrn","Mon Mar 13 2023 14:14:58 GMT-0400 (Eastern Daylight Time)","330088","Untrustworthy,Trustworthy","","515","","","","decision","","<div class='trialDiv'><img src='Fruit/Kiwi.png'><br><font class='baseline'><strong>Kiwi Kash</strong><p>Choose number of points to bet.</font><div class='respPicDiv'><img src='img/responseButtonOffersNo0L.png' class='respPic'></div></div>","2","17","Kiwi Kash","Fruit/Kiwi.png","Won","0.2,0.65","12","0.2","242","49","",""
"html-keyboard-response","155","153602","0.0-11.0-2.48","602b3ed14ae791260d6d12c5","bdp_rwlrn","Mon Mar 13 2023 14:14:58 GMT-0400 (Eastern Daylight Time)","330088","Untrustworthy,Trustworthy","","null","","","","decisionFB","","<div class='trialDiv'><img src='Fruit/Kiwi.png'><br><font class='baseline'><strong>Kiwi Kash</strong><p>Choose number of points to bet.</font><div class='respPicDiv'><img src='img/responseButtonOffersNo0L2.png' class='respPic'></div></div>","null","17","Kiwi Kash","Fruit/Kiwi.png","Won","0.2,0.65","12","0.2","240","49","",""
"html-keyboard-response","156","154605","0.0-11.0-3.48","602b3ed14ae791260d6d12c5","bdp_rwlrn","Mon Mar 13 2023 14:14:58 GMT-0400 (Eastern Daylight Time)","330088","Untrustworthy,Trustworthy","","null","","","","feedback","","<div class='respPicDiv'><img src='img/responseButtonOffersNo0_wht.png' class='respPic'></div><div class='trialDiv'><img src='Fruit/Kiwi.png'><br><font class='baseline'><strong>Kiwi Kash</strong><p><strong><font class='posOutcome'>You WON</font><p>You bet: 2</strong></font> &nbsp; &nbsp; &nbsp; &nbsp; &nbsp; &nbsp;<font class='posOutcome'>you receive: <strong>4</strong></font></div>","null","17","Kiwi Kash","Fruit/Kiwi.png","Won","0.2,0.65","12","0.2","244","49","",""
"html-keyboard-response","157","154929","0.0-11.0-1.49","602b3ed14ae791260d6d12c5","bdp_rwlrn","Mon Mar 13 2023 14:14:58 GMT-0400 (Eastern Daylight Time)","330088","Untrustworthy,Trustworthy","","320","","","","decision","","<div class='trialDiv'><img src='Fruit/watermelon.png'><br><font class='baseline'><strong>Watermelon Win$</strong><p>Choose number of points to bet.</font><div class='respPicDiv'><img src='img/responseButtonOffersNo0L.png' class='respPic'></div></div>","1","17","Watermelon Win$","Fruit/watermelon.png","Lost","0.65,0.2","8","0.65","249","50","",""
"html-keyboard-response","158","155182","0.0-11.0-2.49","602b3ed14ae791260d6d12c5","bdp_rwlrn","Mon Mar 13 2023 14:14:58 GMT-0400 (Eastern Daylight Time)","330088","Untrustworthy,Trustworthy","","null","","","","decisionFB","","<div class='trialDiv'><img src='Fruit/watermelon.png'><br><font class='baseline'><strong>Watermelon Win$</strong><p>Choose number of points to bet.</font><div class='respPicDiv'><img src='img/responseButtonOffersNo0L1.png' class='respPic'></div></div>","null","17","Watermelon Win$","Fruit/watermelon.png","Lost","0.65,0.2","8","0.65","248","50","",""
"html-keyboard-response","159","156185","0.0-11.0-3.49","602b3ed14ae791260d6d12c5","bdp_rwlrn","Mon Mar 13 2023 14:14:58 GMT-0400 (Eastern Daylight Time)","330088","Untrustworthy,Trustworthy","","null","","","","feedback","","<div class='respPicDiv'><img src='img/responseButtonOffersNo0_wht.png' class='respPic'></div><div class='trialDiv'><img src='Fruit/watermelon.png'><br><font class='baseline'><strong>Watermelon Win$</strong><p><strong><font class='negOutcome'>You LOST</font><p>You bet: 1</strong></font> &nbsp; &nbsp; &nbsp; &nbsp; &nbsp; &nbsp;<font class='negOutcome'>You receive: <strong>0</strong></font></div>","null","17","Watermelon Win$","Fruit/watermelon.png","Lost","0.65,0.2","8","0.65","248","50","",""
"html-keyboard-response","160","156786","0.0-11.0-1.50","602b3ed14ae791260d6d12c5","bdp_rwlrn","Mon Mar 13 2023 14:14:58 GMT-0400 (Eastern Daylight Time)","330088","Untrustworthy,Trustworthy","","598","","","","decision","","<div class='trialDiv'><img src='Fruit/pineapple.png'><br><font class='baseline'><strong>Primo Pineapple</strong><p>Choose number of points to bet.</font><div class='respPicDiv'><img src='img/responseButtonOffersNo0L.png' class='respPic'></div></div>","3","17","Primo Pineapple","Fruit/pineapple.png","Lost","0.2,0.8","8","0.2","253","51","",""
"html-keyboard-response","161","157039","0.0-11.0-2.50","602b3ed14ae791260d6d12c5","bdp_rwlrn","Mon Mar 13 2023 14:14:58 GMT-0400 (Eastern Daylight Time)","330088","Untrustworthy,Trustworthy","","null","","","","decisionFB","","<div class='trialDiv'><img src='Fruit/pineapple.png'><br><font class='baseline'><strong>Primo Pineapple</strong><p>Choose number of points to bet.</font><div class='respPicDiv'><img src='img/responseButtonOffersNo0L3.png' class='respPic'></div></div>","null","17","Primo Pineapple","Fruit/pineapple.png","Lost","0.2,0.8","8","0.2","250","51","",""
"html-keyboard-response","162","158041","0.0-11.0-3.50","602b3ed14ae791260d6d12c5","bdp_rwlrn","Mon Mar 13 2023 14:14:58 GMT-0400 (Eastern Daylight Time)","330088","Untrustworthy,Trustworthy","","null","","","","feedback","","<div class='respPicDiv'><img src='img/responseButtonOffersNo0_wht.png' class='respPic'></div><div class='trialDiv'><img src='Fruit/pineapple.png'><br><font class='baseline'><strong>Primo Pineapple</strong><p><strong><font class='negOutcome'>You LOST</font><p>You bet: 3</strong></font> &nbsp; &nbsp; &nbsp; &nbsp; &nbsp; &nbsp;<font class='negOutcome'>You receive: <strong>0</strong></font></div>","null","17","Primo Pineapple","Fruit/pineapple.png","Lost","0.2,0.8","8","0.2","250","51","",""
