"event","trial","time","trialtype","subject_id","task","startTime","totalTime","labels","trial_type","trial_index","time_elapsed","internal_node_id","view_history","rt","success","stimulus","key_press","ltround","name","fileID","outcome","lottotype","lottoswpt","lottocurrpshare","point_total","round","faceID","face"
"focus","0","0","focusevent","62e19208352cd518d7b2f085","bdp_rwlrn","Tue Mar 14 2023 21:32:43 GMT-0400 (Eastern Daylight Time)","567797","Trustworthy,Untrustworthy","","","","","","","","","","","","","","","","","","","",""
"focus","0","0","focusevent","62e19208352cd518d7b2f085","bdp_rwlrn","Tue Mar 14 2023 21:32:43 GMT-0400 (Eastern Daylight Time)","567797","Trustworthy,Untrustworthy","","","","","","","","","","","","","","","","","","","",""
"","","","","62e19208352cd518d7b2f085","bdp_rwlrn","Tue Mar 14 2023 21:32:43 GMT-0400 (Eastern Daylight Time)","567797","Trustworthy,Untrustworthy","pavlovia","0","2","0.0-0.0","","","","","","","","","","","","","","","",""
"","","","","62e19208352cd518d7b2f085","bdp_rwlrn","Tue Mar 14 2023 21:32:43 GMT-0400 (Eastern Daylight Time)","567797","Trustworthy,Untrustworthy","instructions","1","11922","0.0-1.0","[{""page_index"":0,""viewing_time"":11919}]","11919","","","","","","","","","","","","","",""
"fullscreenenter","2","14810","fullscreenenter","62e19208352cd518d7b2f085","bdp_rwlrn","Tue Mar 14 2023 21:32:43 GMT-0400 (Eastern Daylight Time)","567797","Trustworthy,Untrustworthy","","","","","","","","","","","","","","","","","","","",""
"","","","","62e19208352cd518d7b2f085","bdp_rwlrn","Tue Mar 14 2023 21:32:43 GMT-0400 (Eastern Daylight Time)","567797","Trustworthy,Untrustworthy","fullscreen","2","15800","0.0-2.0","","","true","","","","","","","","","","","","",""
"","","","","62e19208352cd518d7b2f085","bdp_rwlrn","Tue Mar 14 2023 21:32:43 GMT-0400 (Eastern Daylight Time)","567797","Trustworthy,Untrustworthy","instructions","3","122905","0.0-4.0","[{""page_index"":0,""viewing_time"":29925},{""page_index"":1,""viewing_time"":24153},{""page_index"":2,""viewing_time"":8855},{""page_index"":3,""viewing_time"":6904},{""page_index"":4,""viewing_time"":34623},{""page_index"":5,""viewing_time"":2639}]","107100","","","","","","","","","","","","","",""
"","","","","62e19208352cd518d7b2f085","bdp_rwlrn","Tue Mar 14 2023 21:32:43 GMT-0400 (Eastern Daylight Time)","567797","Trustworthy,Untrustworthy","html-keyboard-response","4","127913","0.0-5.0","","5006","","<div class='header' style='text-align:left; position: absolute; top: 5%; left: 5%;'><small>Task 1 of 5</small></div><div class='instruxDiv'><p><strong>1) What is the maximum number of points you can choose to bet on a lottery?</strong></p><p>a) 0</p><p>b) 1</p><p>c) 5</p>","C","","","","","","","","","","",""
"","","","","62e19208352cd518d7b2f085","bdp_rwlrn","Tue Mar 14 2023 21:32:43 GMT-0400 (Eastern Daylight Time)","567797","Trustworthy,Untrustworthy","html-keyboard-response","5","129705","0.0-6.0","","1686","","<div class='header' style='text-align:left; position: absolute; top: 5%; left: 5%;'><small>Task 1 of 5</small></div><div class='instruxDiv'><p><strong>1) What is the maximum number of points you can choose to bet on a lottery?</strong></p><p>a) 1</p><p>b) 1</p><p style='color:#00FF00'>c) 5</p><h3 style='color:#00FF00'>Correct!</h3><h3 class='center-content'>The correct response is c).</h3><h3 class='center-content'>The maximum number of points you can choose to bet on a lottery is 5 points.</h3><p><em>Press SPACEBAR to continue</em></p></div>"," ","","","","","","","","","","",""
"","","","","62e19208352cd518d7b2f085","bdp_rwlrn","Tue Mar 14 2023 21:32:43 GMT-0400 (Eastern Daylight Time)","567797","Trustworthy,Untrustworthy","html-keyboard-response","6","139818","0.0-7.0","","10008","","<div class='header' style='text-align:left; position: absolute; top: 5%; left: 5%;'><small>Task 1 of 5</small></div><div class='instruxDiv'><p><strong>2) How many points can you win each round?</strong></p><p>a) 10 points</p><p>b) Double what you bet</p><p>c) Quadruple what you bet</p>","B","","","","","","","","","","",""
"","","","","62e19208352cd518d7b2f085","bdp_rwlrn","Tue Mar 14 2023 21:32:43 GMT-0400 (Eastern Daylight Time)","567797","Trustworthy,Untrustworthy","html-keyboard-response","7","140609","0.0-8.0","","685","","<div class='header' style='text-align:left; position: absolute; top: 5%; left: 5%;'><small>Task 1 of 5</small></div><div class='instruxDiv'><p><strong>2) How many points can you win each round?</strong></p><p>a) 10 points</p><p style='color:#00FF00'>b) Double what you bet</p><p>c) Quadruple what you bet</p><h3 style='color:#00FF00'>Correct!</h3><h3 class='center-content'>The correct response is b).</h3><h3 class='center-content'>You can win double the amount of points you bet.</h3><p><em>Press SPACEBAR to continue</em></p></div>"," ","","","","","","","","","","",""
"","","","","62e19208352cd518d7b2f085","bdp_rwlrn","Tue Mar 14 2023 21:32:43 GMT-0400 (Eastern Daylight Time)","567797","Trustworthy,Untrustworthy","html-keyboard-response","8","145724","0.0-9.0","","null","","<div class='header' style='text-align:left; position: absolute; top: 5%; left: 5%;'><small>Task 1 of 5</small></div><div class='instruxDiv'><p>Thank you for completing the quiz<p>These are the actual lotteries you will be playing in the next block:<p><div class='tc' align='center'><img class='introPic' src='Fruit/lime.png'><br><strong>Limin' Large</strong></div><div class='bl' align='center'><img class='introPic' src='Fruit/papayas.png'><br><strong>Papaya Payday</strong></div><div class='br' align='center'><img class='introPic' src='Fruit/mango.png'><br><strong>Mega Mangos</strong></div></div><p>Across <strong>66 rounds</strong> you will play each lottery <strong>22 times</strong> (in random order).<p style='align:center; color:white'><font <em>Press SPACEBAR to continue</em></p>","null","","","","","","","","","","",""
"","","","","62e19208352cd518d7b2f085","bdp_rwlrn","Tue Mar 14 2023 21:32:43 GMT-0400 (Eastern Daylight Time)","567797","Trustworthy,Untrustworthy","instructions","9","207913","0.0-10.0","[{""page_index"":0,""viewing_time"":21444},{""page_index"":1,""viewing_time"":40744}]","62188","","","","","","","","","","","","","",""
"","","","decision","62e19208352cd518d7b2f085","bdp_rwlrn","Tue Mar 14 2023 21:32:43 GMT-0400 (Eastern Daylight Time)","567797","Trustworthy,Untrustworthy","html-keyboard-response","10","208913","0.0-11.0-1.0","","891","","<div class='trialDiv'><img src='Fruit/papayas.png'><br><font class='baseline'><strong>Papaya Payday</strong><p>Choose number of points to bet.</font><div class='respPicDiv'><img src='img/responseButtonOffersNo0L.png' class='respPic'></div></div>","1","1","Papaya Payday","Fruit/papayas.png","Lost","0.2,0.8","14","0.2","5","1","",""
"","","","decisionFB","62e19208352cd518d7b2f085","bdp_rwlrn","Tue Mar 14 2023 21:32:43 GMT-0400 (Eastern Daylight Time)","567797","Trustworthy,Untrustworthy","html-keyboard-response","11","209172","0.0-11.0-2.0","","null","","<div class='trialDiv'><img src='Fruit/papayas.png'><br><font class='baseline'><strong>Papaya Payday</strong><p>Choose number of points to bet.</font><div class='respPicDiv'><img src='img/responseButtonOffersNo0L1.png' class='respPic'></div></div>","null","1","Papaya Payday","Fruit/papayas.png","Lost","0.2,0.8","14","0.2","4","1","",""
"","","","feedback","62e19208352cd518d7b2f085","bdp_rwlrn","Tue Mar 14 2023 21:32:43 GMT-0400 (Eastern Daylight Time)","567797","Trustworthy,Untrustworthy","html-keyboard-response","12","210180","0.0-11.0-3.0","","null","","<div class='respPicDiv'><img src='img/responseButtonOffersNo0_wht.png' class='respPic'></div><div class='trialDiv'><img src='Fruit/papayas.png'><br><font class='baseline'><strong>Papaya Payday</strong><p><strong><font class='negOutcome'>You LOST</font><p>You bet: 1</strong></font> &nbsp; &nbsp; &nbsp; &nbsp; &nbsp; &nbsp;<font class='negOutcome'>You receive: <strong>0</strong></font></div>","null","1","Papaya Payday","Fruit/papayas.png","Lost","0.2,0.8","14","0.2","4","1","",""
"","","","decision","62e19208352cd518d7b2f085","bdp_rwlrn","Tue Mar 14 2023 21:32:43 GMT-0400 (Eastern Daylight Time)","567797","Trustworthy,Untrustworthy","html-keyboard-response","13","211040","0.0-11.0-1.1","","859","","<div class='trialDiv'><img src='Fruit/mango.png'><br><font class='baseline'><strong>Mega Mangos</strong><p>Choose number of points to bet.</font><div class='respPicDiv'><img src='img/responseButtonOffersNo0L.png' class='respPic'></div></div>","1","1","Mega Mangos","Fruit/mango.png","Won","0.65,0.2","11","0.65","9","2","",""
"","","","decisionFB","62e19208352cd518d7b2f085","bdp_rwlrn","Tue Mar 14 2023 21:32:43 GMT-0400 (Eastern Daylight Time)","567797","Trustworthy,Untrustworthy","html-keyboard-response","14","211294","0.0-11.0-2.1","","null","","<div class='trialDiv'><img src='Fruit/mango.png'><br><font class='baseline'><strong>Mega Mangos</strong><p>Choose number of points to bet.</font><div class='respPicDiv'><img src='img/responseButtonOffersNo0L1.png' class='respPic'></div></div>","null","1","Mega Mangos","Fruit/mango.png","Won","0.65,0.2","11","0.65","8","2","",""
"","","","feedback","62e19208352cd518d7b2f085","bdp_rwlrn","Tue Mar 14 2023 21:32:43 GMT-0400 (Eastern Daylight Time)","567797","Trustworthy,Untrustworthy","html-keyboard-response","15","212300","0.0-11.0-3.1","","null","","<div class='respPicDiv'><img src='img/responseButtonOffersNo0_wht.png' class='respPic'></div><div class='trialDiv'><img src='Fruit/mango.png'><br><font class='baseline'><strong>Mega Mangos</strong><p><strong><font class='posOutcome'>You WON</font><p>You bet: 1</strong></font> &nbsp; &nbsp; &nbsp; &nbsp; &nbsp; &nbsp;<font class='posOutcome'>you receive: <strong>2</strong></font></div>","null","1","Mega Mangos","Fruit/mango.png","Won","0.65,0.2","11","0.65","10","2","",""
"","","","decision","62e19208352cd518d7b2f085","bdp_rwlrn","Tue Mar 14 2023 21:32:43 GMT-0400 (Eastern Daylight Time)","567797","Trustworthy,Untrustworthy","html-keyboard-response","16","213008","0.0-11.0-1.2","","707","","<div class='trialDiv'><img src='Fruit/lime.png'><br><font class='baseline'><strong>Limin' Large</strong><p>Choose number of points to bet.</font><div class='respPicDiv'><img src='img/responseButtonOffersNo0L.png' class='respPic'></div></div>","1","1","Limin' Large","Fruit/lime.png","Lost","0.2,0.65","10","0.2","15","3","",""
"","","","decisionFB","62e19208352cd518d7b2f085","bdp_rwlrn","Tue Mar 14 2023 21:32:43 GMT-0400 (Eastern Daylight Time)","567797","Trustworthy,Untrustworthy","html-keyboard-response","17","213260","0.0-11.0-2.2","","null","","<div class='trialDiv'><img src='Fruit/lime.png'><br><font class='baseline'><strong>Limin' Large</strong><p>Choose number of points to bet.</font><div class='respPicDiv'><img src='img/responseButtonOffersNo0L1.png' class='respPic'></div></div>","null","1","Limin' Large","Fruit/lime.png","Lost","0.2,0.65","10","0.2","14","3","",""
"","","","feedback","62e19208352cd518d7b2f085","bdp_rwlrn","Tue Mar 14 2023 21:32:43 GMT-0400 (Eastern Daylight Time)","567797","Trustworthy,Untrustworthy","html-keyboard-response","18","214268","0.0-11.0-3.2","","null","","<div class='respPicDiv'><img src='img/responseButtonOffersNo0_wht.png' class='respPic'></div><div class='trialDiv'><img src='Fruit/lime.png'><br><font class='baseline'><strong>Limin' Large</strong><p><strong><font class='negOutcome'>You LOST</font><p>You bet: 1</strong></font> &nbsp; &nbsp; &nbsp; &nbsp; &nbsp; &nbsp;<font class='negOutcome'>You receive: <strong>0</strong></font></div>","null","1","Limin' Large","Fruit/lime.png","Lost","0.2,0.65","10","0.2","14","3","",""
"","","","decision","62e19208352cd518d7b2f085","bdp_rwlrn","Tue Mar 14 2023 21:32:43 GMT-0400 (Eastern Daylight Time)","567797","Trustworthy,Untrustworthy","html-keyboard-response","19","216152","0.0-11.0-1.3","","1883","","<div class='trialDiv'><img src='Fruit/papayas.png'><br><font class='baseline'><strong>Papaya Payday</strong><p>Choose number of points to bet.</font><div class='respPicDiv'><img src='img/responseButtonOffersNo0L.png' class='respPic'></div></div>","1","2","Papaya Payday","Fruit/papayas.png","Lost","0.2,0.8","14","0.2","19","4","",""
"","","","decisionFB","62e19208352cd518d7b2f085","bdp_rwlrn","Tue Mar 14 2023 21:32:43 GMT-0400 (Eastern Daylight Time)","567797","Trustworthy,Untrustworthy","html-keyboard-response","20","216404","0.0-11.0-2.3","","null","","<div class='trialDiv'><img src='Fruit/papayas.png'><br><font class='baseline'><strong>Papaya Payday</strong><p>Choose number of points to bet.</font><div class='respPicDiv'><img src='img/responseButtonOffersNo0L1.png' class='respPic'></div></div>","null","2","Papaya Payday","Fruit/papayas.png","Lost","0.2,0.8","14","0.2","18","4","",""
"","","","feedback","62e19208352cd518d7b2f085","bdp_rwlrn","Tue Mar 14 2023 21:32:43 GMT-0400 (Eastern Daylight Time)","567797","Trustworthy,Untrustworthy","html-keyboard-response","21","217412","0.0-11.0-3.3","","null","","<div class='respPicDiv'><img src='img/responseButtonOffersNo0_wht.png' class='respPic'></div><div class='trialDiv'><img src='Fruit/papayas.png'><br><font class='baseline'><strong>Papaya Payday</strong><p><strong><font class='negOutcome'>You LOST</font><p>You bet: 1</strong></font> &nbsp; &nbsp; &nbsp; &nbsp; &nbsp; &nbsp;<font class='negOutcome'>You receive: <strong>0</strong></font></div>","null","2","Papaya Payday","Fruit/papayas.png","Lost","0.2,0.8","14","0.2","18","4","",""
"","","","decision","62e19208352cd518d7b2f085","bdp_rwlrn","Tue Mar 14 2023 21:32:43 GMT-0400 (Eastern Daylight Time)","567797","Trustworthy,Untrustworthy","html-keyboard-response","22","219825","0.0-11.0-1.4","","2411","","<div class='trialDiv'><img src='Fruit/lime.png'><br><font class='baseline'><strong>Limin' Large</strong><p>Choose number of points to bet.</font><div class='respPicDiv'><img src='img/responseButtonOffersNo0L.png' class='respPic'></div></div>","1","2","Limin' Large","Fruit/lime.png","Lost","0.2,0.65","10","0.2","23","5","",""
"","","","decisionFB","62e19208352cd518d7b2f085","bdp_rwlrn","Tue Mar 14 2023 21:32:43 GMT-0400 (Eastern Daylight Time)","567797","Trustworthy,Untrustworthy","html-keyboard-response","23","220084","0.0-11.0-2.4","","null","","<div class='trialDiv'><img src='Fruit/lime.png'><br><font class='baseline'><strong>Limin' Large</strong><p>Choose number of points to bet.</font><div class='respPicDiv'><img src='img/responseButtonOffersNo0L1.png' class='respPic'></div></div>","null","2","Limin' Large","Fruit/lime.png","Lost","0.2,0.65","10","0.2","22","5","",""
"","","","feedback","62e19208352cd518d7b2f085","bdp_rwlrn","Tue Mar 14 2023 21:32:43 GMT-0400 (Eastern Daylight Time)","567797","Trustworthy,Untrustworthy","html-keyboard-response","24","221092","0.0-11.0-3.4","","null","","<div class='respPicDiv'><img src='img/responseButtonOffersNo0_wht.png' class='respPic'></div><div class='trialDiv'><img src='Fruit/lime.png'><br><font class='baseline'><strong>Limin' Large</strong><p><strong><font class='negOutcome'>You LOST</font><p>You bet: 1</strong></font> &nbsp; &nbsp; &nbsp; &nbsp; &nbsp; &nbsp;<font class='negOutcome'>You receive: <strong>0</strong></font></div>","null","2","Limin' Large","Fruit/lime.png","Lost","0.2,0.65","10","0.2","22","5","",""
"","","","decision","62e19208352cd518d7b2f085","bdp_rwlrn","Tue Mar 14 2023 21:32:43 GMT-0400 (Eastern Daylight Time)","567797","Trustworthy,Untrustworthy","html-keyboard-response","25","222520","0.0-11.0-1.5","","1427","","<div class='trialDiv'><img src='Fruit/mango.png'><br><font class='baseline'><strong>Mega Mangos</strong><p>Choose number of points to bet.</font><div class='respPicDiv'><img src='img/responseButtonOffersNo0L.png' class='respPic'></div></div>","5","2","Mega Mangos","Fruit/mango.png","Won","0.65,0.2","11","0.65","27","6","",""
"","","","decisionFB","62e19208352cd518d7b2f085","bdp_rwlrn","Tue Mar 14 2023 21:32:43 GMT-0400 (Eastern Daylight Time)","567797","Trustworthy,Untrustworthy","html-keyboard-response","26","222772","0.0-11.0-2.5","","null","","<div class='trialDiv'><img src='Fruit/mango.png'><br><font class='baseline'><strong>Mega Mangos</strong><p>Choose number of points to bet.</font><div class='respPicDiv'><img src='img/responseButtonOffersNo0L5.png' class='respPic'></div></div>","null","2","Mega Mangos","Fruit/mango.png","Won","0.65,0.2","11","0.65","22","6","",""
"","","","feedback","62e19208352cd518d7b2f085","bdp_rwlrn","Tue Mar 14 2023 21:32:43 GMT-0400 (Eastern Daylight Time)","567797","Trustworthy,Untrustworthy","html-keyboard-response","27","223780","0.0-11.0-3.5","","null","","<div class='respPicDiv'><img src='img/responseButtonOffersNo0_wht.png' class='respPic'></div><div class='trialDiv'><img src='Fruit/mango.png'><br><font class='baseline'><strong>Mega Mangos</strong><p><strong><font class='posOutcome'>You WON</font><p>You bet: 5</strong></font> &nbsp; &nbsp; &nbsp; &nbsp; &nbsp; &nbsp;<font class='posOutcome'>you receive: <strong>10</strong></font></div>","null","2","Mega Mangos","Fruit/mango.png","Won","0.65,0.2","11","0.65","32","6","",""
"","","","decision","62e19208352cd518d7b2f085","bdp_rwlrn","Tue Mar 14 2023 21:32:43 GMT-0400 (Eastern Daylight Time)","567797","Trustworthy,Untrustworthy","html-keyboard-response","28","224400","0.0-11.0-1.6","","619","","<div class='trialDiv'><img src='Fruit/lime.png'><br><font class='baseline'><strong>Limin' Large</strong><p>Choose number of points to bet.</font><div class='respPicDiv'><img src='img/responseButtonOffersNo0L.png' class='respPic'></div></div>","1","3","Limin' Large","Fruit/lime.png","Lost","0.2,0.65","10","0.2","37","7","",""
"","","","decisionFB","62e19208352cd518d7b2f085","bdp_rwlrn","Tue Mar 14 2023 21:32:43 GMT-0400 (Eastern Daylight Time)","567797","Trustworthy,Untrustworthy","html-keyboard-response","29","224652","0.0-11.0-2.6","","null","","<div class='trialDiv'><img src='Fruit/lime.png'><br><font class='baseline'><strong>Limin' Large</strong><p>Choose number of points to bet.</font><div class='respPicDiv'><img src='img/responseButtonOffersNo0L1.png' class='respPic'></div></div>","null","3","Limin' Large","Fruit/lime.png","Lost","0.2,0.65","10","0.2","36","7","",""
"","","","feedback","62e19208352cd518d7b2f085","bdp_rwlrn","Tue Mar 14 2023 21:32:43 GMT-0400 (Eastern Daylight Time)","567797","Trustworthy,Untrustworthy","html-keyboard-response","30","225661","0.0-11.0-3.6","","null","","<div class='respPicDiv'><img src='img/responseButtonOffersNo0_wht.png' class='respPic'></div><div class='trialDiv'><img src='Fruit/lime.png'><br><font class='baseline'><strong>Limin' Large</strong><p><strong><font class='negOutcome'>You LOST</font><p>You bet: 1</strong></font> &nbsp; &nbsp; &nbsp; &nbsp; &nbsp; &nbsp;<font class='negOutcome'>You receive: <strong>0</strong></font></div>","null","3","Limin' Large","Fruit/lime.png","Lost","0.2,0.65","10","0.2","36","7","",""
"","","","decision","62e19208352cd518d7b2f085","bdp_rwlrn","Tue Mar 14 2023 21:32:43 GMT-0400 (Eastern Daylight Time)","567797","Trustworthy,Untrustworthy","html-keyboard-response","31","226296","0.0-11.0-1.7","","633","","<div class='trialDiv'><img src='Fruit/mango.png'><br><font class='baseline'><strong>Mega Mangos</strong><p>Choose number of points to bet.</font><div class='respPicDiv'><img src='img/responseButtonOffersNo0L.png' class='respPic'></div></div>","1","3","Mega Mangos","Fruit/mango.png","Won","0.65,0.2","11","0.65","41","8","",""
"","","","decisionFB","62e19208352cd518d7b2f085","bdp_rwlrn","Tue Mar 14 2023 21:32:43 GMT-0400 (Eastern Daylight Time)","567797","Trustworthy,Untrustworthy","html-keyboard-response","32","226549","0.0-11.0-2.7","","null","","<div class='trialDiv'><img src='Fruit/mango.png'><br><font class='baseline'><strong>Mega Mangos</strong><p>Choose number of points to bet.</font><div class='respPicDiv'><img src='img/responseButtonOffersNo0L1.png' class='respPic'></div></div>","null","3","Mega Mangos","Fruit/mango.png","Won","0.65,0.2","11","0.65","40","8","",""
"","","","feedback","62e19208352cd518d7b2f085","bdp_rwlrn","Tue Mar 14 2023 21:32:43 GMT-0400 (Eastern Daylight Time)","567797","Trustworthy,Untrustworthy","html-keyboard-response","33","227557","0.0-11.0-3.7","","null","","<div class='respPicDiv'><img src='img/responseButtonOffersNo0_wht.png' class='respPic'></div><div class='trialDiv'><img src='Fruit/mango.png'><br><font class='baseline'><strong>Mega Mangos</strong><p><strong><font class='posOutcome'>You WON</font><p>You bet: 1</strong></font> &nbsp; &nbsp; &nbsp; &nbsp; &nbsp; &nbsp;<font class='posOutcome'>you receive: <strong>2</strong></font></div>","null","3","Mega Mangos","Fruit/mango.png","Won","0.65,0.2","11","0.65","42","8","",""
"","","","decision","62e19208352cd518d7b2f085","bdp_rwlrn","Tue Mar 14 2023 21:32:43 GMT-0400 (Eastern Daylight Time)","567797","Trustworthy,Untrustworthy","html-keyboard-response","34","228168","0.0-11.0-1.8","","609","","<div class='trialDiv'><img src='Fruit/papayas.png'><br><font class='baseline'><strong>Papaya Payday</strong><p>Choose number of points to bet.</font><div class='respPicDiv'><img src='img/responseButtonOffersNo0L.png' class='respPic'></div></div>","1","3","Papaya Payday","Fruit/papayas.png","Lost","0.2,0.8","14","0.2","47","9","",""
"","","","decisionFB","62e19208352cd518d7b2f085","bdp_rwlrn","Tue Mar 14 2023 21:32:43 GMT-0400 (Eastern Daylight Time)","567797","Trustworthy,Untrustworthy","html-keyboard-response","35","228421","0.0-11.0-2.8","","null","","<div class='trialDiv'><img src='Fruit/papayas.png'><br><font class='baseline'><strong>Papaya Payday</strong><p>Choose number of points to bet.</font><div class='respPicDiv'><img src='img/responseButtonOffersNo0L1.png' class='respPic'></div></div>","null","3","Papaya Payday","Fruit/papayas.png","Lost","0.2,0.8","14","0.2","46","9","",""
"","","","feedback","62e19208352cd518d7b2f085","bdp_rwlrn","Tue Mar 14 2023 21:32:43 GMT-0400 (Eastern Daylight Time)","567797","Trustworthy,Untrustworthy","html-keyboard-response","36","229429","0.0-11.0-3.8","","null","","<div class='respPicDiv'><img src='img/responseButtonOffersNo0_wht.png' class='respPic'></div><div class='trialDiv'><img src='Fruit/papayas.png'><br><font class='baseline'><strong>Papaya Payday</strong><p><strong><font class='negOutcome'>You LOST</font><p>You bet: 1</strong></font> &nbsp; &nbsp; &nbsp; &nbsp; &nbsp; &nbsp;<font class='negOutcome'>You receive: <strong>0</strong></font></div>","null","3","Papaya Payday","Fruit/papayas.png","Lost","0.2,0.8","14","0.2","46","9","",""
"","","","decision","62e19208352cd518d7b2f085","bdp_rwlrn","Tue Mar 14 2023 21:32:43 GMT-0400 (Eastern Daylight Time)","567797","Trustworthy,Untrustworthy","html-keyboard-response","37","230224","0.0-11.0-1.9","","794","","<div class='trialDiv'><img src='Fruit/lime.png'><br><font class='baseline'><strong>Limin' Large</strong><p>Choose number of points to bet.</font><div class='respPicDiv'><img src='img/responseButtonOffersNo0L.png' class='respPic'></div></div>","1","4","Limin' Large","Fruit/lime.png","Lost","0.2,0.65","10","0.2","51","10","",""
"","","","decisionFB","62e19208352cd518d7b2f085","bdp_rwlrn","Tue Mar 14 2023 21:32:43 GMT-0400 (Eastern Daylight Time)","567797","Trustworthy,Untrustworthy","html-keyboard-response","38","230477","0.0-11.0-2.9","","null","","<div class='trialDiv'><img src='Fruit/lime.png'><br><font class='baseline'><strong>Limin' Large</strong><p>Choose number of points to bet.</font><div class='respPicDiv'><img src='img/responseButtonOffersNo0L1.png' class='respPic'></div></div>","null","4","Limin' Large","Fruit/lime.png","Lost","0.2,0.65","10","0.2","50","10","",""
"","","","feedback","62e19208352cd518d7b2f085","bdp_rwlrn","Tue Mar 14 2023 21:32:43 GMT-0400 (Eastern Daylight Time)","567797","Trustworthy,Untrustworthy","html-keyboard-response","39","231485","0.0-11.0-3.9","","null","","<div class='respPicDiv'><img src='img/responseButtonOffersNo0_wht.png' class='respPic'></div><div class='trialDiv'><img src='Fruit/lime.png'><br><font class='baseline'><strong>Limin' Large</strong><p><strong><font class='negOutcome'>You LOST</font><p>You bet: 1</strong></font> &nbsp; &nbsp; &nbsp; &nbsp; &nbsp; &nbsp;<font class='negOutcome'>You receive: <strong>0</strong></font></div>","null","4","Limin' Large","Fruit/lime.png","Lost","0.2,0.65","10","0.2","50","10","",""
"","","","decision","62e19208352cd518d7b2f085","bdp_rwlrn","Tue Mar 14 2023 21:32:43 GMT-0400 (Eastern Daylight Time)","567797","Trustworthy,Untrustworthy","html-keyboard-response","40","232271","0.0-11.0-1.10","","785","","<div class='trialDiv'><img src='Fruit/mango.png'><br><font class='baseline'><strong>Mega Mangos</strong><p>Choose number of points to bet.</font><div class='respPicDiv'><img src='img/responseButtonOffersNo0L.png' class='respPic'></div></div>","5","4","Mega Mangos","Fruit/mango.png","Won","0.65,0.2","11","0.65","55","11","",""
"","","","decisionFB","62e19208352cd518d7b2f085","bdp_rwlrn","Tue Mar 14 2023 21:32:43 GMT-0400 (Eastern Daylight Time)","567797","Trustworthy,Untrustworthy","html-keyboard-response","41","232524","0.0-11.0-2.10","","null","","<div class='trialDiv'><img src='Fruit/mango.png'><br><font class='baseline'><strong>Mega Mangos</strong><p>Choose number of points to bet.</font><div class='respPicDiv'><img src='img/responseButtonOffersNo0L5.png' class='respPic'></div></div>","null","4","Mega Mangos","Fruit/mango.png","Won","0.65,0.2","11","0.65","50","11","",""
"","","","feedback","62e19208352cd518d7b2f085","bdp_rwlrn","Tue Mar 14 2023 21:32:43 GMT-0400 (Eastern Daylight Time)","567797","Trustworthy,Untrustworthy","html-keyboard-response","42","233533","0.0-11.0-3.10","","null","","<div class='respPicDiv'><img src='img/responseButtonOffersNo0_wht.png' class='respPic'></div><div class='trialDiv'><img src='Fruit/mango.png'><br><font class='baseline'><strong>Mega Mangos</strong><p><strong><font class='posOutcome'>You WON</font><p>You bet: 5</strong></font> &nbsp; &nbsp; &nbsp; &nbsp; &nbsp; &nbsp;<font class='posOutcome'>you receive: <strong>10</strong></font></div>","null","4","Mega Mangos","Fruit/mango.png","Won","0.65,0.2","11","0.65","60","11","",""
"","","","decision","62e19208352cd518d7b2f085","bdp_rwlrn","Tue Mar 14 2023 21:32:43 GMT-0400 (Eastern Daylight Time)","567797","Trustworthy,Untrustworthy","html-keyboard-response","43","234136","0.0-11.0-1.11","","601","","<div class='trialDiv'><img src='Fruit/papayas.png'><br><font class='baseline'><strong>Papaya Payday</strong><p>Choose number of points to bet.</font><div class='respPicDiv'><img src='img/responseButtonOffersNo0L.png' class='respPic'></div></div>","1","4","Papaya Payday","Fruit/papayas.png","Lost","0.2,0.8","14","0.2","65","12","",""
"","","","decisionFB","62e19208352cd518d7b2f085","bdp_rwlrn","Tue Mar 14 2023 21:32:43 GMT-0400 (Eastern Daylight Time)","567797","Trustworthy,Untrustworthy","html-keyboard-response","44","234388","0.0-11.0-2.11","","null","","<div class='trialDiv'><img src='Fruit/papayas.png'><br><font class='baseline'><strong>Papaya Payday</strong><p>Choose number of points to bet.</font><div class='respPicDiv'><img src='img/responseButtonOffersNo0L1.png' class='respPic'></div></div>","null","4","Papaya Payday","Fruit/papayas.png","Lost","0.2,0.8","14","0.2","64","12","",""
"","","","feedback","62e19208352cd518d7b2f085","bdp_rwlrn","Tue Mar 14 2023 21:32:43 GMT-0400 (Eastern Daylight Time)","567797","Trustworthy,Untrustworthy","html-keyboard-response","45","235396","0.0-11.0-3.11","","null","","<div class='respPicDiv'><img src='img/responseButtonOffersNo0_wht.png' class='respPic'></div><div class='trialDiv'><img src='Fruit/papayas.png'><br><font class='baseline'><strong>Papaya Payday</strong><p><strong><font class='negOutcome'>You LOST</font><p>You bet: 1</strong></font> &nbsp; &nbsp; &nbsp; &nbsp; &nbsp; &nbsp;<font class='negOutcome'>You receive: <strong>0</strong></font></div>","null","4","Papaya Payday","Fruit/papayas.png","Lost","0.2,0.8","14","0.2","64","12","",""
"","","","decision","62e19208352cd518d7b2f085","bdp_rwlrn","Tue Mar 14 2023 21:32:43 GMT-0400 (Eastern Daylight Time)","567797","Trustworthy,Untrustworthy","html-keyboard-response","46","236056","0.0-11.0-1.12","","658","","<div class='trialDiv'><img src='Fruit/lime.png'><br><font class='baseline'><strong>Limin' Large</strong><p>Choose number of points to bet.</font><div class='respPicDiv'><img src='img/responseButtonOffersNo0L.png' class='respPic'></div></div>","1","5","Limin' Large","Fruit/lime.png","Won","0.2,0.65","10","0.2","69","13","",""
"","","","decisionFB","62e19208352cd518d7b2f085","bdp_rwlrn","Tue Mar 14 2023 21:32:43 GMT-0400 (Eastern Daylight Time)","567797","Trustworthy,Untrustworthy","html-keyboard-response","47","236315","0.0-11.0-2.12","","null","","<div class='trialDiv'><img src='Fruit/lime.png'><br><font class='baseline'><strong>Limin' Large</strong><p>Choose number of points to bet.</font><div class='respPicDiv'><img src='img/responseButtonOffersNo0L1.png' class='respPic'></div></div>","null","5","Limin' Large","Fruit/lime.png","Won","0.2,0.65","10","0.2","68","13","",""
"","","","feedback","62e19208352cd518d7b2f085","bdp_rwlrn","Tue Mar 14 2023 21:32:43 GMT-0400 (Eastern Daylight Time)","567797","Trustworthy,Untrustworthy","html-keyboard-response","48","237316","0.0-11.0-3.12","","null","","<div class='respPicDiv'><img src='img/responseButtonOffersNo0_wht.png' class='respPic'></div><div class='trialDiv'><img src='Fruit/lime.png'><br><font class='baseline'><strong>Limin' Large</strong><p><strong><font class='posOutcome'>You WON</font><p>You bet: 1</strong></font> &nbsp; &nbsp; &nbsp; &nbsp; &nbsp; &nbsp;<font class='posOutcome'>you receive: <strong>2</strong></font></div>","null","5","Limin' Large","Fruit/lime.png","Won","0.2,0.65","10","0.2","70","13","",""
"","","","decision","62e19208352cd518d7b2f085","bdp_rwlrn","Tue Mar 14 2023 21:32:43 GMT-0400 (Eastern Daylight Time)","567797","Trustworthy,Untrustworthy","html-keyboard-response","49","238527","0.0-11.0-1.13","","1210","","<div class='trialDiv'><img src='Fruit/papayas.png'><br><font class='baseline'><strong>Papaya Payday</strong><p>Choose number of points to bet.</font><div class='respPicDiv'><img src='img/responseButtonOffersNo0L.png' class='respPic'></div></div>","1","5","Papaya Payday","Fruit/papayas.png","Lost","0.2,0.8","14","0.2","75","14","",""
"","","","decisionFB","62e19208352cd518d7b2f085","bdp_rwlrn","Tue Mar 14 2023 21:32:43 GMT-0400 (Eastern Daylight Time)","567797","Trustworthy,Untrustworthy","html-keyboard-response","50","238780","0.0-11.0-2.13","","null","","<div class='trialDiv'><img src='Fruit/papayas.png'><br><font class='baseline'><strong>Papaya Payday</strong><p>Choose number of points to bet.</font><div class='respPicDiv'><img src='img/responseButtonOffersNo0L1.png' class='respPic'></div></div>","null","5","Papaya Payday","Fruit/papayas.png","Lost","0.2,0.8","14","0.2","74","14","",""
"","","","feedback","62e19208352cd518d7b2f085","bdp_rwlrn","Tue Mar 14 2023 21:32:43 GMT-0400 (Eastern Daylight Time)","567797","Trustworthy,Untrustworthy","html-keyboard-response","51","239788","0.0-11.0-3.13","","null","","<div class='respPicDiv'><img src='img/responseButtonOffersNo0_wht.png' class='respPic'></div><div class='trialDiv'><img src='Fruit/papayas.png'><br><font class='baseline'><strong>Papaya Payday</strong><p><strong><font class='negOutcome'>You LOST</font><p>You bet: 1</strong></font> &nbsp; &nbsp; &nbsp; &nbsp; &nbsp; &nbsp;<font class='negOutcome'>You receive: <strong>0</strong></font></div>","null","5","Papaya Payday","Fruit/papayas.png","Lost","0.2,0.8","14","0.2","74","14","",""
"","","","decision","62e19208352cd518d7b2f085","bdp_rwlrn","Tue Mar 14 2023 21:32:43 GMT-0400 (Eastern Daylight Time)","567797","Trustworthy,Untrustworthy","html-keyboard-response","52","240167","0.0-11.0-1.14","","378","","<div class='trialDiv'><img src='Fruit/mango.png'><br><font class='baseline'><strong>Mega Mangos</strong><p>Choose number of points to bet.</font><div class='respPicDiv'><img src='img/responseButtonOffersNo0L.png' class='respPic'></div></div>","5","5","Mega Mangos","Fruit/mango.png","Lost","0.65,0.2","11","0.65","79","15","",""
"","","","decisionFB","62e19208352cd518d7b2f085","bdp_rwlrn","Tue Mar 14 2023 21:32:43 GMT-0400 (Eastern Daylight Time)","567797","Trustworthy,Untrustworthy","html-keyboard-response","53","240420","0.0-11.0-2.14","","null","","<div class='trialDiv'><img src='Fruit/mango.png'><br><font class='baseline'><strong>Mega Mangos</strong><p>Choose number of points to bet.</font><div class='respPicDiv'><img src='img/responseButtonOffersNo0L5.png' class='respPic'></div></div>","null","5","Mega Mangos","Fruit/mango.png","Lost","0.65,0.2","11","0.65","74","15","",""
"","","","feedback","62e19208352cd518d7b2f085","bdp_rwlrn","Tue Mar 14 2023 21:32:43 GMT-0400 (Eastern Daylight Time)","567797","Trustworthy,Untrustworthy","html-keyboard-response","54","241428","0.0-11.0-3.14","","null","","<div class='respPicDiv'><img src='img/responseButtonOffersNo0_wht.png' class='respPic'></div><div class='trialDiv'><img src='Fruit/mango.png'><br><font class='baseline'><strong>Mega Mangos</strong><p><strong><font class='negOutcome'>You LOST</font><p>You bet: 5</strong></font> &nbsp; &nbsp; &nbsp; &nbsp; &nbsp; &nbsp;<font class='negOutcome'>You receive: <strong>0</strong></font></div>","null","5","Mega Mangos","Fruit/mango.png","Lost","0.65,0.2","11","0.65","74","15","",""
"","","","decision","62e19208352cd518d7b2f085","bdp_rwlrn","Tue Mar 14 2023 21:32:43 GMT-0400 (Eastern Daylight Time)","567797","Trustworthy,Untrustworthy","html-keyboard-response","55","242040","0.0-11.0-1.15","","611","","<div class='trialDiv'><img src='Fruit/lime.png'><br><font class='baseline'><strong>Limin' Large</strong><p>Choose number of points to bet.</font><div class='respPicDiv'><img src='img/responseButtonOffersNo0L.png' class='respPic'></div></div>","1","6","Limin' Large","Fruit/lime.png","Lost","0.2,0.65","10","0.2","79","16","",""
"","","","decisionFB","62e19208352cd518d7b2f085","bdp_rwlrn","Tue Mar 14 2023 21:32:43 GMT-0400 (Eastern Daylight Time)","567797","Trustworthy,Untrustworthy","html-keyboard-response","56","242311","0.0-11.0-2.15","","null","","<div class='trialDiv'><img src='Fruit/lime.png'><br><font class='baseline'><strong>Limin' Large</strong><p>Choose number of points to bet.</font><div class='respPicDiv'><img src='img/responseButtonOffersNo0L1.png' class='respPic'></div></div>","null","6","Limin' Large","Fruit/lime.png","Lost","0.2,0.65","10","0.2","78","16","",""
"","","","feedback","62e19208352cd518d7b2f085","bdp_rwlrn","Tue Mar 14 2023 21:32:43 GMT-0400 (Eastern Daylight Time)","567797","Trustworthy,Untrustworthy","html-keyboard-response","57","243316","0.0-11.0-3.15","","null","","<div class='respPicDiv'><img src='img/responseButtonOffersNo0_wht.png' class='respPic'></div><div class='trialDiv'><img src='Fruit/lime.png'><br><font class='baseline'><strong>Limin' Large</strong><p><strong><font class='negOutcome'>You LOST</font><p>You bet: 1</strong></font> &nbsp; &nbsp; &nbsp; &nbsp; &nbsp; &nbsp;<font class='negOutcome'>You receive: <strong>0</strong></font></div>","null","6","Limin' Large","Fruit/lime.png","Lost","0.2,0.65","10","0.2","78","16","",""
"","","","decision","62e19208352cd518d7b2f085","bdp_rwlrn","Tue Mar 14 2023 21:32:43 GMT-0400 (Eastern Daylight Time)","567797","Trustworthy,Untrustworthy","html-keyboard-response","58","243623","0.0-11.0-1.16","","306","","<div class='trialDiv'><img src='Fruit/mango.png'><br><font class='baseline'><strong>Mega Mangos</strong><p>Choose number of points to bet.</font><div class='respPicDiv'><img src='img/responseButtonOffersNo0L.png' class='respPic'></div></div>","1","6","Mega Mangos","Fruit/mango.png","Won","0.65,0.2","11","0.65","83","17","",""
"","","","decisionFB","62e19208352cd518d7b2f085","bdp_rwlrn","Tue Mar 14 2023 21:32:43 GMT-0400 (Eastern Daylight Time)","567797","Trustworthy,Untrustworthy","html-keyboard-response","59","243876","0.0-11.0-2.16","","null","","<div class='trialDiv'><img src='Fruit/mango.png'><br><font class='baseline'><strong>Mega Mangos</strong><p>Choose number of points to bet.</font><div class='respPicDiv'><img src='img/responseButtonOffersNo0L1.png' class='respPic'></div></div>","null","6","Mega Mangos","Fruit/mango.png","Won","0.65,0.2","11","0.65","82","17","",""
"","","","feedback","62e19208352cd518d7b2f085","bdp_rwlrn","Tue Mar 14 2023 21:32:43 GMT-0400 (Eastern Daylight Time)","567797","Trustworthy,Untrustworthy","html-keyboard-response","60","244884","0.0-11.0-3.16","","null","","<div class='respPicDiv'><img src='img/responseButtonOffersNo0_wht.png' class='respPic'></div><div class='trialDiv'><img src='Fruit/mango.png'><br><font class='baseline'><strong>Mega Mangos</strong><p><strong><font class='posOutcome'>You WON</font><p>You bet: 1</strong></font> &nbsp; &nbsp; &nbsp; &nbsp; &nbsp; &nbsp;<font class='posOutcome'>you receive: <strong>2</strong></font></div>","null","6","Mega Mangos","Fruit/mango.png","Won","0.65,0.2","11","0.65","84","17","",""
"","","","decision","62e19208352cd518d7b2f085","bdp_rwlrn","Tue Mar 14 2023 21:32:43 GMT-0400 (Eastern Daylight Time)","567797","Trustworthy,Untrustworthy","html-keyboard-response","61","245631","0.0-11.0-1.17","","746","","<div class='trialDiv'><img src='Fruit/papayas.png'><br><font class='baseline'><strong>Papaya Payday</strong><p>Choose number of points to bet.</font><div class='respPicDiv'><img src='img/responseButtonOffersNo0L.png' class='respPic'></div></div>","1","6","Papaya Payday","Fruit/papayas.png","Lost","0.2,0.8","14","0.2","89","18","",""
"","","","decisionFB","62e19208352cd518d7b2f085","bdp_rwlrn","Tue Mar 14 2023 21:32:43 GMT-0400 (Eastern Daylight Time)","567797","Trustworthy,Untrustworthy","html-keyboard-response","62","245884","0.0-11.0-2.17","","null","","<div class='trialDiv'><img src='Fruit/papayas.png'><br><font class='baseline'><strong>Papaya Payday</strong><p>Choose number of points to bet.</font><div class='respPicDiv'><img src='img/responseButtonOffersNo0L1.png' class='respPic'></div></div>","null","6","Papaya Payday","Fruit/papayas.png","Lost","0.2,0.8","14","0.2","88","18","",""
"","","","feedback","62e19208352cd518d7b2f085","bdp_rwlrn","Tue Mar 14 2023 21:32:43 GMT-0400 (Eastern Daylight Time)","567797","Trustworthy,Untrustworthy","html-keyboard-response","63","246893","0.0-11.0-3.17","","null","","<div class='respPicDiv'><img src='img/responseButtonOffersNo0_wht.png' class='respPic'></div><div class='trialDiv'><img src='Fruit/papayas.png'><br><font class='baseline'><strong>Papaya Payday</strong><p><strong><font class='negOutcome'>You LOST</font><p>You bet: 1</strong></font> &nbsp; &nbsp; &nbsp; &nbsp; &nbsp; &nbsp;<font class='negOutcome'>You receive: <strong>0</strong></font></div>","null","6","Papaya Payday","Fruit/papayas.png","Lost","0.2,0.8","14","0.2","88","18","",""
"","","","decision","62e19208352cd518d7b2f085","bdp_rwlrn","Tue Mar 14 2023 21:32:43 GMT-0400 (Eastern Daylight Time)","567797","Trustworthy,Untrustworthy","html-keyboard-response","64","247479","0.0-11.0-1.18","","586","","<div class='trialDiv'><img src='Fruit/mango.png'><br><font class='baseline'><strong>Mega Mangos</strong><p>Choose number of points to bet.</font><div class='respPicDiv'><img src='img/responseButtonOffersNo0L.png' class='respPic'></div></div>","5","7","Mega Mangos","Fruit/mango.png","Won","0.65,0.2","11","0.65","93","19","",""
"","","","decisionFB","62e19208352cd518d7b2f085","bdp_rwlrn","Tue Mar 14 2023 21:32:43 GMT-0400 (Eastern Daylight Time)","567797","Trustworthy,Untrustworthy","html-keyboard-response","65","247732","0.0-11.0-2.18","","null","","<div class='trialDiv'><img src='Fruit/mango.png'><br><font class='baseline'><strong>Mega Mangos</strong><p>Choose number of points to bet.</font><div class='respPicDiv'><img src='img/responseButtonOffersNo0L5.png' class='respPic'></div></div>","null","7","Mega Mangos","Fruit/mango.png","Won","0.65,0.2","11","0.65","88","19","",""
"","","","feedback","62e19208352cd518d7b2f085","bdp_rwlrn","Tue Mar 14 2023 21:32:43 GMT-0400 (Eastern Daylight Time)","567797","Trustworthy,Untrustworthy","html-keyboard-response","66","248740","0.0-11.0-3.18","","null","","<div class='respPicDiv'><img src='img/responseButtonOffersNo0_wht.png' class='respPic'></div><div class='trialDiv'><img src='Fruit/mango.png'><br><font class='baseline'><strong>Mega Mangos</strong><p><strong><font class='posOutcome'>You WON</font><p>You bet: 5</strong></font> &nbsp; &nbsp; &nbsp; &nbsp; &nbsp; &nbsp;<font class='posOutcome'>you receive: <strong>10</strong></font></div>","null","7","Mega Mangos","Fruit/mango.png","Won","0.65,0.2","11","0.65","98","19","",""
"","","","decision","62e19208352cd518d7b2f085","bdp_rwlrn","Tue Mar 14 2023 21:32:43 GMT-0400 (Eastern Daylight Time)","567797","Trustworthy,Untrustworthy","html-keyboard-response","67","249303","0.0-11.0-1.19","","562","","<div class='trialDiv'><img src='Fruit/papayas.png'><br><font class='baseline'><strong>Papaya Payday</strong><p>Choose number of points to bet.</font><div class='respPicDiv'><img src='img/responseButtonOffersNo0L.png' class='respPic'></div></div>","1","7","Papaya Payday","Fruit/papayas.png","Lost","0.2,0.8","14","0.2","103","20","",""
"","","","decisionFB","62e19208352cd518d7b2f085","bdp_rwlrn","Tue Mar 14 2023 21:32:43 GMT-0400 (Eastern Daylight Time)","567797","Trustworthy,Untrustworthy","html-keyboard-response","68","249556","0.0-11.0-2.19","","null","","<div class='trialDiv'><img src='Fruit/papayas.png'><br><font class='baseline'><strong>Papaya Payday</strong><p>Choose number of points to bet.</font><div class='respPicDiv'><img src='img/responseButtonOffersNo0L1.png' class='respPic'></div></div>","null","7","Papaya Payday","Fruit/papayas.png","Lost","0.2,0.8","14","0.2","102","20","",""
"","","","feedback","62e19208352cd518d7b2f085","bdp_rwlrn","Tue Mar 14 2023 21:32:43 GMT-0400 (Eastern Daylight Time)","567797","Trustworthy,Untrustworthy","html-keyboard-response","69","250564","0.0-11.0-3.19","","null","","<div class='respPicDiv'><img src='img/responseButtonOffersNo0_wht.png' class='respPic'></div><div class='trialDiv'><img src='Fruit/papayas.png'><br><font class='baseline'><strong>Papaya Payday</strong><p><strong><font class='negOutcome'>You LOST</font><p>You bet: 1</strong></font> &nbsp; &nbsp; &nbsp; &nbsp; &nbsp; &nbsp;<font class='negOutcome'>You receive: <strong>0</strong></font></div>","null","7","Papaya Payday","Fruit/papayas.png","Lost","0.2,0.8","14","0.2","102","20","",""
"","","","decision","62e19208352cd518d7b2f085","bdp_rwlrn","Tue Mar 14 2023 21:32:43 GMT-0400 (Eastern Daylight Time)","567797","Trustworthy,Untrustworthy","html-keyboard-response","70","251135","0.0-11.0-1.20","","570","","<div class='trialDiv'><img src='Fruit/lime.png'><br><font class='baseline'><strong>Limin' Large</strong><p>Choose number of points to bet.</font><div class='respPicDiv'><img src='img/responseButtonOffersNo0L.png' class='respPic'></div></div>","1","7","Limin' Large","Fruit/lime.png","Won","0.2,0.65","10","0.2","107","21","",""
"","","","decisionFB","62e19208352cd518d7b2f085","bdp_rwlrn","Tue Mar 14 2023 21:32:43 GMT-0400 (Eastern Daylight Time)","567797","Trustworthy,Untrustworthy","html-keyboard-response","71","251388","0.0-11.0-2.20","","null","","<div class='trialDiv'><img src='Fruit/lime.png'><br><font class='baseline'><strong>Limin' Large</strong><p>Choose number of points to bet.</font><div class='respPicDiv'><img src='img/responseButtonOffersNo0L1.png' class='respPic'></div></div>","null","7","Limin' Large","Fruit/lime.png","Won","0.2,0.65","10","0.2","106","21","",""
"","","","feedback","62e19208352cd518d7b2f085","bdp_rwlrn","Tue Mar 14 2023 21:32:43 GMT-0400 (Eastern Daylight Time)","567797","Trustworthy,Untrustworthy","html-keyboard-response","72","252396","0.0-11.0-3.20","","null","","<div class='respPicDiv'><img src='img/responseButtonOffersNo0_wht.png' class='respPic'></div><div class='trialDiv'><img src='Fruit/lime.png'><br><font class='baseline'><strong>Limin' Large</strong><p><strong><font class='posOutcome'>You WON</font><p>You bet: 1</strong></font> &nbsp; &nbsp; &nbsp; &nbsp; &nbsp; &nbsp;<font class='posOutcome'>you receive: <strong>2</strong></font></div>","null","7","Limin' Large","Fruit/lime.png","Won","0.2,0.65","10","0.2","108","21","",""
"","","","decision","62e19208352cd518d7b2f085","bdp_rwlrn","Tue Mar 14 2023 21:32:43 GMT-0400 (Eastern Daylight Time)","567797","Trustworthy,Untrustworthy","html-keyboard-response","73","253160","0.0-11.0-1.21","","763","","<div class='trialDiv'><img src='Fruit/papayas.png'><br><font class='baseline'><strong>Papaya Payday</strong><p>Choose number of points to bet.</font><div class='respPicDiv'><img src='img/responseButtonOffersNo0L.png' class='respPic'></div></div>","1","8","Papaya Payday","Fruit/papayas.png","Lost","0.2,0.8","14","0.2","113","22","",""
"","","","decisionFB","62e19208352cd518d7b2f085","bdp_rwlrn","Tue Mar 14 2023 21:32:43 GMT-0400 (Eastern Daylight Time)","567797","Trustworthy,Untrustworthy","html-keyboard-response","74","253412","0.0-11.0-2.21","","null","","<div class='trialDiv'><img src='Fruit/papayas.png'><br><font class='baseline'><strong>Papaya Payday</strong><p>Choose number of points to bet.</font><div class='respPicDiv'><img src='img/responseButtonOffersNo0L1.png' class='respPic'></div></div>","null","8","Papaya Payday","Fruit/papayas.png","Lost","0.2,0.8","14","0.2","112","22","",""
"","","","feedback","62e19208352cd518d7b2f085","bdp_rwlrn","Tue Mar 14 2023 21:32:43 GMT-0400 (Eastern Daylight Time)","567797","Trustworthy,Untrustworthy","html-keyboard-response","75","254421","0.0-11.0-3.21","","null","","<div class='respPicDiv'><img src='img/responseButtonOffersNo0_wht.png' class='respPic'></div><div class='trialDiv'><img src='Fruit/papayas.png'><br><font class='baseline'><strong>Papaya Payday</strong><p><strong><font class='negOutcome'>You LOST</font><p>You bet: 1</strong></font> &nbsp; &nbsp; &nbsp; &nbsp; &nbsp; &nbsp;<font class='negOutcome'>You receive: <strong>0</strong></font></div>","null","8","Papaya Payday","Fruit/papayas.png","Lost","0.2,0.8","14","0.2","112","22","",""
"","","","decision","62e19208352cd518d7b2f085","bdp_rwlrn","Tue Mar 14 2023 21:32:43 GMT-0400 (Eastern Daylight Time)","567797","Trustworthy,Untrustworthy","html-keyboard-response","76","255023","0.0-11.0-1.22","","601","","<div class='trialDiv'><img src='Fruit/lime.png'><br><font class='baseline'><strong>Limin' Large</strong><p>Choose number of points to bet.</font><div class='respPicDiv'><img src='img/responseButtonOffersNo0L.png' class='respPic'></div></div>","1","8","Limin' Large","Fruit/lime.png","Lost","0.2,0.65","10","0.2","117","23","",""
"","","","decisionFB","62e19208352cd518d7b2f085","bdp_rwlrn","Tue Mar 14 2023 21:32:43 GMT-0400 (Eastern Daylight Time)","567797","Trustworthy,Untrustworthy","html-keyboard-response","77","255277","0.0-11.0-2.22","","null","","<div class='trialDiv'><img src='Fruit/lime.png'><br><font class='baseline'><strong>Limin' Large</strong><p>Choose number of points to bet.</font><div class='respPicDiv'><img src='img/responseButtonOffersNo0L1.png' class='respPic'></div></div>","null","8","Limin' Large","Fruit/lime.png","Lost","0.2,0.65","10","0.2","116","23","",""
"","","","feedback","62e19208352cd518d7b2f085","bdp_rwlrn","Tue Mar 14 2023 21:32:43 GMT-0400 (Eastern Daylight Time)","567797","Trustworthy,Untrustworthy","html-keyboard-response","78","256285","0.0-11.0-3.22","","null","","<div class='respPicDiv'><img src='img/responseButtonOffersNo0_wht.png' class='respPic'></div><div class='trialDiv'><img src='Fruit/lime.png'><br><font class='baseline'><strong>Limin' Large</strong><p><strong><font class='negOutcome'>You LOST</font><p>You bet: 1</strong></font> &nbsp; &nbsp; &nbsp; &nbsp; &nbsp; &nbsp;<font class='negOutcome'>You receive: <strong>0</strong></font></div>","null","8","Limin' Large","Fruit/lime.png","Lost","0.2,0.65","10","0.2","116","23","",""
"","","","decision","62e19208352cd518d7b2f085","bdp_rwlrn","Tue Mar 14 2023 21:32:43 GMT-0400 (Eastern Daylight Time)","567797","Trustworthy,Untrustworthy","html-keyboard-response","79","256855","0.0-11.0-1.23","","569","","<div class='trialDiv'><img src='Fruit/mango.png'><br><font class='baseline'><strong>Mega Mangos</strong><p>Choose number of points to bet.</font><div class='respPicDiv'><img src='img/responseButtonOffersNo0L.png' class='respPic'></div></div>","5","8","Mega Mangos","Fruit/mango.png","Lost","0.65,0.2","11","0.65","121","24","",""
"","","","decisionFB","62e19208352cd518d7b2f085","bdp_rwlrn","Tue Mar 14 2023 21:32:43 GMT-0400 (Eastern Daylight Time)","567797","Trustworthy,Untrustworthy","html-keyboard-response","80","257109","0.0-11.0-2.23","","null","","<div class='trialDiv'><img src='Fruit/mango.png'><br><font class='baseline'><strong>Mega Mangos</strong><p>Choose number of points to bet.</font><div class='respPicDiv'><img src='img/responseButtonOffersNo0L5.png' class='respPic'></div></div>","null","8","Mega Mangos","Fruit/mango.png","Lost","0.65,0.2","11","0.65","116","24","",""
"","","","feedback","62e19208352cd518d7b2f085","bdp_rwlrn","Tue Mar 14 2023 21:32:43 GMT-0400 (Eastern Daylight Time)","567797","Trustworthy,Untrustworthy","html-keyboard-response","81","258117","0.0-11.0-3.23","","null","","<div class='respPicDiv'><img src='img/responseButtonOffersNo0_wht.png' class='respPic'></div><div class='trialDiv'><img src='Fruit/mango.png'><br><font class='baseline'><strong>Mega Mangos</strong><p><strong><font class='negOutcome'>You LOST</font><p>You bet: 5</strong></font> &nbsp; &nbsp; &nbsp; &nbsp; &nbsp; &nbsp;<font class='negOutcome'>You receive: <strong>0</strong></font></div>","null","8","Mega Mangos","Fruit/mango.png","Lost","0.65,0.2","11","0.65","116","24","",""
"","","","decision","62e19208352cd518d7b2f085","bdp_rwlrn","Tue Mar 14 2023 21:32:43 GMT-0400 (Eastern Daylight Time)","567797","Trustworthy,Untrustworthy","html-keyboard-response","82","258671","0.0-11.0-1.24","","553","","<div class='trialDiv'><img src='Fruit/papayas.png'><br><font class='baseline'><strong>Papaya Payday</strong><p>Choose number of points to bet.</font><div class='respPicDiv'><img src='img/responseButtonOffersNo0L.png' class='respPic'></div></div>","1","9","Papaya Payday","Fruit/papayas.png","Lost","0.2,0.8","14","0.2","121","25","",""
"","","","decisionFB","62e19208352cd518d7b2f085","bdp_rwlrn","Tue Mar 14 2023 21:32:43 GMT-0400 (Eastern Daylight Time)","567797","Trustworthy,Untrustworthy","html-keyboard-response","83","258925","0.0-11.0-2.24","","null","","<div class='trialDiv'><img src='Fruit/papayas.png'><br><font class='baseline'><strong>Papaya Payday</strong><p>Choose number of points to bet.</font><div class='respPicDiv'><img src='img/responseButtonOffersNo0L1.png' class='respPic'></div></div>","null","9","Papaya Payday","Fruit/papayas.png","Lost","0.2,0.8","14","0.2","120","25","",""
"","","","feedback","62e19208352cd518d7b2f085","bdp_rwlrn","Tue Mar 14 2023 21:32:43 GMT-0400 (Eastern Daylight Time)","567797","Trustworthy,Untrustworthy","html-keyboard-response","84","259933","0.0-11.0-3.24","","null","","<div class='respPicDiv'><img src='img/responseButtonOffersNo0_wht.png' class='respPic'></div><div class='trialDiv'><img src='Fruit/papayas.png'><br><font class='baseline'><strong>Papaya Payday</strong><p><strong><font class='negOutcome'>You LOST</font><p>You bet: 1</strong></font> &nbsp; &nbsp; &nbsp; &nbsp; &nbsp; &nbsp;<font class='negOutcome'>You receive: <strong>0</strong></font></div>","null","9","Papaya Payday","Fruit/papayas.png","Lost","0.2,0.8","14","0.2","120","25","",""
"","","","decision","62e19208352cd518d7b2f085","bdp_rwlrn","Tue Mar 14 2023 21:32:43 GMT-0400 (Eastern Daylight Time)","567797","Trustworthy,Untrustworthy","html-keyboard-response","85","260990","0.0-11.0-1.25","","1056","","<div class='trialDiv'><img src='Fruit/mango.png'><br><font class='baseline'><strong>Mega Mangos</strong><p>Choose number of points to bet.</font><div class='respPicDiv'><img src='img/responseButtonOffersNo0L.png' class='respPic'></div></div>","5","9","Mega Mangos","Fruit/mango.png","Won","0.65,0.2","11","0.65","125","26","",""
"","","","decisionFB","62e19208352cd518d7b2f085","bdp_rwlrn","Tue Mar 14 2023 21:32:43 GMT-0400 (Eastern Daylight Time)","567797","Trustworthy,Untrustworthy","html-keyboard-response","86","261245","0.0-11.0-2.25","","null","","<div class='trialDiv'><img src='Fruit/mango.png'><br><font class='baseline'><strong>Mega Mangos</strong><p>Choose number of points to bet.</font><div class='respPicDiv'><img src='img/responseButtonOffersNo0L5.png' class='respPic'></div></div>","null","9","Mega Mangos","Fruit/mango.png","Won","0.65,0.2","11","0.65","120","26","",""
"","","","feedback","62e19208352cd518d7b2f085","bdp_rwlrn","Tue Mar 14 2023 21:32:43 GMT-0400 (Eastern Daylight Time)","567797","Trustworthy,Untrustworthy","html-keyboard-response","87","262252","0.0-11.0-3.25","","null","","<div class='respPicDiv'><img src='img/responseButtonOffersNo0_wht.png' class='respPic'></div><div class='trialDiv'><img src='Fruit/mango.png'><br><font class='baseline'><strong>Mega Mangos</strong><p><strong><font class='posOutcome'>You WON</font><p>You bet: 5</strong></font> &nbsp; &nbsp; &nbsp; &nbsp; &nbsp; &nbsp;<font class='posOutcome'>you receive: <strong>10</strong></font></div>","null","9","Mega Mangos","Fruit/mango.png","Won","0.65,0.2","11","0.65","130","26","",""
"","","","decision","62e19208352cd518d7b2f085","bdp_rwlrn","Tue Mar 14 2023 21:32:43 GMT-0400 (Eastern Daylight Time)","567797","Trustworthy,Untrustworthy","html-keyboard-response","88","262703","0.0-11.0-1.26","","449","","<div class='trialDiv'><img src='Fruit/lime.png'><br><font class='baseline'><strong>Limin' Large</strong><p>Choose number of points to bet.</font><div class='respPicDiv'><img src='img/responseButtonOffersNo0L.png' class='respPic'></div></div>","1","9","Limin' Large","Fruit/lime.png","Lost","0.2,0.65","10","0.2","135","27","",""
"","","","decisionFB","62e19208352cd518d7b2f085","bdp_rwlrn","Tue Mar 14 2023 21:32:43 GMT-0400 (Eastern Daylight Time)","567797","Trustworthy,Untrustworthy","html-keyboard-response","89","262956","0.0-11.0-2.26","","null","","<div class='trialDiv'><img src='Fruit/lime.png'><br><font class='baseline'><strong>Limin' Large</strong><p>Choose number of points to bet.</font><div class='respPicDiv'><img src='img/responseButtonOffersNo0L1.png' class='respPic'></div></div>","null","9","Limin' Large","Fruit/lime.png","Lost","0.2,0.65","10","0.2","134","27","",""
"","","","feedback","62e19208352cd518d7b2f085","bdp_rwlrn","Tue Mar 14 2023 21:32:43 GMT-0400 (Eastern Daylight Time)","567797","Trustworthy,Untrustworthy","html-keyboard-response","90","263966","0.0-11.0-3.26","","null","","<div class='respPicDiv'><img src='img/responseButtonOffersNo0_wht.png' class='respPic'></div><div class='trialDiv'><img src='Fruit/lime.png'><br><font class='baseline'><strong>Limin' Large</strong><p><strong><font class='negOutcome'>You LOST</font><p>You bet: 1</strong></font> &nbsp; &nbsp; &nbsp; &nbsp; &nbsp; &nbsp;<font class='negOutcome'>You receive: <strong>0</strong></font></div>","null","9","Limin' Large","Fruit/lime.png","Lost","0.2,0.65","10","0.2","134","27","",""
"","","","decision","62e19208352cd518d7b2f085","bdp_rwlrn","Tue Mar 14 2023 21:32:43 GMT-0400 (Eastern Daylight Time)","567797","Trustworthy,Untrustworthy","html-keyboard-response","91","264569","0.0-11.0-1.27","","602","","<div class='trialDiv'><img src='Fruit/papayas.png'><br><font class='baseline'><strong>Papaya Payday</strong><p>Choose number of points to bet.</font><div class='respPicDiv'><img src='img/responseButtonOffersNo0L.png' class='respPic'></div></div>","1","10","Papaya Payday","Fruit/papayas.png","Lost","0.2,0.8","14","0.2","139","28","",""
"","","","decisionFB","62e19208352cd518d7b2f085","bdp_rwlrn","Tue Mar 14 2023 21:32:43 GMT-0400 (Eastern Daylight Time)","567797","Trustworthy,Untrustworthy","html-keyboard-response","92","264822","0.0-11.0-2.27","","null","","<div class='trialDiv'><img src='Fruit/papayas.png'><br><font class='baseline'><strong>Papaya Payday</strong><p>Choose number of points to bet.</font><div class='respPicDiv'><img src='img/responseButtonOffersNo0L1.png' class='respPic'></div></div>","null","10","Papaya Payday","Fruit/papayas.png","Lost","0.2,0.8","14","0.2","138","28","",""
"","","","feedback","62e19208352cd518d7b2f085","bdp_rwlrn","Tue Mar 14 2023 21:32:43 GMT-0400 (Eastern Daylight Time)","567797","Trustworthy,Untrustworthy","html-keyboard-response","93","265830","0.0-11.0-3.27","","null","","<div class='respPicDiv'><img src='img/responseButtonOffersNo0_wht.png' class='respPic'></div><div class='trialDiv'><img src='Fruit/papayas.png'><br><font class='baseline'><strong>Papaya Payday</strong><p><strong><font class='negOutcome'>You LOST</font><p>You bet: 1</strong></font> &nbsp; &nbsp; &nbsp; &nbsp; &nbsp; &nbsp;<font class='negOutcome'>You receive: <strong>0</strong></font></div>","null","10","Papaya Payday","Fruit/papayas.png","Lost","0.2,0.8","14","0.2","138","28","",""
"","","","decision","62e19208352cd518d7b2f085","bdp_rwlrn","Tue Mar 14 2023 21:32:43 GMT-0400 (Eastern Daylight Time)","567797","Trustworthy,Untrustworthy","html-keyboard-response","94","266401","0.0-11.0-1.28","","570","","<div class='trialDiv'><img src='Fruit/lime.png'><br><font class='baseline'><strong>Limin' Large</strong><p>Choose number of points to bet.</font><div class='respPicDiv'><img src='img/responseButtonOffersNo0L.png' class='respPic'></div></div>","1","10","Limin' Large","Fruit/lime.png","Won","0.2,0.65","10","0.2","143","29","",""
"","","","decisionFB","62e19208352cd518d7b2f085","bdp_rwlrn","Tue Mar 14 2023 21:32:43 GMT-0400 (Eastern Daylight Time)","567797","Trustworthy,Untrustworthy","html-keyboard-response","95","266654","0.0-11.0-2.28","","null","","<div class='trialDiv'><img src='Fruit/lime.png'><br><font class='baseline'><strong>Limin' Large</strong><p>Choose number of points to bet.</font><div class='respPicDiv'><img src='img/responseButtonOffersNo0L1.png' class='respPic'></div></div>","null","10","Limin' Large","Fruit/lime.png","Won","0.2,0.65","10","0.2","142","29","",""
"","","","feedback","62e19208352cd518d7b2f085","bdp_rwlrn","Tue Mar 14 2023 21:32:43 GMT-0400 (Eastern Daylight Time)","567797","Trustworthy,Untrustworthy","html-keyboard-response","96","267662","0.0-11.0-3.28","","null","","<div class='respPicDiv'><img src='img/responseButtonOffersNo0_wht.png' class='respPic'></div><div class='trialDiv'><img src='Fruit/lime.png'><br><font class='baseline'><strong>Limin' Large</strong><p><strong><font class='posOutcome'>You WON</font><p>You bet: 1</strong></font> &nbsp; &nbsp; &nbsp; &nbsp; &nbsp; &nbsp;<font class='posOutcome'>you receive: <strong>2</strong></font></div>","null","10","Limin' Large","Fruit/lime.png","Won","0.2,0.65","10","0.2","144","29","",""
"","","","decision","62e19208352cd518d7b2f085","bdp_rwlrn","Tue Mar 14 2023 21:32:43 GMT-0400 (Eastern Daylight Time)","567797","Trustworthy,Untrustworthy","html-keyboard-response","97","268465","0.0-11.0-1.29","","801","","<div class='trialDiv'><img src='Fruit/mango.png'><br><font class='baseline'><strong>Mega Mangos</strong><p>Choose number of points to bet.</font><div class='respPicDiv'><img src='img/responseButtonOffersNo0L.png' class='respPic'></div></div>","1","10","Mega Mangos","Fruit/mango.png","Lost","0.65,0.2","11","0.65","149","30","",""
"","","","decisionFB","62e19208352cd518d7b2f085","bdp_rwlrn","Tue Mar 14 2023 21:32:43 GMT-0400 (Eastern Daylight Time)","567797","Trustworthy,Untrustworthy","html-keyboard-response","98","268718","0.0-11.0-2.29","","null","","<div class='trialDiv'><img src='Fruit/mango.png'><br><font class='baseline'><strong>Mega Mangos</strong><p>Choose number of points to bet.</font><div class='respPicDiv'><img src='img/responseButtonOffersNo0L1.png' class='respPic'></div></div>","null","10","Mega Mangos","Fruit/mango.png","Lost","0.65,0.2","11","0.65","148","30","",""
"","","","feedback","62e19208352cd518d7b2f085","bdp_rwlrn","Tue Mar 14 2023 21:32:43 GMT-0400 (Eastern Daylight Time)","567797","Trustworthy,Untrustworthy","html-keyboard-response","99","269726","0.0-11.0-3.29","","null","","<div class='respPicDiv'><img src='img/responseButtonOffersNo0_wht.png' class='respPic'></div><div class='trialDiv'><img src='Fruit/mango.png'><br><font class='baseline'><strong>Mega Mangos</strong><p><strong><font class='negOutcome'>You LOST</font><p>You bet: 1</strong></font> &nbsp; &nbsp; &nbsp; &nbsp; &nbsp; &nbsp;<font class='negOutcome'>You receive: <strong>0</strong></font></div>","null","10","Mega Mangos","Fruit/mango.png","Lost","0.65,0.2","11","0.65","148","30","",""
"","","","decision","62e19208352cd518d7b2f085","bdp_rwlrn","Tue Mar 14 2023 21:32:43 GMT-0400 (Eastern Daylight Time)","567797","Trustworthy,Untrustworthy","html-keyboard-response","100","270441","0.0-11.0-1.30","","713","","<div class='trialDiv'><img src='Fruit/papayas.png'><br><font class='baseline'><strong>Papaya Payday</strong><p>Choose number of points to bet.</font><div class='respPicDiv'><img src='img/responseButtonOffersNo0L.png' class='respPic'></div></div>","1","11","Papaya Payday","Fruit/papayas.png","Lost","0.2,0.8","14","0.2","153","31","",""
"","","","decisionFB","62e19208352cd518d7b2f085","bdp_rwlrn","Tue Mar 14 2023 21:32:43 GMT-0400 (Eastern Daylight Time)","567797","Trustworthy,Untrustworthy","html-keyboard-response","101","270694","0.0-11.0-2.30","","null","","<div class='trialDiv'><img src='Fruit/papayas.png'><br><font class='baseline'><strong>Papaya Payday</strong><p>Choose number of points to bet.</font><div class='respPicDiv'><img src='img/responseButtonOffersNo0L1.png' class='respPic'></div></div>","null","11","Papaya Payday","Fruit/papayas.png","Lost","0.2,0.8","14","0.2","152","31","",""
"","","","feedback","62e19208352cd518d7b2f085","bdp_rwlrn","Tue Mar 14 2023 21:32:43 GMT-0400 (Eastern Daylight Time)","567797","Trustworthy,Untrustworthy","html-keyboard-response","102","271702","0.0-11.0-3.30","","null","","<div class='respPicDiv'><img src='img/responseButtonOffersNo0_wht.png' class='respPic'></div><div class='trialDiv'><img src='Fruit/papayas.png'><br><font class='baseline'><strong>Papaya Payday</strong><p><strong><font class='negOutcome'>You LOST</font><p>You bet: 1</strong></font> &nbsp; &nbsp; &nbsp; &nbsp; &nbsp; &nbsp;<font class='negOutcome'>You receive: <strong>0</strong></font></div>","null","11","Papaya Payday","Fruit/papayas.png","Lost","0.2,0.8","14","0.2","152","31","",""
"","","","decision","62e19208352cd518d7b2f085","bdp_rwlrn","Tue Mar 14 2023 21:32:43 GMT-0400 (Eastern Daylight Time)","567797","Trustworthy,Untrustworthy","html-keyboard-response","103","272408","0.0-11.0-1.31","","705","","<div class='trialDiv'><img src='Fruit/mango.png'><br><font class='baseline'><strong>Mega Mangos</strong><p>Choose number of points to bet.</font><div class='respPicDiv'><img src='img/responseButtonOffersNo0L.png' class='respPic'></div></div>","5","11","Mega Mangos","Fruit/mango.png","Lost","0.65,0.2","11","0.65","157","32","",""
"","","","decisionFB","62e19208352cd518d7b2f085","bdp_rwlrn","Tue Mar 14 2023 21:32:43 GMT-0400 (Eastern Daylight Time)","567797","Trustworthy,Untrustworthy","html-keyboard-response","104","272662","0.0-11.0-2.31","","null","","<div class='trialDiv'><img src='Fruit/mango.png'><br><font class='baseline'><strong>Mega Mangos</strong><p>Choose number of points to bet.</font><div class='respPicDiv'><img src='img/responseButtonOffersNo0L5.png' class='respPic'></div></div>","null","11","Mega Mangos","Fruit/mango.png","Lost","0.65,0.2","11","0.65","152","32","",""
"","","","feedback","62e19208352cd518d7b2f085","bdp_rwlrn","Tue Mar 14 2023 21:32:43 GMT-0400 (Eastern Daylight Time)","567797","Trustworthy,Untrustworthy","html-keyboard-response","105","273670","0.0-11.0-3.31","","null","","<div class='respPicDiv'><img src='img/responseButtonOffersNo0_wht.png' class='respPic'></div><div class='trialDiv'><img src='Fruit/mango.png'><br><font class='baseline'><strong>Mega Mangos</strong><p><strong><font class='negOutcome'>You LOST</font><p>You bet: 5</strong></font> &nbsp; &nbsp; &nbsp; &nbsp; &nbsp; &nbsp;<font class='negOutcome'>You receive: <strong>0</strong></font></div>","null","11","Mega Mangos","Fruit/mango.png","Lost","0.65,0.2","11","0.65","152","32","",""
"","","","decision","62e19208352cd518d7b2f085","bdp_rwlrn","Tue Mar 14 2023 21:32:43 GMT-0400 (Eastern Daylight Time)","567797","Trustworthy,Untrustworthy","html-keyboard-response","106","274400","0.0-11.0-1.32","","729","","<div class='trialDiv'><img src='Fruit/lime.png'><br><font class='baseline'><strong>Limin' Large</strong><p>Choose number of points to bet.</font><div class='respPicDiv'><img src='img/responseButtonOffersNo0L.png' class='respPic'></div></div>","1","11","Limin' Large","Fruit/lime.png","Won","0.2,0.65","10","0.2","157","33","",""
"","","","decisionFB","62e19208352cd518d7b2f085","bdp_rwlrn","Tue Mar 14 2023 21:32:43 GMT-0400 (Eastern Daylight Time)","567797","Trustworthy,Untrustworthy","html-keyboard-response","107","274654","0.0-11.0-2.32","","null","","<div class='trialDiv'><img src='Fruit/lime.png'><br><font class='baseline'><strong>Limin' Large</strong><p>Choose number of points to bet.</font><div class='respPicDiv'><img src='img/responseButtonOffersNo0L1.png' class='respPic'></div></div>","null","11","Limin' Large","Fruit/lime.png","Won","0.2,0.65","10","0.2","156","33","",""
"","","","feedback","62e19208352cd518d7b2f085","bdp_rwlrn","Tue Mar 14 2023 21:32:43 GMT-0400 (Eastern Daylight Time)","567797","Trustworthy,Untrustworthy","html-keyboard-response","108","275662","0.0-11.0-3.32","","null","","<div class='respPicDiv'><img src='img/responseButtonOffersNo0_wht.png' class='respPic'></div><div class='trialDiv'><img src='Fruit/lime.png'><br><font class='baseline'><strong>Limin' Large</strong><p><strong><font class='posOutcome'>You WON</font><p>You bet: 1</strong></font> &nbsp; &nbsp; &nbsp; &nbsp; &nbsp; &nbsp;<font class='posOutcome'>you receive: <strong>2</strong></font></div>","null","11","Limin' Large","Fruit/lime.png","Won","0.2,0.65","10","0.2","158","33","",""
"","","","decision","62e19208352cd518d7b2f085","bdp_rwlrn","Tue Mar 14 2023 21:32:43 GMT-0400 (Eastern Daylight Time)","567797","Trustworthy,Untrustworthy","html-keyboard-response","109","277177","0.0-11.0-1.33","","1513","","<div class='trialDiv'><img src='Fruit/mango.png'><br><font class='baseline'><strong>Mega Mangos</strong><p>Choose number of points to bet.</font><div class='respPicDiv'><img src='img/responseButtonOffersNo0L.png' class='respPic'></div></div>","5","12","Mega Mangos","Fruit/mango.png","Lost","0.65,0.2","11","0.65","163","34","",""
"","","","decisionFB","62e19208352cd518d7b2f085","bdp_rwlrn","Tue Mar 14 2023 21:32:43 GMT-0400 (Eastern Daylight Time)","567797","Trustworthy,Untrustworthy","html-keyboard-response","110","277430","0.0-11.0-2.33","","null","","<div class='trialDiv'><img src='Fruit/mango.png'><br><font class='baseline'><strong>Mega Mangos</strong><p>Choose number of points to bet.</font><div class='respPicDiv'><img src='img/responseButtonOffersNo0L5.png' class='respPic'></div></div>","null","12","Mega Mangos","Fruit/mango.png","Lost","0.65,0.2","11","0.65","158","34","",""
"","","","feedback","62e19208352cd518d7b2f085","bdp_rwlrn","Tue Mar 14 2023 21:32:43 GMT-0400 (Eastern Daylight Time)","567797","Trustworthy,Untrustworthy","html-keyboard-response","111","278439","0.0-11.0-3.33","","null","","<div class='respPicDiv'><img src='img/responseButtonOffersNo0_wht.png' class='respPic'></div><div class='trialDiv'><img src='Fruit/mango.png'><br><font class='baseline'><strong>Mega Mangos</strong><p><strong><font class='negOutcome'>You LOST</font><p>You bet: 5</strong></font> &nbsp; &nbsp; &nbsp; &nbsp; &nbsp; &nbsp;<font class='negOutcome'>You receive: <strong>0</strong></font></div>","null","12","Mega Mangos","Fruit/mango.png","Lost","0.65,0.2","11","0.65","158","34","",""
"","","","decision","62e19208352cd518d7b2f085","bdp_rwlrn","Tue Mar 14 2023 21:32:43 GMT-0400 (Eastern Daylight Time)","567797","Trustworthy,Untrustworthy","html-keyboard-response","112","279728","0.0-11.0-1.34","","1288","","<div class='trialDiv'><img src='Fruit/lime.png'><br><font class='baseline'><strong>Limin' Large</strong><p>Choose number of points to bet.</font><div class='respPicDiv'><img src='img/responseButtonOffersNo0L.png' class='respPic'></div></div>","5","12","Limin' Large","Fruit/lime.png","Lost","0.2,0.65","10","0.2","163","35","",""
"","","","decisionFB","62e19208352cd518d7b2f085","bdp_rwlrn","Tue Mar 14 2023 21:32:43 GMT-0400 (Eastern Daylight Time)","567797","Trustworthy,Untrustworthy","html-keyboard-response","113","279982","0.0-11.0-2.34","","null","","<div class='trialDiv'><img src='Fruit/lime.png'><br><font class='baseline'><strong>Limin' Large</strong><p>Choose number of points to bet.</font><div class='respPicDiv'><img src='img/responseButtonOffersNo0L5.png' class='respPic'></div></div>","null","12","Limin' Large","Fruit/lime.png","Lost","0.2,0.65","10","0.2","158","35","",""
"","","","feedback","62e19208352cd518d7b2f085","bdp_rwlrn","Tue Mar 14 2023 21:32:43 GMT-0400 (Eastern Daylight Time)","567797","Trustworthy,Untrustworthy","html-keyboard-response","114","280990","0.0-11.0-3.34","","null","","<div class='respPicDiv'><img src='img/responseButtonOffersNo0_wht.png' class='respPic'></div><div class='trialDiv'><img src='Fruit/lime.png'><br><font class='baseline'><strong>Limin' Large</strong><p><strong><font class='negOutcome'>You LOST</font><p>You bet: 5</strong></font> &nbsp; &nbsp; &nbsp; &nbsp; &nbsp; &nbsp;<font class='negOutcome'>You receive: <strong>0</strong></font></div>","null","12","Limin' Large","Fruit/lime.png","Lost","0.2,0.65","10","0.2","158","35","",""
"","","","decision","62e19208352cd518d7b2f085","bdp_rwlrn","Tue Mar 14 2023 21:32:43 GMT-0400 (Eastern Daylight Time)","567797","Trustworthy,Untrustworthy","html-keyboard-response","115","281676","0.0-11.0-1.35","","685","","<div class='trialDiv'><img src='Fruit/papayas.png'><br><font class='baseline'><strong>Papaya Payday</strong><p>Choose number of points to bet.</font><div class='respPicDiv'><img src='img/responseButtonOffersNo0L.png' class='respPic'></div></div>","1","12","Papaya Payday","Fruit/papayas.png","Lost","0.2,0.8","14","0.2","163","36","",""
"","","","decisionFB","62e19208352cd518d7b2f085","bdp_rwlrn","Tue Mar 14 2023 21:32:43 GMT-0400 (Eastern Daylight Time)","567797","Trustworthy,Untrustworthy","html-keyboard-response","116","281935","0.0-11.0-2.35","","null","","<div class='trialDiv'><img src='Fruit/papayas.png'><br><font class='baseline'><strong>Papaya Payday</strong><p>Choose number of points to bet.</font><div class='respPicDiv'><img src='img/responseButtonOffersNo0L1.png' class='respPic'></div></div>","null","12","Papaya Payday","Fruit/papayas.png","Lost","0.2,0.8","14","0.2","162","36","",""
"","","","feedback","62e19208352cd518d7b2f085","bdp_rwlrn","Tue Mar 14 2023 21:32:43 GMT-0400 (Eastern Daylight Time)","567797","Trustworthy,Untrustworthy","html-keyboard-response","117","282943","0.0-11.0-3.35","","null","","<div class='respPicDiv'><img src='img/responseButtonOffersNo0_wht.png' class='respPic'></div><div class='trialDiv'><img src='Fruit/papayas.png'><br><font class='baseline'><strong>Papaya Payday</strong><p><strong><font class='negOutcome'>You LOST</font><p>You bet: 1</strong></font> &nbsp; &nbsp; &nbsp; &nbsp; &nbsp; &nbsp;<font class='negOutcome'>You receive: <strong>0</strong></font></div>","null","12","Papaya Payday","Fruit/papayas.png","Lost","0.2,0.8","14","0.2","162","36","",""
"","","","decision","62e19208352cd518d7b2f085","bdp_rwlrn","Tue Mar 14 2023 21:32:43 GMT-0400 (Eastern Daylight Time)","567797","Trustworthy,Untrustworthy","html-keyboard-response","118","283696","0.0-11.0-1.36","","753","","<div class='trialDiv'><img src='Fruit/mango.png'><br><font class='baseline'><strong>Mega Mangos</strong><p>Choose number of points to bet.</font><div class='respPicDiv'><img src='img/responseButtonOffersNo0L.png' class='respPic'></div></div>","5","13","Mega Mangos","Fruit/mango.png","Lost","0.65,0.2","11","0.65","167","37","",""
"","","","decisionFB","62e19208352cd518d7b2f085","bdp_rwlrn","Tue Mar 14 2023 21:32:43 GMT-0400 (Eastern Daylight Time)","567797","Trustworthy,Untrustworthy","html-keyboard-response","119","283951","0.0-11.0-2.36","","null","","<div class='trialDiv'><img src='Fruit/mango.png'><br><font class='baseline'><strong>Mega Mangos</strong><p>Choose number of points to bet.</font><div class='respPicDiv'><img src='img/responseButtonOffersNo0L5.png' class='respPic'></div></div>","null","13","Mega Mangos","Fruit/mango.png","Lost","0.65,0.2","11","0.65","162","37","",""
"","","","feedback","62e19208352cd518d7b2f085","bdp_rwlrn","Tue Mar 14 2023 21:32:43 GMT-0400 (Eastern Daylight Time)","567797","Trustworthy,Untrustworthy","html-keyboard-response","120","284959","0.0-11.0-3.36","","null","","<div class='respPicDiv'><img src='img/responseButtonOffersNo0_wht.png' class='respPic'></div><div class='trialDiv'><img src='Fruit/mango.png'><br><font class='baseline'><strong>Mega Mangos</strong><p><strong><font class='negOutcome'>You LOST</font><p>You bet: 5</strong></font> &nbsp; &nbsp; &nbsp; &nbsp; &nbsp; &nbsp;<font class='negOutcome'>You receive: <strong>0</strong></font></div>","null","13","Mega Mangos","Fruit/mango.png","Lost","0.65,0.2","11","0.65","162","37","",""
"","","","decision","62e19208352cd518d7b2f085","bdp_rwlrn","Tue Mar 14 2023 21:32:43 GMT-0400 (Eastern Daylight Time)","567797","Trustworthy,Untrustworthy","html-keyboard-response","121","285904","0.0-11.0-1.37","","945","","<div class='trialDiv'><img src='Fruit/papayas.png'><br><font class='baseline'><strong>Papaya Payday</strong><p>Choose number of points to bet.</font><div class='respPicDiv'><img src='img/responseButtonOffersNo0L.png' class='respPic'></div></div>","1","13","Papaya Payday","Fruit/papayas.png","Won","0.2,0.8","14","0.2","167","38","",""
"","","","decisionFB","62e19208352cd518d7b2f085","bdp_rwlrn","Tue Mar 14 2023 21:32:43 GMT-0400 (Eastern Daylight Time)","567797","Trustworthy,Untrustworthy","html-keyboard-response","122","286159","0.0-11.0-2.37","","null","","<div class='trialDiv'><img src='Fruit/papayas.png'><br><font class='baseline'><strong>Papaya Payday</strong><p>Choose number of points to bet.</font><div class='respPicDiv'><img src='img/responseButtonOffersNo0L1.png' class='respPic'></div></div>","null","13","Papaya Payday","Fruit/papayas.png","Won","0.2,0.8","14","0.2","166","38","",""
"","","","feedback","62e19208352cd518d7b2f085","bdp_rwlrn","Tue Mar 14 2023 21:32:43 GMT-0400 (Eastern Daylight Time)","567797","Trustworthy,Untrustworthy","html-keyboard-response","123","287167","0.0-11.0-3.37","","null","","<div class='respPicDiv'><img src='img/responseButtonOffersNo0_wht.png' class='respPic'></div><div class='trialDiv'><img src='Fruit/papayas.png'><br><font class='baseline'><strong>Papaya Payday</strong><p><strong><font class='posOutcome'>You WON</font><p>You bet: 1</strong></font> &nbsp; &nbsp; &nbsp; &nbsp; &nbsp; &nbsp;<font class='posOutcome'>you receive: <strong>2</strong></font></div>","null","13","Papaya Payday","Fruit/papayas.png","Won","0.2,0.8","14","0.2","168","38","",""
"","","","decision","62e19208352cd518d7b2f085","bdp_rwlrn","Tue Mar 14 2023 21:32:43 GMT-0400 (Eastern Daylight Time)","567797","Trustworthy,Untrustworthy","html-keyboard-response","124","287873","0.0-11.0-1.38","","704","","<div class='trialDiv'><img src='Fruit/lime.png'><br><font class='baseline'><strong>Limin' Large</strong><p>Choose number of points to bet.</font><div class='respPicDiv'><img src='img/responseButtonOffersNo0L.png' class='respPic'></div></div>","1","13","Limin' Large","Fruit/lime.png","Won","0.2,0.65","10","0.2","173","39","",""
"","","","decisionFB","62e19208352cd518d7b2f085","bdp_rwlrn","Tue Mar 14 2023 21:32:43 GMT-0400 (Eastern Daylight Time)","567797","Trustworthy,Untrustworthy","html-keyboard-response","125","288127","0.0-11.0-2.38","","null","","<div class='trialDiv'><img src='Fruit/lime.png'><br><font class='baseline'><strong>Limin' Large</strong><p>Choose number of points to bet.</font><div class='respPicDiv'><img src='img/responseButtonOffersNo0L1.png' class='respPic'></div></div>","null","13","Limin' Large","Fruit/lime.png","Won","0.2,0.65","10","0.2","172","39","",""
"","","","feedback","62e19208352cd518d7b2f085","bdp_rwlrn","Tue Mar 14 2023 21:32:43 GMT-0400 (Eastern Daylight Time)","567797","Trustworthy,Untrustworthy","html-keyboard-response","126","289135","0.0-11.0-3.38","","null","","<div class='respPicDiv'><img src='img/responseButtonOffersNo0_wht.png' class='respPic'></div><div class='trialDiv'><img src='Fruit/lime.png'><br><font class='baseline'><strong>Limin' Large</strong><p><strong><font class='posOutcome'>You WON</font><p>You bet: 1</strong></font> &nbsp; &nbsp; &nbsp; &nbsp; &nbsp; &nbsp;<font class='posOutcome'>you receive: <strong>2</strong></font></div>","null","13","Limin' Large","Fruit/lime.png","Won","0.2,0.65","10","0.2","174","39","",""
"","","","decision","62e19208352cd518d7b2f085","bdp_rwlrn","Tue Mar 14 2023 21:32:43 GMT-0400 (Eastern Daylight Time)","567797","Trustworthy,Untrustworthy","html-keyboard-response","127","290048","0.0-11.0-1.39","","912","","<div class='trialDiv'><img src='Fruit/papayas.png'><br><font class='baseline'><strong>Papaya Payday</strong><p>Choose number of points to bet.</font><div class='respPicDiv'><img src='img/responseButtonOffersNo0L.png' class='respPic'></div></div>","1","14","Papaya Payday","Fruit/papayas.png","Won","0.2,0.8","14","0.2","179","40","",""
"","","","decisionFB","62e19208352cd518d7b2f085","bdp_rwlrn","Tue Mar 14 2023 21:32:43 GMT-0400 (Eastern Daylight Time)","567797","Trustworthy,Untrustworthy","html-keyboard-response","128","290302","0.0-11.0-2.39","","null","","<div class='trialDiv'><img src='Fruit/papayas.png'><br><font class='baseline'><strong>Papaya Payday</strong><p>Choose number of points to bet.</font><div class='respPicDiv'><img src='img/responseButtonOffersNo0L1.png' class='respPic'></div></div>","null","14","Papaya Payday","Fruit/papayas.png","Won","0.2,0.8","14","0.2","178","40","",""
"","","","feedback","62e19208352cd518d7b2f085","bdp_rwlrn","Tue Mar 14 2023 21:32:43 GMT-0400 (Eastern Daylight Time)","567797","Trustworthy,Untrustworthy","html-keyboard-response","129","291318","0.0-11.0-3.39","","null","","<div class='respPicDiv'><img src='img/responseButtonOffersNo0_wht.png' class='respPic'></div><div class='trialDiv'><img src='Fruit/papayas.png'><br><font class='baseline'><strong>Papaya Payday</strong><p><strong><font class='posOutcome'>You WON</font><p>You bet: 1</strong></font> &nbsp; &nbsp; &nbsp; &nbsp; &nbsp; &nbsp;<font class='posOutcome'>you receive: <strong>2</strong></font></div>","null","14","Papaya Payday","Fruit/papayas.png","Won","0.2,0.8","14","0.2","180","40","",""
"","","","decision","62e19208352cd518d7b2f085","bdp_rwlrn","Tue Mar 14 2023 21:32:43 GMT-0400 (Eastern Daylight Time)","567797","Trustworthy,Untrustworthy","html-keyboard-response","130","292432","0.0-11.0-1.40","","1113","","<div class='trialDiv'><img src='Fruit/lime.png'><br><font class='baseline'><strong>Limin' Large</strong><p>Choose number of points to bet.</font><div class='respPicDiv'><img src='img/responseButtonOffersNo0L.png' class='respPic'></div></div>","1","14","Limin' Large","Fruit/lime.png","Lost","0.2,0.65","10","0.2","185","41","",""
"","","","decisionFB","62e19208352cd518d7b2f085","bdp_rwlrn","Tue Mar 14 2023 21:32:43 GMT-0400 (Eastern Daylight Time)","567797","Trustworthy,Untrustworthy","html-keyboard-response","131","292686","0.0-11.0-2.40","","null","","<div class='trialDiv'><img src='Fruit/lime.png'><br><font class='baseline'><strong>Limin' Large</strong><p>Choose number of points to bet.</font><div class='respPicDiv'><img src='img/responseButtonOffersNo0L1.png' class='respPic'></div></div>","null","14","Limin' Large","Fruit/lime.png","Lost","0.2,0.65","10","0.2","184","41","",""
"","","","feedback","62e19208352cd518d7b2f085","bdp_rwlrn","Tue Mar 14 2023 21:32:43 GMT-0400 (Eastern Daylight Time)","567797","Trustworthy,Untrustworthy","html-keyboard-response","132","293694","0.0-11.0-3.40","","null","","<div class='respPicDiv'><img src='img/responseButtonOffersNo0_wht.png' class='respPic'></div><div class='trialDiv'><img src='Fruit/lime.png'><br><font class='baseline'><strong>Limin' Large</strong><p><strong><font class='negOutcome'>You LOST</font><p>You bet: 1</strong></font> &nbsp; &nbsp; &nbsp; &nbsp; &nbsp; &nbsp;<font class='negOutcome'>You receive: <strong>0</strong></font></div>","null","14","Limin' Large","Fruit/lime.png","Lost","0.2,0.65","10","0.2","184","41","",""
"","","","decision","62e19208352cd518d7b2f085","bdp_rwlrn","Tue Mar 14 2023 21:32:43 GMT-0400 (Eastern Daylight Time)","567797","Trustworthy,Untrustworthy","html-keyboard-response","133","295016","0.0-11.0-1.41","","1321","","<div class='trialDiv'><img src='Fruit/mango.png'><br><font class='baseline'><strong>Mega Mangos</strong><p>Choose number of points to bet.</font><div class='respPicDiv'><img src='img/responseButtonOffersNo0L.png' class='respPic'></div></div>","1","14","Mega Mangos","Fruit/mango.png","Lost","0.65,0.2","11","0.65","189","42","",""
"","","","decisionFB","62e19208352cd518d7b2f085","bdp_rwlrn","Tue Mar 14 2023 21:32:43 GMT-0400 (Eastern Daylight Time)","567797","Trustworthy,Untrustworthy","html-keyboard-response","134","295270","0.0-11.0-2.41","","null","","<div class='trialDiv'><img src='Fruit/mango.png'><br><font class='baseline'><strong>Mega Mangos</strong><p>Choose number of points to bet.</font><div class='respPicDiv'><img src='img/responseButtonOffersNo0L1.png' class='respPic'></div></div>","null","14","Mega Mangos","Fruit/mango.png","Lost","0.65,0.2","11","0.65","188","42","",""
"","","","feedback","62e19208352cd518d7b2f085","bdp_rwlrn","Tue Mar 14 2023 21:32:43 GMT-0400 (Eastern Daylight Time)","567797","Trustworthy,Untrustworthy","html-keyboard-response","135","296278","0.0-11.0-3.41","","null","","<div class='respPicDiv'><img src='img/responseButtonOffersNo0_wht.png' class='respPic'></div><div class='trialDiv'><img src='Fruit/mango.png'><br><font class='baseline'><strong>Mega Mangos</strong><p><strong><font class='negOutcome'>You LOST</font><p>You bet: 1</strong></font> &nbsp; &nbsp; &nbsp; &nbsp; &nbsp; &nbsp;<font class='negOutcome'>You receive: <strong>0</strong></font></div>","null","14","Mega Mangos","Fruit/mango.png","Lost","0.65,0.2","11","0.65","188","42","",""
"","","","decision","62e19208352cd518d7b2f085","bdp_rwlrn","Tue Mar 14 2023 21:32:43 GMT-0400 (Eastern Daylight Time)","567797","Trustworthy,Untrustworthy","html-keyboard-response","136","297032","0.0-11.0-1.42","","752","","<div class='trialDiv'><img src='Fruit/lime.png'><br><font class='baseline'><strong>Limin' Large</strong><p>Choose number of points to bet.</font><div class='respPicDiv'><img src='img/responseButtonOffersNo0L.png' class='respPic'></div></div>","1","15","Limin' Large","Fruit/lime.png","Lost","0.2,0.65","10","0.2","193","43","",""
"","","","decisionFB","62e19208352cd518d7b2f085","bdp_rwlrn","Tue Mar 14 2023 21:32:43 GMT-0400 (Eastern Daylight Time)","567797","Trustworthy,Untrustworthy","html-keyboard-response","137","297286","0.0-11.0-2.42","","null","","<div class='trialDiv'><img src='Fruit/lime.png'><br><font class='baseline'><strong>Limin' Large</strong><p>Choose number of points to bet.</font><div class='respPicDiv'><img src='img/responseButtonOffersNo0L1.png' class='respPic'></div></div>","null","15","Limin' Large","Fruit/lime.png","Lost","0.2,0.65","10","0.2","192","43","",""
"","","","feedback","62e19208352cd518d7b2f085","bdp_rwlrn","Tue Mar 14 2023 21:32:43 GMT-0400 (Eastern Daylight Time)","567797","Trustworthy,Untrustworthy","html-keyboard-response","138","298298","0.0-11.0-3.42","","null","","<div class='respPicDiv'><img src='img/responseButtonOffersNo0_wht.png' class='respPic'></div><div class='trialDiv'><img src='Fruit/lime.png'><br><font class='baseline'><strong>Limin' Large</strong><p><strong><font class='negOutcome'>You LOST</font><p>You bet: 1</strong></font> &nbsp; &nbsp; &nbsp; &nbsp; &nbsp; &nbsp;<font class='negOutcome'>You receive: <strong>0</strong></font></div>","null","15","Limin' Large","Fruit/lime.png","Lost","0.2,0.65","10","0.2","192","43","",""
"","","","decision","62e19208352cd518d7b2f085","bdp_rwlrn","Tue Mar 14 2023 21:32:43 GMT-0400 (Eastern Daylight Time)","567797","Trustworthy,Untrustworthy","html-keyboard-response","139","299193","0.0-11.0-1.43","","893","","<div class='trialDiv'><img src='Fruit/papayas.png'><br><font class='baseline'><strong>Papaya Payday</strong><p>Choose number of points to bet.</font><div class='respPicDiv'><img src='img/responseButtonOffersNo0L.png' class='respPic'></div></div>","2","15","Papaya Payday","Fruit/papayas.png","Won","0.2,0.8","14","0.2","197","44","",""
"","","","decisionFB","62e19208352cd518d7b2f085","bdp_rwlrn","Tue Mar 14 2023 21:32:43 GMT-0400 (Eastern Daylight Time)","567797","Trustworthy,Untrustworthy","html-keyboard-response","140","299446","0.0-11.0-2.43","","null","","<div class='trialDiv'><img src='Fruit/papayas.png'><br><font class='baseline'><strong>Papaya Payday</strong><p>Choose number of points to bet.</font><div class='respPicDiv'><img src='img/responseButtonOffersNo0L2.png' class='respPic'></div></div>","null","15","Papaya Payday","Fruit/papayas.png","Won","0.2,0.8","14","0.2","195","44","",""
"","","","feedback","62e19208352cd518d7b2f085","bdp_rwlrn","Tue Mar 14 2023 21:32:43 GMT-0400 (Eastern Daylight Time)","567797","Trustworthy,Untrustworthy","html-keyboard-response","141","300454","0.0-11.0-3.43","","null","","<div class='respPicDiv'><img src='img/responseButtonOffersNo0_wht.png' class='respPic'></div><div class='trialDiv'><img src='Fruit/papayas.png'><br><font class='baseline'><strong>Papaya Payday</strong><p><strong><font class='posOutcome'>You WON</font><p>You bet: 2</strong></font> &nbsp; &nbsp; &nbsp; &nbsp; &nbsp; &nbsp;<font class='posOutcome'>you receive: <strong>4</strong></font></div>","null","15","Papaya Payday","Fruit/papayas.png","Won","0.2,0.8","14","0.2","199","44","",""
"","","","decision","62e19208352cd518d7b2f085","bdp_rwlrn","Tue Mar 14 2023 21:32:43 GMT-0400 (Eastern Daylight Time)","567797","Trustworthy,Untrustworthy","html-keyboard-response","142","301472","0.0-11.0-1.44","","1016","","<div class='trialDiv'><img src='Fruit/mango.png'><br><font class='baseline'><strong>Mega Mangos</strong><p>Choose number of points to bet.</font><div class='respPicDiv'><img src='img/responseButtonOffersNo0L.png' class='respPic'></div></div>","1","15","Mega Mangos","Fruit/mango.png","Won","0.65,0.2","11","0.65","204","45","",""
"","","","decisionFB","62e19208352cd518d7b2f085","bdp_rwlrn","Tue Mar 14 2023 21:32:43 GMT-0400 (Eastern Daylight Time)","567797","Trustworthy,Untrustworthy","html-keyboard-response","143","301726","0.0-11.0-2.44","","null","","<div class='trialDiv'><img src='Fruit/mango.png'><br><font class='baseline'><strong>Mega Mangos</strong><p>Choose number of points to bet.</font><div class='respPicDiv'><img src='img/responseButtonOffersNo0L1.png' class='respPic'></div></div>","null","15","Mega Mangos","Fruit/mango.png","Won","0.65,0.2","11","0.65","203","45","",""
"","","","feedback","62e19208352cd518d7b2f085","bdp_rwlrn","Tue Mar 14 2023 21:32:43 GMT-0400 (Eastern Daylight Time)","567797","Trustworthy,Untrustworthy","html-keyboard-response","144","302734","0.0-11.0-3.44","","null","","<div class='respPicDiv'><img src='img/responseButtonOffersNo0_wht.png' class='respPic'></div><div class='trialDiv'><img src='Fruit/mango.png'><br><font class='baseline'><strong>Mega Mangos</strong><p><strong><font class='posOutcome'>You WON</font><p>You bet: 1</strong></font> &nbsp; &nbsp; &nbsp; &nbsp; &nbsp; &nbsp;<font class='posOutcome'>you receive: <strong>2</strong></font></div>","null","15","Mega Mangos","Fruit/mango.png","Won","0.65,0.2","11","0.65","205","45","",""
"","","","decision","62e19208352cd518d7b2f085","bdp_rwlrn","Tue Mar 14 2023 21:32:43 GMT-0400 (Eastern Daylight Time)","567797","Trustworthy,Untrustworthy","html-keyboard-response","145","304256","0.0-11.0-1.45","","1520","","<div class='trialDiv'><img src='Fruit/papayas.png'><br><font class='baseline'><strong>Papaya Payday</strong><p>Choose number of points to bet.</font><div class='respPicDiv'><img src='img/responseButtonOffersNo0L.png' class='respPic'></div></div>","2","16","Papaya Payday","Fruit/papayas.png","Won","0.2,0.8","14","0.2","210","46","",""
"","","","decisionFB","62e19208352cd518d7b2f085","bdp_rwlrn","Tue Mar 14 2023 21:32:43 GMT-0400 (Eastern Daylight Time)","567797","Trustworthy,Untrustworthy","html-keyboard-response","146","304510","0.0-11.0-2.45","","null","","<div class='trialDiv'><img src='Fruit/papayas.png'><br><font class='baseline'><strong>Papaya Payday</strong><p>Choose number of points to bet.</font><div class='respPicDiv'><img src='img/responseButtonOffersNo0L2.png' class='respPic'></div></div>","null","16","Papaya Payday","Fruit/papayas.png","Won","0.2,0.8","14","0.2","208","46","",""
"","","","feedback","62e19208352cd518d7b2f085","bdp_rwlrn","Tue Mar 14 2023 21:32:43 GMT-0400 (Eastern Daylight Time)","567797","Trustworthy,Untrustworthy","html-keyboard-response","147","305518","0.0-11.0-3.45","","null","","<div class='respPicDiv'><img src='img/responseButtonOffersNo0_wht.png' class='respPic'></div><div class='trialDiv'><img src='Fruit/papayas.png'><br><font class='baseline'><strong>Papaya Payday</strong><p><strong><font class='posOutcome'>You WON</font><p>You bet: 2</strong></font> &nbsp; &nbsp; &nbsp; &nbsp; &nbsp; &nbsp;<font class='posOutcome'>you receive: <strong>4</strong></font></div>","null","16","Papaya Payday","Fruit/papayas.png","Won","0.2,0.8","14","0.2","212","46","",""
"","","","decision","62e19208352cd518d7b2f085","bdp_rwlrn","Tue Mar 14 2023 21:32:43 GMT-0400 (Eastern Daylight Time)","567797","Trustworthy,Untrustworthy","html-keyboard-response","148","306584","0.0-11.0-1.46","","1065","","<div class='trialDiv'><img src='Fruit/mango.png'><br><font class='baseline'><strong>Mega Mangos</strong><p>Choose number of points to bet.</font><div class='respPicDiv'><img src='img/responseButtonOffersNo0L.png' class='respPic'></div></div>","3","16","Mega Mangos","Fruit/mango.png","Lost","0.65,0.2","11","0.65","217","47","",""
"","","","decisionFB","62e19208352cd518d7b2f085","bdp_rwlrn","Tue Mar 14 2023 21:32:43 GMT-0400 (Eastern Daylight Time)","567797","Trustworthy,Untrustworthy","html-keyboard-response","149","306839","0.0-11.0-2.46","","null","","<div class='trialDiv'><img src='Fruit/mango.png'><br><font class='baseline'><strong>Mega Mangos</strong><p>Choose number of points to bet.</font><div class='respPicDiv'><img src='img/responseButtonOffersNo0L3.png' class='respPic'></div></div>","null","16","Mega Mangos","Fruit/mango.png","Lost","0.65,0.2","11","0.65","214","47","",""
"","","","feedback","62e19208352cd518d7b2f085","bdp_rwlrn","Tue Mar 14 2023 21:32:43 GMT-0400 (Eastern Daylight Time)","567797","Trustworthy,Untrustworthy","html-keyboard-response","150","307846","0.0-11.0-3.46","","null","","<div class='respPicDiv'><img src='img/responseButtonOffersNo0_wht.png' class='respPic'></div><div class='trialDiv'><img src='Fruit/mango.png'><br><font class='baseline'><strong>Mega Mangos</strong><p><strong><font class='negOutcome'>You LOST</font><p>You bet: 3</strong></font> &nbsp; &nbsp; &nbsp; &nbsp; &nbsp; &nbsp;<font class='negOutcome'>You receive: <strong>0</strong></font></div>","null","16","Mega Mangos","Fruit/mango.png","Lost","0.65,0.2","11","0.65","214","47","",""
"","","","decision","62e19208352cd518d7b2f085","bdp_rwlrn","Tue Mar 14 2023 21:32:43 GMT-0400 (Eastern Daylight Time)","567797","Trustworthy,Untrustworthy","html-keyboard-response","151","308759","0.0-11.0-1.47","","912","","<div class='trialDiv'><img src='Fruit/lime.png'><br><font class='baseline'><strong>Limin' Large</strong><p>Choose number of points to bet.</font><div class='respPicDiv'><img src='img/responseButtonOffersNo0L.png' class='respPic'></div></div>","1","16","Limin' Large","Fruit/lime.png","Won","0.2,0.65","10","0.2","219","48","",""
"","","","decisionFB","62e19208352cd518d7b2f085","bdp_rwlrn","Tue Mar 14 2023 21:32:43 GMT-0400 (Eastern Daylight Time)","567797","Trustworthy,Untrustworthy","html-keyboard-response","152","309014","0.0-11.0-2.47","","null","","<div class='trialDiv'><img src='Fruit/lime.png'><br><font class='baseline'><strong>Limin' Large</strong><p>Choose number of points to bet.</font><div class='respPicDiv'><img src='img/responseButtonOffersNo0L1.png' class='respPic'></div></div>","null","16","Limin' Large","Fruit/lime.png","Won","0.2,0.65","10","0.2","218","48","",""
"","","","feedback","62e19208352cd518d7b2f085","bdp_rwlrn","Tue Mar 14 2023 21:32:43 GMT-0400 (Eastern Daylight Time)","567797","Trustworthy,Untrustworthy","html-keyboard-response","153","310022","0.0-11.0-3.47","","null","","<div class='respPicDiv'><img src='img/responseButtonOffersNo0_wht.png' class='respPic'></div><div class='trialDiv'><img src='Fruit/lime.png'><br><font class='baseline'><strong>Limin' Large</strong><p><strong><font class='posOutcome'>You WON</font><p>You bet: 1</strong></font> &nbsp; &nbsp; &nbsp; &nbsp; &nbsp; &nbsp;<font class='posOutcome'>you receive: <strong>2</strong></font></div>","null","16","Limin' Large","Fruit/lime.png","Won","0.2,0.65","10","0.2","220","48","",""
"","","","decision","62e19208352cd518d7b2f085","bdp_rwlrn","Tue Mar 14 2023 21:32:43 GMT-0400 (Eastern Daylight Time)","567797","Trustworthy,Untrustworthy","html-keyboard-response","154","310856","0.0-11.0-1.48","","833","","<div class='trialDiv'><img src='Fruit/mango.png'><br><font class='baseline'><strong>Mega Mangos</strong><p>Choose number of points to bet.</font><div class='respPicDiv'><img src='img/responseButtonOffersNo0L.png' class='respPic'></div></div>","1","17","Mega Mangos","Fruit/mango.png","Lost","0.65,0.2","11","0.65","225","49","",""
"","","","decisionFB","62e19208352cd518d7b2f085","bdp_rwlrn","Tue Mar 14 2023 21:32:43 GMT-0400 (Eastern Daylight Time)","567797","Trustworthy,Untrustworthy","html-keyboard-response","155","311111","0.0-11.0-2.48","","null","","<div class='trialDiv'><img src='Fruit/mango.png'><br><font class='baseline'><strong>Mega Mangos</strong><p>Choose number of points to bet.</font><div class='respPicDiv'><img src='img/responseButtonOffersNo0L1.png' class='respPic'></div></div>","null","17","Mega Mangos","Fruit/mango.png","Lost","0.65,0.2","11","0.65","224","49","",""
"","","","feedback","62e19208352cd518d7b2f085","bdp_rwlrn","Tue Mar 14 2023 21:32:43 GMT-0400 (Eastern Daylight Time)","567797","Trustworthy,Untrustworthy","html-keyboard-response","156","312119","0.0-11.0-3.48","","null","","<div class='respPicDiv'><img src='img/responseButtonOffersNo0_wht.png' class='respPic'></div><div class='trialDiv'><img src='Fruit/mango.png'><br><font class='baseline'><strong>Mega Mangos</strong><p><strong><font class='negOutcome'>You LOST</font><p>You bet: 1</strong></font> &nbsp; &nbsp; &nbsp; &nbsp; &nbsp; &nbsp;<font class='negOutcome'>You receive: <strong>0</strong></font></div>","null","17","Mega Mangos","Fruit/mango.png","Lost","0.65,0.2","11","0.65","224","49","",""
"","","","decision","62e19208352cd518d7b2f085","bdp_rwlrn","Tue Mar 14 2023 21:32:43 GMT-0400 (Eastern Daylight Time)","567797","Trustworthy,Untrustworthy","html-keyboard-response","157","313287","0.0-11.0-1.49","","1167","","<div class='trialDiv'><img src='Fruit/lime.png'><br><font class='baseline'><strong>Limin' Large</strong><p>Choose number of points to bet.</font><div class='respPicDiv'><img src='img/responseButtonOffersNo0L.png' class='respPic'></div></div>","2","17","Limin' Large","Fruit/lime.png","Lost","0.2,0.65","10","0.2","229","50","",""
"","","","decisionFB","62e19208352cd518d7b2f085","bdp_rwlrn","Tue Mar 14 2023 21:32:43 GMT-0400 (Eastern Daylight Time)","567797","Trustworthy,Untrustworthy","html-keyboard-response","158","313543","0.0-11.0-2.49","","null","","<div class='trialDiv'><img src='Fruit/lime.png'><br><font class='baseline'><strong>Limin' Large</strong><p>Choose number of points to bet.</font><div class='respPicDiv'><img src='img/responseButtonOffersNo0L2.png' class='respPic'></div></div>","null","17","Limin' Large","Fruit/lime.png","Lost","0.2,0.65","10","0.2","227","50","",""
"","","","feedback","62e19208352cd518d7b2f085","bdp_rwlrn","Tue Mar 14 2023 21:32:43 GMT-0400 (Eastern Daylight Time)","567797","Trustworthy,Untrustworthy","html-keyboard-response","159","314551","0.0-11.0-3.49","","null","","<div class='respPicDiv'><img src='img/responseButtonOffersNo0_wht.png' class='respPic'></div><div class='trialDiv'><img src='Fruit/lime.png'><br><font class='baseline'><strong>Limin' Large</strong><p><strong><font class='negOutcome'>You LOST</font><p>You bet: 2</strong></font> &nbsp; &nbsp; &nbsp; &nbsp; &nbsp; &nbsp;<font class='negOutcome'>You receive: <strong>0</strong></font></div>","null","17","Limin' Large","Fruit/lime.png","Lost","0.2,0.65","10","0.2","227","50","",""
"","","","decision","62e19208352cd518d7b2f085","bdp_rwlrn","Tue Mar 14 2023 21:32:43 GMT-0400 (Eastern Daylight Time)","567797","Trustworthy,Untrustworthy","html-keyboard-response","160","316175","0.0-11.0-1.50","","1623","","<div class='trialDiv'><img src='Fruit/papayas.png'><br><font class='baseline'><strong>Papaya Payday</strong><p>Choose number of points to bet.</font><div class='respPicDiv'><img src='img/responseButtonOffersNo0L.png' class='respPic'></div></div>","4","17","Papaya Payday","Fruit/papayas.png","Won","0.2,0.8","14","0.2","232","51","",""
"","","","decisionFB","62e19208352cd518d7b2f085","bdp_rwlrn","Tue Mar 14 2023 21:32:43 GMT-0400 (Eastern Daylight Time)","567797","Trustworthy,Untrustworthy","html-keyboard-response","161","316431","0.0-11.0-2.50","","null","","<div class='trialDiv'><img src='Fruit/papayas.png'><br><font class='baseline'><strong>Papaya Payday</strong><p>Choose number of points to bet.</font><div class='respPicDiv'><img src='img/responseButtonOffersNo0L4.png' class='respPic'></div></div>","null","17","Papaya Payday","Fruit/papayas.png","Won","0.2,0.8","14","0.2","228","51","",""
"","","","feedback","62e19208352cd518d7b2f085","bdp_rwlrn","Tue Mar 14 2023 21:32:43 GMT-0400 (Eastern Daylight Time)","567797","Trustworthy,Untrustworthy","html-keyboard-response","162","317439","0.0-11.0-3.50","","null","","<div class='respPicDiv'><img src='img/responseButtonOffersNo0_wht.png' class='respPic'></div><div class='trialDiv'><img src='Fruit/papayas.png'><br><font class='baseline'><strong>Papaya Payday</strong><p><strong><font class='posOutcome'>You WON</font><p>You bet: 4</strong></font> &nbsp; &nbsp; &nbsp; &nbsp; &nbsp; &nbsp;<font class='posOutcome'>you receive: <strong>8</strong></font></div>","null","17","Papaya Payday","Fruit/papayas.png","Won","0.2,0.8","14","0.2","236","51","",""
"","","","decision","62e19208352cd518d7b2f085","bdp_rwlrn","Tue Mar 14 2023 21:32:43 GMT-0400 (Eastern Daylight Time)","567797","Trustworthy,Untrustworthy","html-keyboard-response","163","319167","0.0-11.0-1.51","","1727","","<div class='trialDiv'><img src='Fruit/lime.png'><br><font class='baseline'><strong>Limin' Large</strong><p>Choose number of points to bet.</font><div class='respPicDiv'><img src='img/responseButtonOffersNo0L.png' class='respPic'></div></div>","1","18","Limin' Large","Fruit/lime.png","Won","0.2,0.65","10","0.2","241","52","",""
