"trial_type","trial_index","time_elapsed","internal_node_id","subject_id","task","startTime","totalTime","labels","view_history","rt","event","trial","time","trialtype","success","stimulus","key_press","ltround","name","fileID","outcome","lottotype","lottoswpt","lottocurrpshare","point_total","round","faceID","face"
"pavlovia","0","6","0.0-0.0","sconelab3","bdp_rwlrn","Wed Feb 22 2023 11:16:23 GMT-0500 (Eastern Standard Time)","413290","Untrustworthy,Trustworthy","","","","","","","","","","","","","","","","","","","",""
"instructions","1","1885","0.0-1.0","sconelab3","bdp_rwlrn","Wed Feb 22 2023 11:16:23 GMT-0500 (Eastern Standard Time)","413290","Untrustworthy,Trustworthy","[{""page_index"":0,""viewing_time"":1877}]","1877","","","","","","","","","","","","","","","","","",""
"","","","","sconelab3","bdp_rwlrn","Wed Feb 22 2023 11:16:23 GMT-0500 (Eastern Standard Time)","413290","Untrustworthy,Trustworthy","","","fullscreenenter","2","3680","fullscreenenter","","","","","","","","","","","","","",""
"fullscreen","2","4673","0.0-2.0","sconelab3","bdp_rwlrn","Wed Feb 22 2023 11:16:23 GMT-0500 (Eastern Standard Time)","413290","Untrustworthy,Trustworthy","","","","","","","true","","","","","","","","","","","","",""
"instructions","3","42056","0.0-4.0","sconelab3","bdp_rwlrn","Wed Feb 22 2023 11:16:23 GMT-0500 (Eastern Standard Time)","413290","Untrustworthy,Trustworthy","[{""page_index"":0,""viewing_time"":6918},{""page_index"":1,""viewing_time"":10694},{""page_index"":2,""viewing_time"":2073},{""page_index"":3,""viewing_time"":5883},{""page_index"":4,""viewing_time"":4371},{""page_index"":5,""viewing_time"":7439}]","37378","","","","","","","","","","","","","","","","","",""
"html-keyboard-response","4","51159","0.0-5.0","sconelab3","bdp_rwlrn","Wed Feb 22 2023 11:16:23 GMT-0500 (Eastern Standard Time)","413290","Untrustworthy,Trustworthy","","9101","","","","","","<div class='header' style='text-align:left; position: absolute; top: 5%; left: 5%;'><small>Task 2 of 5</small></div><div class='instruxDiv'><p><strong>1) What is the maximum number of points you can choose to bet on a lottery?</strong></p><p>a) 0</p><p>b) 1</p><p>c) 5</p>","C","","","","","","","","","","",""
"html-keyboard-response","5","52870","0.0-6.0","sconelab3","bdp_rwlrn","Wed Feb 22 2023 11:16:23 GMT-0500 (Eastern Standard Time)","413290","Untrustworthy,Trustworthy","","1604","","","","","","<div class='header' style='text-align:left; position: absolute; top: 5%; left: 5%;'><small>Task 2 of 5</small></div><div class='instruxDiv'><p><strong>1) What is the maximum number of points you can choose to bet on a lottery?</strong></p><p>a) 1</p><p>b) 1</p><p style='color:#00FF00'>c) 5</p><h3 style='color:#00FF00'>Correct!</h3><h3 class='center-content'>The correct response is c).</h3><h3 class='center-content'>The maximum number of points you can choose to bet on a lottery is 5 points.</h3><p><em>Press SPACEBAR to continue</em></p></div>"," ","","","","","","","","","","",""
"html-keyboard-response","6","59600","0.0-7.0","sconelab3","bdp_rwlrn","Wed Feb 22 2023 11:16:23 GMT-0500 (Eastern Standard Time)","413290","Untrustworthy,Trustworthy","","6624","","","","","","<div class='header' style='text-align:left; position: absolute; top: 5%; left: 5%;'><small>Task 2 of 5</small></div><div class='instruxDiv'><p><strong>2) How many points can you win each round?</strong></p><p>a) 10 points</p><p>b) Double what you bet</p><p>c) Quadruple what you bet</p>","B","","","","","","","","","","",""
"html-keyboard-response","7","60479","0.0-8.0","sconelab3","bdp_rwlrn","Wed Feb 22 2023 11:16:23 GMT-0500 (Eastern Standard Time)","413290","Untrustworthy,Trustworthy","","774","","","","","","<div class='header' style='text-align:left; position: absolute; top: 5%; left: 5%;'><small>Task 2 of 5</small></div><div class='instruxDiv'><p><strong>2) How many points can you win each round?</strong></p><p>a) 10 points</p><p style='color:#00FF00'>b) Double what you bet</p><p>c) Quadruple what you bet</p><h3 style='color:#00FF00'>Correct!</h3><h3 class='center-content'>The correct response is b).</h3><h3 class='center-content'>You can win double the amount of points you bet.</h3><p><em>Press SPACEBAR to continue</em></p></div>"," ","","","","","","","","","","",""
"html-keyboard-response","8","65594","0.0-9.0","sconelab3","bdp_rwlrn","Wed Feb 22 2023 11:16:23 GMT-0500 (Eastern Standard Time)","413290","Untrustworthy,Trustworthy","","null","","","","","","<div class='header' style='text-align:left; position: absolute; top: 5%; left: 5%;'><small>Task 2 of 5</small></div><div class='instruxDiv'><p>Thank you for completing the quiz<p>These are the actual lotteries you will be playing in the next block:<p><div class='tc' align='center'><img class='introPic' src='Fruit/pears.png'><br><strong>Pears Aplenty</strong></div><div class='bl' align='center'><img class='introPic' src='Fruit/Kiwi.png'><br><strong>Kiwi Kash</strong></div><div class='br' align='center'><img class='introPic' src='Fruit/cherrie.png'><br><strong>Cherry Chances</strong></div></div><p>Across <strong>66 rounds</strong> you will play each lottery <strong>22 times</strong> (in random order).<p style='align:center; color:white'><font <em>Press SPACEBAR to continue</em></p>","null","","","","","","","","","","",""
"instructions","9","70599","0.0-10.0","sconelab3","bdp_rwlrn","Wed Feb 22 2023 11:16:23 GMT-0500 (Eastern Standard Time)","413290","Untrustworthy,Trustworthy","[{""page_index"":0,""viewing_time"":3217},{""page_index"":1,""viewing_time"":1786}]","5003","","","","","","","","","","","","","","","","","",""
"html-keyboard-response","10","81645","0.0-11.0-1.0","sconelab3","bdp_rwlrn","Wed Feb 22 2023 11:16:23 GMT-0500 (Eastern Standard Time)","413290","Untrustworthy,Trustworthy","","10939","","","","decision","","<div class='trialDiv'><img src='Fruit/Kiwi.png'><br><font class='baseline'><strong>Kiwi Kash</strong><p>Choose number of points to bet.</font><div class='respPicDiv'><img src='img/responseButtonOffersNo0L.png' class='respPic'></div></div>","3","1","Kiwi Kash","Fruit/Kiwi.png","Won","0.35,0.8","13","0.35","5","1","",""
"html-keyboard-response","11","81902","0.0-11.0-2.0","sconelab3","bdp_rwlrn","Wed Feb 22 2023 11:16:23 GMT-0500 (Eastern Standard Time)","413290","Untrustworthy,Trustworthy","","null","","","","decisionFB","","<div class='trialDiv'><img src='Fruit/Kiwi.png'><br><font class='baseline'><strong>Kiwi Kash</strong><p>Choose number of points to bet.</font><div class='respPicDiv'><img src='img/responseButtonOffersNo0L3.png' class='respPic'></div></div>","null","1","Kiwi Kash","Fruit/Kiwi.png","Won","0.35,0.8","13","0.35","2","1","",""
"html-keyboard-response","12","82910","0.0-11.0-3.0","sconelab3","bdp_rwlrn","Wed Feb 22 2023 11:16:23 GMT-0500 (Eastern Standard Time)","413290","Untrustworthy,Trustworthy","","null","","","","feedback","","<div class='respPicDiv'><img src='img/responseButtonOffersNo0_wht.png' class='respPic'></div><div class='trialDiv'><img src='Fruit/Kiwi.png'><br><font class='baseline'><strong>Kiwi Kash</strong><p><strong><font class='posOutcome'>You WON</font><p>You bet: 3</strong></font> &nbsp; &nbsp; &nbsp; &nbsp; &nbsp; &nbsp;<font class='posOutcome'>you receive: <strong>6</strong></font></div>","null","1","Kiwi Kash","Fruit/Kiwi.png","Won","0.35,0.8","13","0.35","8","1","",""
"html-keyboard-response","13","85217","0.0-11.0-1.1","sconelab3","bdp_rwlrn","Wed Feb 22 2023 11:16:23 GMT-0500 (Eastern Standard Time)","413290","Untrustworthy,Trustworthy","","2304","","","","decision","","<div class='trialDiv'><img src='Fruit/pears.png'><br><font class='baseline'><strong>Pears Aplenty</strong><p>Choose number of points to bet.</font><div class='respPicDiv'><img src='img/responseButtonOffersNo0L.png' class='respPic'></div></div>","2","1","Pears Aplenty","Fruit/pears.png","Won","0.65,0.35","9","0.65","13","2","",""
"html-keyboard-response","14","85470","0.0-11.0-2.1","sconelab3","bdp_rwlrn","Wed Feb 22 2023 11:16:23 GMT-0500 (Eastern Standard Time)","413290","Untrustworthy,Trustworthy","","null","","","","decisionFB","","<div class='trialDiv'><img src='Fruit/pears.png'><br><font class='baseline'><strong>Pears Aplenty</strong><p>Choose number of points to bet.</font><div class='respPicDiv'><img src='img/responseButtonOffersNo0L2.png' class='respPic'></div></div>","null","1","Pears Aplenty","Fruit/pears.png","Won","0.65,0.35","9","0.65","11","2","",""
"html-keyboard-response","15","86480","0.0-11.0-3.1","sconelab3","bdp_rwlrn","Wed Feb 22 2023 11:16:23 GMT-0500 (Eastern Standard Time)","413290","Untrustworthy,Trustworthy","","null","","","","feedback","","<div class='respPicDiv'><img src='img/responseButtonOffersNo0_wht.png' class='respPic'></div><div class='trialDiv'><img src='Fruit/pears.png'><br><font class='baseline'><strong>Pears Aplenty</strong><p><strong><font class='posOutcome'>You WON</font><p>You bet: 2</strong></font> &nbsp; &nbsp; &nbsp; &nbsp; &nbsp; &nbsp;<font class='posOutcome'>you receive: <strong>4</strong></font></div>","null","1","Pears Aplenty","Fruit/pears.png","Won","0.65,0.35","9","0.65","15","2","",""
"html-keyboard-response","16","88481","0.0-11.0-1.2","sconelab3","bdp_rwlrn","Wed Feb 22 2023 11:16:23 GMT-0500 (Eastern Standard Time)","413290","Untrustworthy,Trustworthy","","1999","","","","decision","","<div class='trialDiv'><img src='Fruit/cherrie.png'><br><font class='baseline'><strong>Cherry Chances</strong><p>Choose number of points to bet.</font><div class='respPicDiv'><img src='img/responseButtonOffersNo0L.png' class='respPic'></div></div>","4","1","Cherry Chances","Fruit/cherrie.png","Won","0.8,0.35","12","0.8","20","3","",""
"html-keyboard-response","17","88742","0.0-11.0-2.2","sconelab3","bdp_rwlrn","Wed Feb 22 2023 11:16:23 GMT-0500 (Eastern Standard Time)","413290","Untrustworthy,Trustworthy","","null","","","","decisionFB","","<div class='trialDiv'><img src='Fruit/cherrie.png'><br><font class='baseline'><strong>Cherry Chances</strong><p>Choose number of points to bet.</font><div class='respPicDiv'><img src='img/responseButtonOffersNo0L4.png' class='respPic'></div></div>","null","1","Cherry Chances","Fruit/cherrie.png","Won","0.8,0.35","12","0.8","16","3","",""
"html-keyboard-response","18","89752","0.0-11.0-3.2","sconelab3","bdp_rwlrn","Wed Feb 22 2023 11:16:23 GMT-0500 (Eastern Standard Time)","413290","Untrustworthy,Trustworthy","","null","","","","feedback","","<div class='respPicDiv'><img src='img/responseButtonOffersNo0_wht.png' class='respPic'></div><div class='trialDiv'><img src='Fruit/cherrie.png'><br><font class='baseline'><strong>Cherry Chances</strong><p><strong><font class='posOutcome'>You WON</font><p>You bet: 4</strong></font> &nbsp; &nbsp; &nbsp; &nbsp; &nbsp; &nbsp;<font class='posOutcome'>you receive: <strong>8</strong></font></div>","null","1","Cherry Chances","Fruit/cherrie.png","Won","0.8,0.35","12","0.8","24","3","",""
"html-keyboard-response","19","92213","0.0-11.0-1.3","sconelab3","bdp_rwlrn","Wed Feb 22 2023 11:16:23 GMT-0500 (Eastern Standard Time)","413290","Untrustworthy,Trustworthy","","2459","","","","decision","","<div class='trialDiv'><img src='Fruit/Kiwi.png'><br><font class='baseline'><strong>Kiwi Kash</strong><p>Choose number of points to bet.</font><div class='respPicDiv'><img src='img/responseButtonOffersNo0L.png' class='respPic'></div></div>","3","2","Kiwi Kash","Fruit/Kiwi.png","Lost","0.35,0.8","13","0.35","29","4","",""
"html-keyboard-response","20","92473","0.0-11.0-2.3","sconelab3","bdp_rwlrn","Wed Feb 22 2023 11:16:23 GMT-0500 (Eastern Standard Time)","413290","Untrustworthy,Trustworthy","","null","","","","decisionFB","","<div class='trialDiv'><img src='Fruit/Kiwi.png'><br><font class='baseline'><strong>Kiwi Kash</strong><p>Choose number of points to bet.</font><div class='respPicDiv'><img src='img/responseButtonOffersNo0L3.png' class='respPic'></div></div>","null","2","Kiwi Kash","Fruit/Kiwi.png","Lost","0.35,0.8","13","0.35","26","4","",""
"html-keyboard-response","21","93481","0.0-11.0-3.3","sconelab3","bdp_rwlrn","Wed Feb 22 2023 11:16:23 GMT-0500 (Eastern Standard Time)","413290","Untrustworthy,Trustworthy","","null","","","","feedback","","<div class='respPicDiv'><img src='img/responseButtonOffersNo0_wht.png' class='respPic'></div><div class='trialDiv'><img src='Fruit/Kiwi.png'><br><font class='baseline'><strong>Kiwi Kash</strong><p><strong><font class='negOutcome'>You LOST</font><p>You bet: 3</strong></font> &nbsp; &nbsp; &nbsp; &nbsp; &nbsp; &nbsp;<font class='negOutcome'>You receive: <strong>0</strong></font></div>","null","2","Kiwi Kash","Fruit/Kiwi.png","Lost","0.35,0.8","13","0.35","26","4","",""
"html-keyboard-response","22","95430","0.0-11.0-1.4","sconelab3","bdp_rwlrn","Wed Feb 22 2023 11:16:23 GMT-0500 (Eastern Standard Time)","413290","Untrustworthy,Trustworthy","","1948","","","","decision","","<div class='trialDiv'><img src='Fruit/cherrie.png'><br><font class='baseline'><strong>Cherry Chances</strong><p>Choose number of points to bet.</font><div class='respPicDiv'><img src='img/responseButtonOffersNo0L.png' class='respPic'></div></div>","4","2","Cherry Chances","Fruit/cherrie.png","Won","0.8,0.35","12","0.8","31","5","",""
"html-keyboard-response","23","95685","0.0-11.0-2.4","sconelab3","bdp_rwlrn","Wed Feb 22 2023 11:16:23 GMT-0500 (Eastern Standard Time)","413290","Untrustworthy,Trustworthy","","null","","","","decisionFB","","<div class='trialDiv'><img src='Fruit/cherrie.png'><br><font class='baseline'><strong>Cherry Chances</strong><p>Choose number of points to bet.</font><div class='respPicDiv'><img src='img/responseButtonOffersNo0L4.png' class='respPic'></div></div>","null","2","Cherry Chances","Fruit/cherrie.png","Won","0.8,0.35","12","0.8","27","5","",""
"html-keyboard-response","24","96696","0.0-11.0-3.4","sconelab3","bdp_rwlrn","Wed Feb 22 2023 11:16:23 GMT-0500 (Eastern Standard Time)","413290","Untrustworthy,Trustworthy","","null","","","","feedback","","<div class='respPicDiv'><img src='img/responseButtonOffersNo0_wht.png' class='respPic'></div><div class='trialDiv'><img src='Fruit/cherrie.png'><br><font class='baseline'><strong>Cherry Chances</strong><p><strong><font class='posOutcome'>You WON</font><p>You bet: 4</strong></font> &nbsp; &nbsp; &nbsp; &nbsp; &nbsp; &nbsp;<font class='posOutcome'>you receive: <strong>8</strong></font></div>","null","2","Cherry Chances","Fruit/cherrie.png","Won","0.8,0.35","12","0.8","35","5","",""
"html-keyboard-response","25","98803","0.0-11.0-1.5","sconelab3","bdp_rwlrn","Wed Feb 22 2023 11:16:23 GMT-0500 (Eastern Standard Time)","413290","Untrustworthy,Trustworthy","","2105","","","","decision","","<div class='trialDiv'><img src='Fruit/pears.png'><br><font class='baseline'><strong>Pears Aplenty</strong><p>Choose number of points to bet.</font><div class='respPicDiv'><img src='img/responseButtonOffersNo0L.png' class='respPic'></div></div>","3","2","Pears Aplenty","Fruit/pears.png","Won","0.65,0.35","9","0.65","40","6","",""
"html-keyboard-response","26","99062","0.0-11.0-2.5","sconelab3","bdp_rwlrn","Wed Feb 22 2023 11:16:23 GMT-0500 (Eastern Standard Time)","413290","Untrustworthy,Trustworthy","","null","","","","decisionFB","","<div class='trialDiv'><img src='Fruit/pears.png'><br><font class='baseline'><strong>Pears Aplenty</strong><p>Choose number of points to bet.</font><div class='respPicDiv'><img src='img/responseButtonOffersNo0L3.png' class='respPic'></div></div>","null","2","Pears Aplenty","Fruit/pears.png","Won","0.65,0.35","9","0.65","37","6","",""
"html-keyboard-response","27","100078","0.0-11.0-3.5","sconelab3","bdp_rwlrn","Wed Feb 22 2023 11:16:23 GMT-0500 (Eastern Standard Time)","413290","Untrustworthy,Trustworthy","","null","","","","feedback","","<div class='respPicDiv'><img src='img/responseButtonOffersNo0_wht.png' class='respPic'></div><div class='trialDiv'><img src='Fruit/pears.png'><br><font class='baseline'><strong>Pears Aplenty</strong><p><strong><font class='posOutcome'>You WON</font><p>You bet: 3</strong></font> &nbsp; &nbsp; &nbsp; &nbsp; &nbsp; &nbsp;<font class='posOutcome'>you receive: <strong>6</strong></font></div>","null","2","Pears Aplenty","Fruit/pears.png","Won","0.65,0.35","9","0.65","43","6","",""
"html-keyboard-response","28","104366","0.0-11.0-1.6","sconelab3","bdp_rwlrn","Wed Feb 22 2023 11:16:23 GMT-0500 (Eastern Standard Time)","413290","Untrustworthy,Trustworthy","","4287","","","","decision","","<div class='trialDiv'><img src='Fruit/Kiwi.png'><br><font class='baseline'><strong>Kiwi Kash</strong><p>Choose number of points to bet.</font><div class='respPicDiv'><img src='img/responseButtonOffersNo0L.png' class='respPic'></div></div>","5","3","Kiwi Kash","Fruit/Kiwi.png","Won","0.35,0.8","13","0.35","48","7","",""
"html-keyboard-response","29","104622","0.0-11.0-2.6","sconelab3","bdp_rwlrn","Wed Feb 22 2023 11:16:23 GMT-0500 (Eastern Standard Time)","413290","Untrustworthy,Trustworthy","","null","","","","decisionFB","","<div class='trialDiv'><img src='Fruit/Kiwi.png'><br><font class='baseline'><strong>Kiwi Kash</strong><p>Choose number of points to bet.</font><div class='respPicDiv'><img src='img/responseButtonOffersNo0L5.png' class='respPic'></div></div>","null","3","Kiwi Kash","Fruit/Kiwi.png","Won","0.35,0.8","13","0.35","43","7","",""
"html-keyboard-response","30","105629","0.0-11.0-3.6","sconelab3","bdp_rwlrn","Wed Feb 22 2023 11:16:23 GMT-0500 (Eastern Standard Time)","413290","Untrustworthy,Trustworthy","","null","","","","feedback","","<div class='respPicDiv'><img src='img/responseButtonOffersNo0_wht.png' class='respPic'></div><div class='trialDiv'><img src='Fruit/Kiwi.png'><br><font class='baseline'><strong>Kiwi Kash</strong><p><strong><font class='posOutcome'>You WON</font><p>You bet: 5</strong></font> &nbsp; &nbsp; &nbsp; &nbsp; &nbsp; &nbsp;<font class='posOutcome'>you receive: <strong>10</strong></font></div>","null","3","Kiwi Kash","Fruit/Kiwi.png","Won","0.35,0.8","13","0.35","53","7","",""
"html-keyboard-response","31","107019","0.0-11.0-1.7","sconelab3","bdp_rwlrn","Wed Feb 22 2023 11:16:23 GMT-0500 (Eastern Standard Time)","413290","Untrustworthy,Trustworthy","","1388","","","","decision","","<div class='trialDiv'><img src='Fruit/pears.png'><br><font class='baseline'><strong>Pears Aplenty</strong><p>Choose number of points to bet.</font><div class='respPicDiv'><img src='img/responseButtonOffersNo0L.png' class='respPic'></div></div>","3","3","Pears Aplenty","Fruit/pears.png","Won","0.65,0.35","9","0.65","58","8","",""
"html-keyboard-response","32","107280","0.0-11.0-2.7","sconelab3","bdp_rwlrn","Wed Feb 22 2023 11:16:23 GMT-0500 (Eastern Standard Time)","413290","Untrustworthy,Trustworthy","","null","","","","decisionFB","","<div class='trialDiv'><img src='Fruit/pears.png'><br><font class='baseline'><strong>Pears Aplenty</strong><p>Choose number of points to bet.</font><div class='respPicDiv'><img src='img/responseButtonOffersNo0L3.png' class='respPic'></div></div>","null","3","Pears Aplenty","Fruit/pears.png","Won","0.65,0.35","9","0.65","55","8","",""
"html-keyboard-response","33","108285","0.0-11.0-3.7","sconelab3","bdp_rwlrn","Wed Feb 22 2023 11:16:23 GMT-0500 (Eastern Standard Time)","413290","Untrustworthy,Trustworthy","","null","","","","feedback","","<div class='respPicDiv'><img src='img/responseButtonOffersNo0_wht.png' class='respPic'></div><div class='trialDiv'><img src='Fruit/pears.png'><br><font class='baseline'><strong>Pears Aplenty</strong><p><strong><font class='posOutcome'>You WON</font><p>You bet: 3</strong></font> &nbsp; &nbsp; &nbsp; &nbsp; &nbsp; &nbsp;<font class='posOutcome'>you receive: <strong>6</strong></font></div>","null","3","Pears Aplenty","Fruit/pears.png","Won","0.65,0.35","9","0.65","61","8","",""
"html-keyboard-response","34","110464","0.0-11.0-1.8","sconelab3","bdp_rwlrn","Wed Feb 22 2023 11:16:23 GMT-0500 (Eastern Standard Time)","413290","Untrustworthy,Trustworthy","","2178","","","","decision","","<div class='trialDiv'><img src='Fruit/cherrie.png'><br><font class='baseline'><strong>Cherry Chances</strong><p>Choose number of points to bet.</font><div class='respPicDiv'><img src='img/responseButtonOffersNo0L.png' class='respPic'></div></div>","2","3","Cherry Chances","Fruit/cherrie.png","Won","0.8,0.35","12","0.8","66","9","",""
"html-keyboard-response","35","110728","0.0-11.0-2.8","sconelab3","bdp_rwlrn","Wed Feb 22 2023 11:16:23 GMT-0500 (Eastern Standard Time)","413290","Untrustworthy,Trustworthy","","null","","","","decisionFB","","<div class='trialDiv'><img src='Fruit/cherrie.png'><br><font class='baseline'><strong>Cherry Chances</strong><p>Choose number of points to bet.</font><div class='respPicDiv'><img src='img/responseButtonOffersNo0L2.png' class='respPic'></div></div>","null","3","Cherry Chances","Fruit/cherrie.png","Won","0.8,0.35","12","0.8","64","9","",""
"html-keyboard-response","36","111736","0.0-11.0-3.8","sconelab3","bdp_rwlrn","Wed Feb 22 2023 11:16:23 GMT-0500 (Eastern Standard Time)","413290","Untrustworthy,Trustworthy","","null","","","","feedback","","<div class='respPicDiv'><img src='img/responseButtonOffersNo0_wht.png' class='respPic'></div><div class='trialDiv'><img src='Fruit/cherrie.png'><br><font class='baseline'><strong>Cherry Chances</strong><p><strong><font class='posOutcome'>You WON</font><p>You bet: 2</strong></font> &nbsp; &nbsp; &nbsp; &nbsp; &nbsp; &nbsp;<font class='posOutcome'>you receive: <strong>4</strong></font></div>","null","3","Cherry Chances","Fruit/cherrie.png","Won","0.8,0.35","12","0.8","68","9","",""
"html-keyboard-response","37","113803","0.0-11.0-1.9","sconelab3","bdp_rwlrn","Wed Feb 22 2023 11:16:23 GMT-0500 (Eastern Standard Time)","413290","Untrustworthy,Trustworthy","","2065","","","","decision","","<div class='trialDiv'><img src='Fruit/Kiwi.png'><br><font class='baseline'><strong>Kiwi Kash</strong><p>Choose number of points to bet.</font><div class='respPicDiv'><img src='img/responseButtonOffersNo0L.png' class='respPic'></div></div>","5","4","Kiwi Kash","Fruit/Kiwi.png","Lost","0.35,0.8","13","0.35","73","10","",""
"html-keyboard-response","38","114061","0.0-11.0-2.9","sconelab3","bdp_rwlrn","Wed Feb 22 2023 11:16:23 GMT-0500 (Eastern Standard Time)","413290","Untrustworthy,Trustworthy","","null","","","","decisionFB","","<div class='trialDiv'><img src='Fruit/Kiwi.png'><br><font class='baseline'><strong>Kiwi Kash</strong><p>Choose number of points to bet.</font><div class='respPicDiv'><img src='img/responseButtonOffersNo0L5.png' class='respPic'></div></div>","null","4","Kiwi Kash","Fruit/Kiwi.png","Lost","0.35,0.8","13","0.35","68","10","",""
"html-keyboard-response","39","115069","0.0-11.0-3.9","sconelab3","bdp_rwlrn","Wed Feb 22 2023 11:16:23 GMT-0500 (Eastern Standard Time)","413290","Untrustworthy,Trustworthy","","null","","","","feedback","","<div class='respPicDiv'><img src='img/responseButtonOffersNo0_wht.png' class='respPic'></div><div class='trialDiv'><img src='Fruit/Kiwi.png'><br><font class='baseline'><strong>Kiwi Kash</strong><p><strong><font class='negOutcome'>You LOST</font><p>You bet: 5</strong></font> &nbsp; &nbsp; &nbsp; &nbsp; &nbsp; &nbsp;<font class='negOutcome'>You receive: <strong>0</strong></font></div>","null","4","Kiwi Kash","Fruit/Kiwi.png","Lost","0.35,0.8","13","0.35","68","10","",""
"html-keyboard-response","40","116084","0.0-11.0-1.10","sconelab3","bdp_rwlrn","Wed Feb 22 2023 11:16:23 GMT-0500 (Eastern Standard Time)","413290","Untrustworthy,Trustworthy","","1013","","","","decision","","<div class='trialDiv'><img src='Fruit/cherrie.png'><br><font class='baseline'><strong>Cherry Chances</strong><p>Choose number of points to bet.</font><div class='respPicDiv'><img src='img/responseButtonOffersNo0L.png' class='respPic'></div></div>","2","4","Cherry Chances","Fruit/cherrie.png","Won","0.8,0.35","12","0.8","73","11","",""
"html-keyboard-response","41","116343","0.0-11.0-2.10","sconelab3","bdp_rwlrn","Wed Feb 22 2023 11:16:23 GMT-0500 (Eastern Standard Time)","413290","Untrustworthy,Trustworthy","","null","","","","decisionFB","","<div class='trialDiv'><img src='Fruit/cherrie.png'><br><font class='baseline'><strong>Cherry Chances</strong><p>Choose number of points to bet.</font><div class='respPicDiv'><img src='img/responseButtonOffersNo0L2.png' class='respPic'></div></div>","null","4","Cherry Chances","Fruit/cherrie.png","Won","0.8,0.35","12","0.8","71","11","",""
"html-keyboard-response","42","117351","0.0-11.0-3.10","sconelab3","bdp_rwlrn","Wed Feb 22 2023 11:16:23 GMT-0500 (Eastern Standard Time)","413290","Untrustworthy,Trustworthy","","null","","","","feedback","","<div class='respPicDiv'><img src='img/responseButtonOffersNo0_wht.png' class='respPic'></div><div class='trialDiv'><img src='Fruit/cherrie.png'><br><font class='baseline'><strong>Cherry Chances</strong><p><strong><font class='posOutcome'>You WON</font><p>You bet: 2</strong></font> &nbsp; &nbsp; &nbsp; &nbsp; &nbsp; &nbsp;<font class='posOutcome'>you receive: <strong>4</strong></font></div>","null","4","Cherry Chances","Fruit/cherrie.png","Won","0.8,0.35","12","0.8","75","11","",""
"html-keyboard-response","43","118205","0.0-11.0-1.11","sconelab3","bdp_rwlrn","Wed Feb 22 2023 11:16:23 GMT-0500 (Eastern Standard Time)","413290","Untrustworthy,Trustworthy","","851","","","","decision","","<div class='trialDiv'><img src='Fruit/pears.png'><br><font class='baseline'><strong>Pears Aplenty</strong><p>Choose number of points to bet.</font><div class='respPicDiv'><img src='img/responseButtonOffersNo0L.png' class='respPic'></div></div>","4","4","Pears Aplenty","Fruit/pears.png","Lost","0.65,0.35","9","0.65","80","12","",""
"html-keyboard-response","44","118463","0.0-11.0-2.11","sconelab3","bdp_rwlrn","Wed Feb 22 2023 11:16:23 GMT-0500 (Eastern Standard Time)","413290","Untrustworthy,Trustworthy","","null","","","","decisionFB","","<div class='trialDiv'><img src='Fruit/pears.png'><br><font class='baseline'><strong>Pears Aplenty</strong><p>Choose number of points to bet.</font><div class='respPicDiv'><img src='img/responseButtonOffersNo0L4.png' class='respPic'></div></div>","null","4","Pears Aplenty","Fruit/pears.png","Lost","0.65,0.35","9","0.65","76","12","",""
"html-keyboard-response","45","119469","0.0-11.0-3.11","sconelab3","bdp_rwlrn","Wed Feb 22 2023 11:16:23 GMT-0500 (Eastern Standard Time)","413290","Untrustworthy,Trustworthy","","null","","","","feedback","","<div class='respPicDiv'><img src='img/responseButtonOffersNo0_wht.png' class='respPic'></div><div class='trialDiv'><img src='Fruit/pears.png'><br><font class='baseline'><strong>Pears Aplenty</strong><p><strong><font class='negOutcome'>You LOST</font><p>You bet: 4</strong></font> &nbsp; &nbsp; &nbsp; &nbsp; &nbsp; &nbsp;<font class='negOutcome'>You receive: <strong>0</strong></font></div>","null","4","Pears Aplenty","Fruit/pears.png","Lost","0.65,0.35","9","0.65","76","12","",""
"html-keyboard-response","46","120693","0.0-11.0-1.12","sconelab3","bdp_rwlrn","Wed Feb 22 2023 11:16:23 GMT-0500 (Eastern Standard Time)","413290","Untrustworthy,Trustworthy","","1223","","","","decision","","<div class='trialDiv'><img src='Fruit/cherrie.png'><br><font class='baseline'><strong>Cherry Chances</strong><p>Choose number of points to bet.</font><div class='respPicDiv'><img src='img/responseButtonOffersNo0L.png' class='respPic'></div></div>","3","5","Cherry Chances","Fruit/cherrie.png","Won","0.8,0.35","12","0.8","81","13","",""
"html-keyboard-response","47","120951","0.0-11.0-2.12","sconelab3","bdp_rwlrn","Wed Feb 22 2023 11:16:23 GMT-0500 (Eastern Standard Time)","413290","Untrustworthy,Trustworthy","","null","","","","decisionFB","","<div class='trialDiv'><img src='Fruit/cherrie.png'><br><font class='baseline'><strong>Cherry Chances</strong><p>Choose number of points to bet.</font><div class='respPicDiv'><img src='img/responseButtonOffersNo0L3.png' class='respPic'></div></div>","null","5","Cherry Chances","Fruit/cherrie.png","Won","0.8,0.35","12","0.8","78","13","",""
"html-keyboard-response","48","121959","0.0-11.0-3.12","sconelab3","bdp_rwlrn","Wed Feb 22 2023 11:16:23 GMT-0500 (Eastern Standard Time)","413290","Untrustworthy,Trustworthy","","null","","","","feedback","","<div class='respPicDiv'><img src='img/responseButtonOffersNo0_wht.png' class='respPic'></div><div class='trialDiv'><img src='Fruit/cherrie.png'><br><font class='baseline'><strong>Cherry Chances</strong><p><strong><font class='posOutcome'>You WON</font><p>You bet: 3</strong></font> &nbsp; &nbsp; &nbsp; &nbsp; &nbsp; &nbsp;<font class='posOutcome'>you receive: <strong>6</strong></font></div>","null","5","Cherry Chances","Fruit/cherrie.png","Won","0.8,0.35","12","0.8","84","13","",""
"html-keyboard-response","49","123445","0.0-11.0-1.13","sconelab3","bdp_rwlrn","Wed Feb 22 2023 11:16:23 GMT-0500 (Eastern Standard Time)","413290","Untrustworthy,Trustworthy","","1485","","","","decision","","<div class='trialDiv'><img src='Fruit/Kiwi.png'><br><font class='baseline'><strong>Kiwi Kash</strong><p>Choose number of points to bet.</font><div class='respPicDiv'><img src='img/responseButtonOffersNo0L.png' class='respPic'></div></div>","4","5","Kiwi Kash","Fruit/Kiwi.png","Won","0.35,0.8","13","0.35","89","14","",""
"html-keyboard-response","50","123700","0.0-11.0-2.13","sconelab3","bdp_rwlrn","Wed Feb 22 2023 11:16:23 GMT-0500 (Eastern Standard Time)","413290","Untrustworthy,Trustworthy","","null","","","","decisionFB","","<div class='trialDiv'><img src='Fruit/Kiwi.png'><br><font class='baseline'><strong>Kiwi Kash</strong><p>Choose number of points to bet.</font><div class='respPicDiv'><img src='img/responseButtonOffersNo0L4.png' class='respPic'></div></div>","null","5","Kiwi Kash","Fruit/Kiwi.png","Won","0.35,0.8","13","0.35","85","14","",""
"html-keyboard-response","51","124708","0.0-11.0-3.13","sconelab3","bdp_rwlrn","Wed Feb 22 2023 11:16:23 GMT-0500 (Eastern Standard Time)","413290","Untrustworthy,Trustworthy","","null","","","","feedback","","<div class='respPicDiv'><img src='img/responseButtonOffersNo0_wht.png' class='respPic'></div><div class='trialDiv'><img src='Fruit/Kiwi.png'><br><font class='baseline'><strong>Kiwi Kash</strong><p><strong><font class='posOutcome'>You WON</font><p>You bet: 4</strong></font> &nbsp; &nbsp; &nbsp; &nbsp; &nbsp; &nbsp;<font class='posOutcome'>you receive: <strong>8</strong></font></div>","null","5","Kiwi Kash","Fruit/Kiwi.png","Won","0.35,0.8","13","0.35","93","14","",""
"html-keyboard-response","52","125713","0.0-11.0-1.14","sconelab3","bdp_rwlrn","Wed Feb 22 2023 11:16:23 GMT-0500 (Eastern Standard Time)","413290","Untrustworthy,Trustworthy","","1003","","","","decision","","<div class='trialDiv'><img src='Fruit/pears.png'><br><font class='baseline'><strong>Pears Aplenty</strong><p>Choose number of points to bet.</font><div class='respPicDiv'><img src='img/responseButtonOffersNo0L.png' class='respPic'></div></div>","2","5","Pears Aplenty","Fruit/pears.png","Lost","0.65,0.35","9","0.65","98","15","",""
"html-keyboard-response","53","125975","0.0-11.0-2.14","sconelab3","bdp_rwlrn","Wed Feb 22 2023 11:16:23 GMT-0500 (Eastern Standard Time)","413290","Untrustworthy,Trustworthy","","null","","","","decisionFB","","<div class='trialDiv'><img src='Fruit/pears.png'><br><font class='baseline'><strong>Pears Aplenty</strong><p>Choose number of points to bet.</font><div class='respPicDiv'><img src='img/responseButtonOffersNo0L2.png' class='respPic'></div></div>","null","5","Pears Aplenty","Fruit/pears.png","Lost","0.65,0.35","9","0.65","96","15","",""
"html-keyboard-response","54","126983","0.0-11.0-3.14","sconelab3","bdp_rwlrn","Wed Feb 22 2023 11:16:23 GMT-0500 (Eastern Standard Time)","413290","Untrustworthy,Trustworthy","","null","","","","feedback","","<div class='respPicDiv'><img src='img/responseButtonOffersNo0_wht.png' class='respPic'></div><div class='trialDiv'><img src='Fruit/pears.png'><br><font class='baseline'><strong>Pears Aplenty</strong><p><strong><font class='negOutcome'>You LOST</font><p>You bet: 2</strong></font> &nbsp; &nbsp; &nbsp; &nbsp; &nbsp; &nbsp;<font class='negOutcome'>You receive: <strong>0</strong></font></div>","null","5","Pears Aplenty","Fruit/pears.png","Lost","0.65,0.35","9","0.65","96","15","",""
"html-keyboard-response","55","127775","0.0-11.0-1.15","sconelab3","bdp_rwlrn","Wed Feb 22 2023 11:16:23 GMT-0500 (Eastern Standard Time)","413290","Untrustworthy,Trustworthy","","790","","","","decision","","<div class='trialDiv'><img src='Fruit/cherrie.png'><br><font class='baseline'><strong>Cherry Chances</strong><p>Choose number of points to bet.</font><div class='respPicDiv'><img src='img/responseButtonOffersNo0L.png' class='respPic'></div></div>","3","6","Cherry Chances","Fruit/cherrie.png","Lost","0.8,0.35","12","0.8","101","16","",""
"html-keyboard-response","56","128041","0.0-11.0-2.15","sconelab3","bdp_rwlrn","Wed Feb 22 2023 11:16:23 GMT-0500 (Eastern Standard Time)","413290","Untrustworthy,Trustworthy","","null","","","","decisionFB","","<div class='trialDiv'><img src='Fruit/cherrie.png'><br><font class='baseline'><strong>Cherry Chances</strong><p>Choose number of points to bet.</font><div class='respPicDiv'><img src='img/responseButtonOffersNo0L3.png' class='respPic'></div></div>","null","6","Cherry Chances","Fruit/cherrie.png","Lost","0.8,0.35","12","0.8","98","16","",""
"html-keyboard-response","57","129047","0.0-11.0-3.15","sconelab3","bdp_rwlrn","Wed Feb 22 2023 11:16:23 GMT-0500 (Eastern Standard Time)","413290","Untrustworthy,Trustworthy","","null","","","","feedback","","<div class='respPicDiv'><img src='img/responseButtonOffersNo0_wht.png' class='respPic'></div><div class='trialDiv'><img src='Fruit/cherrie.png'><br><font class='baseline'><strong>Cherry Chances</strong><p><strong><font class='negOutcome'>You LOST</font><p>You bet: 3</strong></font> &nbsp; &nbsp; &nbsp; &nbsp; &nbsp; &nbsp;<font class='negOutcome'>You receive: <strong>0</strong></font></div>","null","6","Cherry Chances","Fruit/cherrie.png","Lost","0.8,0.35","12","0.8","98","16","",""
"html-keyboard-response","58","130187","0.0-11.0-1.16","sconelab3","bdp_rwlrn","Wed Feb 22 2023 11:16:23 GMT-0500 (Eastern Standard Time)","413290","Untrustworthy,Trustworthy","","1139","","","","decision","","<div class='trialDiv'><img src='Fruit/pears.png'><br><font class='baseline'><strong>Pears Aplenty</strong><p>Choose number of points to bet.</font><div class='respPicDiv'><img src='img/responseButtonOffersNo0L.png' class='respPic'></div></div>","4","6","Pears Aplenty","Fruit/pears.png","Won","0.65,0.35","9","0.65","103","17","",""
"html-keyboard-response","59","130444","0.0-11.0-2.16","sconelab3","bdp_rwlrn","Wed Feb 22 2023 11:16:23 GMT-0500 (Eastern Standard Time)","413290","Untrustworthy,Trustworthy","","null","","","","decisionFB","","<div class='trialDiv'><img src='Fruit/pears.png'><br><font class='baseline'><strong>Pears Aplenty</strong><p>Choose number of points to bet.</font><div class='respPicDiv'><img src='img/responseButtonOffersNo0L4.png' class='respPic'></div></div>","null","6","Pears Aplenty","Fruit/pears.png","Won","0.65,0.35","9","0.65","99","17","",""
"html-keyboard-response","60","131452","0.0-11.0-3.16","sconelab3","bdp_rwlrn","Wed Feb 22 2023 11:16:23 GMT-0500 (Eastern Standard Time)","413290","Untrustworthy,Trustworthy","","null","","","","feedback","","<div class='respPicDiv'><img src='img/responseButtonOffersNo0_wht.png' class='respPic'></div><div class='trialDiv'><img src='Fruit/pears.png'><br><font class='baseline'><strong>Pears Aplenty</strong><p><strong><font class='posOutcome'>You WON</font><p>You bet: 4</strong></font> &nbsp; &nbsp; &nbsp; &nbsp; &nbsp; &nbsp;<font class='posOutcome'>you receive: <strong>8</strong></font></div>","null","6","Pears Aplenty","Fruit/pears.png","Won","0.65,0.35","9","0.65","107","17","",""
"html-keyboard-response","61","132522","0.0-11.0-1.17","sconelab3","bdp_rwlrn","Wed Feb 22 2023 11:16:23 GMT-0500 (Eastern Standard Time)","413290","Untrustworthy,Trustworthy","","1068","","","","decision","","<div class='trialDiv'><img src='Fruit/Kiwi.png'><br><font class='baseline'><strong>Kiwi Kash</strong><p>Choose number of points to bet.</font><div class='respPicDiv'><img src='img/responseButtonOffersNo0L.png' class='respPic'></div></div>","5","6","Kiwi Kash","Fruit/Kiwi.png","Lost","0.35,0.8","13","0.35","112","18","",""
"html-keyboard-response","62","132780","0.0-11.0-2.17","sconelab3","bdp_rwlrn","Wed Feb 22 2023 11:16:23 GMT-0500 (Eastern Standard Time)","413290","Untrustworthy,Trustworthy","","null","","","","decisionFB","","<div class='trialDiv'><img src='Fruit/Kiwi.png'><br><font class='baseline'><strong>Kiwi Kash</strong><p>Choose number of points to bet.</font><div class='respPicDiv'><img src='img/responseButtonOffersNo0L5.png' class='respPic'></div></div>","null","6","Kiwi Kash","Fruit/Kiwi.png","Lost","0.35,0.8","13","0.35","107","18","",""
"html-keyboard-response","63","133788","0.0-11.0-3.17","sconelab3","bdp_rwlrn","Wed Feb 22 2023 11:16:23 GMT-0500 (Eastern Standard Time)","413290","Untrustworthy,Trustworthy","","null","","","","feedback","","<div class='respPicDiv'><img src='img/responseButtonOffersNo0_wht.png' class='respPic'></div><div class='trialDiv'><img src='Fruit/Kiwi.png'><br><font class='baseline'><strong>Kiwi Kash</strong><p><strong><font class='negOutcome'>You LOST</font><p>You bet: 5</strong></font> &nbsp; &nbsp; &nbsp; &nbsp; &nbsp; &nbsp;<font class='negOutcome'>You receive: <strong>0</strong></font></div>","null","6","Kiwi Kash","Fruit/Kiwi.png","Lost","0.35,0.8","13","0.35","107","18","",""
"html-keyboard-response","64","134714","0.0-11.0-1.18","sconelab3","bdp_rwlrn","Wed Feb 22 2023 11:16:23 GMT-0500 (Eastern Standard Time)","413290","Untrustworthy,Trustworthy","","923","","","","decision","","<div class='trialDiv'><img src='Fruit/cherrie.png'><br><font class='baseline'><strong>Cherry Chances</strong><p>Choose number of points to bet.</font><div class='respPicDiv'><img src='img/responseButtonOffersNo0L.png' class='respPic'></div></div>","2","7","Cherry Chances","Fruit/cherrie.png","Won","0.8,0.35","12","0.8","112","19","",""
"html-keyboard-response","65","134972","0.0-11.0-2.18","sconelab3","bdp_rwlrn","Wed Feb 22 2023 11:16:23 GMT-0500 (Eastern Standard Time)","413290","Untrustworthy,Trustworthy","","null","","","","decisionFB","","<div class='trialDiv'><img src='Fruit/cherrie.png'><br><font class='baseline'><strong>Cherry Chances</strong><p>Choose number of points to bet.</font><div class='respPicDiv'><img src='img/responseButtonOffersNo0L2.png' class='respPic'></div></div>","null","7","Cherry Chances","Fruit/cherrie.png","Won","0.8,0.35","12","0.8","110","19","",""
"html-keyboard-response","66","135980","0.0-11.0-3.18","sconelab3","bdp_rwlrn","Wed Feb 22 2023 11:16:23 GMT-0500 (Eastern Standard Time)","413290","Untrustworthy,Trustworthy","","null","","","","feedback","","<div class='respPicDiv'><img src='img/responseButtonOffersNo0_wht.png' class='respPic'></div><div class='trialDiv'><img src='Fruit/cherrie.png'><br><font class='baseline'><strong>Cherry Chances</strong><p><strong><font class='posOutcome'>You WON</font><p>You bet: 2</strong></font> &nbsp; &nbsp; &nbsp; &nbsp; &nbsp; &nbsp;<font class='posOutcome'>you receive: <strong>4</strong></font></div>","null","7","Cherry Chances","Fruit/cherrie.png","Won","0.8,0.35","12","0.8","114","19","",""
"html-keyboard-response","67","136896","0.0-11.0-1.19","sconelab3","bdp_rwlrn","Wed Feb 22 2023 11:16:23 GMT-0500 (Eastern Standard Time)","413290","Untrustworthy,Trustworthy","","914","","","","decision","","<div class='trialDiv'><img src='Fruit/pears.png'><br><font class='baseline'><strong>Pears Aplenty</strong><p>Choose number of points to bet.</font><div class='respPicDiv'><img src='img/responseButtonOffersNo0L.png' class='respPic'></div></div>","3","7","Pears Aplenty","Fruit/pears.png","Won","0.65,0.35","9","0.65","119","20","",""
"html-keyboard-response","68","137159","0.0-11.0-2.19","sconelab3","bdp_rwlrn","Wed Feb 22 2023 11:16:23 GMT-0500 (Eastern Standard Time)","413290","Untrustworthy,Trustworthy","","null","","","","decisionFB","","<div class='trialDiv'><img src='Fruit/pears.png'><br><font class='baseline'><strong>Pears Aplenty</strong><p>Choose number of points to bet.</font><div class='respPicDiv'><img src='img/responseButtonOffersNo0L3.png' class='respPic'></div></div>","null","7","Pears Aplenty","Fruit/pears.png","Won","0.65,0.35","9","0.65","116","20","",""
"html-keyboard-response","69","138166","0.0-11.0-3.19","sconelab3","bdp_rwlrn","Wed Feb 22 2023 11:16:23 GMT-0500 (Eastern Standard Time)","413290","Untrustworthy,Trustworthy","","null","","","","feedback","","<div class='respPicDiv'><img src='img/responseButtonOffersNo0_wht.png' class='respPic'></div><div class='trialDiv'><img src='Fruit/pears.png'><br><font class='baseline'><strong>Pears Aplenty</strong><p><strong><font class='posOutcome'>You WON</font><p>You bet: 3</strong></font> &nbsp; &nbsp; &nbsp; &nbsp; &nbsp; &nbsp;<font class='posOutcome'>you receive: <strong>6</strong></font></div>","null","7","Pears Aplenty","Fruit/pears.png","Won","0.65,0.35","9","0.65","122","20","",""
"html-keyboard-response","70","140615","0.0-11.0-1.20","sconelab3","bdp_rwlrn","Wed Feb 22 2023 11:16:23 GMT-0500 (Eastern Standard Time)","413290","Untrustworthy,Trustworthy","","2446","","","","decision","","<div class='trialDiv'><img src='Fruit/Kiwi.png'><br><font class='baseline'><strong>Kiwi Kash</strong><p>Choose number of points to bet.</font><div class='respPicDiv'><img src='img/responseButtonOffersNo0L.png' class='respPic'></div></div>","3","7","Kiwi Kash","Fruit/Kiwi.png","Lost","0.35,0.8","13","0.35","127","21","",""
"html-keyboard-response","71","140876","0.0-11.0-2.20","sconelab3","bdp_rwlrn","Wed Feb 22 2023 11:16:23 GMT-0500 (Eastern Standard Time)","413290","Untrustworthy,Trustworthy","","null","","","","decisionFB","","<div class='trialDiv'><img src='Fruit/Kiwi.png'><br><font class='baseline'><strong>Kiwi Kash</strong><p>Choose number of points to bet.</font><div class='respPicDiv'><img src='img/responseButtonOffersNo0L3.png' class='respPic'></div></div>","null","7","Kiwi Kash","Fruit/Kiwi.png","Lost","0.35,0.8","13","0.35","124","21","",""
"html-keyboard-response","72","141883","0.0-11.0-3.20","sconelab3","bdp_rwlrn","Wed Feb 22 2023 11:16:23 GMT-0500 (Eastern Standard Time)","413290","Untrustworthy,Trustworthy","","null","","","","feedback","","<div class='respPicDiv'><img src='img/responseButtonOffersNo0_wht.png' class='respPic'></div><div class='trialDiv'><img src='Fruit/Kiwi.png'><br><font class='baseline'><strong>Kiwi Kash</strong><p><strong><font class='negOutcome'>You LOST</font><p>You bet: 3</strong></font> &nbsp; &nbsp; &nbsp; &nbsp; &nbsp; &nbsp;<font class='negOutcome'>You receive: <strong>0</strong></font></div>","null","7","Kiwi Kash","Fruit/Kiwi.png","Lost","0.35,0.8","13","0.35","124","21","",""
"html-keyboard-response","73","142575","0.0-11.0-1.21","sconelab3","bdp_rwlrn","Wed Feb 22 2023 11:16:23 GMT-0500 (Eastern Standard Time)","413290","Untrustworthy,Trustworthy","","690","","","","decision","","<div class='trialDiv'><img src='Fruit/cherrie.png'><br><font class='baseline'><strong>Cherry Chances</strong><p>Choose number of points to bet.</font><div class='respPicDiv'><img src='img/responseButtonOffersNo0L.png' class='respPic'></div></div>","4","8","Cherry Chances","Fruit/cherrie.png","Won","0.8,0.35","12","0.8","129","22","",""
"html-keyboard-response","74","142838","0.0-11.0-2.21","sconelab3","bdp_rwlrn","Wed Feb 22 2023 11:16:23 GMT-0500 (Eastern Standard Time)","413290","Untrustworthy,Trustworthy","","null","","","","decisionFB","","<div class='trialDiv'><img src='Fruit/cherrie.png'><br><font class='baseline'><strong>Cherry Chances</strong><p>Choose number of points to bet.</font><div class='respPicDiv'><img src='img/responseButtonOffersNo0L4.png' class='respPic'></div></div>","null","8","Cherry Chances","Fruit/cherrie.png","Won","0.8,0.35","12","0.8","125","22","",""
"html-keyboard-response","75","143846","0.0-11.0-3.21","sconelab3","bdp_rwlrn","Wed Feb 22 2023 11:16:23 GMT-0500 (Eastern Standard Time)","413290","Untrustworthy,Trustworthy","","null","","","","feedback","","<div class='respPicDiv'><img src='img/responseButtonOffersNo0_wht.png' class='respPic'></div><div class='trialDiv'><img src='Fruit/cherrie.png'><br><font class='baseline'><strong>Cherry Chances</strong><p><strong><font class='posOutcome'>You WON</font><p>You bet: 4</strong></font> &nbsp; &nbsp; &nbsp; &nbsp; &nbsp; &nbsp;<font class='posOutcome'>you receive: <strong>8</strong></font></div>","null","8","Cherry Chances","Fruit/cherrie.png","Won","0.8,0.35","12","0.8","133","22","",""
"html-keyboard-response","76","145294","0.0-11.0-1.22","sconelab3","bdp_rwlrn","Wed Feb 22 2023 11:16:23 GMT-0500 (Eastern Standard Time)","413290","Untrustworthy,Trustworthy","","1446","","","","decision","","<div class='trialDiv'><img src='Fruit/pears.png'><br><font class='baseline'><strong>Pears Aplenty</strong><p>Choose number of points to bet.</font><div class='respPicDiv'><img src='img/responseButtonOffersNo0L.png' class='respPic'></div></div>","5","8","Pears Aplenty","Fruit/pears.png","Won","0.65,0.35","9","0.65","138","23","",""
"html-keyboard-response","77","145550","0.0-11.0-2.22","sconelab3","bdp_rwlrn","Wed Feb 22 2023 11:16:23 GMT-0500 (Eastern Standard Time)","413290","Untrustworthy,Trustworthy","","null","","","","decisionFB","","<div class='trialDiv'><img src='Fruit/pears.png'><br><font class='baseline'><strong>Pears Aplenty</strong><p>Choose number of points to bet.</font><div class='respPicDiv'><img src='img/responseButtonOffersNo0L5.png' class='respPic'></div></div>","null","8","Pears Aplenty","Fruit/pears.png","Won","0.65,0.35","9","0.65","133","23","",""
"html-keyboard-response","78","146557","0.0-11.0-3.22","sconelab3","bdp_rwlrn","Wed Feb 22 2023 11:16:23 GMT-0500 (Eastern Standard Time)","413290","Untrustworthy,Trustworthy","","null","","","","feedback","","<div class='respPicDiv'><img src='img/responseButtonOffersNo0_wht.png' class='respPic'></div><div class='trialDiv'><img src='Fruit/pears.png'><br><font class='baseline'><strong>Pears Aplenty</strong><p><strong><font class='posOutcome'>You WON</font><p>You bet: 5</strong></font> &nbsp; &nbsp; &nbsp; &nbsp; &nbsp; &nbsp;<font class='posOutcome'>you receive: <strong>10</strong></font></div>","null","8","Pears Aplenty","Fruit/pears.png","Won","0.65,0.35","9","0.65","143","23","",""
"html-keyboard-response","79","150258","0.0-11.0-1.23","sconelab3","bdp_rwlrn","Wed Feb 22 2023 11:16:23 GMT-0500 (Eastern Standard Time)","413290","Untrustworthy,Trustworthy","","3699","","","","decision","","<div class='trialDiv'><img src='Fruit/Kiwi.png'><br><font class='baseline'><strong>Kiwi Kash</strong><p>Choose number of points to bet.</font><div class='respPicDiv'><img src='img/responseButtonOffersNo0L.png' class='respPic'></div></div>","2","8","Kiwi Kash","Fruit/Kiwi.png","Won","0.35,0.8","13","0.35","148","24","",""
"html-keyboard-response","80","150518","0.0-11.0-2.23","sconelab3","bdp_rwlrn","Wed Feb 22 2023 11:16:23 GMT-0500 (Eastern Standard Time)","413290","Untrustworthy,Trustworthy","","null","","","","decisionFB","","<div class='trialDiv'><img src='Fruit/Kiwi.png'><br><font class='baseline'><strong>Kiwi Kash</strong><p>Choose number of points to bet.</font><div class='respPicDiv'><img src='img/responseButtonOffersNo0L2.png' class='respPic'></div></div>","null","8","Kiwi Kash","Fruit/Kiwi.png","Won","0.35,0.8","13","0.35","146","24","",""
"html-keyboard-response","81","151526","0.0-11.0-3.23","sconelab3","bdp_rwlrn","Wed Feb 22 2023 11:16:23 GMT-0500 (Eastern Standard Time)","413290","Untrustworthy,Trustworthy","","null","","","","feedback","","<div class='respPicDiv'><img src='img/responseButtonOffersNo0_wht.png' class='respPic'></div><div class='trialDiv'><img src='Fruit/Kiwi.png'><br><font class='baseline'><strong>Kiwi Kash</strong><p><strong><font class='posOutcome'>You WON</font><p>You bet: 2</strong></font> &nbsp; &nbsp; &nbsp; &nbsp; &nbsp; &nbsp;<font class='posOutcome'>you receive: <strong>4</strong></font></div>","null","8","Kiwi Kash","Fruit/Kiwi.png","Won","0.35,0.8","13","0.35","150","24","",""
"html-keyboard-response","82","152838","0.0-11.0-1.24","sconelab3","bdp_rwlrn","Wed Feb 22 2023 11:16:23 GMT-0500 (Eastern Standard Time)","413290","Untrustworthy,Trustworthy","","1310","","","","decision","","<div class='trialDiv'><img src='Fruit/pears.png'><br><font class='baseline'><strong>Pears Aplenty</strong><p>Choose number of points to bet.</font><div class='respPicDiv'><img src='img/responseButtonOffersNo0L.png' class='respPic'></div></div>","5","9","Pears Aplenty","Fruit/pears.png","Lost","0.65,0.35","9","0.65","155","25","",""
"html-keyboard-response","83","153101","0.0-11.0-2.24","sconelab3","bdp_rwlrn","Wed Feb 22 2023 11:16:23 GMT-0500 (Eastern Standard Time)","413290","Untrustworthy,Trustworthy","","null","","","","decisionFB","","<div class='trialDiv'><img src='Fruit/pears.png'><br><font class='baseline'><strong>Pears Aplenty</strong><p>Choose number of points to bet.</font><div class='respPicDiv'><img src='img/responseButtonOffersNo0L5.png' class='respPic'></div></div>","null","9","Pears Aplenty","Fruit/pears.png","Lost","0.65,0.35","9","0.65","150","25","",""
"html-keyboard-response","84","154107","0.0-11.0-3.24","sconelab3","bdp_rwlrn","Wed Feb 22 2023 11:16:23 GMT-0500 (Eastern Standard Time)","413290","Untrustworthy,Trustworthy","","null","","","","feedback","","<div class='respPicDiv'><img src='img/responseButtonOffersNo0_wht.png' class='respPic'></div><div class='trialDiv'><img src='Fruit/pears.png'><br><font class='baseline'><strong>Pears Aplenty</strong><p><strong><font class='negOutcome'>You LOST</font><p>You bet: 5</strong></font> &nbsp; &nbsp; &nbsp; &nbsp; &nbsp; &nbsp;<font class='negOutcome'>You receive: <strong>0</strong></font></div>","null","9","Pears Aplenty","Fruit/pears.png","Lost","0.65,0.35","9","0.65","150","25","",""
"html-keyboard-response","85","155944","0.0-11.0-1.25","sconelab3","bdp_rwlrn","Wed Feb 22 2023 11:16:23 GMT-0500 (Eastern Standard Time)","413290","Untrustworthy,Trustworthy","","1834","","","","decision","","<div class='trialDiv'><img src='Fruit/Kiwi.png'><br><font class='baseline'><strong>Kiwi Kash</strong><p>Choose number of points to bet.</font><div class='respPicDiv'><img src='img/responseButtonOffersNo0L.png' class='respPic'></div></div>","3","9","Kiwi Kash","Fruit/Kiwi.png","Won","0.35,0.8","13","0.35","155","26","",""
"html-keyboard-response","86","156205","0.0-11.0-2.25","sconelab3","bdp_rwlrn","Wed Feb 22 2023 11:16:23 GMT-0500 (Eastern Standard Time)","413290","Untrustworthy,Trustworthy","","null","","","","decisionFB","","<div class='trialDiv'><img src='Fruit/Kiwi.png'><br><font class='baseline'><strong>Kiwi Kash</strong><p>Choose number of points to bet.</font><div class='respPicDiv'><img src='img/responseButtonOffersNo0L3.png' class='respPic'></div></div>","null","9","Kiwi Kash","Fruit/Kiwi.png","Won","0.35,0.8","13","0.35","152","26","",""
"html-keyboard-response","87","157211","0.0-11.0-3.25","sconelab3","bdp_rwlrn","Wed Feb 22 2023 11:16:23 GMT-0500 (Eastern Standard Time)","413290","Untrustworthy,Trustworthy","","null","","","","feedback","","<div class='respPicDiv'><img src='img/responseButtonOffersNo0_wht.png' class='respPic'></div><div class='trialDiv'><img src='Fruit/Kiwi.png'><br><font class='baseline'><strong>Kiwi Kash</strong><p><strong><font class='posOutcome'>You WON</font><p>You bet: 3</strong></font> &nbsp; &nbsp; &nbsp; &nbsp; &nbsp; &nbsp;<font class='posOutcome'>you receive: <strong>6</strong></font></div>","null","9","Kiwi Kash","Fruit/Kiwi.png","Won","0.35,0.8","13","0.35","158","26","",""
"html-keyboard-response","88","158929","0.0-11.0-1.26","sconelab3","bdp_rwlrn","Wed Feb 22 2023 11:16:23 GMT-0500 (Eastern Standard Time)","413290","Untrustworthy,Trustworthy","","1716","","","","decision","","<div class='trialDiv'><img src='Fruit/cherrie.png'><br><font class='baseline'><strong>Cherry Chances</strong><p>Choose number of points to bet.</font><div class='respPicDiv'><img src='img/responseButtonOffersNo0L.png' class='respPic'></div></div>","5","9","Cherry Chances","Fruit/cherrie.png","Won","0.8,0.35","12","0.8","163","27","",""
"html-keyboard-response","89","159189","0.0-11.0-2.26","sconelab3","bdp_rwlrn","Wed Feb 22 2023 11:16:23 GMT-0500 (Eastern Standard Time)","413290","Untrustworthy,Trustworthy","","null","","","","decisionFB","","<div class='trialDiv'><img src='Fruit/cherrie.png'><br><font class='baseline'><strong>Cherry Chances</strong><p>Choose number of points to bet.</font><div class='respPicDiv'><img src='img/responseButtonOffersNo0L5.png' class='respPic'></div></div>","null","9","Cherry Chances","Fruit/cherrie.png","Won","0.8,0.35","12","0.8","158","27","",""
"html-keyboard-response","90","160196","0.0-11.0-3.26","sconelab3","bdp_rwlrn","Wed Feb 22 2023 11:16:23 GMT-0500 (Eastern Standard Time)","413290","Untrustworthy,Trustworthy","","null","","","","feedback","","<div class='respPicDiv'><img src='img/responseButtonOffersNo0_wht.png' class='respPic'></div><div class='trialDiv'><img src='Fruit/cherrie.png'><br><font class='baseline'><strong>Cherry Chances</strong><p><strong><font class='posOutcome'>You WON</font><p>You bet: 5</strong></font> &nbsp; &nbsp; &nbsp; &nbsp; &nbsp; &nbsp;<font class='posOutcome'>you receive: <strong>10</strong></font></div>","null","9","Cherry Chances","Fruit/cherrie.png","Won","0.8,0.35","12","0.8","168","27","",""
"html-keyboard-response","91","161277","0.0-11.0-1.27","sconelab3","bdp_rwlrn","Wed Feb 22 2023 11:16:23 GMT-0500 (Eastern Standard Time)","413290","Untrustworthy,Trustworthy","","1080","","","","decision","","<div class='trialDiv'><img src='Fruit/pears.png'><br><font class='baseline'><strong>Pears Aplenty</strong><p>Choose number of points to bet.</font><div class='respPicDiv'><img src='img/responseButtonOffersNo0L.png' class='respPic'></div></div>","2","10","Pears Aplenty","Fruit/pears.png","Lost","0.65,0.35","9","0.65","173","28","",""
"html-keyboard-response","92","161541","0.0-11.0-2.27","sconelab3","bdp_rwlrn","Wed Feb 22 2023 11:16:23 GMT-0500 (Eastern Standard Time)","413290","Untrustworthy,Trustworthy","","null","","","","decisionFB","","<div class='trialDiv'><img src='Fruit/pears.png'><br><font class='baseline'><strong>Pears Aplenty</strong><p>Choose number of points to bet.</font><div class='respPicDiv'><img src='img/responseButtonOffersNo0L2.png' class='respPic'></div></div>","null","10","Pears Aplenty","Fruit/pears.png","Lost","0.65,0.35","9","0.65","171","28","",""
"html-keyboard-response","93","162549","0.0-11.0-3.27","sconelab3","bdp_rwlrn","Wed Feb 22 2023 11:16:23 GMT-0500 (Eastern Standard Time)","413290","Untrustworthy,Trustworthy","","null","","","","feedback","","<div class='respPicDiv'><img src='img/responseButtonOffersNo0_wht.png' class='respPic'></div><div class='trialDiv'><img src='Fruit/pears.png'><br><font class='baseline'><strong>Pears Aplenty</strong><p><strong><font class='negOutcome'>You LOST</font><p>You bet: 2</strong></font> &nbsp; &nbsp; &nbsp; &nbsp; &nbsp; &nbsp;<font class='negOutcome'>You receive: <strong>0</strong></font></div>","null","10","Pears Aplenty","Fruit/pears.png","Lost","0.65,0.35","9","0.65","171","28","",""
"html-keyboard-response","94","163311","0.0-11.0-1.28","sconelab3","bdp_rwlrn","Wed Feb 22 2023 11:16:23 GMT-0500 (Eastern Standard Time)","413290","Untrustworthy,Trustworthy","","761","","","","decision","","<div class='trialDiv'><img src='Fruit/cherrie.png'><br><font class='baseline'><strong>Cherry Chances</strong><p>Choose number of points to bet.</font><div class='respPicDiv'><img src='img/responseButtonOffersNo0L.png' class='respPic'></div></div>","1","10","Cherry Chances","Fruit/cherrie.png","Won","0.8,0.35","12","0.8","176","29","",""
"html-keyboard-response","95","163573","0.0-11.0-2.28","sconelab3","bdp_rwlrn","Wed Feb 22 2023 11:16:23 GMT-0500 (Eastern Standard Time)","413290","Untrustworthy,Trustworthy","","null","","","","decisionFB","","<div class='trialDiv'><img src='Fruit/cherrie.png'><br><font class='baseline'><strong>Cherry Chances</strong><p>Choose number of points to bet.</font><div class='respPicDiv'><img src='img/responseButtonOffersNo0L1.png' class='respPic'></div></div>","null","10","Cherry Chances","Fruit/cherrie.png","Won","0.8,0.35","12","0.8","175","29","",""
"html-keyboard-response","96","164581","0.0-11.0-3.28","sconelab3","bdp_rwlrn","Wed Feb 22 2023 11:16:23 GMT-0500 (Eastern Standard Time)","413290","Untrustworthy,Trustworthy","","null","","","","feedback","","<div class='respPicDiv'><img src='img/responseButtonOffersNo0_wht.png' class='respPic'></div><div class='trialDiv'><img src='Fruit/cherrie.png'><br><font class='baseline'><strong>Cherry Chances</strong><p><strong><font class='posOutcome'>You WON</font><p>You bet: 1</strong></font> &nbsp; &nbsp; &nbsp; &nbsp; &nbsp; &nbsp;<font class='posOutcome'>you receive: <strong>2</strong></font></div>","null","10","Cherry Chances","Fruit/cherrie.png","Won","0.8,0.35","12","0.8","177","29","",""
"html-keyboard-response","97","166392","0.0-11.0-1.29","sconelab3","bdp_rwlrn","Wed Feb 22 2023 11:16:23 GMT-0500 (Eastern Standard Time)","413290","Untrustworthy,Trustworthy","","1809","","","","decision","","<div class='trialDiv'><img src='Fruit/Kiwi.png'><br><font class='baseline'><strong>Kiwi Kash</strong><p>Choose number of points to bet.</font><div class='respPicDiv'><img src='img/responseButtonOffersNo0L.png' class='respPic'></div></div>","1","10","Kiwi Kash","Fruit/Kiwi.png","Lost","0.35,0.8","13","0.35","182","30","",""
"html-keyboard-response","98","166650","0.0-11.0-2.29","sconelab3","bdp_rwlrn","Wed Feb 22 2023 11:16:23 GMT-0500 (Eastern Standard Time)","413290","Untrustworthy,Trustworthy","","null","","","","decisionFB","","<div class='trialDiv'><img src='Fruit/Kiwi.png'><br><font class='baseline'><strong>Kiwi Kash</strong><p>Choose number of points to bet.</font><div class='respPicDiv'><img src='img/responseButtonOffersNo0L1.png' class='respPic'></div></div>","null","10","Kiwi Kash","Fruit/Kiwi.png","Lost","0.35,0.8","13","0.35","181","30","",""
"html-keyboard-response","99","167658","0.0-11.0-3.29","sconelab3","bdp_rwlrn","Wed Feb 22 2023 11:16:23 GMT-0500 (Eastern Standard Time)","413290","Untrustworthy,Trustworthy","","null","","","","feedback","","<div class='respPicDiv'><img src='img/responseButtonOffersNo0_wht.png' class='respPic'></div><div class='trialDiv'><img src='Fruit/Kiwi.png'><br><font class='baseline'><strong>Kiwi Kash</strong><p><strong><font class='negOutcome'>You LOST</font><p>You bet: 1</strong></font> &nbsp; &nbsp; &nbsp; &nbsp; &nbsp; &nbsp;<font class='negOutcome'>You receive: <strong>0</strong></font></div>","null","10","Kiwi Kash","Fruit/Kiwi.png","Lost","0.35,0.8","13","0.35","181","30","",""
"html-keyboard-response","100","168534","0.0-11.0-1.30","sconelab3","bdp_rwlrn","Wed Feb 22 2023 11:16:23 GMT-0500 (Eastern Standard Time)","413290","Untrustworthy,Trustworthy","","874","","","","decision","","<div class='trialDiv'><img src='Fruit/pears.png'><br><font class='baseline'><strong>Pears Aplenty</strong><p>Choose number of points to bet.</font><div class='respPicDiv'><img src='img/responseButtonOffersNo0L.png' class='respPic'></div></div>","3","11","Pears Aplenty","Fruit/pears.png","Lost","0.65,0.35","9","0.65","186","31","",""
"html-keyboard-response","101","168794","0.0-11.0-2.30","sconelab3","bdp_rwlrn","Wed Feb 22 2023 11:16:23 GMT-0500 (Eastern Standard Time)","413290","Untrustworthy,Trustworthy","","null","","","","decisionFB","","<div class='trialDiv'><img src='Fruit/pears.png'><br><font class='baseline'><strong>Pears Aplenty</strong><p>Choose number of points to bet.</font><div class='respPicDiv'><img src='img/responseButtonOffersNo0L3.png' class='respPic'></div></div>","null","11","Pears Aplenty","Fruit/pears.png","Lost","0.65,0.35","9","0.65","183","31","",""
"html-keyboard-response","102","169805","0.0-11.0-3.30","sconelab3","bdp_rwlrn","Wed Feb 22 2023 11:16:23 GMT-0500 (Eastern Standard Time)","413290","Untrustworthy,Trustworthy","","null","","","","feedback","","<div class='respPicDiv'><img src='img/responseButtonOffersNo0_wht.png' class='respPic'></div><div class='trialDiv'><img src='Fruit/pears.png'><br><font class='baseline'><strong>Pears Aplenty</strong><p><strong><font class='negOutcome'>You LOST</font><p>You bet: 3</strong></font> &nbsp; &nbsp; &nbsp; &nbsp; &nbsp; &nbsp;<font class='negOutcome'>You receive: <strong>0</strong></font></div>","null","11","Pears Aplenty","Fruit/pears.png","Lost","0.65,0.35","9","0.65","183","31","",""
"html-keyboard-response","103","170501","0.0-11.0-1.31","sconelab3","bdp_rwlrn","Wed Feb 22 2023 11:16:23 GMT-0500 (Eastern Standard Time)","413290","Untrustworthy,Trustworthy","","695","","","","decision","","<div class='trialDiv'><img src='Fruit/Kiwi.png'><br><font class='baseline'><strong>Kiwi Kash</strong><p>Choose number of points to bet.</font><div class='respPicDiv'><img src='img/responseButtonOffersNo0L.png' class='respPic'></div></div>","4","11","Kiwi Kash","Fruit/Kiwi.png","Lost","0.35,0.8","13","0.35","188","32","",""
"html-keyboard-response","104","170762","0.0-11.0-2.31","sconelab3","bdp_rwlrn","Wed Feb 22 2023 11:16:23 GMT-0500 (Eastern Standard Time)","413290","Untrustworthy,Trustworthy","","null","","","","decisionFB","","<div class='trialDiv'><img src='Fruit/Kiwi.png'><br><font class='baseline'><strong>Kiwi Kash</strong><p>Choose number of points to bet.</font><div class='respPicDiv'><img src='img/responseButtonOffersNo0L4.png' class='respPic'></div></div>","null","11","Kiwi Kash","Fruit/Kiwi.png","Lost","0.35,0.8","13","0.35","184","32","",""
"html-keyboard-response","105","171770","0.0-11.0-3.31","sconelab3","bdp_rwlrn","Wed Feb 22 2023 11:16:23 GMT-0500 (Eastern Standard Time)","413290","Untrustworthy,Trustworthy","","null","","","","feedback","","<div class='respPicDiv'><img src='img/responseButtonOffersNo0_wht.png' class='respPic'></div><div class='trialDiv'><img src='Fruit/Kiwi.png'><br><font class='baseline'><strong>Kiwi Kash</strong><p><strong><font class='negOutcome'>You LOST</font><p>You bet: 4</strong></font> &nbsp; &nbsp; &nbsp; &nbsp; &nbsp; &nbsp;<font class='negOutcome'>You receive: <strong>0</strong></font></div>","null","11","Kiwi Kash","Fruit/Kiwi.png","Lost","0.35,0.8","13","0.35","184","32","",""
"html-keyboard-response","106","172210","0.0-11.0-1.32","sconelab3","bdp_rwlrn","Wed Feb 22 2023 11:16:23 GMT-0500 (Eastern Standard Time)","413290","Untrustworthy,Trustworthy","","438","","","","decision","","<div class='trialDiv'><img src='Fruit/cherrie.png'><br><font class='baseline'><strong>Cherry Chances</strong><p>Choose number of points to bet.</font><div class='respPicDiv'><img src='img/responseButtonOffersNo0L.png' class='respPic'></div></div>","2","11","Cherry Chances","Fruit/cherrie.png","Won","0.8,0.35","12","0.8","189","33","",""
"html-keyboard-response","107","172469","0.0-11.0-2.32","sconelab3","bdp_rwlrn","Wed Feb 22 2023 11:16:23 GMT-0500 (Eastern Standard Time)","413290","Untrustworthy,Trustworthy","","null","","","","decisionFB","","<div class='trialDiv'><img src='Fruit/cherrie.png'><br><font class='baseline'><strong>Cherry Chances</strong><p>Choose number of points to bet.</font><div class='respPicDiv'><img src='img/responseButtonOffersNo0L2.png' class='respPic'></div></div>","null","11","Cherry Chances","Fruit/cherrie.png","Won","0.8,0.35","12","0.8","187","33","",""
"html-keyboard-response","108","173477","0.0-11.0-3.32","sconelab3","bdp_rwlrn","Wed Feb 22 2023 11:16:23 GMT-0500 (Eastern Standard Time)","413290","Untrustworthy,Trustworthy","","null","","","","feedback","","<div class='respPicDiv'><img src='img/responseButtonOffersNo0_wht.png' class='respPic'></div><div class='trialDiv'><img src='Fruit/cherrie.png'><br><font class='baseline'><strong>Cherry Chances</strong><p><strong><font class='posOutcome'>You WON</font><p>You bet: 2</strong></font> &nbsp; &nbsp; &nbsp; &nbsp; &nbsp; &nbsp;<font class='posOutcome'>you receive: <strong>4</strong></font></div>","null","11","Cherry Chances","Fruit/cherrie.png","Won","0.8,0.35","12","0.8","191","33","",""
"html-keyboard-response","109","174040","0.0-11.0-1.33","sconelab3","bdp_rwlrn","Wed Feb 22 2023 11:16:23 GMT-0500 (Eastern Standard Time)","413290","Untrustworthy,Trustworthy","","562","","","","decision","","<div class='trialDiv'><img src='Fruit/Kiwi.png'><br><font class='baseline'><strong>Kiwi Kash</strong><p>Choose number of points to bet.</font><div class='respPicDiv'><img src='img/responseButtonOffersNo0L.png' class='respPic'></div></div>","3","12","Kiwi Kash","Fruit/Kiwi.png","Won","0.35,0.8","13","0.35","196","34","",""
"html-keyboard-response","110","174298","0.0-11.0-2.33","sconelab3","bdp_rwlrn","Wed Feb 22 2023 11:16:23 GMT-0500 (Eastern Standard Time)","413290","Untrustworthy,Trustworthy","","null","","","","decisionFB","","<div class='trialDiv'><img src='Fruit/Kiwi.png'><br><font class='baseline'><strong>Kiwi Kash</strong><p>Choose number of points to bet.</font><div class='respPicDiv'><img src='img/responseButtonOffersNo0L3.png' class='respPic'></div></div>","null","12","Kiwi Kash","Fruit/Kiwi.png","Won","0.35,0.8","13","0.35","193","34","",""
"html-keyboard-response","111","175306","0.0-11.0-3.33","sconelab3","bdp_rwlrn","Wed Feb 22 2023 11:16:23 GMT-0500 (Eastern Standard Time)","413290","Untrustworthy,Trustworthy","","null","","","","feedback","","<div class='respPicDiv'><img src='img/responseButtonOffersNo0_wht.png' class='respPic'></div><div class='trialDiv'><img src='Fruit/Kiwi.png'><br><font class='baseline'><strong>Kiwi Kash</strong><p><strong><font class='posOutcome'>You WON</font><p>You bet: 3</strong></font> &nbsp; &nbsp; &nbsp; &nbsp; &nbsp; &nbsp;<font class='posOutcome'>you receive: <strong>6</strong></font></div>","null","12","Kiwi Kash","Fruit/Kiwi.png","Won","0.35,0.8","13","0.35","199","34","",""
"html-keyboard-response","112","177285","0.0-11.0-1.34","sconelab3","bdp_rwlrn","Wed Feb 22 2023 11:16:23 GMT-0500 (Eastern Standard Time)","413290","Untrustworthy,Trustworthy","","1977","","","","decision","","<div class='trialDiv'><img src='Fruit/pears.png'><br><font class='baseline'><strong>Pears Aplenty</strong><p>Choose number of points to bet.</font><div class='respPicDiv'><img src='img/responseButtonOffersNo0L.png' class='respPic'></div></div>","5","12","Pears Aplenty","Fruit/pears.png","Won","0.65,0.35","9","0.65","204","35","",""
"html-keyboard-response","113","177546","0.0-11.0-2.34","sconelab3","bdp_rwlrn","Wed Feb 22 2023 11:16:23 GMT-0500 (Eastern Standard Time)","413290","Untrustworthy,Trustworthy","","null","","","","decisionFB","","<div class='trialDiv'><img src='Fruit/pears.png'><br><font class='baseline'><strong>Pears Aplenty</strong><p>Choose number of points to bet.</font><div class='respPicDiv'><img src='img/responseButtonOffersNo0L5.png' class='respPic'></div></div>","null","12","Pears Aplenty","Fruit/pears.png","Won","0.65,0.35","9","0.65","199","35","",""
"html-keyboard-response","114","178554","0.0-11.0-3.34","sconelab3","bdp_rwlrn","Wed Feb 22 2023 11:16:23 GMT-0500 (Eastern Standard Time)","413290","Untrustworthy,Trustworthy","","null","","","","feedback","","<div class='respPicDiv'><img src='img/responseButtonOffersNo0_wht.png' class='respPic'></div><div class='trialDiv'><img src='Fruit/pears.png'><br><font class='baseline'><strong>Pears Aplenty</strong><p><strong><font class='posOutcome'>You WON</font><p>You bet: 5</strong></font> &nbsp; &nbsp; &nbsp; &nbsp; &nbsp; &nbsp;<font class='posOutcome'>you receive: <strong>10</strong></font></div>","null","12","Pears Aplenty","Fruit/pears.png","Won","0.65,0.35","9","0.65","209","35","",""
"html-keyboard-response","115","179805","0.0-11.0-1.35","sconelab3","bdp_rwlrn","Wed Feb 22 2023 11:16:23 GMT-0500 (Eastern Standard Time)","413290","Untrustworthy,Trustworthy","","1250","","","","decision","","<div class='trialDiv'><img src='Fruit/cherrie.png'><br><font class='baseline'><strong>Cherry Chances</strong><p>Choose number of points to bet.</font><div class='respPicDiv'><img src='img/responseButtonOffersNo0L.png' class='respPic'></div></div>","5","12","Cherry Chances","Fruit/cherrie.png","Lost","0.8,0.35","12","0.8","214","36","",""
"html-keyboard-response","116","180069","0.0-11.0-2.35","sconelab3","bdp_rwlrn","Wed Feb 22 2023 11:16:23 GMT-0500 (Eastern Standard Time)","413290","Untrustworthy,Trustworthy","","null","","","","decisionFB","","<div class='trialDiv'><img src='Fruit/cherrie.png'><br><font class='baseline'><strong>Cherry Chances</strong><p>Choose number of points to bet.</font><div class='respPicDiv'><img src='img/responseButtonOffersNo0L5.png' class='respPic'></div></div>","null","12","Cherry Chances","Fruit/cherrie.png","Lost","0.8,0.35","12","0.8","209","36","",""
"html-keyboard-response","117","181073","0.0-11.0-3.35","sconelab3","bdp_rwlrn","Wed Feb 22 2023 11:16:23 GMT-0500 (Eastern Standard Time)","413290","Untrustworthy,Trustworthy","","null","","","","feedback","","<div class='respPicDiv'><img src='img/responseButtonOffersNo0_wht.png' class='respPic'></div><div class='trialDiv'><img src='Fruit/cherrie.png'><br><font class='baseline'><strong>Cherry Chances</strong><p><strong><font class='negOutcome'>You LOST</font><p>You bet: 5</strong></font> &nbsp; &nbsp; &nbsp; &nbsp; &nbsp; &nbsp;<font class='negOutcome'>You receive: <strong>0</strong></font></div>","null","12","Cherry Chances","Fruit/cherrie.png","Lost","0.8,0.35","12","0.8","209","36","",""
"html-keyboard-response","118","181652","0.0-11.0-1.36","sconelab3","bdp_rwlrn","Wed Feb 22 2023 11:16:23 GMT-0500 (Eastern Standard Time)","413290","Untrustworthy,Trustworthy","","577","","","","decision","","<div class='trialDiv'><img src='Fruit/Kiwi.png'><br><font class='baseline'><strong>Kiwi Kash</strong><p>Choose number of points to bet.</font><div class='respPicDiv'><img src='img/responseButtonOffersNo0L.png' class='respPic'></div></div>","2","13","Kiwi Kash","Fruit/Kiwi.png","Won","0.35,0.8","13","0.35","214","37","",""
"html-keyboard-response","119","181914","0.0-11.0-2.36","sconelab3","bdp_rwlrn","Wed Feb 22 2023 11:16:23 GMT-0500 (Eastern Standard Time)","413290","Untrustworthy,Trustworthy","","null","","","","decisionFB","","<div class='trialDiv'><img src='Fruit/Kiwi.png'><br><font class='baseline'><strong>Kiwi Kash</strong><p>Choose number of points to bet.</font><div class='respPicDiv'><img src='img/responseButtonOffersNo0L2.png' class='respPic'></div></div>","null","13","Kiwi Kash","Fruit/Kiwi.png","Won","0.35,0.8","13","0.35","212","37","",""
"html-keyboard-response","120","182921","0.0-11.0-3.36","sconelab3","bdp_rwlrn","Wed Feb 22 2023 11:16:23 GMT-0500 (Eastern Standard Time)","413290","Untrustworthy,Trustworthy","","null","","","","feedback","","<div class='respPicDiv'><img src='img/responseButtonOffersNo0_wht.png' class='respPic'></div><div class='trialDiv'><img src='Fruit/Kiwi.png'><br><font class='baseline'><strong>Kiwi Kash</strong><p><strong><font class='posOutcome'>You WON</font><p>You bet: 2</strong></font> &nbsp; &nbsp; &nbsp; &nbsp; &nbsp; &nbsp;<font class='posOutcome'>you receive: <strong>4</strong></font></div>","null","13","Kiwi Kash","Fruit/Kiwi.png","Won","0.35,0.8","13","0.35","216","37","",""
"html-keyboard-response","121","183819","0.0-11.0-1.37","sconelab3","bdp_rwlrn","Wed Feb 22 2023 11:16:23 GMT-0500 (Eastern Standard Time)","413290","Untrustworthy,Trustworthy","","896","","","","decision","","<div class='trialDiv'><img src='Fruit/pears.png'><br><font class='baseline'><strong>Pears Aplenty</strong><p>Choose number of points to bet.</font><div class='respPicDiv'><img src='img/responseButtonOffersNo0L.png' class='respPic'></div></div>","4","13","Pears Aplenty","Fruit/pears.png","Won","0.65,0.35","9","0.65","221","38","",""
"html-keyboard-response","122","184073","0.0-11.0-2.37","sconelab3","bdp_rwlrn","Wed Feb 22 2023 11:16:23 GMT-0500 (Eastern Standard Time)","413290","Untrustworthy,Trustworthy","","null","","","","decisionFB","","<div class='trialDiv'><img src='Fruit/pears.png'><br><font class='baseline'><strong>Pears Aplenty</strong><p>Choose number of points to bet.</font><div class='respPicDiv'><img src='img/responseButtonOffersNo0L4.png' class='respPic'></div></div>","null","13","Pears Aplenty","Fruit/pears.png","Won","0.65,0.35","9","0.65","217","38","",""
"html-keyboard-response","123","185081","0.0-11.0-3.37","sconelab3","bdp_rwlrn","Wed Feb 22 2023 11:16:23 GMT-0500 (Eastern Standard Time)","413290","Untrustworthy,Trustworthy","","null","","","","feedback","","<div class='respPicDiv'><img src='img/responseButtonOffersNo0_wht.png' class='respPic'></div><div class='trialDiv'><img src='Fruit/pears.png'><br><font class='baseline'><strong>Pears Aplenty</strong><p><strong><font class='posOutcome'>You WON</font><p>You bet: 4</strong></font> &nbsp; &nbsp; &nbsp; &nbsp; &nbsp; &nbsp;<font class='posOutcome'>you receive: <strong>8</strong></font></div>","null","13","Pears Aplenty","Fruit/pears.png","Won","0.65,0.35","9","0.65","225","38","",""
"html-keyboard-response","124","185881","0.0-11.0-1.38","sconelab3","bdp_rwlrn","Wed Feb 22 2023 11:16:23 GMT-0500 (Eastern Standard Time)","413290","Untrustworthy,Trustworthy","","797","","","","decision","","<div class='trialDiv'><img src='Fruit/cherrie.png'><br><font class='baseline'><strong>Cherry Chances</strong><p>Choose number of points to bet.</font><div class='respPicDiv'><img src='img/responseButtonOffersNo0L.png' class='respPic'></div></div>","3","13","Cherry Chances","Fruit/cherrie.png","Won","0.8,0.35","12","0.8","230","39","",""
"html-keyboard-response","125","186137","0.0-11.0-2.38","sconelab3","bdp_rwlrn","Wed Feb 22 2023 11:16:23 GMT-0500 (Eastern Standard Time)","413290","Untrustworthy,Trustworthy","","null","","","","decisionFB","","<div class='trialDiv'><img src='Fruit/cherrie.png'><br><font class='baseline'><strong>Cherry Chances</strong><p>Choose number of points to bet.</font><div class='respPicDiv'><img src='img/responseButtonOffersNo0L3.png' class='respPic'></div></div>","null","13","Cherry Chances","Fruit/cherrie.png","Won","0.8,0.35","12","0.8","227","39","",""
"html-keyboard-response","126","187145","0.0-11.0-3.38","sconelab3","bdp_rwlrn","Wed Feb 22 2023 11:16:23 GMT-0500 (Eastern Standard Time)","413290","Untrustworthy,Trustworthy","","null","","","","feedback","","<div class='respPicDiv'><img src='img/responseButtonOffersNo0_wht.png' class='respPic'></div><div class='trialDiv'><img src='Fruit/cherrie.png'><br><font class='baseline'><strong>Cherry Chances</strong><p><strong><font class='posOutcome'>You WON</font><p>You bet: 3</strong></font> &nbsp; &nbsp; &nbsp; &nbsp; &nbsp; &nbsp;<font class='posOutcome'>you receive: <strong>6</strong></font></div>","null","13","Cherry Chances","Fruit/cherrie.png","Won","0.8,0.35","12","0.8","233","39","",""
"html-keyboard-response","127","188159","0.0-11.0-1.39","sconelab3","bdp_rwlrn","Wed Feb 22 2023 11:16:23 GMT-0500 (Eastern Standard Time)","413290","Untrustworthy,Trustworthy","","1011","","","","decision","","<div class='trialDiv'><img src='Fruit/Kiwi.png'><br><font class='baseline'><strong>Kiwi Kash</strong><p>Choose number of points to bet.</font><div class='respPicDiv'><img src='img/responseButtonOffersNo0L.png' class='respPic'></div></div>","3","14","Kiwi Kash","Fruit/Kiwi.png","Won","0.35,0.8","13","0.35","238","40","",""
"html-keyboard-response","128","188420","0.0-11.0-2.39","sconelab3","bdp_rwlrn","Wed Feb 22 2023 11:16:23 GMT-0500 (Eastern Standard Time)","413290","Untrustworthy,Trustworthy","","null","","","","decisionFB","","<div class='trialDiv'><img src='Fruit/Kiwi.png'><br><font class='baseline'><strong>Kiwi Kash</strong><p>Choose number of points to bet.</font><div class='respPicDiv'><img src='img/responseButtonOffersNo0L3.png' class='respPic'></div></div>","null","14","Kiwi Kash","Fruit/Kiwi.png","Won","0.35,0.8","13","0.35","235","40","",""
"html-keyboard-response","129","189428","0.0-11.0-3.39","sconelab3","bdp_rwlrn","Wed Feb 22 2023 11:16:23 GMT-0500 (Eastern Standard Time)","413290","Untrustworthy,Trustworthy","","null","","","","feedback","","<div class='respPicDiv'><img src='img/responseButtonOffersNo0_wht.png' class='respPic'></div><div class='trialDiv'><img src='Fruit/Kiwi.png'><br><font class='baseline'><strong>Kiwi Kash</strong><p><strong><font class='posOutcome'>You WON</font><p>You bet: 3</strong></font> &nbsp; &nbsp; &nbsp; &nbsp; &nbsp; &nbsp;<font class='posOutcome'>you receive: <strong>6</strong></font></div>","null","14","Kiwi Kash","Fruit/Kiwi.png","Won","0.35,0.8","13","0.35","241","40","",""
"html-keyboard-response","130","190231","0.0-11.0-1.40","sconelab3","bdp_rwlrn","Wed Feb 22 2023 11:16:23 GMT-0500 (Eastern Standard Time)","413290","Untrustworthy,Trustworthy","","802","","","","decision","","<div class='trialDiv'><img src='Fruit/pears.png'><br><font class='baseline'><strong>Pears Aplenty</strong><p>Choose number of points to bet.</font><div class='respPicDiv'><img src='img/responseButtonOffersNo0L.png' class='respPic'></div></div>","3","14","Pears Aplenty","Fruit/pears.png","Lost","0.65,0.35","9","0.65","246","41","",""
"html-keyboard-response","131","190489","0.0-11.0-2.40","sconelab3","bdp_rwlrn","Wed Feb 22 2023 11:16:23 GMT-0500 (Eastern Standard Time)","413290","Untrustworthy,Trustworthy","","null","","","","decisionFB","","<div class='trialDiv'><img src='Fruit/pears.png'><br><font class='baseline'><strong>Pears Aplenty</strong><p>Choose number of points to bet.</font><div class='respPicDiv'><img src='img/responseButtonOffersNo0L3.png' class='respPic'></div></div>","null","14","Pears Aplenty","Fruit/pears.png","Lost","0.65,0.35","9","0.65","243","41","",""
"html-keyboard-response","132","191497","0.0-11.0-3.40","sconelab3","bdp_rwlrn","Wed Feb 22 2023 11:16:23 GMT-0500 (Eastern Standard Time)","413290","Untrustworthy,Trustworthy","","null","","","","feedback","","<div class='respPicDiv'><img src='img/responseButtonOffersNo0_wht.png' class='respPic'></div><div class='trialDiv'><img src='Fruit/pears.png'><br><font class='baseline'><strong>Pears Aplenty</strong><p><strong><font class='negOutcome'>You LOST</font><p>You bet: 3</strong></font> &nbsp; &nbsp; &nbsp; &nbsp; &nbsp; &nbsp;<font class='negOutcome'>You receive: <strong>0</strong></font></div>","null","14","Pears Aplenty","Fruit/pears.png","Lost","0.65,0.35","9","0.65","243","41","",""
"html-keyboard-response","133","192316","0.0-11.0-1.41","sconelab3","bdp_rwlrn","Wed Feb 22 2023 11:16:23 GMT-0500 (Eastern Standard Time)","413290","Untrustworthy,Trustworthy","","817","","","","decision","","<div class='trialDiv'><img src='Fruit/cherrie.png'><br><font class='baseline'><strong>Cherry Chances</strong><p>Choose number of points to bet.</font><div class='respPicDiv'><img src='img/responseButtonOffersNo0L.png' class='respPic'></div></div>","3","14","Cherry Chances","Fruit/cherrie.png","Won","0.8,0.35","12","0.8","248","42","",""
"html-keyboard-response","134","192580","0.0-11.0-2.41","sconelab3","bdp_rwlrn","Wed Feb 22 2023 11:16:23 GMT-0500 (Eastern Standard Time)","413290","Untrustworthy,Trustworthy","","null","","","","decisionFB","","<div class='trialDiv'><img src='Fruit/cherrie.png'><br><font class='baseline'><strong>Cherry Chances</strong><p>Choose number of points to bet.</font><div class='respPicDiv'><img src='img/responseButtonOffersNo0L3.png' class='respPic'></div></div>","null","14","Cherry Chances","Fruit/cherrie.png","Won","0.8,0.35","12","0.8","245","42","",""
"html-keyboard-response","135","193587","0.0-11.0-3.41","sconelab3","bdp_rwlrn","Wed Feb 22 2023 11:16:23 GMT-0500 (Eastern Standard Time)","413290","Untrustworthy,Trustworthy","","null","","","","feedback","","<div class='respPicDiv'><img src='img/responseButtonOffersNo0_wht.png' class='respPic'></div><div class='trialDiv'><img src='Fruit/cherrie.png'><br><font class='baseline'><strong>Cherry Chances</strong><p><strong><font class='posOutcome'>You WON</font><p>You bet: 3</strong></font> &nbsp; &nbsp; &nbsp; &nbsp; &nbsp; &nbsp;<font class='posOutcome'>you receive: <strong>6</strong></font></div>","null","14","Cherry Chances","Fruit/cherrie.png","Won","0.8,0.35","12","0.8","251","42","",""
"html-keyboard-response","136","194856","0.0-11.0-1.42","sconelab3","bdp_rwlrn","Wed Feb 22 2023 11:16:23 GMT-0500 (Eastern Standard Time)","413290","Untrustworthy,Trustworthy","","1267","","","","decision","","<div class='trialDiv'><img src='Fruit/pears.png'><br><font class='baseline'><strong>Pears Aplenty</strong><p>Choose number of points to bet.</font><div class='respPicDiv'><img src='img/responseButtonOffersNo0L.png' class='respPic'></div></div>","4","15","Pears Aplenty","Fruit/pears.png","Lost","0.65,0.35","9","0.65","256","43","",""
"html-keyboard-response","137","195113","0.0-11.0-2.42","sconelab3","bdp_rwlrn","Wed Feb 22 2023 11:16:23 GMT-0500 (Eastern Standard Time)","413290","Untrustworthy,Trustworthy","","null","","","","decisionFB","","<div class='trialDiv'><img src='Fruit/pears.png'><br><font class='baseline'><strong>Pears Aplenty</strong><p>Choose number of points to bet.</font><div class='respPicDiv'><img src='img/responseButtonOffersNo0L4.png' class='respPic'></div></div>","null","15","Pears Aplenty","Fruit/pears.png","Lost","0.65,0.35","9","0.65","252","43","",""
"html-keyboard-response","138","196121","0.0-11.0-3.42","sconelab3","bdp_rwlrn","Wed Feb 22 2023 11:16:23 GMT-0500 (Eastern Standard Time)","413290","Untrustworthy,Trustworthy","","null","","","","feedback","","<div class='respPicDiv'><img src='img/responseButtonOffersNo0_wht.png' class='respPic'></div><div class='trialDiv'><img src='Fruit/pears.png'><br><font class='baseline'><strong>Pears Aplenty</strong><p><strong><font class='negOutcome'>You LOST</font><p>You bet: 4</strong></font> &nbsp; &nbsp; &nbsp; &nbsp; &nbsp; &nbsp;<font class='negOutcome'>You receive: <strong>0</strong></font></div>","null","15","Pears Aplenty","Fruit/pears.png","Lost","0.65,0.35","9","0.65","252","43","",""
"html-keyboard-response","139","196667","0.0-11.0-1.43","sconelab3","bdp_rwlrn","Wed Feb 22 2023 11:16:23 GMT-0500 (Eastern Standard Time)","413290","Untrustworthy,Trustworthy","","545","","","","decision","","<div class='trialDiv'><img src='Fruit/cherrie.png'><br><font class='baseline'><strong>Cherry Chances</strong><p>Choose number of points to bet.</font><div class='respPicDiv'><img src='img/responseButtonOffersNo0L.png' class='respPic'></div></div>","1","15","Cherry Chances","Fruit/cherrie.png","Won","0.8,0.35","12","0.8","257","44","",""
"html-keyboard-response","140","196921","0.0-11.0-2.43","sconelab3","bdp_rwlrn","Wed Feb 22 2023 11:16:23 GMT-0500 (Eastern Standard Time)","413290","Untrustworthy,Trustworthy","","null","","","","decisionFB","","<div class='trialDiv'><img src='Fruit/cherrie.png'><br><font class='baseline'><strong>Cherry Chances</strong><p>Choose number of points to bet.</font><div class='respPicDiv'><img src='img/responseButtonOffersNo0L1.png' class='respPic'></div></div>","null","15","Cherry Chances","Fruit/cherrie.png","Won","0.8,0.35","12","0.8","256","44","",""
"html-keyboard-response","141","197928","0.0-11.0-3.43","sconelab3","bdp_rwlrn","Wed Feb 22 2023 11:16:23 GMT-0500 (Eastern Standard Time)","413290","Untrustworthy,Trustworthy","","null","","","","feedback","","<div class='respPicDiv'><img src='img/responseButtonOffersNo0_wht.png' class='respPic'></div><div class='trialDiv'><img src='Fruit/cherrie.png'><br><font class='baseline'><strong>Cherry Chances</strong><p><strong><font class='posOutcome'>You WON</font><p>You bet: 1</strong></font> &nbsp; &nbsp; &nbsp; &nbsp; &nbsp; &nbsp;<font class='posOutcome'>you receive: <strong>2</strong></font></div>","null","15","Cherry Chances","Fruit/cherrie.png","Won","0.8,0.35","12","0.8","258","44","",""
"html-keyboard-response","142","198711","0.0-11.0-1.44","sconelab3","bdp_rwlrn","Wed Feb 22 2023 11:16:23 GMT-0500 (Eastern Standard Time)","413290","Untrustworthy,Trustworthy","","781","","","","decision","","<div class='trialDiv'><img src='Fruit/Kiwi.png'><br><font class='baseline'><strong>Kiwi Kash</strong><p>Choose number of points to bet.</font><div class='respPicDiv'><img src='img/responseButtonOffersNo0L.png' class='respPic'></div></div>","1","15","Kiwi Kash","Fruit/Kiwi.png","Won","0.35,0.8","13","0.35","263","45","",""
"html-keyboard-response","143","198969","0.0-11.0-2.44","sconelab3","bdp_rwlrn","Wed Feb 22 2023 11:16:23 GMT-0500 (Eastern Standard Time)","413290","Untrustworthy,Trustworthy","","null","","","","decisionFB","","<div class='trialDiv'><img src='Fruit/Kiwi.png'><br><font class='baseline'><strong>Kiwi Kash</strong><p>Choose number of points to bet.</font><div class='respPicDiv'><img src='img/responseButtonOffersNo0L1.png' class='respPic'></div></div>","null","15","Kiwi Kash","Fruit/Kiwi.png","Won","0.35,0.8","13","0.35","262","45","",""
"html-keyboard-response","144","199977","0.0-11.0-3.44","sconelab3","bdp_rwlrn","Wed Feb 22 2023 11:16:23 GMT-0500 (Eastern Standard Time)","413290","Untrustworthy,Trustworthy","","null","","","","feedback","","<div class='respPicDiv'><img src='img/responseButtonOffersNo0_wht.png' class='respPic'></div><div class='trialDiv'><img src='Fruit/Kiwi.png'><br><font class='baseline'><strong>Kiwi Kash</strong><p><strong><font class='posOutcome'>You WON</font><p>You bet: 1</strong></font> &nbsp; &nbsp; &nbsp; &nbsp; &nbsp; &nbsp;<font class='posOutcome'>you receive: <strong>2</strong></font></div>","null","15","Kiwi Kash","Fruit/Kiwi.png","Won","0.35,0.8","13","0.35","264","45","",""
"html-keyboard-response","145","200649","0.0-11.0-1.45","sconelab3","bdp_rwlrn","Wed Feb 22 2023 11:16:23 GMT-0500 (Eastern Standard Time)","413290","Untrustworthy,Trustworthy","","671","","","","decision","","<div class='trialDiv'><img src='Fruit/cherrie.png'><br><font class='baseline'><strong>Cherry Chances</strong><p>Choose number of points to bet.</font><div class='respPicDiv'><img src='img/responseButtonOffersNo0L.png' class='respPic'></div></div>","1","16","Cherry Chances","Fruit/cherrie.png","Lost","0.8,0.35","12","0.8","269","46","",""
"html-keyboard-response","146","200905","0.0-11.0-2.45","sconelab3","bdp_rwlrn","Wed Feb 22 2023 11:16:23 GMT-0500 (Eastern Standard Time)","413290","Untrustworthy,Trustworthy","","null","","","","decisionFB","","<div class='trialDiv'><img src='Fruit/cherrie.png'><br><font class='baseline'><strong>Cherry Chances</strong><p>Choose number of points to bet.</font><div class='respPicDiv'><img src='img/responseButtonOffersNo0L1.png' class='respPic'></div></div>","null","16","Cherry Chances","Fruit/cherrie.png","Lost","0.8,0.35","12","0.8","268","46","",""
"html-keyboard-response","147","201912","0.0-11.0-3.45","sconelab3","bdp_rwlrn","Wed Feb 22 2023 11:16:23 GMT-0500 (Eastern Standard Time)","413290","Untrustworthy,Trustworthy","","null","","","","feedback","","<div class='respPicDiv'><img src='img/responseButtonOffersNo0_wht.png' class='respPic'></div><div class='trialDiv'><img src='Fruit/cherrie.png'><br><font class='baseline'><strong>Cherry Chances</strong><p><strong><font class='negOutcome'>You LOST</font><p>You bet: 1</strong></font> &nbsp; &nbsp; &nbsp; &nbsp; &nbsp; &nbsp;<font class='negOutcome'>You receive: <strong>0</strong></font></div>","null","16","Cherry Chances","Fruit/cherrie.png","Lost","0.8,0.35","12","0.8","268","46","",""
"html-keyboard-response","148","202500","0.0-11.0-1.46","sconelab3","bdp_rwlrn","Wed Feb 22 2023 11:16:23 GMT-0500 (Eastern Standard Time)","413290","Untrustworthy,Trustworthy","","586","","","","decision","","<div class='trialDiv'><img src='Fruit/Kiwi.png'><br><font class='baseline'><strong>Kiwi Kash</strong><p>Choose number of points to bet.</font><div class='respPicDiv'><img src='img/responseButtonOffersNo0L.png' class='respPic'></div></div>","2","16","Kiwi Kash","Fruit/Kiwi.png","Won","0.35,0.8","13","0.35","273","47","",""
"html-keyboard-response","149","202761","0.0-11.0-2.46","sconelab3","bdp_rwlrn","Wed Feb 22 2023 11:16:23 GMT-0500 (Eastern Standard Time)","413290","Untrustworthy,Trustworthy","","null","","","","decisionFB","","<div class='trialDiv'><img src='Fruit/Kiwi.png'><br><font class='baseline'><strong>Kiwi Kash</strong><p>Choose number of points to bet.</font><div class='respPicDiv'><img src='img/responseButtonOffersNo0L2.png' class='respPic'></div></div>","null","16","Kiwi Kash","Fruit/Kiwi.png","Won","0.35,0.8","13","0.35","271","47","",""
"html-keyboard-response","150","203768","0.0-11.0-3.46","sconelab3","bdp_rwlrn","Wed Feb 22 2023 11:16:23 GMT-0500 (Eastern Standard Time)","413290","Untrustworthy,Trustworthy","","null","","","","feedback","","<div class='respPicDiv'><img src='img/responseButtonOffersNo0_wht.png' class='respPic'></div><div class='trialDiv'><img src='Fruit/Kiwi.png'><br><font class='baseline'><strong>Kiwi Kash</strong><p><strong><font class='posOutcome'>You WON</font><p>You bet: 2</strong></font> &nbsp; &nbsp; &nbsp; &nbsp; &nbsp; &nbsp;<font class='posOutcome'>you receive: <strong>4</strong></font></div>","null","16","Kiwi Kash","Fruit/Kiwi.png","Won","0.35,0.8","13","0.35","275","47","",""
"html-keyboard-response","151","204323","0.0-11.0-1.47","sconelab3","bdp_rwlrn","Wed Feb 22 2023 11:16:23 GMT-0500 (Eastern Standard Time)","413290","Untrustworthy,Trustworthy","","553","","","","decision","","<div class='trialDiv'><img src='Fruit/pears.png'><br><font class='baseline'><strong>Pears Aplenty</strong><p>Choose number of points to bet.</font><div class='respPicDiv'><img src='img/responseButtonOffersNo0L.png' class='respPic'></div></div>","2","16","Pears Aplenty","Fruit/pears.png","Won","0.65,0.35","9","0.65","280","48","",""
"html-keyboard-response","152","204579","0.0-11.0-2.47","sconelab3","bdp_rwlrn","Wed Feb 22 2023 11:16:23 GMT-0500 (Eastern Standard Time)","413290","Untrustworthy,Trustworthy","","null","","","","decisionFB","","<div class='trialDiv'><img src='Fruit/pears.png'><br><font class='baseline'><strong>Pears Aplenty</strong><p>Choose number of points to bet.</font><div class='respPicDiv'><img src='img/responseButtonOffersNo0L2.png' class='respPic'></div></div>","null","16","Pears Aplenty","Fruit/pears.png","Won","0.65,0.35","9","0.65","278","48","",""
"html-keyboard-response","153","205587","0.0-11.0-3.47","sconelab3","bdp_rwlrn","Wed Feb 22 2023 11:16:23 GMT-0500 (Eastern Standard Time)","413290","Untrustworthy,Trustworthy","","null","","","","feedback","","<div class='respPicDiv'><img src='img/responseButtonOffersNo0_wht.png' class='respPic'></div><div class='trialDiv'><img src='Fruit/pears.png'><br><font class='baseline'><strong>Pears Aplenty</strong><p><strong><font class='posOutcome'>You WON</font><p>You bet: 2</strong></font> &nbsp; &nbsp; &nbsp; &nbsp; &nbsp; &nbsp;<font class='posOutcome'>you receive: <strong>4</strong></font></div>","null","16","Pears Aplenty","Fruit/pears.png","Won","0.65,0.35","9","0.65","282","48","",""
"html-keyboard-response","154","206323","0.0-11.0-1.48","sconelab3","bdp_rwlrn","Wed Feb 22 2023 11:16:23 GMT-0500 (Eastern Standard Time)","413290","Untrustworthy,Trustworthy","","734","","","","decision","","<div class='trialDiv'><img src='Fruit/cherrie.png'><br><font class='baseline'><strong>Cherry Chances</strong><p>Choose number of points to bet.</font><div class='respPicDiv'><img src='img/responseButtonOffersNo0L.png' class='respPic'></div></div>","2","17","Cherry Chances","Fruit/cherrie.png","Won","0.8,0.35","12","0.8","287","49","",""
"html-keyboard-response","155","206584","0.0-11.0-2.48","sconelab3","bdp_rwlrn","Wed Feb 22 2023 11:16:23 GMT-0500 (Eastern Standard Time)","413290","Untrustworthy,Trustworthy","","null","","","","decisionFB","","<div class='trialDiv'><img src='Fruit/cherrie.png'><br><font class='baseline'><strong>Cherry Chances</strong><p>Choose number of points to bet.</font><div class='respPicDiv'><img src='img/responseButtonOffersNo0L2.png' class='respPic'></div></div>","null","17","Cherry Chances","Fruit/cherrie.png","Won","0.8,0.35","12","0.8","285","49","",""
"html-keyboard-response","156","207592","0.0-11.0-3.48","sconelab3","bdp_rwlrn","Wed Feb 22 2023 11:16:23 GMT-0500 (Eastern Standard Time)","413290","Untrustworthy,Trustworthy","","null","","","","feedback","","<div class='respPicDiv'><img src='img/responseButtonOffersNo0_wht.png' class='respPic'></div><div class='trialDiv'><img src='Fruit/cherrie.png'><br><font class='baseline'><strong>Cherry Chances</strong><p><strong><font class='posOutcome'>You WON</font><p>You bet: 2</strong></font> &nbsp; &nbsp; &nbsp; &nbsp; &nbsp; &nbsp;<font class='posOutcome'>you receive: <strong>4</strong></font></div>","null","17","Cherry Chances","Fruit/cherrie.png","Won","0.8,0.35","12","0.8","289","49","",""
"html-keyboard-response","157","208183","0.0-11.0-1.49","sconelab3","bdp_rwlrn","Wed Feb 22 2023 11:16:23 GMT-0500 (Eastern Standard Time)","413290","Untrustworthy,Trustworthy","","589","","","","decision","","<div class='trialDiv'><img src='Fruit/pears.png'><br><font class='baseline'><strong>Pears Aplenty</strong><p>Choose number of points to bet.</font><div class='respPicDiv'><img src='img/responseButtonOffersNo0L.png' class='respPic'></div></div>","3","17","Pears Aplenty","Fruit/pears.png","Won","0.65,0.35","9","0.65","294","50","",""
"html-keyboard-response","158","208440","0.0-11.0-2.49","sconelab3","bdp_rwlrn","Wed Feb 22 2023 11:16:23 GMT-0500 (Eastern Standard Time)","413290","Untrustworthy,Trustworthy","","null","","","","decisionFB","","<div class='trialDiv'><img src='Fruit/pears.png'><br><font class='baseline'><strong>Pears Aplenty</strong><p>Choose number of points to bet.</font><div class='respPicDiv'><img src='img/responseButtonOffersNo0L3.png' class='respPic'></div></div>","null","17","Pears Aplenty","Fruit/pears.png","Won","0.65,0.35","9","0.65","291","50","",""
"html-keyboard-response","159","209448","0.0-11.0-3.49","sconelab3","bdp_rwlrn","Wed Feb 22 2023 11:16:23 GMT-0500 (Eastern Standard Time)","413290","Untrustworthy,Trustworthy","","null","","","","feedback","","<div class='respPicDiv'><img src='img/responseButtonOffersNo0_wht.png' class='respPic'></div><div class='trialDiv'><img src='Fruit/pears.png'><br><font class='baseline'><strong>Pears Aplenty</strong><p><strong><font class='posOutcome'>You WON</font><p>You bet: 3</strong></font> &nbsp; &nbsp; &nbsp; &nbsp; &nbsp; &nbsp;<font class='posOutcome'>you receive: <strong>6</strong></font></div>","null","17","Pears Aplenty","Fruit/pears.png","Won","0.65,0.35","9","0.65","297","50","",""
"html-keyboard-response","160","209932","0.0-11.0-1.50","sconelab3","bdp_rwlrn","Wed Feb 22 2023 11:16:23 GMT-0500 (Eastern Standard Time)","413290","Untrustworthy,Trustworthy","","481","","","","decision","","<div class='trialDiv'><img src='Fruit/Kiwi.png'><br><font class='baseline'><strong>Kiwi Kash</strong><p>Choose number of points to bet.</font><div class='respPicDiv'><img src='img/responseButtonOffersNo0L.png' class='respPic'></div></div>","3","17","Kiwi Kash","Fruit/Kiwi.png","Lost","0.35,0.8","13","0.35","302","51","",""
"html-keyboard-response","161","210195","0.0-11.0-2.50","sconelab3","bdp_rwlrn","Wed Feb 22 2023 11:16:23 GMT-0500 (Eastern Standard Time)","413290","Untrustworthy,Trustworthy","","null","","","","decisionFB","","<div class='trialDiv'><img src='Fruit/Kiwi.png'><br><font class='baseline'><strong>Kiwi Kash</strong><p>Choose number of points to bet.</font><div class='respPicDiv'><img src='img/responseButtonOffersNo0L3.png' class='respPic'></div></div>","null","17","Kiwi Kash","Fruit/Kiwi.png","Lost","0.35,0.8","13","0.35","299","51","",""
"html-keyboard-response","162","211203","0.0-11.0-3.50","sconelab3","bdp_rwlrn","Wed Feb 22 2023 11:16:23 GMT-0500 (Eastern Standard Time)","413290","Untrustworthy,Trustworthy","","null","","","","feedback","","<div class='respPicDiv'><img src='img/responseButtonOffersNo0_wht.png' class='respPic'></div><div class='trialDiv'><img src='Fruit/Kiwi.png'><br><font class='baseline'><strong>Kiwi Kash</strong><p><strong><font class='negOutcome'>You LOST</font><p>You bet: 3</strong></font> &nbsp; &nbsp; &nbsp; &nbsp; &nbsp; &nbsp;<font class='negOutcome'>You receive: <strong>0</strong></font></div>","null","17","Kiwi Kash","Fruit/Kiwi.png","Lost","0.35,0.8","13","0.35","299","51","",""
"html-keyboard-response","163","212810","0.0-11.0-1.51","sconelab3","bdp_rwlrn","Wed Feb 22 2023 11:16:23 GMT-0500 (Eastern Standard Time)","413290","Untrustworthy,Trustworthy","","1606","","","","decision","","<div class='trialDiv'><img src='Fruit/cherrie.png'><br><font class='baseline'><strong>Cherry Chances</strong><p>Choose number of points to bet.</font><div class='respPicDiv'><img src='img/responseButtonOffersNo0L.png' class='respPic'></div></div>","2","18","Cherry Chances","Fruit/cherrie.png","Won","0.8,0.35","12","0.8","304","52","",""
"html-keyboard-response","164","213067","0.0-11.0-2.51","sconelab3","bdp_rwlrn","Wed Feb 22 2023 11:16:23 GMT-0500 (Eastern Standard Time)","413290","Untrustworthy,Trustworthy","","null","","","","decisionFB","","<div class='trialDiv'><img src='Fruit/cherrie.png'><br><font class='baseline'><strong>Cherry Chances</strong><p>Choose number of points to bet.</font><div class='respPicDiv'><img src='img/responseButtonOffersNo0L2.png' class='respPic'></div></div>","null","18","Cherry Chances","Fruit/cherrie.png","Won","0.8,0.35","12","0.8","302","52","",""
"html-keyboard-response","165","214071","0.0-11.0-3.51","sconelab3","bdp_rwlrn","Wed Feb 22 2023 11:16:23 GMT-0500 (Eastern Standard Time)","413290","Untrustworthy,Trustworthy","","null","","","","feedback","","<div class='respPicDiv'><img src='img/responseButtonOffersNo0_wht.png' class='respPic'></div><div class='trialDiv'><img src='Fruit/cherrie.png'><br><font class='baseline'><strong>Cherry Chances</strong><p><strong><font class='posOutcome'>You WON</font><p>You bet: 2</strong></font> &nbsp; &nbsp; &nbsp; &nbsp; &nbsp; &nbsp;<font class='posOutcome'>you receive: <strong>4</strong></font></div>","null","18","Cherry Chances","Fruit/cherrie.png","Won","0.8,0.35","12","0.8","306","52","",""
"html-keyboard-response","166","214675","0.0-11.0-1.52","sconelab3","bdp_rwlrn","Wed Feb 22 2023 11:16:23 GMT-0500 (Eastern Standard Time)","413290","Untrustworthy,Trustworthy","","602","","","","decision","","<div class='trialDiv'><img src='Fruit/Kiwi.png'><br><font class='baseline'><strong>Kiwi Kash</strong><p>Choose number of points to bet.</font><div class='respPicDiv'><img src='img/responseButtonOffersNo0L.png' class='respPic'></div></div>","2","18","Kiwi Kash","Fruit/Kiwi.png","Lost","0.35,0.8","13","0.35","311","53","",""
"html-keyboard-response","167","214936","0.0-11.0-2.52","sconelab3","bdp_rwlrn","Wed Feb 22 2023 11:16:23 GMT-0500 (Eastern Standard Time)","413290","Untrustworthy,Trustworthy","","null","","","","decisionFB","","<div class='trialDiv'><img src='Fruit/Kiwi.png'><br><font class='baseline'><strong>Kiwi Kash</strong><p>Choose number of points to bet.</font><div class='respPicDiv'><img src='img/responseButtonOffersNo0L2.png' class='respPic'></div></div>","null","18","Kiwi Kash","Fruit/Kiwi.png","Lost","0.35,0.8","13","0.35","309","53","",""
"html-keyboard-response","168","215944","0.0-11.0-3.52","sconelab3","bdp_rwlrn","Wed Feb 22 2023 11:16:23 GMT-0500 (Eastern Standard Time)","413290","Untrustworthy,Trustworthy","","null","","","","feedback","","<div class='respPicDiv'><img src='img/responseButtonOffersNo0_wht.png' class='respPic'></div><div class='trialDiv'><img src='Fruit/Kiwi.png'><br><font class='baseline'><strong>Kiwi Kash</strong><p><strong><font class='negOutcome'>You LOST</font><p>You bet: 2</strong></font> &nbsp; &nbsp; &nbsp; &nbsp; &nbsp; &nbsp;<font class='negOutcome'>You receive: <strong>0</strong></font></div>","null","18","Kiwi Kash","Fruit/Kiwi.png","Lost","0.35,0.8","13","0.35","309","53","",""
