"trial_type","trial_index","time_elapsed","internal_node_id","subject_id","task","startTime","totalTime","labels","view_history","rt","event","trial","time","trialtype","success","stimulus","key_press","ltround","name","fileID","outcome","lottotype","lottoswpt","lottocurrpshare","point_total","round","faceID","face"
"pavlovia","0","5","0.0-0.0","63d418d4229ed6c0712ce5bb","bdp_rwlrn","Tue Mar 14 2023 13:51:20 GMT-0400 (Eastern Daylight Time)","414594","Untrustworthy,Trustworthy","","","","","","","","","","","","","","","","","","","",""
"instructions","1","3958","0.0-1.0","63d418d4229ed6c0712ce5bb","bdp_rwlrn","Tue Mar 14 2023 13:51:20 GMT-0400 (Eastern Daylight Time)","414594","Untrustworthy,Trustworthy","[{""page_index"":0,""viewing_time"":3953}]","3953","","","","","","","","","","","","","","","","","",""
"","","","","63d418d4229ed6c0712ce5bb","bdp_rwlrn","Tue Mar 14 2023 13:51:20 GMT-0400 (Eastern Daylight Time)","414594","Untrustworthy,Trustworthy","","","fullscreenenter","2","6312","fullscreenenter","","","","","","","","","","","","","",""
"fullscreen","2","7315","0.0-2.0","63d418d4229ed6c0712ce5bb","bdp_rwlrn","Tue Mar 14 2023 13:51:20 GMT-0400 (Eastern Daylight Time)","414594","Untrustworthy,Trustworthy","","","","","","","true","","","","","","","","","","","","",""
"instructions","3","59474","0.0-4.0","63d418d4229ed6c0712ce5bb","bdp_rwlrn","Tue Mar 14 2023 13:51:20 GMT-0400 (Eastern Daylight Time)","414594","Untrustworthy,Trustworthy","[{""page_index"":0,""viewing_time"":8002},{""page_index"":1,""viewing_time"":6504},{""page_index"":2,""viewing_time"":1968},{""page_index"":3,""viewing_time"":8642},{""page_index"":4,""viewing_time"":25905},{""page_index"":5,""viewing_time"":1135}]","52157","","","","","","","","","","","","","","","","","",""
"html-keyboard-response","4","63282","0.0-5.0","63d418d4229ed6c0712ce5bb","bdp_rwlrn","Tue Mar 14 2023 13:51:20 GMT-0400 (Eastern Daylight Time)","414594","Untrustworthy,Trustworthy","","3808","","","","","","<div class='header' style='text-align:left; position: absolute; top: 5%; left: 5%;'><small>Task 3 of 5</small></div><div class='instruxDiv'><p><strong>1) What is the maximum number of points you can choose to bet on a lottery?</strong></p><p>a) 0</p><p>b) 1</p><p>c) 5</p>","C","","","","","","","","","","",""
"html-keyboard-response","5","64091","0.0-6.0","63d418d4229ed6c0712ce5bb","bdp_rwlrn","Tue Mar 14 2023 13:51:20 GMT-0400 (Eastern Daylight Time)","414594","Untrustworthy,Trustworthy","","705","","","","","","<div class='header' style='text-align:left; position: absolute; top: 5%; left: 5%;'><small>Task 3 of 5</small></div><div class='instruxDiv'><p><strong>1) What is the maximum number of points you can choose to bet on a lottery?</strong></p><p>a) 1</p><p>b) 1</p><p style='color:#00FF00'>c) 5</p><h3 style='color:#00FF00'>Correct!</h3><h3 class='center-content'>The correct response is c).</h3><h3 class='center-content'>The maximum number of points you can choose to bet on a lottery is 5 points.</h3><p><em>Press SPACEBAR to continue</em></p></div>"," ","","","","","","","","","","",""
"html-keyboard-response","6","70211","0.0-7.0","63d418d4229ed6c0712ce5bb","bdp_rwlrn","Tue Mar 14 2023 13:51:20 GMT-0400 (Eastern Daylight Time)","414594","Untrustworthy,Trustworthy","","6020","","","","","","<div class='header' style='text-align:left; position: absolute; top: 5%; left: 5%;'><small>Task 3 of 5</small></div><div class='instruxDiv'><p><strong>2) How many points can you win each round?</strong></p><p>a) 10 points</p><p>b) Double what you bet</p><p>c) Quadruple what you bet</p>","B","","","","","","","","","","",""
"html-keyboard-response","7","70931","0.0-8.0","63d418d4229ed6c0712ce5bb","bdp_rwlrn","Tue Mar 14 2023 13:51:20 GMT-0400 (Eastern Daylight Time)","414594","Untrustworthy,Trustworthy","","614","","","","","","<div class='header' style='text-align:left; position: absolute; top: 5%; left: 5%;'><small>Task 3 of 5</small></div><div class='instruxDiv'><p><strong>2) How many points can you win each round?</strong></p><p>a) 10 points</p><p style='color:#00FF00'>b) Double what you bet</p><p>c) Quadruple what you bet</p><h3 style='color:#00FF00'>Correct!</h3><h3 class='center-content'>The correct response is b).</h3><h3 class='center-content'>You can win double the amount of points you bet.</h3><p><em>Press SPACEBAR to continue</em></p></div>"," ","","","","","","","","","","",""
"html-keyboard-response","8","76044","0.0-9.0","63d418d4229ed6c0712ce5bb","bdp_rwlrn","Tue Mar 14 2023 13:51:20 GMT-0400 (Eastern Daylight Time)","414594","Untrustworthy,Trustworthy","","null","","","","","","<div class='header' style='text-align:left; position: absolute; top: 5%; left: 5%;'><small>Task 3 of 5</small></div><div class='instruxDiv'><p>Thank you for completing the quiz<p>These are the actual lotteries you will be playing in the next block:<p><div class='tc' align='center'><img class='introPic' src='Fruit/pineapple.png'><br><strong>Primo Pineapple</strong></div><div class='bl' align='center'><img class='introPic' src='Fruit/orange.png'><br><strong>Odds are Orange</strong></div><div class='br' align='center'><img class='introPic' src='Fruit/Kiwi.png'><br><strong>Kiwi Kash</strong></div></div><p>Across <strong>66 rounds</strong> you will play each lottery <strong>22 times</strong> (in random order).<p style='align:center; color:white'><font <em>Press SPACEBAR to continue</em></p>","null","","","","","","","","","","",""
"instructions","9","77475","0.0-10.0","63d418d4229ed6c0712ce5bb","bdp_rwlrn","Tue Mar 14 2023 13:51:20 GMT-0400 (Eastern Daylight Time)","414594","Untrustworthy,Trustworthy","[{""page_index"":0,""viewing_time"":828},{""page_index"":1,""viewing_time"":603}]","1431","","","","","","","","","","","","","","","","","",""
"html-keyboard-response","10","79425","0.0-11.0-1.0","63d418d4229ed6c0712ce5bb","bdp_rwlrn","Tue Mar 14 2023 13:51:20 GMT-0400 (Eastern Daylight Time)","414594","Untrustworthy,Trustworthy","","1847","","","","decision","","<div class='trialDiv'><img src='Fruit/pineapple.png'><br><font class='baseline'><strong>Primo Pineapple</strong><p>Choose number of points to bet.</font><div class='respPicDiv'><img src='img/responseButtonOffersNo0L.png' class='respPic'></div></div>","5","1","Primo Pineapple","Fruit/pineapple.png","Won","0.8,0.35","10","0.8","5","1","",""
"html-keyboard-response","11","79678","0.0-11.0-2.0","63d418d4229ed6c0712ce5bb","bdp_rwlrn","Tue Mar 14 2023 13:51:20 GMT-0400 (Eastern Daylight Time)","414594","Untrustworthy,Trustworthy","","null","","","","decisionFB","","<div class='trialDiv'><img src='Fruit/pineapple.png'><br><font class='baseline'><strong>Primo Pineapple</strong><p>Choose number of points to bet.</font><div class='respPicDiv'><img src='img/responseButtonOffersNo0L5.png' class='respPic'></div></div>","null","1","Primo Pineapple","Fruit/pineapple.png","Won","0.8,0.35","10","0.8","0","1","",""
"html-keyboard-response","12","80684","0.0-11.0-3.0","63d418d4229ed6c0712ce5bb","bdp_rwlrn","Tue Mar 14 2023 13:51:20 GMT-0400 (Eastern Daylight Time)","414594","Untrustworthy,Trustworthy","","null","","","","feedback","","<div class='respPicDiv'><img src='img/responseButtonOffersNo0_wht.png' class='respPic'></div><div class='trialDiv'><img src='Fruit/pineapple.png'><br><font class='baseline'><strong>Primo Pineapple</strong><p><strong><font class='posOutcome'>You WON</font><p>You bet: 5</strong></font> &nbsp; &nbsp; &nbsp; &nbsp; &nbsp; &nbsp;<font class='posOutcome'>you receive: <strong>10</strong></font></div>","null","1","Primo Pineapple","Fruit/pineapple.png","Won","0.8,0.35","10","0.8","10","1","",""
"html-keyboard-response","13","81556","0.0-11.0-1.1","63d418d4229ed6c0712ce5bb","bdp_rwlrn","Tue Mar 14 2023 13:51:20 GMT-0400 (Eastern Daylight Time)","414594","Untrustworthy,Trustworthy","","872","","","","decision","","<div class='trialDiv'><img src='Fruit/orange.png'><br><font class='baseline'><strong>Odds are Orange</strong><p>Choose number of points to bet.</font><div class='respPicDiv'><img src='img/responseButtonOffersNo0L.png' class='respPic'></div></div>","2","1","Odds are Orange","Fruit/orange.png","Lost","0.2,0.8","11","0.2","15","2","",""
"html-keyboard-response","14","81808","0.0-11.0-2.1","63d418d4229ed6c0712ce5bb","bdp_rwlrn","Tue Mar 14 2023 13:51:20 GMT-0400 (Eastern Daylight Time)","414594","Untrustworthy,Trustworthy","","null","","","","decisionFB","","<div class='trialDiv'><img src='Fruit/orange.png'><br><font class='baseline'><strong>Odds are Orange</strong><p>Choose number of points to bet.</font><div class='respPicDiv'><img src='img/responseButtonOffersNo0L2.png' class='respPic'></div></div>","null","1","Odds are Orange","Fruit/orange.png","Lost","0.2,0.8","11","0.2","13","2","",""
"html-keyboard-response","15","82809","0.0-11.0-3.1","63d418d4229ed6c0712ce5bb","bdp_rwlrn","Tue Mar 14 2023 13:51:20 GMT-0400 (Eastern Daylight Time)","414594","Untrustworthy,Trustworthy","","null","","","","feedback","","<div class='respPicDiv'><img src='img/responseButtonOffersNo0_wht.png' class='respPic'></div><div class='trialDiv'><img src='Fruit/orange.png'><br><font class='baseline'><strong>Odds are Orange</strong><p><strong><font class='negOutcome'>You LOST</font><p>You bet: 2</strong></font> &nbsp; &nbsp; &nbsp; &nbsp; &nbsp; &nbsp;<font class='negOutcome'>You receive: <strong>0</strong></font></div>","null","1","Odds are Orange","Fruit/orange.png","Lost","0.2,0.8","11","0.2","13","2","",""
"html-keyboard-response","16","84228","0.0-11.0-1.2","63d418d4229ed6c0712ce5bb","bdp_rwlrn","Tue Mar 14 2023 13:51:20 GMT-0400 (Eastern Daylight Time)","414594","Untrustworthy,Trustworthy","","1419","","","","decision","","<div class='trialDiv'><img src='Fruit/Kiwi.png'><br><font class='baseline'><strong>Kiwi Kash</strong><p>Choose number of points to bet.</font><div class='respPicDiv'><img src='img/responseButtonOffersNo0L.png' class='respPic'></div></div>","4","1","Kiwi Kash","Fruit/Kiwi.png","Lost","0.35,0.8","13","0.35","18","3","",""
"html-keyboard-response","17","84480","0.0-11.0-2.2","63d418d4229ed6c0712ce5bb","bdp_rwlrn","Tue Mar 14 2023 13:51:20 GMT-0400 (Eastern Daylight Time)","414594","Untrustworthy,Trustworthy","","null","","","","decisionFB","","<div class='trialDiv'><img src='Fruit/Kiwi.png'><br><font class='baseline'><strong>Kiwi Kash</strong><p>Choose number of points to bet.</font><div class='respPicDiv'><img src='img/responseButtonOffersNo0L4.png' class='respPic'></div></div>","null","1","Kiwi Kash","Fruit/Kiwi.png","Lost","0.35,0.8","13","0.35","14","3","",""
"html-keyboard-response","18","85483","0.0-11.0-3.2","63d418d4229ed6c0712ce5bb","bdp_rwlrn","Tue Mar 14 2023 13:51:20 GMT-0400 (Eastern Daylight Time)","414594","Untrustworthy,Trustworthy","","null","","","","feedback","","<div class='respPicDiv'><img src='img/responseButtonOffersNo0_wht.png' class='respPic'></div><div class='trialDiv'><img src='Fruit/Kiwi.png'><br><font class='baseline'><strong>Kiwi Kash</strong><p><strong><font class='negOutcome'>You LOST</font><p>You bet: 4</strong></font> &nbsp; &nbsp; &nbsp; &nbsp; &nbsp; &nbsp;<font class='negOutcome'>You receive: <strong>0</strong></font></div>","null","1","Kiwi Kash","Fruit/Kiwi.png","Lost","0.35,0.8","13","0.35","14","3","",""
"html-keyboard-response","19","86364","0.0-11.0-1.3","63d418d4229ed6c0712ce5bb","bdp_rwlrn","Tue Mar 14 2023 13:51:20 GMT-0400 (Eastern Daylight Time)","414594","Untrustworthy,Trustworthy","","881","","","","decision","","<div class='trialDiv'><img src='Fruit/pineapple.png'><br><font class='baseline'><strong>Primo Pineapple</strong><p>Choose number of points to bet.</font><div class='respPicDiv'><img src='img/responseButtonOffersNo0L.png' class='respPic'></div></div>","5","2","Primo Pineapple","Fruit/pineapple.png","Lost","0.8,0.35","10","0.8","19","4","",""
"html-keyboard-response","20","86616","0.0-11.0-2.3","63d418d4229ed6c0712ce5bb","bdp_rwlrn","Tue Mar 14 2023 13:51:20 GMT-0400 (Eastern Daylight Time)","414594","Untrustworthy,Trustworthy","","null","","","","decisionFB","","<div class='trialDiv'><img src='Fruit/pineapple.png'><br><font class='baseline'><strong>Primo Pineapple</strong><p>Choose number of points to bet.</font><div class='respPicDiv'><img src='img/responseButtonOffersNo0L5.png' class='respPic'></div></div>","null","2","Primo Pineapple","Fruit/pineapple.png","Lost","0.8,0.35","10","0.8","14","4","",""
"html-keyboard-response","21","87619","0.0-11.0-3.3","63d418d4229ed6c0712ce5bb","bdp_rwlrn","Tue Mar 14 2023 13:51:20 GMT-0400 (Eastern Daylight Time)","414594","Untrustworthy,Trustworthy","","null","","","","feedback","","<div class='respPicDiv'><img src='img/responseButtonOffersNo0_wht.png' class='respPic'></div><div class='trialDiv'><img src='Fruit/pineapple.png'><br><font class='baseline'><strong>Primo Pineapple</strong><p><strong><font class='negOutcome'>You LOST</font><p>You bet: 5</strong></font> &nbsp; &nbsp; &nbsp; &nbsp; &nbsp; &nbsp;<font class='negOutcome'>You receive: <strong>0</strong></font></div>","null","2","Primo Pineapple","Fruit/pineapple.png","Lost","0.8,0.35","10","0.8","14","4","",""
"html-keyboard-response","22","88716","0.0-11.0-1.4","63d418d4229ed6c0712ce5bb","bdp_rwlrn","Tue Mar 14 2023 13:51:20 GMT-0400 (Eastern Daylight Time)","414594","Untrustworthy,Trustworthy","","1096","","","","decision","","<div class='trialDiv'><img src='Fruit/orange.png'><br><font class='baseline'><strong>Odds are Orange</strong><p>Choose number of points to bet.</font><div class='respPicDiv'><img src='img/responseButtonOffersNo0L.png' class='respPic'></div></div>","5","2","Odds are Orange","Fruit/orange.png","Lost","0.2,0.8","11","0.2","19","5","",""
"html-keyboard-response","23","88968","0.0-11.0-2.4","63d418d4229ed6c0712ce5bb","bdp_rwlrn","Tue Mar 14 2023 13:51:20 GMT-0400 (Eastern Daylight Time)","414594","Untrustworthy,Trustworthy","","null","","","","decisionFB","","<div class='trialDiv'><img src='Fruit/orange.png'><br><font class='baseline'><strong>Odds are Orange</strong><p>Choose number of points to bet.</font><div class='respPicDiv'><img src='img/responseButtonOffersNo0L5.png' class='respPic'></div></div>","null","2","Odds are Orange","Fruit/orange.png","Lost","0.2,0.8","11","0.2","14","5","",""
"html-keyboard-response","24","89970","0.0-11.0-3.4","63d418d4229ed6c0712ce5bb","bdp_rwlrn","Tue Mar 14 2023 13:51:20 GMT-0400 (Eastern Daylight Time)","414594","Untrustworthy,Trustworthy","","null","","","","feedback","","<div class='respPicDiv'><img src='img/responseButtonOffersNo0_wht.png' class='respPic'></div><div class='trialDiv'><img src='Fruit/orange.png'><br><font class='baseline'><strong>Odds are Orange</strong><p><strong><font class='negOutcome'>You LOST</font><p>You bet: 5</strong></font> &nbsp; &nbsp; &nbsp; &nbsp; &nbsp; &nbsp;<font class='negOutcome'>You receive: <strong>0</strong></font></div>","null","2","Odds are Orange","Fruit/orange.png","Lost","0.2,0.8","11","0.2","14","5","",""
"html-keyboard-response","25","91028","0.0-11.0-1.5","63d418d4229ed6c0712ce5bb","bdp_rwlrn","Tue Mar 14 2023 13:51:20 GMT-0400 (Eastern Daylight Time)","414594","Untrustworthy,Trustworthy","","1058","","","","decision","","<div class='trialDiv'><img src='Fruit/Kiwi.png'><br><font class='baseline'><strong>Kiwi Kash</strong><p>Choose number of points to bet.</font><div class='respPicDiv'><img src='img/responseButtonOffersNo0L.png' class='respPic'></div></div>","4","2","Kiwi Kash","Fruit/Kiwi.png","Lost","0.35,0.8","13","0.35","19","6","",""
"html-keyboard-response","26","91281","0.0-11.0-2.5","63d418d4229ed6c0712ce5bb","bdp_rwlrn","Tue Mar 14 2023 13:51:20 GMT-0400 (Eastern Daylight Time)","414594","Untrustworthy,Trustworthy","","null","","","","decisionFB","","<div class='trialDiv'><img src='Fruit/Kiwi.png'><br><font class='baseline'><strong>Kiwi Kash</strong><p>Choose number of points to bet.</font><div class='respPicDiv'><img src='img/responseButtonOffersNo0L4.png' class='respPic'></div></div>","null","2","Kiwi Kash","Fruit/Kiwi.png","Lost","0.35,0.8","13","0.35","15","6","",""
"html-keyboard-response","27","92284","0.0-11.0-3.5","63d418d4229ed6c0712ce5bb","bdp_rwlrn","Tue Mar 14 2023 13:51:20 GMT-0400 (Eastern Daylight Time)","414594","Untrustworthy,Trustworthy","","null","","","","feedback","","<div class='respPicDiv'><img src='img/responseButtonOffersNo0_wht.png' class='respPic'></div><div class='trialDiv'><img src='Fruit/Kiwi.png'><br><font class='baseline'><strong>Kiwi Kash</strong><p><strong><font class='negOutcome'>You LOST</font><p>You bet: 4</strong></font> &nbsp; &nbsp; &nbsp; &nbsp; &nbsp; &nbsp;<font class='negOutcome'>You receive: <strong>0</strong></font></div>","null","2","Kiwi Kash","Fruit/Kiwi.png","Lost","0.35,0.8","13","0.35","15","6","",""
"html-keyboard-response","28","93150","0.0-11.0-1.6","63d418d4229ed6c0712ce5bb","bdp_rwlrn","Tue Mar 14 2023 13:51:20 GMT-0400 (Eastern Daylight Time)","414594","Untrustworthy,Trustworthy","","865","","","","decision","","<div class='trialDiv'><img src='Fruit/pineapple.png'><br><font class='baseline'><strong>Primo Pineapple</strong><p>Choose number of points to bet.</font><div class='respPicDiv'><img src='img/responseButtonOffersNo0L.png' class='respPic'></div></div>","5","3","Primo Pineapple","Fruit/pineapple.png","Won","0.8,0.35","10","0.8","20","7","",""
"html-keyboard-response","29","93401","0.0-11.0-2.6","63d418d4229ed6c0712ce5bb","bdp_rwlrn","Tue Mar 14 2023 13:51:20 GMT-0400 (Eastern Daylight Time)","414594","Untrustworthy,Trustworthy","","null","","","","decisionFB","","<div class='trialDiv'><img src='Fruit/pineapple.png'><br><font class='baseline'><strong>Primo Pineapple</strong><p>Choose number of points to bet.</font><div class='respPicDiv'><img src='img/responseButtonOffersNo0L5.png' class='respPic'></div></div>","null","3","Primo Pineapple","Fruit/pineapple.png","Won","0.8,0.35","10","0.8","15","7","",""
"html-keyboard-response","30","94403","0.0-11.0-3.6","63d418d4229ed6c0712ce5bb","bdp_rwlrn","Tue Mar 14 2023 13:51:20 GMT-0400 (Eastern Daylight Time)","414594","Untrustworthy,Trustworthy","","null","","","","feedback","","<div class='respPicDiv'><img src='img/responseButtonOffersNo0_wht.png' class='respPic'></div><div class='trialDiv'><img src='Fruit/pineapple.png'><br><font class='baseline'><strong>Primo Pineapple</strong><p><strong><font class='posOutcome'>You WON</font><p>You bet: 5</strong></font> &nbsp; &nbsp; &nbsp; &nbsp; &nbsp; &nbsp;<font class='posOutcome'>you receive: <strong>10</strong></font></div>","null","3","Primo Pineapple","Fruit/pineapple.png","Won","0.8,0.35","10","0.8","25","7","",""
"html-keyboard-response","31","95397","0.0-11.0-1.7","63d418d4229ed6c0712ce5bb","bdp_rwlrn","Tue Mar 14 2023 13:51:20 GMT-0400 (Eastern Daylight Time)","414594","Untrustworthy,Trustworthy","","994","","","","decision","","<div class='trialDiv'><img src='Fruit/Kiwi.png'><br><font class='baseline'><strong>Kiwi Kash</strong><p>Choose number of points to bet.</font><div class='respPicDiv'><img src='img/responseButtonOffersNo0L.png' class='respPic'></div></div>","2","3","Kiwi Kash","Fruit/Kiwi.png","Won","0.35,0.8","13","0.35","30","8","",""
"html-keyboard-response","32","95649","0.0-11.0-2.7","63d418d4229ed6c0712ce5bb","bdp_rwlrn","Tue Mar 14 2023 13:51:20 GMT-0400 (Eastern Daylight Time)","414594","Untrustworthy,Trustworthy","","null","","","","decisionFB","","<div class='trialDiv'><img src='Fruit/Kiwi.png'><br><font class='baseline'><strong>Kiwi Kash</strong><p>Choose number of points to bet.</font><div class='respPicDiv'><img src='img/responseButtonOffersNo0L2.png' class='respPic'></div></div>","null","3","Kiwi Kash","Fruit/Kiwi.png","Won","0.35,0.8","13","0.35","28","8","",""
"html-keyboard-response","33","96650","0.0-11.0-3.7","63d418d4229ed6c0712ce5bb","bdp_rwlrn","Tue Mar 14 2023 13:51:20 GMT-0400 (Eastern Daylight Time)","414594","Untrustworthy,Trustworthy","","null","","","","feedback","","<div class='respPicDiv'><img src='img/responseButtonOffersNo0_wht.png' class='respPic'></div><div class='trialDiv'><img src='Fruit/Kiwi.png'><br><font class='baseline'><strong>Kiwi Kash</strong><p><strong><font class='posOutcome'>You WON</font><p>You bet: 2</strong></font> &nbsp; &nbsp; &nbsp; &nbsp; &nbsp; &nbsp;<font class='posOutcome'>you receive: <strong>4</strong></font></div>","null","3","Kiwi Kash","Fruit/Kiwi.png","Won","0.35,0.8","13","0.35","32","8","",""
"html-keyboard-response","34","97253","0.0-11.0-1.8","63d418d4229ed6c0712ce5bb","bdp_rwlrn","Tue Mar 14 2023 13:51:20 GMT-0400 (Eastern Daylight Time)","414594","Untrustworthy,Trustworthy","","603","","","","decision","","<div class='trialDiv'><img src='Fruit/orange.png'><br><font class='baseline'><strong>Odds are Orange</strong><p>Choose number of points to bet.</font><div class='respPicDiv'><img src='img/responseButtonOffersNo0L.png' class='respPic'></div></div>","2","3","Odds are Orange","Fruit/orange.png","Lost","0.2,0.8","11","0.2","37","9","",""
"html-keyboard-response","35","97504","0.0-11.0-2.8","63d418d4229ed6c0712ce5bb","bdp_rwlrn","Tue Mar 14 2023 13:51:20 GMT-0400 (Eastern Daylight Time)","414594","Untrustworthy,Trustworthy","","null","","","","decisionFB","","<div class='trialDiv'><img src='Fruit/orange.png'><br><font class='baseline'><strong>Odds are Orange</strong><p>Choose number of points to bet.</font><div class='respPicDiv'><img src='img/responseButtonOffersNo0L2.png' class='respPic'></div></div>","null","3","Odds are Orange","Fruit/orange.png","Lost","0.2,0.8","11","0.2","35","9","",""
"html-keyboard-response","36","98506","0.0-11.0-3.8","63d418d4229ed6c0712ce5bb","bdp_rwlrn","Tue Mar 14 2023 13:51:20 GMT-0400 (Eastern Daylight Time)","414594","Untrustworthy,Trustworthy","","null","","","","feedback","","<div class='respPicDiv'><img src='img/responseButtonOffersNo0_wht.png' class='respPic'></div><div class='trialDiv'><img src='Fruit/orange.png'><br><font class='baseline'><strong>Odds are Orange</strong><p><strong><font class='negOutcome'>You LOST</font><p>You bet: 2</strong></font> &nbsp; &nbsp; &nbsp; &nbsp; &nbsp; &nbsp;<font class='negOutcome'>You receive: <strong>0</strong></font></div>","null","3","Odds are Orange","Fruit/orange.png","Lost","0.2,0.8","11","0.2","35","9","",""
"html-keyboard-response","37","99669","0.0-11.0-1.9","63d418d4229ed6c0712ce5bb","bdp_rwlrn","Tue Mar 14 2023 13:51:20 GMT-0400 (Eastern Daylight Time)","414594","Untrustworthy,Trustworthy","","1162","","","","decision","","<div class='trialDiv'><img src='Fruit/pineapple.png'><br><font class='baseline'><strong>Primo Pineapple</strong><p>Choose number of points to bet.</font><div class='respPicDiv'><img src='img/responseButtonOffersNo0L.png' class='respPic'></div></div>","5","4","Primo Pineapple","Fruit/pineapple.png","Won","0.8,0.35","10","0.8","40","10","",""
"html-keyboard-response","38","99921","0.0-11.0-2.9","63d418d4229ed6c0712ce5bb","bdp_rwlrn","Tue Mar 14 2023 13:51:20 GMT-0400 (Eastern Daylight Time)","414594","Untrustworthy,Trustworthy","","null","","","","decisionFB","","<div class='trialDiv'><img src='Fruit/pineapple.png'><br><font class='baseline'><strong>Primo Pineapple</strong><p>Choose number of points to bet.</font><div class='respPicDiv'><img src='img/responseButtonOffersNo0L5.png' class='respPic'></div></div>","null","4","Primo Pineapple","Fruit/pineapple.png","Won","0.8,0.35","10","0.8","35","10","",""
"html-keyboard-response","39","100923","0.0-11.0-3.9","63d418d4229ed6c0712ce5bb","bdp_rwlrn","Tue Mar 14 2023 13:51:20 GMT-0400 (Eastern Daylight Time)","414594","Untrustworthy,Trustworthy","","null","","","","feedback","","<div class='respPicDiv'><img src='img/responseButtonOffersNo0_wht.png' class='respPic'></div><div class='trialDiv'><img src='Fruit/pineapple.png'><br><font class='baseline'><strong>Primo Pineapple</strong><p><strong><font class='posOutcome'>You WON</font><p>You bet: 5</strong></font> &nbsp; &nbsp; &nbsp; &nbsp; &nbsp; &nbsp;<font class='posOutcome'>you receive: <strong>10</strong></font></div>","null","4","Primo Pineapple","Fruit/pineapple.png","Won","0.8,0.35","10","0.8","45","10","",""
"html-keyboard-response","40","102062","0.0-11.0-1.10","63d418d4229ed6c0712ce5bb","bdp_rwlrn","Tue Mar 14 2023 13:51:20 GMT-0400 (Eastern Daylight Time)","414594","Untrustworthy,Trustworthy","","1137","","","","decision","","<div class='trialDiv'><img src='Fruit/orange.png'><br><font class='baseline'><strong>Odds are Orange</strong><p>Choose number of points to bet.</font><div class='respPicDiv'><img src='img/responseButtonOffersNo0L.png' class='respPic'></div></div>","1","4","Odds are Orange","Fruit/orange.png","Won","0.2,0.8","11","0.2","50","11","",""
"html-keyboard-response","41","102314","0.0-11.0-2.10","63d418d4229ed6c0712ce5bb","bdp_rwlrn","Tue Mar 14 2023 13:51:20 GMT-0400 (Eastern Daylight Time)","414594","Untrustworthy,Trustworthy","","null","","","","decisionFB","","<div class='trialDiv'><img src='Fruit/orange.png'><br><font class='baseline'><strong>Odds are Orange</strong><p>Choose number of points to bet.</font><div class='respPicDiv'><img src='img/responseButtonOffersNo0L1.png' class='respPic'></div></div>","null","4","Odds are Orange","Fruit/orange.png","Won","0.2,0.8","11","0.2","49","11","",""
"html-keyboard-response","42","103315","0.0-11.0-3.10","63d418d4229ed6c0712ce5bb","bdp_rwlrn","Tue Mar 14 2023 13:51:20 GMT-0400 (Eastern Daylight Time)","414594","Untrustworthy,Trustworthy","","null","","","","feedback","","<div class='respPicDiv'><img src='img/responseButtonOffersNo0_wht.png' class='respPic'></div><div class='trialDiv'><img src='Fruit/orange.png'><br><font class='baseline'><strong>Odds are Orange</strong><p><strong><font class='posOutcome'>You WON</font><p>You bet: 1</strong></font> &nbsp; &nbsp; &nbsp; &nbsp; &nbsp; &nbsp;<font class='posOutcome'>you receive: <strong>2</strong></font></div>","null","4","Odds are Orange","Fruit/orange.png","Won","0.2,0.8","11","0.2","51","11","",""
"html-keyboard-response","43","104694","0.0-11.0-1.11","63d418d4229ed6c0712ce5bb","bdp_rwlrn","Tue Mar 14 2023 13:51:20 GMT-0400 (Eastern Daylight Time)","414594","Untrustworthy,Trustworthy","","1378","","","","decision","","<div class='trialDiv'><img src='Fruit/Kiwi.png'><br><font class='baseline'><strong>Kiwi Kash</strong><p>Choose number of points to bet.</font><div class='respPicDiv'><img src='img/responseButtonOffersNo0L.png' class='respPic'></div></div>","3","4","Kiwi Kash","Fruit/Kiwi.png","Won","0.35,0.8","13","0.35","56","12","",""
"html-keyboard-response","44","104945","0.0-11.0-2.11","63d418d4229ed6c0712ce5bb","bdp_rwlrn","Tue Mar 14 2023 13:51:20 GMT-0400 (Eastern Daylight Time)","414594","Untrustworthy,Trustworthy","","null","","","","decisionFB","","<div class='trialDiv'><img src='Fruit/Kiwi.png'><br><font class='baseline'><strong>Kiwi Kash</strong><p>Choose number of points to bet.</font><div class='respPicDiv'><img src='img/responseButtonOffersNo0L3.png' class='respPic'></div></div>","null","4","Kiwi Kash","Fruit/Kiwi.png","Won","0.35,0.8","13","0.35","53","12","",""
"html-keyboard-response","45","105948","0.0-11.0-3.11","63d418d4229ed6c0712ce5bb","bdp_rwlrn","Tue Mar 14 2023 13:51:20 GMT-0400 (Eastern Daylight Time)","414594","Untrustworthy,Trustworthy","","null","","","","feedback","","<div class='respPicDiv'><img src='img/responseButtonOffersNo0_wht.png' class='respPic'></div><div class='trialDiv'><img src='Fruit/Kiwi.png'><br><font class='baseline'><strong>Kiwi Kash</strong><p><strong><font class='posOutcome'>You WON</font><p>You bet: 3</strong></font> &nbsp; &nbsp; &nbsp; &nbsp; &nbsp; &nbsp;<font class='posOutcome'>you receive: <strong>6</strong></font></div>","null","4","Kiwi Kash","Fruit/Kiwi.png","Won","0.35,0.8","13","0.35","59","12","",""
"html-keyboard-response","46","107053","0.0-11.0-1.12","63d418d4229ed6c0712ce5bb","bdp_rwlrn","Tue Mar 14 2023 13:51:20 GMT-0400 (Eastern Daylight Time)","414594","Untrustworthy,Trustworthy","","1105","","","","decision","","<div class='trialDiv'><img src='Fruit/orange.png'><br><font class='baseline'><strong>Odds are Orange</strong><p>Choose number of points to bet.</font><div class='respPicDiv'><img src='img/responseButtonOffersNo0L.png' class='respPic'></div></div>","2","5","Odds are Orange","Fruit/orange.png","Won","0.2,0.8","11","0.2","64","13","",""
"html-keyboard-response","47","107306","0.0-11.0-2.12","63d418d4229ed6c0712ce5bb","bdp_rwlrn","Tue Mar 14 2023 13:51:20 GMT-0400 (Eastern Daylight Time)","414594","Untrustworthy,Trustworthy","","null","","","","decisionFB","","<div class='trialDiv'><img src='Fruit/orange.png'><br><font class='baseline'><strong>Odds are Orange</strong><p>Choose number of points to bet.</font><div class='respPicDiv'><img src='img/responseButtonOffersNo0L2.png' class='respPic'></div></div>","null","5","Odds are Orange","Fruit/orange.png","Won","0.2,0.8","11","0.2","62","13","",""
"html-keyboard-response","48","108309","0.0-11.0-3.12","63d418d4229ed6c0712ce5bb","bdp_rwlrn","Tue Mar 14 2023 13:51:20 GMT-0400 (Eastern Daylight Time)","414594","Untrustworthy,Trustworthy","","null","","","","feedback","","<div class='respPicDiv'><img src='img/responseButtonOffersNo0_wht.png' class='respPic'></div><div class='trialDiv'><img src='Fruit/orange.png'><br><font class='baseline'><strong>Odds are Orange</strong><p><strong><font class='posOutcome'>You WON</font><p>You bet: 2</strong></font> &nbsp; &nbsp; &nbsp; &nbsp; &nbsp; &nbsp;<font class='posOutcome'>you receive: <strong>4</strong></font></div>","null","5","Odds are Orange","Fruit/orange.png","Won","0.2,0.8","11","0.2","66","13","",""
"html-keyboard-response","49","109478","0.0-11.0-1.13","63d418d4229ed6c0712ce5bb","bdp_rwlrn","Tue Mar 14 2023 13:51:20 GMT-0400 (Eastern Daylight Time)","414594","Untrustworthy,Trustworthy","","1167","","","","decision","","<div class='trialDiv'><img src='Fruit/pineapple.png'><br><font class='baseline'><strong>Primo Pineapple</strong><p>Choose number of points to bet.</font><div class='respPicDiv'><img src='img/responseButtonOffersNo0L.png' class='respPic'></div></div>","4","5","Primo Pineapple","Fruit/pineapple.png","Won","0.8,0.35","10","0.8","71","14","",""
"html-keyboard-response","50","109729","0.0-11.0-2.13","63d418d4229ed6c0712ce5bb","bdp_rwlrn","Tue Mar 14 2023 13:51:20 GMT-0400 (Eastern Daylight Time)","414594","Untrustworthy,Trustworthy","","null","","","","decisionFB","","<div class='trialDiv'><img src='Fruit/pineapple.png'><br><font class='baseline'><strong>Primo Pineapple</strong><p>Choose number of points to bet.</font><div class='respPicDiv'><img src='img/responseButtonOffersNo0L4.png' class='respPic'></div></div>","null","5","Primo Pineapple","Fruit/pineapple.png","Won","0.8,0.35","10","0.8","67","14","",""
"html-keyboard-response","51","110731","0.0-11.0-3.13","63d418d4229ed6c0712ce5bb","bdp_rwlrn","Tue Mar 14 2023 13:51:20 GMT-0400 (Eastern Daylight Time)","414594","Untrustworthy,Trustworthy","","null","","","","feedback","","<div class='respPicDiv'><img src='img/responseButtonOffersNo0_wht.png' class='respPic'></div><div class='trialDiv'><img src='Fruit/pineapple.png'><br><font class='baseline'><strong>Primo Pineapple</strong><p><strong><font class='posOutcome'>You WON</font><p>You bet: 4</strong></font> &nbsp; &nbsp; &nbsp; &nbsp; &nbsp; &nbsp;<font class='posOutcome'>you receive: <strong>8</strong></font></div>","null","5","Primo Pineapple","Fruit/pineapple.png","Won","0.8,0.35","10","0.8","75","14","",""
"html-keyboard-response","52","112198","0.0-11.0-1.14","63d418d4229ed6c0712ce5bb","bdp_rwlrn","Tue Mar 14 2023 13:51:20 GMT-0400 (Eastern Daylight Time)","414594","Untrustworthy,Trustworthy","","1466","","","","decision","","<div class='trialDiv'><img src='Fruit/Kiwi.png'><br><font class='baseline'><strong>Kiwi Kash</strong><p>Choose number of points to bet.</font><div class='respPicDiv'><img src='img/responseButtonOffersNo0L.png' class='respPic'></div></div>","4","5","Kiwi Kash","Fruit/Kiwi.png","Won","0.35,0.8","13","0.35","80","15","",""
"html-keyboard-response","53","112450","0.0-11.0-2.14","63d418d4229ed6c0712ce5bb","bdp_rwlrn","Tue Mar 14 2023 13:51:20 GMT-0400 (Eastern Daylight Time)","414594","Untrustworthy,Trustworthy","","null","","","","decisionFB","","<div class='trialDiv'><img src='Fruit/Kiwi.png'><br><font class='baseline'><strong>Kiwi Kash</strong><p>Choose number of points to bet.</font><div class='respPicDiv'><img src='img/responseButtonOffersNo0L4.png' class='respPic'></div></div>","null","5","Kiwi Kash","Fruit/Kiwi.png","Won","0.35,0.8","13","0.35","76","15","",""
"html-keyboard-response","54","113453","0.0-11.0-3.14","63d418d4229ed6c0712ce5bb","bdp_rwlrn","Tue Mar 14 2023 13:51:20 GMT-0400 (Eastern Daylight Time)","414594","Untrustworthy,Trustworthy","","null","","","","feedback","","<div class='respPicDiv'><img src='img/responseButtonOffersNo0_wht.png' class='respPic'></div><div class='trialDiv'><img src='Fruit/Kiwi.png'><br><font class='baseline'><strong>Kiwi Kash</strong><p><strong><font class='posOutcome'>You WON</font><p>You bet: 4</strong></font> &nbsp; &nbsp; &nbsp; &nbsp; &nbsp; &nbsp;<font class='posOutcome'>you receive: <strong>8</strong></font></div>","null","5","Kiwi Kash","Fruit/Kiwi.png","Won","0.35,0.8","13","0.35","84","15","",""
"html-keyboard-response","55","114382","0.0-11.0-1.15","63d418d4229ed6c0712ce5bb","bdp_rwlrn","Tue Mar 14 2023 13:51:20 GMT-0400 (Eastern Daylight Time)","414594","Untrustworthy,Trustworthy","","929","","","","decision","","<div class='trialDiv'><img src='Fruit/pineapple.png'><br><font class='baseline'><strong>Primo Pineapple</strong><p>Choose number of points to bet.</font><div class='respPicDiv'><img src='img/responseButtonOffersNo0L.png' class='respPic'></div></div>","5","6","Primo Pineapple","Fruit/pineapple.png","Lost","0.8,0.35","10","0.8","89","16","",""
"html-keyboard-response","56","114634","0.0-11.0-2.15","63d418d4229ed6c0712ce5bb","bdp_rwlrn","Tue Mar 14 2023 13:51:20 GMT-0400 (Eastern Daylight Time)","414594","Untrustworthy,Trustworthy","","null","","","","decisionFB","","<div class='trialDiv'><img src='Fruit/pineapple.png'><br><font class='baseline'><strong>Primo Pineapple</strong><p>Choose number of points to bet.</font><div class='respPicDiv'><img src='img/responseButtonOffersNo0L5.png' class='respPic'></div></div>","null","6","Primo Pineapple","Fruit/pineapple.png","Lost","0.8,0.35","10","0.8","84","16","",""
"html-keyboard-response","57","115666","0.0-11.0-3.15","63d418d4229ed6c0712ce5bb","bdp_rwlrn","Tue Mar 14 2023 13:51:20 GMT-0400 (Eastern Daylight Time)","414594","Untrustworthy,Trustworthy","","null","","","","feedback","","<div class='respPicDiv'><img src='img/responseButtonOffersNo0_wht.png' class='respPic'></div><div class='trialDiv'><img src='Fruit/pineapple.png'><br><font class='baseline'><strong>Primo Pineapple</strong><p><strong><font class='negOutcome'>You LOST</font><p>You bet: 5</strong></font> &nbsp; &nbsp; &nbsp; &nbsp; &nbsp; &nbsp;<font class='negOutcome'>You receive: <strong>0</strong></font></div>","null","6","Primo Pineapple","Fruit/pineapple.png","Lost","0.8,0.35","10","0.8","84","16","",""
"html-keyboard-response","58","116615","0.0-11.0-1.16","63d418d4229ed6c0712ce5bb","bdp_rwlrn","Tue Mar 14 2023 13:51:20 GMT-0400 (Eastern Daylight Time)","414594","Untrustworthy,Trustworthy","","947","","","","decision","","<div class='trialDiv'><img src='Fruit/Kiwi.png'><br><font class='baseline'><strong>Kiwi Kash</strong><p>Choose number of points to bet.</font><div class='respPicDiv'><img src='img/responseButtonOffersNo0L.png' class='respPic'></div></div>","1","6","Kiwi Kash","Fruit/Kiwi.png","Lost","0.35,0.8","13","0.35","89","17","",""
"html-keyboard-response","59","116867","0.0-11.0-2.16","63d418d4229ed6c0712ce5bb","bdp_rwlrn","Tue Mar 14 2023 13:51:20 GMT-0400 (Eastern Daylight Time)","414594","Untrustworthy,Trustworthy","","null","","","","decisionFB","","<div class='trialDiv'><img src='Fruit/Kiwi.png'><br><font class='baseline'><strong>Kiwi Kash</strong><p>Choose number of points to bet.</font><div class='respPicDiv'><img src='img/responseButtonOffersNo0L1.png' class='respPic'></div></div>","null","6","Kiwi Kash","Fruit/Kiwi.png","Lost","0.35,0.8","13","0.35","88","17","",""
"html-keyboard-response","60","117868","0.0-11.0-3.16","63d418d4229ed6c0712ce5bb","bdp_rwlrn","Tue Mar 14 2023 13:51:20 GMT-0400 (Eastern Daylight Time)","414594","Untrustworthy,Trustworthy","","null","","","","feedback","","<div class='respPicDiv'><img src='img/responseButtonOffersNo0_wht.png' class='respPic'></div><div class='trialDiv'><img src='Fruit/Kiwi.png'><br><font class='baseline'><strong>Kiwi Kash</strong><p><strong><font class='negOutcome'>You LOST</font><p>You bet: 1</strong></font> &nbsp; &nbsp; &nbsp; &nbsp; &nbsp; &nbsp;<font class='negOutcome'>You receive: <strong>0</strong></font></div>","null","6","Kiwi Kash","Fruit/Kiwi.png","Lost","0.35,0.8","13","0.35","88","17","",""
"html-keyboard-response","61","118614","0.0-11.0-1.17","63d418d4229ed6c0712ce5bb","bdp_rwlrn","Tue Mar 14 2023 13:51:20 GMT-0400 (Eastern Daylight Time)","414594","Untrustworthy,Trustworthy","","745","","","","decision","","<div class='trialDiv'><img src='Fruit/orange.png'><br><font class='baseline'><strong>Odds are Orange</strong><p>Choose number of points to bet.</font><div class='respPicDiv'><img src='img/responseButtonOffersNo0L.png' class='respPic'></div></div>","1","6","Odds are Orange","Fruit/orange.png","Lost","0.2,0.8","11","0.2","93","18","",""
"html-keyboard-response","62","118866","0.0-11.0-2.17","63d418d4229ed6c0712ce5bb","bdp_rwlrn","Tue Mar 14 2023 13:51:20 GMT-0400 (Eastern Daylight Time)","414594","Untrustworthy,Trustworthy","","null","","","","decisionFB","","<div class='trialDiv'><img src='Fruit/orange.png'><br><font class='baseline'><strong>Odds are Orange</strong><p>Choose number of points to bet.</font><div class='respPicDiv'><img src='img/responseButtonOffersNo0L1.png' class='respPic'></div></div>","null","6","Odds are Orange","Fruit/orange.png","Lost","0.2,0.8","11","0.2","92","18","",""
"html-keyboard-response","63","119869","0.0-11.0-3.17","63d418d4229ed6c0712ce5bb","bdp_rwlrn","Tue Mar 14 2023 13:51:20 GMT-0400 (Eastern Daylight Time)","414594","Untrustworthy,Trustworthy","","null","","","","feedback","","<div class='respPicDiv'><img src='img/responseButtonOffersNo0_wht.png' class='respPic'></div><div class='trialDiv'><img src='Fruit/orange.png'><br><font class='baseline'><strong>Odds are Orange</strong><p><strong><font class='negOutcome'>You LOST</font><p>You bet: 1</strong></font> &nbsp; &nbsp; &nbsp; &nbsp; &nbsp; &nbsp;<font class='negOutcome'>You receive: <strong>0</strong></font></div>","null","6","Odds are Orange","Fruit/orange.png","Lost","0.2,0.8","11","0.2","92","18","",""
"html-keyboard-response","64","122502","0.0-11.0-1.18","63d418d4229ed6c0712ce5bb","bdp_rwlrn","Tue Mar 14 2023 13:51:20 GMT-0400 (Eastern Daylight Time)","414594","Untrustworthy,Trustworthy","","2633","","","","decision","","<div class='trialDiv'><img src='Fruit/Kiwi.png'><br><font class='baseline'><strong>Kiwi Kash</strong><p>Choose number of points to bet.</font><div class='respPicDiv'><img src='img/responseButtonOffersNo0L.png' class='respPic'></div></div>","3","7","Kiwi Kash","Fruit/Kiwi.png","Lost","0.35,0.8","13","0.35","97","19","",""
"html-keyboard-response","65","122754","0.0-11.0-2.18","63d418d4229ed6c0712ce5bb","bdp_rwlrn","Tue Mar 14 2023 13:51:20 GMT-0400 (Eastern Daylight Time)","414594","Untrustworthy,Trustworthy","","null","","","","decisionFB","","<div class='trialDiv'><img src='Fruit/Kiwi.png'><br><font class='baseline'><strong>Kiwi Kash</strong><p>Choose number of points to bet.</font><div class='respPicDiv'><img src='img/responseButtonOffersNo0L3.png' class='respPic'></div></div>","null","7","Kiwi Kash","Fruit/Kiwi.png","Lost","0.35,0.8","13","0.35","94","19","",""
"html-keyboard-response","66","123755","0.0-11.0-3.18","63d418d4229ed6c0712ce5bb","bdp_rwlrn","Tue Mar 14 2023 13:51:20 GMT-0400 (Eastern Daylight Time)","414594","Untrustworthy,Trustworthy","","null","","","","feedback","","<div class='respPicDiv'><img src='img/responseButtonOffersNo0_wht.png' class='respPic'></div><div class='trialDiv'><img src='Fruit/Kiwi.png'><br><font class='baseline'><strong>Kiwi Kash</strong><p><strong><font class='negOutcome'>You LOST</font><p>You bet: 3</strong></font> &nbsp; &nbsp; &nbsp; &nbsp; &nbsp; &nbsp;<font class='negOutcome'>You receive: <strong>0</strong></font></div>","null","7","Kiwi Kash","Fruit/Kiwi.png","Lost","0.35,0.8","13","0.35","94","19","",""
"html-keyboard-response","67","124679","0.0-11.0-1.19","63d418d4229ed6c0712ce5bb","bdp_rwlrn","Tue Mar 14 2023 13:51:20 GMT-0400 (Eastern Daylight Time)","414594","Untrustworthy,Trustworthy","","923","","","","decision","","<div class='trialDiv'><img src='Fruit/pineapple.png'><br><font class='baseline'><strong>Primo Pineapple</strong><p>Choose number of points to bet.</font><div class='respPicDiv'><img src='img/responseButtonOffersNo0L.png' class='respPic'></div></div>","4","7","Primo Pineapple","Fruit/pineapple.png","Lost","0.8,0.35","10","0.8","99","20","",""
"html-keyboard-response","68","124931","0.0-11.0-2.19","63d418d4229ed6c0712ce5bb","bdp_rwlrn","Tue Mar 14 2023 13:51:20 GMT-0400 (Eastern Daylight Time)","414594","Untrustworthy,Trustworthy","","null","","","","decisionFB","","<div class='trialDiv'><img src='Fruit/pineapple.png'><br><font class='baseline'><strong>Primo Pineapple</strong><p>Choose number of points to bet.</font><div class='respPicDiv'><img src='img/responseButtonOffersNo0L4.png' class='respPic'></div></div>","null","7","Primo Pineapple","Fruit/pineapple.png","Lost","0.8,0.35","10","0.8","95","20","",""
"html-keyboard-response","69","125932","0.0-11.0-3.19","63d418d4229ed6c0712ce5bb","bdp_rwlrn","Tue Mar 14 2023 13:51:20 GMT-0400 (Eastern Daylight Time)","414594","Untrustworthy,Trustworthy","","null","","","","feedback","","<div class='respPicDiv'><img src='img/responseButtonOffersNo0_wht.png' class='respPic'></div><div class='trialDiv'><img src='Fruit/pineapple.png'><br><font class='baseline'><strong>Primo Pineapple</strong><p><strong><font class='negOutcome'>You LOST</font><p>You bet: 4</strong></font> &nbsp; &nbsp; &nbsp; &nbsp; &nbsp; &nbsp;<font class='negOutcome'>You receive: <strong>0</strong></font></div>","null","7","Primo Pineapple","Fruit/pineapple.png","Lost","0.8,0.35","10","0.8","95","20","",""
"html-keyboard-response","70","127535","0.0-11.0-1.20","63d418d4229ed6c0712ce5bb","bdp_rwlrn","Tue Mar 14 2023 13:51:20 GMT-0400 (Eastern Daylight Time)","414594","Untrustworthy,Trustworthy","","1602","","","","decision","","<div class='trialDiv'><img src='Fruit/orange.png'><br><font class='baseline'><strong>Odds are Orange</strong><p>Choose number of points to bet.</font><div class='respPicDiv'><img src='img/responseButtonOffersNo0L.png' class='respPic'></div></div>","1","7","Odds are Orange","Fruit/orange.png","Lost","0.2,0.8","11","0.2","100","21","",""
"html-keyboard-response","71","127788","0.0-11.0-2.20","63d418d4229ed6c0712ce5bb","bdp_rwlrn","Tue Mar 14 2023 13:51:20 GMT-0400 (Eastern Daylight Time)","414594","Untrustworthy,Trustworthy","","null","","","","decisionFB","","<div class='trialDiv'><img src='Fruit/orange.png'><br><font class='baseline'><strong>Odds are Orange</strong><p>Choose number of points to bet.</font><div class='respPicDiv'><img src='img/responseButtonOffersNo0L1.png' class='respPic'></div></div>","null","7","Odds are Orange","Fruit/orange.png","Lost","0.2,0.8","11","0.2","99","21","",""
"html-keyboard-response","72","128790","0.0-11.0-3.20","63d418d4229ed6c0712ce5bb","bdp_rwlrn","Tue Mar 14 2023 13:51:20 GMT-0400 (Eastern Daylight Time)","414594","Untrustworthy,Trustworthy","","null","","","","feedback","","<div class='respPicDiv'><img src='img/responseButtonOffersNo0_wht.png' class='respPic'></div><div class='trialDiv'><img src='Fruit/orange.png'><br><font class='baseline'><strong>Odds are Orange</strong><p><strong><font class='negOutcome'>You LOST</font><p>You bet: 1</strong></font> &nbsp; &nbsp; &nbsp; &nbsp; &nbsp; &nbsp;<font class='negOutcome'>You receive: <strong>0</strong></font></div>","null","7","Odds are Orange","Fruit/orange.png","Lost","0.2,0.8","11","0.2","99","21","",""
"html-keyboard-response","73","129399","0.0-11.0-1.21","63d418d4229ed6c0712ce5bb","bdp_rwlrn","Tue Mar 14 2023 13:51:20 GMT-0400 (Eastern Daylight Time)","414594","Untrustworthy,Trustworthy","","609","","","","decision","","<div class='trialDiv'><img src='Fruit/Kiwi.png'><br><font class='baseline'><strong>Kiwi Kash</strong><p>Choose number of points to bet.</font><div class='respPicDiv'><img src='img/responseButtonOffersNo0L.png' class='respPic'></div></div>","1","8","Kiwi Kash","Fruit/Kiwi.png","Lost","0.35,0.8","13","0.35","104","22","",""
"html-keyboard-response","74","129651","0.0-11.0-2.21","63d418d4229ed6c0712ce5bb","bdp_rwlrn","Tue Mar 14 2023 13:51:20 GMT-0400 (Eastern Daylight Time)","414594","Untrustworthy,Trustworthy","","null","","","","decisionFB","","<div class='trialDiv'><img src='Fruit/Kiwi.png'><br><font class='baseline'><strong>Kiwi Kash</strong><p>Choose number of points to bet.</font><div class='respPicDiv'><img src='img/responseButtonOffersNo0L1.png' class='respPic'></div></div>","null","8","Kiwi Kash","Fruit/Kiwi.png","Lost","0.35,0.8","13","0.35","103","22","",""
"html-keyboard-response","75","130653","0.0-11.0-3.21","63d418d4229ed6c0712ce5bb","bdp_rwlrn","Tue Mar 14 2023 13:51:20 GMT-0400 (Eastern Daylight Time)","414594","Untrustworthy,Trustworthy","","null","","","","feedback","","<div class='respPicDiv'><img src='img/responseButtonOffersNo0_wht.png' class='respPic'></div><div class='trialDiv'><img src='Fruit/Kiwi.png'><br><font class='baseline'><strong>Kiwi Kash</strong><p><strong><font class='negOutcome'>You LOST</font><p>You bet: 1</strong></font> &nbsp; &nbsp; &nbsp; &nbsp; &nbsp; &nbsp;<font class='negOutcome'>You receive: <strong>0</strong></font></div>","null","8","Kiwi Kash","Fruit/Kiwi.png","Lost","0.35,0.8","13","0.35","103","22","",""
"html-keyboard-response","76","132263","0.0-11.0-1.22","63d418d4229ed6c0712ce5bb","bdp_rwlrn","Tue Mar 14 2023 13:51:20 GMT-0400 (Eastern Daylight Time)","414594","Untrustworthy,Trustworthy","","1609","","","","decision","","<div class='trialDiv'><img src='Fruit/pineapple.png'><br><font class='baseline'><strong>Primo Pineapple</strong><p>Choose number of points to bet.</font><div class='respPicDiv'><img src='img/responseButtonOffersNo0L.png' class='respPic'></div></div>","5","8","Primo Pineapple","Fruit/pineapple.png","Lost","0.8,0.35","10","0.8","108","23","",""
"html-keyboard-response","77","132516","0.0-11.0-2.22","63d418d4229ed6c0712ce5bb","bdp_rwlrn","Tue Mar 14 2023 13:51:20 GMT-0400 (Eastern Daylight Time)","414594","Untrustworthy,Trustworthy","","null","","","","decisionFB","","<div class='trialDiv'><img src='Fruit/pineapple.png'><br><font class='baseline'><strong>Primo Pineapple</strong><p>Choose number of points to bet.</font><div class='respPicDiv'><img src='img/responseButtonOffersNo0L5.png' class='respPic'></div></div>","null","8","Primo Pineapple","Fruit/pineapple.png","Lost","0.8,0.35","10","0.8","103","23","",""
"html-keyboard-response","78","133517","0.0-11.0-3.22","63d418d4229ed6c0712ce5bb","bdp_rwlrn","Tue Mar 14 2023 13:51:20 GMT-0400 (Eastern Daylight Time)","414594","Untrustworthy,Trustworthy","","null","","","","feedback","","<div class='respPicDiv'><img src='img/responseButtonOffersNo0_wht.png' class='respPic'></div><div class='trialDiv'><img src='Fruit/pineapple.png'><br><font class='baseline'><strong>Primo Pineapple</strong><p><strong><font class='negOutcome'>You LOST</font><p>You bet: 5</strong></font> &nbsp; &nbsp; &nbsp; &nbsp; &nbsp; &nbsp;<font class='negOutcome'>You receive: <strong>0</strong></font></div>","null","8","Primo Pineapple","Fruit/pineapple.png","Lost","0.8,0.35","10","0.8","103","23","",""
"html-keyboard-response","79","134223","0.0-11.0-1.23","63d418d4229ed6c0712ce5bb","bdp_rwlrn","Tue Mar 14 2023 13:51:20 GMT-0400 (Eastern Daylight Time)","414594","Untrustworthy,Trustworthy","","706","","","","decision","","<div class='trialDiv'><img src='Fruit/orange.png'><br><font class='baseline'><strong>Odds are Orange</strong><p>Choose number of points to bet.</font><div class='respPicDiv'><img src='img/responseButtonOffersNo0L.png' class='respPic'></div></div>","1","8","Odds are Orange","Fruit/orange.png","Lost","0.2,0.8","11","0.2","108","24","",""
"html-keyboard-response","80","134475","0.0-11.0-2.23","63d418d4229ed6c0712ce5bb","bdp_rwlrn","Tue Mar 14 2023 13:51:20 GMT-0400 (Eastern Daylight Time)","414594","Untrustworthy,Trustworthy","","null","","","","decisionFB","","<div class='trialDiv'><img src='Fruit/orange.png'><br><font class='baseline'><strong>Odds are Orange</strong><p>Choose number of points to bet.</font><div class='respPicDiv'><img src='img/responseButtonOffersNo0L1.png' class='respPic'></div></div>","null","8","Odds are Orange","Fruit/orange.png","Lost","0.2,0.8","11","0.2","107","24","",""
"html-keyboard-response","81","135487","0.0-11.0-3.23","63d418d4229ed6c0712ce5bb","bdp_rwlrn","Tue Mar 14 2023 13:51:20 GMT-0400 (Eastern Daylight Time)","414594","Untrustworthy,Trustworthy","","null","","","","feedback","","<div class='respPicDiv'><img src='img/responseButtonOffersNo0_wht.png' class='respPic'></div><div class='trialDiv'><img src='Fruit/orange.png'><br><font class='baseline'><strong>Odds are Orange</strong><p><strong><font class='negOutcome'>You LOST</font><p>You bet: 1</strong></font> &nbsp; &nbsp; &nbsp; &nbsp; &nbsp; &nbsp;<font class='negOutcome'>You receive: <strong>0</strong></font></div>","null","8","Odds are Orange","Fruit/orange.png","Lost","0.2,0.8","11","0.2","107","24","",""
"html-keyboard-response","82","137335","0.0-11.0-1.24","63d418d4229ed6c0712ce5bb","bdp_rwlrn","Tue Mar 14 2023 13:51:20 GMT-0400 (Eastern Daylight Time)","414594","Untrustworthy,Trustworthy","","1848","","","","decision","","<div class='trialDiv'><img src='Fruit/pineapple.png'><br><font class='baseline'><strong>Primo Pineapple</strong><p>Choose number of points to bet.</font><div class='respPicDiv'><img src='img/responseButtonOffersNo0L.png' class='respPic'></div></div>","5","9","Primo Pineapple","Fruit/pineapple.png","Won","0.8,0.35","10","0.8","112","25","",""
"html-keyboard-response","83","137587","0.0-11.0-2.24","63d418d4229ed6c0712ce5bb","bdp_rwlrn","Tue Mar 14 2023 13:51:20 GMT-0400 (Eastern Daylight Time)","414594","Untrustworthy,Trustworthy","","null","","","","decisionFB","","<div class='trialDiv'><img src='Fruit/pineapple.png'><br><font class='baseline'><strong>Primo Pineapple</strong><p>Choose number of points to bet.</font><div class='respPicDiv'><img src='img/responseButtonOffersNo0L5.png' class='respPic'></div></div>","null","9","Primo Pineapple","Fruit/pineapple.png","Won","0.8,0.35","10","0.8","107","25","",""
"html-keyboard-response","84","138589","0.0-11.0-3.24","63d418d4229ed6c0712ce5bb","bdp_rwlrn","Tue Mar 14 2023 13:51:20 GMT-0400 (Eastern Daylight Time)","414594","Untrustworthy,Trustworthy","","null","","","","feedback","","<div class='respPicDiv'><img src='img/responseButtonOffersNo0_wht.png' class='respPic'></div><div class='trialDiv'><img src='Fruit/pineapple.png'><br><font class='baseline'><strong>Primo Pineapple</strong><p><strong><font class='posOutcome'>You WON</font><p>You bet: 5</strong></font> &nbsp; &nbsp; &nbsp; &nbsp; &nbsp; &nbsp;<font class='posOutcome'>you receive: <strong>10</strong></font></div>","null","9","Primo Pineapple","Fruit/pineapple.png","Won","0.8,0.35","10","0.8","117","25","",""
"html-keyboard-response","85","139776","0.0-11.0-1.25","63d418d4229ed6c0712ce5bb","bdp_rwlrn","Tue Mar 14 2023 13:51:20 GMT-0400 (Eastern Daylight Time)","414594","Untrustworthy,Trustworthy","","1186","","","","decision","","<div class='trialDiv'><img src='Fruit/orange.png'><br><font class='baseline'><strong>Odds are Orange</strong><p>Choose number of points to bet.</font><div class='respPicDiv'><img src='img/responseButtonOffersNo0L.png' class='respPic'></div></div>","1","9","Odds are Orange","Fruit/orange.png","Lost","0.2,0.8","11","0.2","122","26","",""
"html-keyboard-response","86","140028","0.0-11.0-2.25","63d418d4229ed6c0712ce5bb","bdp_rwlrn","Tue Mar 14 2023 13:51:20 GMT-0400 (Eastern Daylight Time)","414594","Untrustworthy,Trustworthy","","null","","","","decisionFB","","<div class='trialDiv'><img src='Fruit/orange.png'><br><font class='baseline'><strong>Odds are Orange</strong><p>Choose number of points to bet.</font><div class='respPicDiv'><img src='img/responseButtonOffersNo0L1.png' class='respPic'></div></div>","null","9","Odds are Orange","Fruit/orange.png","Lost","0.2,0.8","11","0.2","121","26","",""
"html-keyboard-response","87","141030","0.0-11.0-3.25","63d418d4229ed6c0712ce5bb","bdp_rwlrn","Tue Mar 14 2023 13:51:20 GMT-0400 (Eastern Daylight Time)","414594","Untrustworthy,Trustworthy","","null","","","","feedback","","<div class='respPicDiv'><img src='img/responseButtonOffersNo0_wht.png' class='respPic'></div><div class='trialDiv'><img src='Fruit/orange.png'><br><font class='baseline'><strong>Odds are Orange</strong><p><strong><font class='negOutcome'>You LOST</font><p>You bet: 1</strong></font> &nbsp; &nbsp; &nbsp; &nbsp; &nbsp; &nbsp;<font class='negOutcome'>You receive: <strong>0</strong></font></div>","null","9","Odds are Orange","Fruit/orange.png","Lost","0.2,0.8","11","0.2","121","26","",""
"html-keyboard-response","88","142120","0.0-11.0-1.26","63d418d4229ed6c0712ce5bb","bdp_rwlrn","Tue Mar 14 2023 13:51:20 GMT-0400 (Eastern Daylight Time)","414594","Untrustworthy,Trustworthy","","1088","","","","decision","","<div class='trialDiv'><img src='Fruit/Kiwi.png'><br><font class='baseline'><strong>Kiwi Kash</strong><p>Choose number of points to bet.</font><div class='respPicDiv'><img src='img/responseButtonOffersNo0L.png' class='respPic'></div></div>","4","9","Kiwi Kash","Fruit/Kiwi.png","Lost","0.35,0.8","13","0.35","126","27","",""
"html-keyboard-response","89","142372","0.0-11.0-2.26","63d418d4229ed6c0712ce5bb","bdp_rwlrn","Tue Mar 14 2023 13:51:20 GMT-0400 (Eastern Daylight Time)","414594","Untrustworthy,Trustworthy","","null","","","","decisionFB","","<div class='trialDiv'><img src='Fruit/Kiwi.png'><br><font class='baseline'><strong>Kiwi Kash</strong><p>Choose number of points to bet.</font><div class='respPicDiv'><img src='img/responseButtonOffersNo0L4.png' class='respPic'></div></div>","null","9","Kiwi Kash","Fruit/Kiwi.png","Lost","0.35,0.8","13","0.35","122","27","",""
"html-keyboard-response","90","143373","0.0-11.0-3.26","63d418d4229ed6c0712ce5bb","bdp_rwlrn","Tue Mar 14 2023 13:51:20 GMT-0400 (Eastern Daylight Time)","414594","Untrustworthy,Trustworthy","","null","","","","feedback","","<div class='respPicDiv'><img src='img/responseButtonOffersNo0_wht.png' class='respPic'></div><div class='trialDiv'><img src='Fruit/Kiwi.png'><br><font class='baseline'><strong>Kiwi Kash</strong><p><strong><font class='negOutcome'>You LOST</font><p>You bet: 4</strong></font> &nbsp; &nbsp; &nbsp; &nbsp; &nbsp; &nbsp;<font class='negOutcome'>You receive: <strong>0</strong></font></div>","null","9","Kiwi Kash","Fruit/Kiwi.png","Lost","0.35,0.8","13","0.35","122","27","",""
"html-keyboard-response","91","144089","0.0-11.0-1.27","63d418d4229ed6c0712ce5bb","bdp_rwlrn","Tue Mar 14 2023 13:51:20 GMT-0400 (Eastern Daylight Time)","414594","Untrustworthy,Trustworthy","","715","","","","decision","","<div class='trialDiv'><img src='Fruit/orange.png'><br><font class='baseline'><strong>Odds are Orange</strong><p>Choose number of points to bet.</font><div class='respPicDiv'><img src='img/responseButtonOffersNo0L.png' class='respPic'></div></div>","1","10","Odds are Orange","Fruit/orange.png","Lost","0.2,0.8","11","0.2","127","28","",""
"html-keyboard-response","92","144340","0.0-11.0-2.27","63d418d4229ed6c0712ce5bb","bdp_rwlrn","Tue Mar 14 2023 13:51:20 GMT-0400 (Eastern Daylight Time)","414594","Untrustworthy,Trustworthy","","null","","","","decisionFB","","<div class='trialDiv'><img src='Fruit/orange.png'><br><font class='baseline'><strong>Odds are Orange</strong><p>Choose number of points to bet.</font><div class='respPicDiv'><img src='img/responseButtonOffersNo0L1.png' class='respPic'></div></div>","null","10","Odds are Orange","Fruit/orange.png","Lost","0.2,0.8","11","0.2","126","28","",""
"html-keyboard-response","93","145342","0.0-11.0-3.27","63d418d4229ed6c0712ce5bb","bdp_rwlrn","Tue Mar 14 2023 13:51:20 GMT-0400 (Eastern Daylight Time)","414594","Untrustworthy,Trustworthy","","null","","","","feedback","","<div class='respPicDiv'><img src='img/responseButtonOffersNo0_wht.png' class='respPic'></div><div class='trialDiv'><img src='Fruit/orange.png'><br><font class='baseline'><strong>Odds are Orange</strong><p><strong><font class='negOutcome'>You LOST</font><p>You bet: 1</strong></font> &nbsp; &nbsp; &nbsp; &nbsp; &nbsp; &nbsp;<font class='negOutcome'>You receive: <strong>0</strong></font></div>","null","10","Odds are Orange","Fruit/orange.png","Lost","0.2,0.8","11","0.2","126","28","",""
"html-keyboard-response","94","146336","0.0-11.0-1.28","63d418d4229ed6c0712ce5bb","bdp_rwlrn","Tue Mar 14 2023 13:51:20 GMT-0400 (Eastern Daylight Time)","414594","Untrustworthy,Trustworthy","","993","","","","decision","","<div class='trialDiv'><img src='Fruit/pineapple.png'><br><font class='baseline'><strong>Primo Pineapple</strong><p>Choose number of points to bet.</font><div class='respPicDiv'><img src='img/responseButtonOffersNo0L.png' class='respPic'></div></div>","5","10","Primo Pineapple","Fruit/pineapple.png","Won","0.8,0.35","10","0.8","131","29","",""
"html-keyboard-response","95","146587","0.0-11.0-2.28","63d418d4229ed6c0712ce5bb","bdp_rwlrn","Tue Mar 14 2023 13:51:20 GMT-0400 (Eastern Daylight Time)","414594","Untrustworthy,Trustworthy","","null","","","","decisionFB","","<div class='trialDiv'><img src='Fruit/pineapple.png'><br><font class='baseline'><strong>Primo Pineapple</strong><p>Choose number of points to bet.</font><div class='respPicDiv'><img src='img/responseButtonOffersNo0L5.png' class='respPic'></div></div>","null","10","Primo Pineapple","Fruit/pineapple.png","Won","0.8,0.35","10","0.8","126","29","",""
"html-keyboard-response","96","147597","0.0-11.0-3.28","63d418d4229ed6c0712ce5bb","bdp_rwlrn","Tue Mar 14 2023 13:51:20 GMT-0400 (Eastern Daylight Time)","414594","Untrustworthy,Trustworthy","","null","","","","feedback","","<div class='respPicDiv'><img src='img/responseButtonOffersNo0_wht.png' class='respPic'></div><div class='trialDiv'><img src='Fruit/pineapple.png'><br><font class='baseline'><strong>Primo Pineapple</strong><p><strong><font class='posOutcome'>You WON</font><p>You bet: 5</strong></font> &nbsp; &nbsp; &nbsp; &nbsp; &nbsp; &nbsp;<font class='posOutcome'>you receive: <strong>10</strong></font></div>","null","10","Primo Pineapple","Fruit/pineapple.png","Won","0.8,0.35","10","0.8","136","29","",""
"html-keyboard-response","97","148568","0.0-11.0-1.29","63d418d4229ed6c0712ce5bb","bdp_rwlrn","Tue Mar 14 2023 13:51:20 GMT-0400 (Eastern Daylight Time)","414594","Untrustworthy,Trustworthy","","971","","","","decision","","<div class='trialDiv'><img src='Fruit/Kiwi.png'><br><font class='baseline'><strong>Kiwi Kash</strong><p>Choose number of points to bet.</font><div class='respPicDiv'><img src='img/responseButtonOffersNo0L.png' class='respPic'></div></div>","2","10","Kiwi Kash","Fruit/Kiwi.png","Lost","0.35,0.8","13","0.35","141","30","",""
"html-keyboard-response","98","148820","0.0-11.0-2.29","63d418d4229ed6c0712ce5bb","bdp_rwlrn","Tue Mar 14 2023 13:51:20 GMT-0400 (Eastern Daylight Time)","414594","Untrustworthy,Trustworthy","","null","","","","decisionFB","","<div class='trialDiv'><img src='Fruit/Kiwi.png'><br><font class='baseline'><strong>Kiwi Kash</strong><p>Choose number of points to bet.</font><div class='respPicDiv'><img src='img/responseButtonOffersNo0L2.png' class='respPic'></div></div>","null","10","Kiwi Kash","Fruit/Kiwi.png","Lost","0.35,0.8","13","0.35","139","30","",""
"html-keyboard-response","99","149821","0.0-11.0-3.29","63d418d4229ed6c0712ce5bb","bdp_rwlrn","Tue Mar 14 2023 13:51:20 GMT-0400 (Eastern Daylight Time)","414594","Untrustworthy,Trustworthy","","null","","","","feedback","","<div class='respPicDiv'><img src='img/responseButtonOffersNo0_wht.png' class='respPic'></div><div class='trialDiv'><img src='Fruit/Kiwi.png'><br><font class='baseline'><strong>Kiwi Kash</strong><p><strong><font class='negOutcome'>You LOST</font><p>You bet: 2</strong></font> &nbsp; &nbsp; &nbsp; &nbsp; &nbsp; &nbsp;<font class='negOutcome'>You receive: <strong>0</strong></font></div>","null","10","Kiwi Kash","Fruit/Kiwi.png","Lost","0.35,0.8","13","0.35","139","30","",""
"html-keyboard-response","100","151024","0.0-11.0-1.30","63d418d4229ed6c0712ce5bb","bdp_rwlrn","Tue Mar 14 2023 13:51:20 GMT-0400 (Eastern Daylight Time)","414594","Untrustworthy,Trustworthy","","1203","","","","decision","","<div class='trialDiv'><img src='Fruit/pineapple.png'><br><font class='baseline'><strong>Primo Pineapple</strong><p>Choose number of points to bet.</font><div class='respPicDiv'><img src='img/responseButtonOffersNo0L.png' class='respPic'></div></div>","5","11","Primo Pineapple","Fruit/pineapple.png","Lost","0.8,0.35","10","0.8","144","31","",""
"html-keyboard-response","101","151278","0.0-11.0-2.30","63d418d4229ed6c0712ce5bb","bdp_rwlrn","Tue Mar 14 2023 13:51:20 GMT-0400 (Eastern Daylight Time)","414594","Untrustworthy,Trustworthy","","null","","","","decisionFB","","<div class='trialDiv'><img src='Fruit/pineapple.png'><br><font class='baseline'><strong>Primo Pineapple</strong><p>Choose number of points to bet.</font><div class='respPicDiv'><img src='img/responseButtonOffersNo0L5.png' class='respPic'></div></div>","null","11","Primo Pineapple","Fruit/pineapple.png","Lost","0.8,0.35","10","0.8","139","31","",""
"html-keyboard-response","102","152280","0.0-11.0-3.30","63d418d4229ed6c0712ce5bb","bdp_rwlrn","Tue Mar 14 2023 13:51:20 GMT-0400 (Eastern Daylight Time)","414594","Untrustworthy,Trustworthy","","null","","","","feedback","","<div class='respPicDiv'><img src='img/responseButtonOffersNo0_wht.png' class='respPic'></div><div class='trialDiv'><img src='Fruit/pineapple.png'><br><font class='baseline'><strong>Primo Pineapple</strong><p><strong><font class='negOutcome'>You LOST</font><p>You bet: 5</strong></font> &nbsp; &nbsp; &nbsp; &nbsp; &nbsp; &nbsp;<font class='negOutcome'>You receive: <strong>0</strong></font></div>","null","11","Primo Pineapple","Fruit/pineapple.png","Lost","0.8,0.35","10","0.8","139","31","",""
"html-keyboard-response","103","154576","0.0-11.0-1.31","63d418d4229ed6c0712ce5bb","bdp_rwlrn","Tue Mar 14 2023 13:51:20 GMT-0400 (Eastern Daylight Time)","414594","Untrustworthy,Trustworthy","","2296","","","","decision","","<div class='trialDiv'><img src='Fruit/orange.png'><br><font class='baseline'><strong>Odds are Orange</strong><p>Choose number of points to bet.</font><div class='respPicDiv'><img src='img/responseButtonOffersNo0L.png' class='respPic'></div></div>","2","11","Odds are Orange","Fruit/orange.png","Won","0.2,0.8","11","0.2","144","32","",""
"html-keyboard-response","104","154829","0.0-11.0-2.31","63d418d4229ed6c0712ce5bb","bdp_rwlrn","Tue Mar 14 2023 13:51:20 GMT-0400 (Eastern Daylight Time)","414594","Untrustworthy,Trustworthy","","null","","","","decisionFB","","<div class='trialDiv'><img src='Fruit/orange.png'><br><font class='baseline'><strong>Odds are Orange</strong><p>Choose number of points to bet.</font><div class='respPicDiv'><img src='img/responseButtonOffersNo0L2.png' class='respPic'></div></div>","null","11","Odds are Orange","Fruit/orange.png","Won","0.2,0.8","11","0.2","142","32","",""
"html-keyboard-response","105","155830","0.0-11.0-3.31","63d418d4229ed6c0712ce5bb","bdp_rwlrn","Tue Mar 14 2023 13:51:20 GMT-0400 (Eastern Daylight Time)","414594","Untrustworthy,Trustworthy","","null","","","","feedback","","<div class='respPicDiv'><img src='img/responseButtonOffersNo0_wht.png' class='respPic'></div><div class='trialDiv'><img src='Fruit/orange.png'><br><font class='baseline'><strong>Odds are Orange</strong><p><strong><font class='posOutcome'>You WON</font><p>You bet: 2</strong></font> &nbsp; &nbsp; &nbsp; &nbsp; &nbsp; &nbsp;<font class='posOutcome'>you receive: <strong>4</strong></font></div>","null","11","Odds are Orange","Fruit/orange.png","Won","0.2,0.8","11","0.2","146","32","",""
"html-keyboard-response","106","157953","0.0-11.0-1.32","63d418d4229ed6c0712ce5bb","bdp_rwlrn","Tue Mar 14 2023 13:51:20 GMT-0400 (Eastern Daylight Time)","414594","Untrustworthy,Trustworthy","","2123","","","","decision","","<div class='trialDiv'><img src='Fruit/Kiwi.png'><br><font class='baseline'><strong>Kiwi Kash</strong><p>Choose number of points to bet.</font><div class='respPicDiv'><img src='img/responseButtonOffersNo0L.png' class='respPic'></div></div>","3","11","Kiwi Kash","Fruit/Kiwi.png","Lost","0.35,0.8","13","0.35","151","33","",""
"html-keyboard-response","107","158204","0.0-11.0-2.32","63d418d4229ed6c0712ce5bb","bdp_rwlrn","Tue Mar 14 2023 13:51:20 GMT-0400 (Eastern Daylight Time)","414594","Untrustworthy,Trustworthy","","null","","","","decisionFB","","<div class='trialDiv'><img src='Fruit/Kiwi.png'><br><font class='baseline'><strong>Kiwi Kash</strong><p>Choose number of points to bet.</font><div class='respPicDiv'><img src='img/responseButtonOffersNo0L3.png' class='respPic'></div></div>","null","11","Kiwi Kash","Fruit/Kiwi.png","Lost","0.35,0.8","13","0.35","148","33","",""
"html-keyboard-response","108","159206","0.0-11.0-3.32","63d418d4229ed6c0712ce5bb","bdp_rwlrn","Tue Mar 14 2023 13:51:20 GMT-0400 (Eastern Daylight Time)","414594","Untrustworthy,Trustworthy","","null","","","","feedback","","<div class='respPicDiv'><img src='img/responseButtonOffersNo0_wht.png' class='respPic'></div><div class='trialDiv'><img src='Fruit/Kiwi.png'><br><font class='baseline'><strong>Kiwi Kash</strong><p><strong><font class='negOutcome'>You LOST</font><p>You bet: 3</strong></font> &nbsp; &nbsp; &nbsp; &nbsp; &nbsp; &nbsp;<font class='negOutcome'>You receive: <strong>0</strong></font></div>","null","11","Kiwi Kash","Fruit/Kiwi.png","Lost","0.35,0.8","13","0.35","148","33","",""
"html-keyboard-response","109","160449","0.0-11.0-1.33","63d418d4229ed6c0712ce5bb","bdp_rwlrn","Tue Mar 14 2023 13:51:20 GMT-0400 (Eastern Daylight Time)","414594","Untrustworthy,Trustworthy","","1242","","","","decision","","<div class='trialDiv'><img src='Fruit/pineapple.png'><br><font class='baseline'><strong>Primo Pineapple</strong><p>Choose number of points to bet.</font><div class='respPicDiv'><img src='img/responseButtonOffersNo0L.png' class='respPic'></div></div>","5","12","Primo Pineapple","Fruit/pineapple.png","Lost","0.8,0.35","10","0.8","153","34","",""
"html-keyboard-response","110","160701","0.0-11.0-2.33","63d418d4229ed6c0712ce5bb","bdp_rwlrn","Tue Mar 14 2023 13:51:20 GMT-0400 (Eastern Daylight Time)","414594","Untrustworthy,Trustworthy","","null","","","","decisionFB","","<div class='trialDiv'><img src='Fruit/pineapple.png'><br><font class='baseline'><strong>Primo Pineapple</strong><p>Choose number of points to bet.</font><div class='respPicDiv'><img src='img/responseButtonOffersNo0L5.png' class='respPic'></div></div>","null","12","Primo Pineapple","Fruit/pineapple.png","Lost","0.8,0.35","10","0.8","148","34","",""
"html-keyboard-response","111","161702","0.0-11.0-3.33","63d418d4229ed6c0712ce5bb","bdp_rwlrn","Tue Mar 14 2023 13:51:20 GMT-0400 (Eastern Daylight Time)","414594","Untrustworthy,Trustworthy","","null","","","","feedback","","<div class='respPicDiv'><img src='img/responseButtonOffersNo0_wht.png' class='respPic'></div><div class='trialDiv'><img src='Fruit/pineapple.png'><br><font class='baseline'><strong>Primo Pineapple</strong><p><strong><font class='negOutcome'>You LOST</font><p>You bet: 5</strong></font> &nbsp; &nbsp; &nbsp; &nbsp; &nbsp; &nbsp;<font class='negOutcome'>You receive: <strong>0</strong></font></div>","null","12","Primo Pineapple","Fruit/pineapple.png","Lost","0.8,0.35","10","0.8","148","34","",""
"html-keyboard-response","112","162553","0.0-11.0-1.34","63d418d4229ed6c0712ce5bb","bdp_rwlrn","Tue Mar 14 2023 13:51:20 GMT-0400 (Eastern Daylight Time)","414594","Untrustworthy,Trustworthy","","851","","","","decision","","<div class='trialDiv'><img src='Fruit/Kiwi.png'><br><font class='baseline'><strong>Kiwi Kash</strong><p>Choose number of points to bet.</font><div class='respPicDiv'><img src='img/responseButtonOffersNo0L.png' class='respPic'></div></div>","1","12","Kiwi Kash","Fruit/Kiwi.png","Won","0.35,0.8","13","0.35","153","35","",""
"html-keyboard-response","113","162805","0.0-11.0-2.34","63d418d4229ed6c0712ce5bb","bdp_rwlrn","Tue Mar 14 2023 13:51:20 GMT-0400 (Eastern Daylight Time)","414594","Untrustworthy,Trustworthy","","null","","","","decisionFB","","<div class='trialDiv'><img src='Fruit/Kiwi.png'><br><font class='baseline'><strong>Kiwi Kash</strong><p>Choose number of points to bet.</font><div class='respPicDiv'><img src='img/responseButtonOffersNo0L1.png' class='respPic'></div></div>","null","12","Kiwi Kash","Fruit/Kiwi.png","Won","0.35,0.8","13","0.35","152","35","",""
"html-keyboard-response","114","163807","0.0-11.0-3.34","63d418d4229ed6c0712ce5bb","bdp_rwlrn","Tue Mar 14 2023 13:51:20 GMT-0400 (Eastern Daylight Time)","414594","Untrustworthy,Trustworthy","","null","","","","feedback","","<div class='respPicDiv'><img src='img/responseButtonOffersNo0_wht.png' class='respPic'></div><div class='trialDiv'><img src='Fruit/Kiwi.png'><br><font class='baseline'><strong>Kiwi Kash</strong><p><strong><font class='posOutcome'>You WON</font><p>You bet: 1</strong></font> &nbsp; &nbsp; &nbsp; &nbsp; &nbsp; &nbsp;<font class='posOutcome'>you receive: <strong>2</strong></font></div>","null","12","Kiwi Kash","Fruit/Kiwi.png","Won","0.35,0.8","13","0.35","154","35","",""
"html-keyboard-response","115","164433","0.0-11.0-1.35","63d418d4229ed6c0712ce5bb","bdp_rwlrn","Tue Mar 14 2023 13:51:20 GMT-0400 (Eastern Daylight Time)","414594","Untrustworthy,Trustworthy","","626","","","","decision","","<div class='trialDiv'><img src='Fruit/orange.png'><br><font class='baseline'><strong>Odds are Orange</strong><p>Choose number of points to bet.</font><div class='respPicDiv'><img src='img/responseButtonOffersNo0L.png' class='respPic'></div></div>","1","12","Odds are Orange","Fruit/orange.png","Lost","0.2,0.8","11","0.2","159","36","",""
"html-keyboard-response","116","164686","0.0-11.0-2.35","63d418d4229ed6c0712ce5bb","bdp_rwlrn","Tue Mar 14 2023 13:51:20 GMT-0400 (Eastern Daylight Time)","414594","Untrustworthy,Trustworthy","","null","","","","decisionFB","","<div class='trialDiv'><img src='Fruit/orange.png'><br><font class='baseline'><strong>Odds are Orange</strong><p>Choose number of points to bet.</font><div class='respPicDiv'><img src='img/responseButtonOffersNo0L1.png' class='respPic'></div></div>","null","12","Odds are Orange","Fruit/orange.png","Lost","0.2,0.8","11","0.2","158","36","",""
"html-keyboard-response","117","165689","0.0-11.0-3.35","63d418d4229ed6c0712ce5bb","bdp_rwlrn","Tue Mar 14 2023 13:51:20 GMT-0400 (Eastern Daylight Time)","414594","Untrustworthy,Trustworthy","","null","","","","feedback","","<div class='respPicDiv'><img src='img/responseButtonOffersNo0_wht.png' class='respPic'></div><div class='trialDiv'><img src='Fruit/orange.png'><br><font class='baseline'><strong>Odds are Orange</strong><p><strong><font class='negOutcome'>You LOST</font><p>You bet: 1</strong></font> &nbsp; &nbsp; &nbsp; &nbsp; &nbsp; &nbsp;<font class='negOutcome'>You receive: <strong>0</strong></font></div>","null","12","Odds are Orange","Fruit/orange.png","Lost","0.2,0.8","11","0.2","158","36","",""
"html-keyboard-response","118","166121","0.0-11.0-1.36","63d418d4229ed6c0712ce5bb","bdp_rwlrn","Tue Mar 14 2023 13:51:20 GMT-0400 (Eastern Daylight Time)","414594","Untrustworthy,Trustworthy","","432","","","","decision","","<div class='trialDiv'><img src='Fruit/pineapple.png'><br><font class='baseline'><strong>Primo Pineapple</strong><p>Choose number of points to bet.</font><div class='respPicDiv'><img src='img/responseButtonOffersNo0L.png' class='respPic'></div></div>","5","13","Primo Pineapple","Fruit/pineapple.png","Lost","0.8,0.35","10","0.8","163","37","",""
"html-keyboard-response","119","166373","0.0-11.0-2.36","63d418d4229ed6c0712ce5bb","bdp_rwlrn","Tue Mar 14 2023 13:51:20 GMT-0400 (Eastern Daylight Time)","414594","Untrustworthy,Trustworthy","","null","","","","decisionFB","","<div class='trialDiv'><img src='Fruit/pineapple.png'><br><font class='baseline'><strong>Primo Pineapple</strong><p>Choose number of points to bet.</font><div class='respPicDiv'><img src='img/responseButtonOffersNo0L5.png' class='respPic'></div></div>","null","13","Primo Pineapple","Fruit/pineapple.png","Lost","0.8,0.35","10","0.8","158","37","",""
"html-keyboard-response","120","167375","0.0-11.0-3.36","63d418d4229ed6c0712ce5bb","bdp_rwlrn","Tue Mar 14 2023 13:51:20 GMT-0400 (Eastern Daylight Time)","414594","Untrustworthy,Trustworthy","","null","","","","feedback","","<div class='respPicDiv'><img src='img/responseButtonOffersNo0_wht.png' class='respPic'></div><div class='trialDiv'><img src='Fruit/pineapple.png'><br><font class='baseline'><strong>Primo Pineapple</strong><p><strong><font class='negOutcome'>You LOST</font><p>You bet: 5</strong></font> &nbsp; &nbsp; &nbsp; &nbsp; &nbsp; &nbsp;<font class='negOutcome'>You receive: <strong>0</strong></font></div>","null","13","Primo Pineapple","Fruit/pineapple.png","Lost","0.8,0.35","10","0.8","158","37","",""
"html-keyboard-response","121","167825","0.0-11.0-1.37","63d418d4229ed6c0712ce5bb","bdp_rwlrn","Tue Mar 14 2023 13:51:20 GMT-0400 (Eastern Daylight Time)","414594","Untrustworthy,Trustworthy","","450","","","","decision","","<div class='trialDiv'><img src='Fruit/Kiwi.png'><br><font class='baseline'><strong>Kiwi Kash</strong><p>Choose number of points to bet.</font><div class='respPicDiv'><img src='img/responseButtonOffersNo0L.png' class='respPic'></div></div>","1","13","Kiwi Kash","Fruit/Kiwi.png","Won","0.35,0.8","13","0.35","163","38","",""
"html-keyboard-response","122","168077","0.0-11.0-2.37","63d418d4229ed6c0712ce5bb","bdp_rwlrn","Tue Mar 14 2023 13:51:20 GMT-0400 (Eastern Daylight Time)","414594","Untrustworthy,Trustworthy","","null","","","","decisionFB","","<div class='trialDiv'><img src='Fruit/Kiwi.png'><br><font class='baseline'><strong>Kiwi Kash</strong><p>Choose number of points to bet.</font><div class='respPicDiv'><img src='img/responseButtonOffersNo0L1.png' class='respPic'></div></div>","null","13","Kiwi Kash","Fruit/Kiwi.png","Won","0.35,0.8","13","0.35","162","38","",""
"html-keyboard-response","123","169079","0.0-11.0-3.37","63d418d4229ed6c0712ce5bb","bdp_rwlrn","Tue Mar 14 2023 13:51:20 GMT-0400 (Eastern Daylight Time)","414594","Untrustworthy,Trustworthy","","null","","","","feedback","","<div class='respPicDiv'><img src='img/responseButtonOffersNo0_wht.png' class='respPic'></div><div class='trialDiv'><img src='Fruit/Kiwi.png'><br><font class='baseline'><strong>Kiwi Kash</strong><p><strong><font class='posOutcome'>You WON</font><p>You bet: 1</strong></font> &nbsp; &nbsp; &nbsp; &nbsp; &nbsp; &nbsp;<font class='posOutcome'>you receive: <strong>2</strong></font></div>","null","13","Kiwi Kash","Fruit/Kiwi.png","Won","0.35,0.8","13","0.35","164","38","",""
"html-keyboard-response","124","169826","0.0-11.0-1.38","63d418d4229ed6c0712ce5bb","bdp_rwlrn","Tue Mar 14 2023 13:51:20 GMT-0400 (Eastern Daylight Time)","414594","Untrustworthy,Trustworthy","","745","","","","decision","","<div class='trialDiv'><img src='Fruit/orange.png'><br><font class='baseline'><strong>Odds are Orange</strong><p>Choose number of points to bet.</font><div class='respPicDiv'><img src='img/responseButtonOffersNo0L.png' class='respPic'></div></div>","1","13","Odds are Orange","Fruit/orange.png","Won","0.2,0.8","11","0.2","169","39","",""
"html-keyboard-response","125","170077","0.0-11.0-2.38","63d418d4229ed6c0712ce5bb","bdp_rwlrn","Tue Mar 14 2023 13:51:20 GMT-0400 (Eastern Daylight Time)","414594","Untrustworthy,Trustworthy","","null","","","","decisionFB","","<div class='trialDiv'><img src='Fruit/orange.png'><br><font class='baseline'><strong>Odds are Orange</strong><p>Choose number of points to bet.</font><div class='respPicDiv'><img src='img/responseButtonOffersNo0L1.png' class='respPic'></div></div>","null","13","Odds are Orange","Fruit/orange.png","Won","0.2,0.8","11","0.2","168","39","",""
"html-keyboard-response","126","171079","0.0-11.0-3.38","63d418d4229ed6c0712ce5bb","bdp_rwlrn","Tue Mar 14 2023 13:51:20 GMT-0400 (Eastern Daylight Time)","414594","Untrustworthy,Trustworthy","","null","","","","feedback","","<div class='respPicDiv'><img src='img/responseButtonOffersNo0_wht.png' class='respPic'></div><div class='trialDiv'><img src='Fruit/orange.png'><br><font class='baseline'><strong>Odds are Orange</strong><p><strong><font class='posOutcome'>You WON</font><p>You bet: 1</strong></font> &nbsp; &nbsp; &nbsp; &nbsp; &nbsp; &nbsp;<font class='posOutcome'>you receive: <strong>2</strong></font></div>","null","13","Odds are Orange","Fruit/orange.png","Won","0.2,0.8","11","0.2","170","39","",""
"html-keyboard-response","127","172114","0.0-11.0-1.39","63d418d4229ed6c0712ce5bb","bdp_rwlrn","Tue Mar 14 2023 13:51:20 GMT-0400 (Eastern Daylight Time)","414594","Untrustworthy,Trustworthy","","1035","","","","decision","","<div class='trialDiv'><img src='Fruit/pineapple.png'><br><font class='baseline'><strong>Primo Pineapple</strong><p>Choose number of points to bet.</font><div class='respPicDiv'><img src='img/responseButtonOffersNo0L.png' class='respPic'></div></div>","3","14","Primo Pineapple","Fruit/pineapple.png","Lost","0.8,0.35","10","0.8","175","40","",""
"html-keyboard-response","128","172365","0.0-11.0-2.39","63d418d4229ed6c0712ce5bb","bdp_rwlrn","Tue Mar 14 2023 13:51:20 GMT-0400 (Eastern Daylight Time)","414594","Untrustworthy,Trustworthy","","null","","","","decisionFB","","<div class='trialDiv'><img src='Fruit/pineapple.png'><br><font class='baseline'><strong>Primo Pineapple</strong><p>Choose number of points to bet.</font><div class='respPicDiv'><img src='img/responseButtonOffersNo0L3.png' class='respPic'></div></div>","null","14","Primo Pineapple","Fruit/pineapple.png","Lost","0.8,0.35","10","0.8","172","40","",""
"html-keyboard-response","129","173367","0.0-11.0-3.39","63d418d4229ed6c0712ce5bb","bdp_rwlrn","Tue Mar 14 2023 13:51:20 GMT-0400 (Eastern Daylight Time)","414594","Untrustworthy,Trustworthy","","null","","","","feedback","","<div class='respPicDiv'><img src='img/responseButtonOffersNo0_wht.png' class='respPic'></div><div class='trialDiv'><img src='Fruit/pineapple.png'><br><font class='baseline'><strong>Primo Pineapple</strong><p><strong><font class='negOutcome'>You LOST</font><p>You bet: 3</strong></font> &nbsp; &nbsp; &nbsp; &nbsp; &nbsp; &nbsp;<font class='negOutcome'>You receive: <strong>0</strong></font></div>","null","14","Primo Pineapple","Fruit/pineapple.png","Lost","0.8,0.35","10","0.8","172","40","",""
"html-keyboard-response","130","174226","0.0-11.0-1.40","63d418d4229ed6c0712ce5bb","bdp_rwlrn","Tue Mar 14 2023 13:51:20 GMT-0400 (Eastern Daylight Time)","414594","Untrustworthy,Trustworthy","","858","","","","decision","","<div class='trialDiv'><img src='Fruit/orange.png'><br><font class='baseline'><strong>Odds are Orange</strong><p>Choose number of points to bet.</font><div class='respPicDiv'><img src='img/responseButtonOffersNo0L.png' class='respPic'></div></div>","1","14","Odds are Orange","Fruit/orange.png","Won","0.2,0.8","11","0.2","177","41","",""
"html-keyboard-response","131","174478","0.0-11.0-2.40","63d418d4229ed6c0712ce5bb","bdp_rwlrn","Tue Mar 14 2023 13:51:20 GMT-0400 (Eastern Daylight Time)","414594","Untrustworthy,Trustworthy","","null","","","","decisionFB","","<div class='trialDiv'><img src='Fruit/orange.png'><br><font class='baseline'><strong>Odds are Orange</strong><p>Choose number of points to bet.</font><div class='respPicDiv'><img src='img/responseButtonOffersNo0L1.png' class='respPic'></div></div>","null","14","Odds are Orange","Fruit/orange.png","Won","0.2,0.8","11","0.2","176","41","",""
"html-keyboard-response","132","175479","0.0-11.0-3.40","63d418d4229ed6c0712ce5bb","bdp_rwlrn","Tue Mar 14 2023 13:51:20 GMT-0400 (Eastern Daylight Time)","414594","Untrustworthy,Trustworthy","","null","","","","feedback","","<div class='respPicDiv'><img src='img/responseButtonOffersNo0_wht.png' class='respPic'></div><div class='trialDiv'><img src='Fruit/orange.png'><br><font class='baseline'><strong>Odds are Orange</strong><p><strong><font class='posOutcome'>You WON</font><p>You bet: 1</strong></font> &nbsp; &nbsp; &nbsp; &nbsp; &nbsp; &nbsp;<font class='posOutcome'>you receive: <strong>2</strong></font></div>","null","14","Odds are Orange","Fruit/orange.png","Won","0.2,0.8","11","0.2","178","41","",""
"html-keyboard-response","133","176514","0.0-11.0-1.41","63d418d4229ed6c0712ce5bb","bdp_rwlrn","Tue Mar 14 2023 13:51:20 GMT-0400 (Eastern Daylight Time)","414594","Untrustworthy,Trustworthy","","1034","","","","decision","","<div class='trialDiv'><img src='Fruit/Kiwi.png'><br><font class='baseline'><strong>Kiwi Kash</strong><p>Choose number of points to bet.</font><div class='respPicDiv'><img src='img/responseButtonOffersNo0L.png' class='respPic'></div></div>","4","14","Kiwi Kash","Fruit/Kiwi.png","Lost","0.35,0.8","13","0.35","183","42","",""
"html-keyboard-response","134","176765","0.0-11.0-2.41","63d418d4229ed6c0712ce5bb","bdp_rwlrn","Tue Mar 14 2023 13:51:20 GMT-0400 (Eastern Daylight Time)","414594","Untrustworthy,Trustworthy","","null","","","","decisionFB","","<div class='trialDiv'><img src='Fruit/Kiwi.png'><br><font class='baseline'><strong>Kiwi Kash</strong><p>Choose number of points to bet.</font><div class='respPicDiv'><img src='img/responseButtonOffersNo0L4.png' class='respPic'></div></div>","null","14","Kiwi Kash","Fruit/Kiwi.png","Lost","0.35,0.8","13","0.35","179","42","",""
"html-keyboard-response","135","177767","0.0-11.0-3.41","63d418d4229ed6c0712ce5bb","bdp_rwlrn","Tue Mar 14 2023 13:51:20 GMT-0400 (Eastern Daylight Time)","414594","Untrustworthy,Trustworthy","","null","","","","feedback","","<div class='respPicDiv'><img src='img/responseButtonOffersNo0_wht.png' class='respPic'></div><div class='trialDiv'><img src='Fruit/Kiwi.png'><br><font class='baseline'><strong>Kiwi Kash</strong><p><strong><font class='negOutcome'>You LOST</font><p>You bet: 4</strong></font> &nbsp; &nbsp; &nbsp; &nbsp; &nbsp; &nbsp;<font class='negOutcome'>You receive: <strong>0</strong></font></div>","null","14","Kiwi Kash","Fruit/Kiwi.png","Lost","0.35,0.8","13","0.35","179","42","",""
"html-keyboard-response","136","178498","0.0-11.0-1.42","63d418d4229ed6c0712ce5bb","bdp_rwlrn","Tue Mar 14 2023 13:51:20 GMT-0400 (Eastern Daylight Time)","414594","Untrustworthy,Trustworthy","","731","","","","decision","","<div class='trialDiv'><img src='Fruit/pineapple.png'><br><font class='baseline'><strong>Primo Pineapple</strong><p>Choose number of points to bet.</font><div class='respPicDiv'><img src='img/responseButtonOffersNo0L.png' class='respPic'></div></div>","4","15","Primo Pineapple","Fruit/pineapple.png","Won","0.8,0.35","10","0.8","184","43","",""
"html-keyboard-response","137","178751","0.0-11.0-2.42","63d418d4229ed6c0712ce5bb","bdp_rwlrn","Tue Mar 14 2023 13:51:20 GMT-0400 (Eastern Daylight Time)","414594","Untrustworthy,Trustworthy","","null","","","","decisionFB","","<div class='trialDiv'><img src='Fruit/pineapple.png'><br><font class='baseline'><strong>Primo Pineapple</strong><p>Choose number of points to bet.</font><div class='respPicDiv'><img src='img/responseButtonOffersNo0L4.png' class='respPic'></div></div>","null","15","Primo Pineapple","Fruit/pineapple.png","Won","0.8,0.35","10","0.8","180","43","",""
"html-keyboard-response","138","179754","0.0-11.0-3.42","63d418d4229ed6c0712ce5bb","bdp_rwlrn","Tue Mar 14 2023 13:51:20 GMT-0400 (Eastern Daylight Time)","414594","Untrustworthy,Trustworthy","","null","","","","feedback","","<div class='respPicDiv'><img src='img/responseButtonOffersNo0_wht.png' class='respPic'></div><div class='trialDiv'><img src='Fruit/pineapple.png'><br><font class='baseline'><strong>Primo Pineapple</strong><p><strong><font class='posOutcome'>You WON</font><p>You bet: 4</strong></font> &nbsp; &nbsp; &nbsp; &nbsp; &nbsp; &nbsp;<font class='posOutcome'>you receive: <strong>8</strong></font></div>","null","15","Primo Pineapple","Fruit/pineapple.png","Won","0.8,0.35","10","0.8","188","43","",""
"html-keyboard-response","139","181060","0.0-11.0-1.43","63d418d4229ed6c0712ce5bb","bdp_rwlrn","Tue Mar 14 2023 13:51:20 GMT-0400 (Eastern Daylight Time)","414594","Untrustworthy,Trustworthy","","1305","","","","decision","","<div class='trialDiv'><img src='Fruit/orange.png'><br><font class='baseline'><strong>Odds are Orange</strong><p>Choose number of points to bet.</font><div class='respPicDiv'><img src='img/responseButtonOffersNo0L.png' class='respPic'></div></div>","2","15","Odds are Orange","Fruit/orange.png","Won","0.2,0.8","11","0.2","193","44","",""
"html-keyboard-response","140","181311","0.0-11.0-2.43","63d418d4229ed6c0712ce5bb","bdp_rwlrn","Tue Mar 14 2023 13:51:20 GMT-0400 (Eastern Daylight Time)","414594","Untrustworthy,Trustworthy","","null","","","","decisionFB","","<div class='trialDiv'><img src='Fruit/orange.png'><br><font class='baseline'><strong>Odds are Orange</strong><p>Choose number of points to bet.</font><div class='respPicDiv'><img src='img/responseButtonOffersNo0L2.png' class='respPic'></div></div>","null","15","Odds are Orange","Fruit/orange.png","Won","0.2,0.8","11","0.2","191","44","",""
"html-keyboard-response","141","182314","0.0-11.0-3.43","63d418d4229ed6c0712ce5bb","bdp_rwlrn","Tue Mar 14 2023 13:51:20 GMT-0400 (Eastern Daylight Time)","414594","Untrustworthy,Trustworthy","","null","","","","feedback","","<div class='respPicDiv'><img src='img/responseButtonOffersNo0_wht.png' class='respPic'></div><div class='trialDiv'><img src='Fruit/orange.png'><br><font class='baseline'><strong>Odds are Orange</strong><p><strong><font class='posOutcome'>You WON</font><p>You bet: 2</strong></font> &nbsp; &nbsp; &nbsp; &nbsp; &nbsp; &nbsp;<font class='posOutcome'>you receive: <strong>4</strong></font></div>","null","15","Odds are Orange","Fruit/orange.png","Won","0.2,0.8","11","0.2","195","44","",""
"html-keyboard-response","142","183339","0.0-11.0-1.44","63d418d4229ed6c0712ce5bb","bdp_rwlrn","Tue Mar 14 2023 13:51:20 GMT-0400 (Eastern Daylight Time)","414594","Untrustworthy,Trustworthy","","1025","","","","decision","","<div class='trialDiv'><img src='Fruit/Kiwi.png'><br><font class='baseline'><strong>Kiwi Kash</strong><p>Choose number of points to bet.</font><div class='respPicDiv'><img src='img/responseButtonOffersNo0L.png' class='respPic'></div></div>","2","15","Kiwi Kash","Fruit/Kiwi.png","Won","0.35,0.8","13","0.35","200","45","",""
"html-keyboard-response","143","183601","0.0-11.0-2.44","63d418d4229ed6c0712ce5bb","bdp_rwlrn","Tue Mar 14 2023 13:51:20 GMT-0400 (Eastern Daylight Time)","414594","Untrustworthy,Trustworthy","","null","","","","decisionFB","","<div class='trialDiv'><img src='Fruit/Kiwi.png'><br><font class='baseline'><strong>Kiwi Kash</strong><p>Choose number of points to bet.</font><div class='respPicDiv'><img src='img/responseButtonOffersNo0L2.png' class='respPic'></div></div>","null","15","Kiwi Kash","Fruit/Kiwi.png","Won","0.35,0.8","13","0.35","198","45","",""
"html-keyboard-response","144","184603","0.0-11.0-3.44","63d418d4229ed6c0712ce5bb","bdp_rwlrn","Tue Mar 14 2023 13:51:20 GMT-0400 (Eastern Daylight Time)","414594","Untrustworthy,Trustworthy","","null","","","","feedback","","<div class='respPicDiv'><img src='img/responseButtonOffersNo0_wht.png' class='respPic'></div><div class='trialDiv'><img src='Fruit/Kiwi.png'><br><font class='baseline'><strong>Kiwi Kash</strong><p><strong><font class='posOutcome'>You WON</font><p>You bet: 2</strong></font> &nbsp; &nbsp; &nbsp; &nbsp; &nbsp; &nbsp;<font class='posOutcome'>you receive: <strong>4</strong></font></div>","null","15","Kiwi Kash","Fruit/Kiwi.png","Won","0.35,0.8","13","0.35","202","45","",""
"html-keyboard-response","145","185331","0.0-11.0-1.45","63d418d4229ed6c0712ce5bb","bdp_rwlrn","Tue Mar 14 2023 13:51:20 GMT-0400 (Eastern Daylight Time)","414594","Untrustworthy,Trustworthy","","727","","","","decision","","<div class='trialDiv'><img src='Fruit/orange.png'><br><font class='baseline'><strong>Odds are Orange</strong><p>Choose number of points to bet.</font><div class='respPicDiv'><img src='img/responseButtonOffersNo0L.png' class='respPic'></div></div>","1","16","Odds are Orange","Fruit/orange.png","Lost","0.2,0.8","11","0.2","207","46","",""
"html-keyboard-response","146","185582","0.0-11.0-2.45","63d418d4229ed6c0712ce5bb","bdp_rwlrn","Tue Mar 14 2023 13:51:20 GMT-0400 (Eastern Daylight Time)","414594","Untrustworthy,Trustworthy","","null","","","","decisionFB","","<div class='trialDiv'><img src='Fruit/orange.png'><br><font class='baseline'><strong>Odds are Orange</strong><p>Choose number of points to bet.</font><div class='respPicDiv'><img src='img/responseButtonOffersNo0L1.png' class='respPic'></div></div>","null","16","Odds are Orange","Fruit/orange.png","Lost","0.2,0.8","11","0.2","206","46","",""
"html-keyboard-response","147","186584","0.0-11.0-3.45","63d418d4229ed6c0712ce5bb","bdp_rwlrn","Tue Mar 14 2023 13:51:20 GMT-0400 (Eastern Daylight Time)","414594","Untrustworthy,Trustworthy","","null","","","","feedback","","<div class='respPicDiv'><img src='img/responseButtonOffersNo0_wht.png' class='respPic'></div><div class='trialDiv'><img src='Fruit/orange.png'><br><font class='baseline'><strong>Odds are Orange</strong><p><strong><font class='negOutcome'>You LOST</font><p>You bet: 1</strong></font> &nbsp; &nbsp; &nbsp; &nbsp; &nbsp; &nbsp;<font class='negOutcome'>You receive: <strong>0</strong></font></div>","null","16","Odds are Orange","Fruit/orange.png","Lost","0.2,0.8","11","0.2","206","46","",""
"html-keyboard-response","148","188091","0.0-11.0-1.46","63d418d4229ed6c0712ce5bb","bdp_rwlrn","Tue Mar 14 2023 13:51:20 GMT-0400 (Eastern Daylight Time)","414594","Untrustworthy,Trustworthy","","1507","","","","decision","","<div class='trialDiv'><img src='Fruit/Kiwi.png'><br><font class='baseline'><strong>Kiwi Kash</strong><p>Choose number of points to bet.</font><div class='respPicDiv'><img src='img/responseButtonOffersNo0L.png' class='respPic'></div></div>","5","16","Kiwi Kash","Fruit/Kiwi.png","Won","0.35,0.8","13","0.35","211","47","",""
"html-keyboard-response","149","188343","0.0-11.0-2.46","63d418d4229ed6c0712ce5bb","bdp_rwlrn","Tue Mar 14 2023 13:51:20 GMT-0400 (Eastern Daylight Time)","414594","Untrustworthy,Trustworthy","","null","","","","decisionFB","","<div class='trialDiv'><img src='Fruit/Kiwi.png'><br><font class='baseline'><strong>Kiwi Kash</strong><p>Choose number of points to bet.</font><div class='respPicDiv'><img src='img/responseButtonOffersNo0L5.png' class='respPic'></div></div>","null","16","Kiwi Kash","Fruit/Kiwi.png","Won","0.35,0.8","13","0.35","206","47","",""
"html-keyboard-response","150","189347","0.0-11.0-3.46","63d418d4229ed6c0712ce5bb","bdp_rwlrn","Tue Mar 14 2023 13:51:20 GMT-0400 (Eastern Daylight Time)","414594","Untrustworthy,Trustworthy","","null","","","","feedback","","<div class='respPicDiv'><img src='img/responseButtonOffersNo0_wht.png' class='respPic'></div><div class='trialDiv'><img src='Fruit/Kiwi.png'><br><font class='baseline'><strong>Kiwi Kash</strong><p><strong><font class='posOutcome'>You WON</font><p>You bet: 5</strong></font> &nbsp; &nbsp; &nbsp; &nbsp; &nbsp; &nbsp;<font class='posOutcome'>you receive: <strong>10</strong></font></div>","null","16","Kiwi Kash","Fruit/Kiwi.png","Won","0.35,0.8","13","0.35","216","47","",""
"html-keyboard-response","151","190515","0.0-11.0-1.47","63d418d4229ed6c0712ce5bb","bdp_rwlrn","Tue Mar 14 2023 13:51:20 GMT-0400 (Eastern Daylight Time)","414594","Untrustworthy,Trustworthy","","1167","","","","decision","","<div class='trialDiv'><img src='Fruit/pineapple.png'><br><font class='baseline'><strong>Primo Pineapple</strong><p>Choose number of points to bet.</font><div class='respPicDiv'><img src='img/responseButtonOffersNo0L.png' class='respPic'></div></div>","3","16","Primo Pineapple","Fruit/pineapple.png","Lost","0.8,0.35","10","0.8","221","48","",""
"html-keyboard-response","152","190766","0.0-11.0-2.47","63d418d4229ed6c0712ce5bb","bdp_rwlrn","Tue Mar 14 2023 13:51:20 GMT-0400 (Eastern Daylight Time)","414594","Untrustworthy,Trustworthy","","null","","","","decisionFB","","<div class='trialDiv'><img src='Fruit/pineapple.png'><br><font class='baseline'><strong>Primo Pineapple</strong><p>Choose number of points to bet.</font><div class='respPicDiv'><img src='img/responseButtonOffersNo0L3.png' class='respPic'></div></div>","null","16","Primo Pineapple","Fruit/pineapple.png","Lost","0.8,0.35","10","0.8","218","48","",""
"html-keyboard-response","153","191768","0.0-11.0-3.47","63d418d4229ed6c0712ce5bb","bdp_rwlrn","Tue Mar 14 2023 13:51:20 GMT-0400 (Eastern Daylight Time)","414594","Untrustworthy,Trustworthy","","null","","","","feedback","","<div class='respPicDiv'><img src='img/responseButtonOffersNo0_wht.png' class='respPic'></div><div class='trialDiv'><img src='Fruit/pineapple.png'><br><font class='baseline'><strong>Primo Pineapple</strong><p><strong><font class='negOutcome'>You LOST</font><p>You bet: 3</strong></font> &nbsp; &nbsp; &nbsp; &nbsp; &nbsp; &nbsp;<font class='negOutcome'>You receive: <strong>0</strong></font></div>","null","16","Primo Pineapple","Fruit/pineapple.png","Lost","0.8,0.35","10","0.8","218","48","",""
"html-keyboard-response","154","192803","0.0-11.0-1.48","63d418d4229ed6c0712ce5bb","bdp_rwlrn","Tue Mar 14 2023 13:51:20 GMT-0400 (Eastern Daylight Time)","414594","Untrustworthy,Trustworthy","","1034","","","","decision","","<div class='trialDiv'><img src='Fruit/orange.png'><br><font class='baseline'><strong>Odds are Orange</strong><p>Choose number of points to bet.</font><div class='respPicDiv'><img src='img/responseButtonOffersNo0L.png' class='respPic'></div></div>","1","17","Odds are Orange","Fruit/orange.png","Won","0.2,0.8","11","0.2","223","49","",""
"html-keyboard-response","155","193055","0.0-11.0-2.48","63d418d4229ed6c0712ce5bb","bdp_rwlrn","Tue Mar 14 2023 13:51:20 GMT-0400 (Eastern Daylight Time)","414594","Untrustworthy,Trustworthy","","null","","","","decisionFB","","<div class='trialDiv'><img src='Fruit/orange.png'><br><font class='baseline'><strong>Odds are Orange</strong><p>Choose number of points to bet.</font><div class='respPicDiv'><img src='img/responseButtonOffersNo0L1.png' class='respPic'></div></div>","null","17","Odds are Orange","Fruit/orange.png","Won","0.2,0.8","11","0.2","222","49","",""
"html-keyboard-response","156","194056","0.0-11.0-3.48","63d418d4229ed6c0712ce5bb","bdp_rwlrn","Tue Mar 14 2023 13:51:20 GMT-0400 (Eastern Daylight Time)","414594","Untrustworthy,Trustworthy","","null","","","","feedback","","<div class='respPicDiv'><img src='img/responseButtonOffersNo0_wht.png' class='respPic'></div><div class='trialDiv'><img src='Fruit/orange.png'><br><font class='baseline'><strong>Odds are Orange</strong><p><strong><font class='posOutcome'>You WON</font><p>You bet: 1</strong></font> &nbsp; &nbsp; &nbsp; &nbsp; &nbsp; &nbsp;<font class='posOutcome'>you receive: <strong>2</strong></font></div>","null","17","Odds are Orange","Fruit/orange.png","Won","0.2,0.8","11","0.2","224","49","",""
"html-keyboard-response","157","195235","0.0-11.0-1.49","63d418d4229ed6c0712ce5bb","bdp_rwlrn","Tue Mar 14 2023 13:51:20 GMT-0400 (Eastern Daylight Time)","414594","Untrustworthy,Trustworthy","","1179","","","","decision","","<div class='trialDiv'><img src='Fruit/pineapple.png'><br><font class='baseline'><strong>Primo Pineapple</strong><p>Choose number of points to bet.</font><div class='respPicDiv'><img src='img/responseButtonOffersNo0L.png' class='respPic'></div></div>","1","17","Primo Pineapple","Fruit/pineapple.png","Lost","0.8,0.35","10","0.8","229","50","",""
"html-keyboard-response","158","195487","0.0-11.0-2.49","63d418d4229ed6c0712ce5bb","bdp_rwlrn","Tue Mar 14 2023 13:51:20 GMT-0400 (Eastern Daylight Time)","414594","Untrustworthy,Trustworthy","","null","","","","decisionFB","","<div class='trialDiv'><img src='Fruit/pineapple.png'><br><font class='baseline'><strong>Primo Pineapple</strong><p>Choose number of points to bet.</font><div class='respPicDiv'><img src='img/responseButtonOffersNo0L1.png' class='respPic'></div></div>","null","17","Primo Pineapple","Fruit/pineapple.png","Lost","0.8,0.35","10","0.8","228","50","",""
"html-keyboard-response","159","196489","0.0-11.0-3.49","63d418d4229ed6c0712ce5bb","bdp_rwlrn","Tue Mar 14 2023 13:51:20 GMT-0400 (Eastern Daylight Time)","414594","Untrustworthy,Trustworthy","","null","","","","feedback","","<div class='respPicDiv'><img src='img/responseButtonOffersNo0_wht.png' class='respPic'></div><div class='trialDiv'><img src='Fruit/pineapple.png'><br><font class='baseline'><strong>Primo Pineapple</strong><p><strong><font class='negOutcome'>You LOST</font><p>You bet: 1</strong></font> &nbsp; &nbsp; &nbsp; &nbsp; &nbsp; &nbsp;<font class='negOutcome'>You receive: <strong>0</strong></font></div>","null","17","Primo Pineapple","Fruit/pineapple.png","Lost","0.8,0.35","10","0.8","228","50","",""
"html-keyboard-response","160","217277","0.0-11.0-1.50","63d418d4229ed6c0712ce5bb","bdp_rwlrn","Tue Mar 14 2023 13:51:20 GMT-0400 (Eastern Daylight Time)","414594","Untrustworthy,Trustworthy","","20788","","","","decision","","<div class='trialDiv'><img src='Fruit/Kiwi.png'><br><font class='baseline'><strong>Kiwi Kash</strong><p>Choose number of points to bet.</font><div class='respPicDiv'><img src='img/responseButtonOffersNo0L.png' class='respPic'></div></div>","1","17","Kiwi Kash","Fruit/Kiwi.png","Won","0.35,0.8","13","0.35","233","51","",""
"html-keyboard-response","161","217530","0.0-11.0-2.50","63d418d4229ed6c0712ce5bb","bdp_rwlrn","Tue Mar 14 2023 13:51:20 GMT-0400 (Eastern Daylight Time)","414594","Untrustworthy,Trustworthy","","null","","","","decisionFB","","<div class='trialDiv'><img src='Fruit/Kiwi.png'><br><font class='baseline'><strong>Kiwi Kash</strong><p>Choose number of points to bet.</font><div class='respPicDiv'><img src='img/responseButtonOffersNo0L1.png' class='respPic'></div></div>","null","17","Kiwi Kash","Fruit/Kiwi.png","Won","0.35,0.8","13","0.35","232","51","",""
"html-keyboard-response","162","218531","0.0-11.0-3.50","63d418d4229ed6c0712ce5bb","bdp_rwlrn","Tue Mar 14 2023 13:51:20 GMT-0400 (Eastern Daylight Time)","414594","Untrustworthy,Trustworthy","","null","","","","feedback","","<div class='respPicDiv'><img src='img/responseButtonOffersNo0_wht.png' class='respPic'></div><div class='trialDiv'><img src='Fruit/Kiwi.png'><br><font class='baseline'><strong>Kiwi Kash</strong><p><strong><font class='posOutcome'>You WON</font><p>You bet: 1</strong></font> &nbsp; &nbsp; &nbsp; &nbsp; &nbsp; &nbsp;<font class='posOutcome'>you receive: <strong>2</strong></font></div>","null","17","Kiwi Kash","Fruit/Kiwi.png","Won","0.35,0.8","13","0.35","234","51","",""
"html-keyboard-response","163","219053","0.0-11.0-1.51","63d418d4229ed6c0712ce5bb","bdp_rwlrn","Tue Mar 14 2023 13:51:20 GMT-0400 (Eastern Daylight Time)","414594","Untrustworthy,Trustworthy","","521","","","","decision","","<div class='trialDiv'><img src='Fruit/orange.png'><br><font class='baseline'><strong>Odds are Orange</strong><p>Choose number of points to bet.</font><div class='respPicDiv'><img src='img/responseButtonOffersNo0L.png' class='respPic'></div></div>","1","18","Odds are Orange","Fruit/orange.png","Won","0.2,0.8","11","0.2","239","52","",""
