"trial_type","trial_index","time_elapsed","internal_node_id","subject_id","task","startTime","totalTime","labels","view_history","rt","event","trial","time","trialtype","success","stimulus","key_press","ltround","name","fileID","outcome","lottotype","lottoswpt","lottocurrpshare","point_total","round","faceID","face"
"pavlovia","0","5","0.0-0.0","63bda65b774a91e291c5b1a8","bdp_rwlrn","Sun Mar 12 2023 23:52:20 GMT-0400 (Eastern Daylight Time)","603434","Trustworthy,Untrustworthy","","","","","","","","","","","","","","","","","","","",""
"instructions","1","17895","0.0-1.0","63bda65b774a91e291c5b1a8","bdp_rwlrn","Sun Mar 12 2023 23:52:20 GMT-0400 (Eastern Daylight Time)","603434","Trustworthy,Untrustworthy","[{""page_index"":0,""viewing_time"":17889}]","17889","","","","","","","","","","","","","","","","","",""
"","","","","63bda65b774a91e291c5b1a8","bdp_rwlrn","Sun Mar 12 2023 23:52:20 GMT-0400 (Eastern Daylight Time)","603434","Trustworthy,Untrustworthy","","","fullscreenenter","2","36305","fullscreenenter","","","","","","","","","","","","","",""
"fullscreen","2","37299","0.0-2.0","63bda65b774a91e291c5b1a8","bdp_rwlrn","Sun Mar 12 2023 23:52:20 GMT-0400 (Eastern Daylight Time)","603434","Trustworthy,Untrustworthy","","","","","","","true","","","","","","","","","","","","",""
"instructions","3","229698","0.0-4.0","63bda65b774a91e291c5b1a8","bdp_rwlrn","Sun Mar 12 2023 23:52:20 GMT-0400 (Eastern Daylight Time)","603434","Trustworthy,Untrustworthy","[{""page_index"":0,""viewing_time"":14262},{""page_index"":1,""viewing_time"":33466},{""page_index"":2,""viewing_time"":93395},{""page_index"":3,""viewing_time"":11241},{""page_index"":4,""viewing_time"":34926},{""page_index"":5,""viewing_time"":5107}]","192397","","","","","","","","","","","","","","","","","",""
"html-keyboard-response","4","237260","0.0-5.0","63bda65b774a91e291c5b1a8","bdp_rwlrn","Sun Mar 12 2023 23:52:20 GMT-0400 (Eastern Daylight Time)","603434","Trustworthy,Untrustworthy","","7560","","","","","","<div class='header' style='text-align:left; position: absolute; top: 5%; left: 5%;'><small>Task 1 of 5</small></div><div class='instruxDiv'><p><strong>1) What is the maximum number of points you can choose to bet on a lottery?</strong></p><p>a) 0</p><p>b) 1</p><p>c) 5</p>","C","","","","","","","","","","",""
"html-keyboard-response","5","241856","0.0-6.0","63bda65b774a91e291c5b1a8","bdp_rwlrn","Sun Mar 12 2023 23:52:20 GMT-0400 (Eastern Daylight Time)","603434","Trustworthy,Untrustworthy","","4481","","","","","","<div class='header' style='text-align:left; position: absolute; top: 5%; left: 5%;'><small>Task 1 of 5</small></div><div class='instruxDiv'><p><strong>1) What is the maximum number of points you can choose to bet on a lottery?</strong></p><p>a) 1</p><p>b) 1</p><p style='color:#00FF00'>c) 5</p><h3 style='color:#00FF00'>Correct!</h3><h3 class='center-content'>The correct response is c).</h3><h3 class='center-content'>The maximum number of points you can choose to bet on a lottery is 5 points.</h3><p><em>Press SPACEBAR to continue</em></p></div>"," ","","","","","","","","","","",""
"html-keyboard-response","6","247714","0.0-7.0","63bda65b774a91e291c5b1a8","bdp_rwlrn","Sun Mar 12 2023 23:52:20 GMT-0400 (Eastern Daylight Time)","603434","Trustworthy,Untrustworthy","","5744","","","","","","<div class='header' style='text-align:left; position: absolute; top: 5%; left: 5%;'><small>Task 1 of 5</small></div><div class='instruxDiv'><p><strong>2) How many points can you win each round?</strong></p><p>a) 10 points</p><p>b) Double what you bet</p><p>c) Quadruple what you bet</p>","B","","","","","","","","","","",""
"html-keyboard-response","7","249242","0.0-8.0","63bda65b774a91e291c5b1a8","bdp_rwlrn","Sun Mar 12 2023 23:52:20 GMT-0400 (Eastern Daylight Time)","603434","Trustworthy,Untrustworthy","","1422","","","","","","<div class='header' style='text-align:left; position: absolute; top: 5%; left: 5%;'><small>Task 1 of 5</small></div><div class='instruxDiv'><p><strong>2) How many points can you win each round?</strong></p><p>a) 10 points</p><p style='color:#00FF00'>b) Double what you bet</p><p>c) Quadruple what you bet</p><h3 style='color:#00FF00'>Correct!</h3><h3 class='center-content'>The correct response is b).</h3><h3 class='center-content'>You can win double the amount of points you bet.</h3><p><em>Press SPACEBAR to continue</em></p></div>"," ","","","","","","","","","","",""
"html-keyboard-response","8","254351","0.0-9.0","63bda65b774a91e291c5b1a8","bdp_rwlrn","Sun Mar 12 2023 23:52:20 GMT-0400 (Eastern Daylight Time)","603434","Trustworthy,Untrustworthy","","null","","","","","","<div class='header' style='text-align:left; position: absolute; top: 5%; left: 5%;'><small>Task 1 of 5</small></div><div class='instruxDiv'><p>Thank you for completing the quiz<p>These are the actual lotteries you will be playing in the next block:<p><div class='tc' align='center'><img class='introPic' src='Fruit/watermelon.png'><br><strong>Watermelon Win$</strong></div><div class='bl' align='center'><img class='introPic' src='Fruit/plums1.png'><br><strong>Plum Powerball</strong></div><div class='br' align='center'><img class='introPic' src='Fruit/lime.png'><br><strong>Limin' Large</strong></div></div><p>Across <strong>66 rounds</strong> you will play each lottery <strong>22 times</strong> (in random order).<p style='align:center; color:white'><font <em>Press SPACEBAR to continue</em></p>","null","","","","","","","","","","",""
"instructions","9","265295","0.0-10.0","63bda65b774a91e291c5b1a8","bdp_rwlrn","Sun Mar 12 2023 23:52:20 GMT-0400 (Eastern Daylight Time)","603434","Trustworthy,Untrustworthy","[{""page_index"":0,""viewing_time"":7470},{""page_index"":1,""viewing_time"":3472}]","10943","","","","","","","","","","","","","","","","","",""
"html-keyboard-response","10","271272","0.0-11.0-1.0","63bda65b774a91e291c5b1a8","bdp_rwlrn","Sun Mar 12 2023 23:52:20 GMT-0400 (Eastern Daylight Time)","603434","Trustworthy,Untrustworthy","","5866","","","","decision","","<div class='trialDiv'><img src='Fruit/lime.png'><br><font class='baseline'><strong>Limin' Large</strong><p>Choose number of points to bet.</font><div class='respPicDiv'><img src='img/responseButtonOffersNo0L.png' class='respPic'></div></div>","2","1","Limin' Large","Fruit/lime.png","Won","0.8,0.35","11","0.8","5","1","",""
"html-keyboard-response","11","271535","0.0-11.0-2.0","63bda65b774a91e291c5b1a8","bdp_rwlrn","Sun Mar 12 2023 23:52:20 GMT-0400 (Eastern Daylight Time)","603434","Trustworthy,Untrustworthy","","null","","","","decisionFB","","<div class='trialDiv'><img src='Fruit/lime.png'><br><font class='baseline'><strong>Limin' Large</strong><p>Choose number of points to bet.</font><div class='respPicDiv'><img src='img/responseButtonOffersNo0L2.png' class='respPic'></div></div>","null","1","Limin' Large","Fruit/lime.png","Won","0.8,0.35","11","0.8","3","1","",""
"html-keyboard-response","12","272547","0.0-11.0-3.0","63bda65b774a91e291c5b1a8","bdp_rwlrn","Sun Mar 12 2023 23:52:20 GMT-0400 (Eastern Daylight Time)","603434","Trustworthy,Untrustworthy","","null","","","","feedback","","<div class='respPicDiv'><img src='img/responseButtonOffersNo0_wht.png' class='respPic'></div><div class='trialDiv'><img src='Fruit/lime.png'><br><font class='baseline'><strong>Limin' Large</strong><p><strong><font class='posOutcome'>You WON</font><p>You bet: 2</strong></font> &nbsp; &nbsp; &nbsp; &nbsp; &nbsp; &nbsp;<font class='posOutcome'>you receive: <strong>4</strong></font></div>","null","1","Limin' Large","Fruit/lime.png","Won","0.8,0.35","11","0.8","7","1","",""
"html-keyboard-response","13","274123","0.0-11.0-1.1","63bda65b774a91e291c5b1a8","bdp_rwlrn","Sun Mar 12 2023 23:52:20 GMT-0400 (Eastern Daylight Time)","603434","Trustworthy,Untrustworthy","","1575","","","","decision","","<div class='trialDiv'><img src='Fruit/watermelon.png'><br><font class='baseline'><strong>Watermelon Win$</strong><p>Choose number of points to bet.</font><div class='respPicDiv'><img src='img/responseButtonOffersNo0L.png' class='respPic'></div></div>","3","1","Watermelon Win$","Fruit/watermelon.png","Lost","0.2,0.8","14","0.2","12","2","",""
"html-keyboard-response","14","274376","0.0-11.0-2.1","63bda65b774a91e291c5b1a8","bdp_rwlrn","Sun Mar 12 2023 23:52:20 GMT-0400 (Eastern Daylight Time)","603434","Trustworthy,Untrustworthy","","null","","","","decisionFB","","<div class='trialDiv'><img src='Fruit/watermelon.png'><br><font class='baseline'><strong>Watermelon Win$</strong><p>Choose number of points to bet.</font><div class='respPicDiv'><img src='img/responseButtonOffersNo0L3.png' class='respPic'></div></div>","null","1","Watermelon Win$","Fruit/watermelon.png","Lost","0.2,0.8","14","0.2","9","2","",""
"html-keyboard-response","15","275381","0.0-11.0-3.1","63bda65b774a91e291c5b1a8","bdp_rwlrn","Sun Mar 12 2023 23:52:20 GMT-0400 (Eastern Daylight Time)","603434","Trustworthy,Untrustworthy","","null","","","","feedback","","<div class='respPicDiv'><img src='img/responseButtonOffersNo0_wht.png' class='respPic'></div><div class='trialDiv'><img src='Fruit/watermelon.png'><br><font class='baseline'><strong>Watermelon Win$</strong><p><strong><font class='negOutcome'>You LOST</font><p>You bet: 3</strong></font> &nbsp; &nbsp; &nbsp; &nbsp; &nbsp; &nbsp;<font class='negOutcome'>You receive: <strong>0</strong></font></div>","null","1","Watermelon Win$","Fruit/watermelon.png","Lost","0.2,0.8","14","0.2","9","2","",""
"html-keyboard-response","16","276642","0.0-11.0-1.2","63bda65b774a91e291c5b1a8","bdp_rwlrn","Sun Mar 12 2023 23:52:20 GMT-0400 (Eastern Daylight Time)","603434","Trustworthy,Untrustworthy","","1260","","","","decision","","<div class='trialDiv'><img src='Fruit/plums1.png'><br><font class='baseline'><strong>Plum Powerball</strong><p>Choose number of points to bet.</font><div class='respPicDiv'><img src='img/responseButtonOffersNo0L.png' class='respPic'></div></div>","3","1","Plum Powerball","Fruit/plums1.png","Lost","0.2,0.65","8","0.2","14","3","",""
"html-keyboard-response","17","276897","0.0-11.0-2.2","63bda65b774a91e291c5b1a8","bdp_rwlrn","Sun Mar 12 2023 23:52:20 GMT-0400 (Eastern Daylight Time)","603434","Trustworthy,Untrustworthy","","null","","","","decisionFB","","<div class='trialDiv'><img src='Fruit/plums1.png'><br><font class='baseline'><strong>Plum Powerball</strong><p>Choose number of points to bet.</font><div class='respPicDiv'><img src='img/responseButtonOffersNo0L3.png' class='respPic'></div></div>","null","1","Plum Powerball","Fruit/plums1.png","Lost","0.2,0.65","8","0.2","11","3","",""
"html-keyboard-response","18","277913","0.0-11.0-3.2","63bda65b774a91e291c5b1a8","bdp_rwlrn","Sun Mar 12 2023 23:52:20 GMT-0400 (Eastern Daylight Time)","603434","Trustworthy,Untrustworthy","","null","","","","feedback","","<div class='respPicDiv'><img src='img/responseButtonOffersNo0_wht.png' class='respPic'></div><div class='trialDiv'><img src='Fruit/plums1.png'><br><font class='baseline'><strong>Plum Powerball</strong><p><strong><font class='negOutcome'>You LOST</font><p>You bet: 3</strong></font> &nbsp; &nbsp; &nbsp; &nbsp; &nbsp; &nbsp;<font class='negOutcome'>You receive: <strong>0</strong></font></div>","null","1","Plum Powerball","Fruit/plums1.png","Lost","0.2,0.65","8","0.2","11","3","",""
"html-keyboard-response","19","278990","0.0-11.0-1.3","63bda65b774a91e291c5b1a8","bdp_rwlrn","Sun Mar 12 2023 23:52:20 GMT-0400 (Eastern Daylight Time)","603434","Trustworthy,Untrustworthy","","1076","","","","decision","","<div class='trialDiv'><img src='Fruit/lime.png'><br><font class='baseline'><strong>Limin' Large</strong><p>Choose number of points to bet.</font><div class='respPicDiv'><img src='img/responseButtonOffersNo0L.png' class='respPic'></div></div>","4","2","Limin' Large","Fruit/lime.png","Won","0.8,0.35","11","0.8","16","4","",""
"html-keyboard-response","20","279248","0.0-11.0-2.3","63bda65b774a91e291c5b1a8","bdp_rwlrn","Sun Mar 12 2023 23:52:20 GMT-0400 (Eastern Daylight Time)","603434","Trustworthy,Untrustworthy","","null","","","","decisionFB","","<div class='trialDiv'><img src='Fruit/lime.png'><br><font class='baseline'><strong>Limin' Large</strong><p>Choose number of points to bet.</font><div class='respPicDiv'><img src='img/responseButtonOffersNo0L4.png' class='respPic'></div></div>","null","2","Limin' Large","Fruit/lime.png","Won","0.8,0.35","11","0.8","12","4","",""
"html-keyboard-response","21","280254","0.0-11.0-3.3","63bda65b774a91e291c5b1a8","bdp_rwlrn","Sun Mar 12 2023 23:52:20 GMT-0400 (Eastern Daylight Time)","603434","Trustworthy,Untrustworthy","","null","","","","feedback","","<div class='respPicDiv'><img src='img/responseButtonOffersNo0_wht.png' class='respPic'></div><div class='trialDiv'><img src='Fruit/lime.png'><br><font class='baseline'><strong>Limin' Large</strong><p><strong><font class='posOutcome'>You WON</font><p>You bet: 4</strong></font> &nbsp; &nbsp; &nbsp; &nbsp; &nbsp; &nbsp;<font class='posOutcome'>you receive: <strong>8</strong></font></div>","null","2","Limin' Large","Fruit/lime.png","Won","0.8,0.35","11","0.8","20","4","",""
"html-keyboard-response","22","285171","0.0-11.0-1.4","63bda65b774a91e291c5b1a8","bdp_rwlrn","Sun Mar 12 2023 23:52:20 GMT-0400 (Eastern Daylight Time)","603434","Trustworthy,Untrustworthy","","4916","","","","decision","","<div class='trialDiv'><img src='Fruit/plums1.png'><br><font class='baseline'><strong>Plum Powerball</strong><p>Choose number of points to bet.</font><div class='respPicDiv'><img src='img/responseButtonOffersNo0L.png' class='respPic'></div></div>","5","2","Plum Powerball","Fruit/plums1.png","Lost","0.2,0.65","8","0.2","25","5","",""
"html-keyboard-response","23","285431","0.0-11.0-2.4","63bda65b774a91e291c5b1a8","bdp_rwlrn","Sun Mar 12 2023 23:52:20 GMT-0400 (Eastern Daylight Time)","603434","Trustworthy,Untrustworthy","","null","","","","decisionFB","","<div class='trialDiv'><img src='Fruit/plums1.png'><br><font class='baseline'><strong>Plum Powerball</strong><p>Choose number of points to bet.</font><div class='respPicDiv'><img src='img/responseButtonOffersNo0L5.png' class='respPic'></div></div>","null","2","Plum Powerball","Fruit/plums1.png","Lost","0.2,0.65","8","0.2","20","5","",""
"html-keyboard-response","24","286438","0.0-11.0-3.4","63bda65b774a91e291c5b1a8","bdp_rwlrn","Sun Mar 12 2023 23:52:20 GMT-0400 (Eastern Daylight Time)","603434","Trustworthy,Untrustworthy","","null","","","","feedback","","<div class='respPicDiv'><img src='img/responseButtonOffersNo0_wht.png' class='respPic'></div><div class='trialDiv'><img src='Fruit/plums1.png'><br><font class='baseline'><strong>Plum Powerball</strong><p><strong><font class='negOutcome'>You LOST</font><p>You bet: 5</strong></font> &nbsp; &nbsp; &nbsp; &nbsp; &nbsp; &nbsp;<font class='negOutcome'>You receive: <strong>0</strong></font></div>","null","2","Plum Powerball","Fruit/plums1.png","Lost","0.2,0.65","8","0.2","20","5","",""
"html-keyboard-response","25","287132","0.0-11.0-1.5","63bda65b774a91e291c5b1a8","bdp_rwlrn","Sun Mar 12 2023 23:52:20 GMT-0400 (Eastern Daylight Time)","603434","Trustworthy,Untrustworthy","","693","","","","decision","","<div class='trialDiv'><img src='Fruit/watermelon.png'><br><font class='baseline'><strong>Watermelon Win$</strong><p>Choose number of points to bet.</font><div class='respPicDiv'><img src='img/responseButtonOffersNo0L.png' class='respPic'></div></div>","2","2","Watermelon Win$","Fruit/watermelon.png","Lost","0.2,0.8","14","0.2","25","6","",""
"html-keyboard-response","26","287388","0.0-11.0-2.5","63bda65b774a91e291c5b1a8","bdp_rwlrn","Sun Mar 12 2023 23:52:20 GMT-0400 (Eastern Daylight Time)","603434","Trustworthy,Untrustworthy","","null","","","","decisionFB","","<div class='trialDiv'><img src='Fruit/watermelon.png'><br><font class='baseline'><strong>Watermelon Win$</strong><p>Choose number of points to bet.</font><div class='respPicDiv'><img src='img/responseButtonOffersNo0L2.png' class='respPic'></div></div>","null","2","Watermelon Win$","Fruit/watermelon.png","Lost","0.2,0.8","14","0.2","23","6","",""
"html-keyboard-response","27","288399","0.0-11.0-3.5","63bda65b774a91e291c5b1a8","bdp_rwlrn","Sun Mar 12 2023 23:52:20 GMT-0400 (Eastern Daylight Time)","603434","Trustworthy,Untrustworthy","","null","","","","feedback","","<div class='respPicDiv'><img src='img/responseButtonOffersNo0_wht.png' class='respPic'></div><div class='trialDiv'><img src='Fruit/watermelon.png'><br><font class='baseline'><strong>Watermelon Win$</strong><p><strong><font class='negOutcome'>You LOST</font><p>You bet: 2</strong></font> &nbsp; &nbsp; &nbsp; &nbsp; &nbsp; &nbsp;<font class='negOutcome'>You receive: <strong>0</strong></font></div>","null","2","Watermelon Win$","Fruit/watermelon.png","Lost","0.2,0.8","14","0.2","23","6","",""
"html-keyboard-response","28","288985","0.0-11.0-1.6","63bda65b774a91e291c5b1a8","bdp_rwlrn","Sun Mar 12 2023 23:52:20 GMT-0400 (Eastern Daylight Time)","603434","Trustworthy,Untrustworthy","","585","","","","decision","","<div class='trialDiv'><img src='Fruit/lime.png'><br><font class='baseline'><strong>Limin' Large</strong><p>Choose number of points to bet.</font><div class='respPicDiv'><img src='img/responseButtonOffersNo0L.png' class='respPic'></div></div>","3","3","Limin' Large","Fruit/lime.png","Won","0.8,0.35","11","0.8","28","7","",""
"html-keyboard-response","29","289251","0.0-11.0-2.6","63bda65b774a91e291c5b1a8","bdp_rwlrn","Sun Mar 12 2023 23:52:20 GMT-0400 (Eastern Daylight Time)","603434","Trustworthy,Untrustworthy","","null","","","","decisionFB","","<div class='trialDiv'><img src='Fruit/lime.png'><br><font class='baseline'><strong>Limin' Large</strong><p>Choose number of points to bet.</font><div class='respPicDiv'><img src='img/responseButtonOffersNo0L3.png' class='respPic'></div></div>","null","3","Limin' Large","Fruit/lime.png","Won","0.8,0.35","11","0.8","25","7","",""
"html-keyboard-response","30","290264","0.0-11.0-3.6","63bda65b774a91e291c5b1a8","bdp_rwlrn","Sun Mar 12 2023 23:52:20 GMT-0400 (Eastern Daylight Time)","603434","Trustworthy,Untrustworthy","","null","","","","feedback","","<div class='respPicDiv'><img src='img/responseButtonOffersNo0_wht.png' class='respPic'></div><div class='trialDiv'><img src='Fruit/lime.png'><br><font class='baseline'><strong>Limin' Large</strong><p><strong><font class='posOutcome'>You WON</font><p>You bet: 3</strong></font> &nbsp; &nbsp; &nbsp; &nbsp; &nbsp; &nbsp;<font class='posOutcome'>you receive: <strong>6</strong></font></div>","null","3","Limin' Large","Fruit/lime.png","Won","0.8,0.35","11","0.8","31","7","",""
"html-keyboard-response","31","291695","0.0-11.0-1.7","63bda65b774a91e291c5b1a8","bdp_rwlrn","Sun Mar 12 2023 23:52:20 GMT-0400 (Eastern Daylight Time)","603434","Trustworthy,Untrustworthy","","1430","","","","decision","","<div class='trialDiv'><img src='Fruit/watermelon.png'><br><font class='baseline'><strong>Watermelon Win$</strong><p>Choose number of points to bet.</font><div class='respPicDiv'><img src='img/responseButtonOffersNo0L.png' class='respPic'></div></div>","4","3","Watermelon Win$","Fruit/watermelon.png","Lost","0.2,0.8","14","0.2","36","8","",""
"html-keyboard-response","32","291956","0.0-11.0-2.7","63bda65b774a91e291c5b1a8","bdp_rwlrn","Sun Mar 12 2023 23:52:20 GMT-0400 (Eastern Daylight Time)","603434","Trustworthy,Untrustworthy","","null","","","","decisionFB","","<div class='trialDiv'><img src='Fruit/watermelon.png'><br><font class='baseline'><strong>Watermelon Win$</strong><p>Choose number of points to bet.</font><div class='respPicDiv'><img src='img/responseButtonOffersNo0L4.png' class='respPic'></div></div>","null","3","Watermelon Win$","Fruit/watermelon.png","Lost","0.2,0.8","14","0.2","32","8","",""
"html-keyboard-response","33","292971","0.0-11.0-3.7","63bda65b774a91e291c5b1a8","bdp_rwlrn","Sun Mar 12 2023 23:52:20 GMT-0400 (Eastern Daylight Time)","603434","Trustworthy,Untrustworthy","","null","","","","feedback","","<div class='respPicDiv'><img src='img/responseButtonOffersNo0_wht.png' class='respPic'></div><div class='trialDiv'><img src='Fruit/watermelon.png'><br><font class='baseline'><strong>Watermelon Win$</strong><p><strong><font class='negOutcome'>You LOST</font><p>You bet: 4</strong></font> &nbsp; &nbsp; &nbsp; &nbsp; &nbsp; &nbsp;<font class='negOutcome'>You receive: <strong>0</strong></font></div>","null","3","Watermelon Win$","Fruit/watermelon.png","Lost","0.2,0.8","14","0.2","32","8","",""
"html-keyboard-response","34","294425","0.0-11.0-1.8","63bda65b774a91e291c5b1a8","bdp_rwlrn","Sun Mar 12 2023 23:52:20 GMT-0400 (Eastern Daylight Time)","603434","Trustworthy,Untrustworthy","","1453","","","","decision","","<div class='trialDiv'><img src='Fruit/plums1.png'><br><font class='baseline'><strong>Plum Powerball</strong><p>Choose number of points to bet.</font><div class='respPicDiv'><img src='img/responseButtonOffersNo0L.png' class='respPic'></div></div>","4","3","Plum Powerball","Fruit/plums1.png","Won","0.2,0.65","8","0.2","37","9","",""
"html-keyboard-response","35","294689","0.0-11.0-2.8","63bda65b774a91e291c5b1a8","bdp_rwlrn","Sun Mar 12 2023 23:52:20 GMT-0400 (Eastern Daylight Time)","603434","Trustworthy,Untrustworthy","","null","","","","decisionFB","","<div class='trialDiv'><img src='Fruit/plums1.png'><br><font class='baseline'><strong>Plum Powerball</strong><p>Choose number of points to bet.</font><div class='respPicDiv'><img src='img/responseButtonOffersNo0L4.png' class='respPic'></div></div>","null","3","Plum Powerball","Fruit/plums1.png","Won","0.2,0.65","8","0.2","33","9","",""
"html-keyboard-response","36","295693","0.0-11.0-3.8","63bda65b774a91e291c5b1a8","bdp_rwlrn","Sun Mar 12 2023 23:52:20 GMT-0400 (Eastern Daylight Time)","603434","Trustworthy,Untrustworthy","","null","","","","feedback","","<div class='respPicDiv'><img src='img/responseButtonOffersNo0_wht.png' class='respPic'></div><div class='trialDiv'><img src='Fruit/plums1.png'><br><font class='baseline'><strong>Plum Powerball</strong><p><strong><font class='posOutcome'>You WON</font><p>You bet: 4</strong></font> &nbsp; &nbsp; &nbsp; &nbsp; &nbsp; &nbsp;<font class='posOutcome'>you receive: <strong>8</strong></font></div>","null","3","Plum Powerball","Fruit/plums1.png","Won","0.2,0.65","8","0.2","41","9","",""
"html-keyboard-response","37","296616","0.0-11.0-1.9","63bda65b774a91e291c5b1a8","bdp_rwlrn","Sun Mar 12 2023 23:52:20 GMT-0400 (Eastern Daylight Time)","603434","Trustworthy,Untrustworthy","","921","","","","decision","","<div class='trialDiv'><img src='Fruit/lime.png'><br><font class='baseline'><strong>Limin' Large</strong><p>Choose number of points to bet.</font><div class='respPicDiv'><img src='img/responseButtonOffersNo0L.png' class='respPic'></div></div>","5","4","Limin' Large","Fruit/lime.png","Won","0.8,0.35","11","0.8","46","10","",""
"html-keyboard-response","38","296876","0.0-11.0-2.9","63bda65b774a91e291c5b1a8","bdp_rwlrn","Sun Mar 12 2023 23:52:20 GMT-0400 (Eastern Daylight Time)","603434","Trustworthy,Untrustworthy","","null","","","","decisionFB","","<div class='trialDiv'><img src='Fruit/lime.png'><br><font class='baseline'><strong>Limin' Large</strong><p>Choose number of points to bet.</font><div class='respPicDiv'><img src='img/responseButtonOffersNo0L5.png' class='respPic'></div></div>","null","4","Limin' Large","Fruit/lime.png","Won","0.8,0.35","11","0.8","41","10","",""
"html-keyboard-response","39","297889","0.0-11.0-3.9","63bda65b774a91e291c5b1a8","bdp_rwlrn","Sun Mar 12 2023 23:52:20 GMT-0400 (Eastern Daylight Time)","603434","Trustworthy,Untrustworthy","","null","","","","feedback","","<div class='respPicDiv'><img src='img/responseButtonOffersNo0_wht.png' class='respPic'></div><div class='trialDiv'><img src='Fruit/lime.png'><br><font class='baseline'><strong>Limin' Large</strong><p><strong><font class='posOutcome'>You WON</font><p>You bet: 5</strong></font> &nbsp; &nbsp; &nbsp; &nbsp; &nbsp; &nbsp;<font class='posOutcome'>you receive: <strong>10</strong></font></div>","null","4","Limin' Large","Fruit/lime.png","Won","0.8,0.35","11","0.8","51","10","",""
"html-keyboard-response","40","298873","0.0-11.0-1.10","63bda65b774a91e291c5b1a8","bdp_rwlrn","Sun Mar 12 2023 23:52:20 GMT-0400 (Eastern Daylight Time)","603434","Trustworthy,Untrustworthy","","982","","","","decision","","<div class='trialDiv'><img src='Fruit/plums1.png'><br><font class='baseline'><strong>Plum Powerball</strong><p>Choose number of points to bet.</font><div class='respPicDiv'><img src='img/responseButtonOffersNo0L.png' class='respPic'></div></div>","2","4","Plum Powerball","Fruit/plums1.png","Lost","0.2,0.65","8","0.2","56","11","",""
"html-keyboard-response","41","299130","0.0-11.0-2.10","63bda65b774a91e291c5b1a8","bdp_rwlrn","Sun Mar 12 2023 23:52:20 GMT-0400 (Eastern Daylight Time)","603434","Trustworthy,Untrustworthy","","null","","","","decisionFB","","<div class='trialDiv'><img src='Fruit/plums1.png'><br><font class='baseline'><strong>Plum Powerball</strong><p>Choose number of points to bet.</font><div class='respPicDiv'><img src='img/responseButtonOffersNo0L2.png' class='respPic'></div></div>","null","4","Plum Powerball","Fruit/plums1.png","Lost","0.2,0.65","8","0.2","54","11","",""
"html-keyboard-response","42","300147","0.0-11.0-3.10","63bda65b774a91e291c5b1a8","bdp_rwlrn","Sun Mar 12 2023 23:52:20 GMT-0400 (Eastern Daylight Time)","603434","Trustworthy,Untrustworthy","","null","","","","feedback","","<div class='respPicDiv'><img src='img/responseButtonOffersNo0_wht.png' class='respPic'></div><div class='trialDiv'><img src='Fruit/plums1.png'><br><font class='baseline'><strong>Plum Powerball</strong><p><strong><font class='negOutcome'>You LOST</font><p>You bet: 2</strong></font> &nbsp; &nbsp; &nbsp; &nbsp; &nbsp; &nbsp;<font class='negOutcome'>You receive: <strong>0</strong></font></div>","null","4","Plum Powerball","Fruit/plums1.png","Lost","0.2,0.65","8","0.2","54","11","",""
"html-keyboard-response","43","301070","0.0-11.0-1.11","63bda65b774a91e291c5b1a8","bdp_rwlrn","Sun Mar 12 2023 23:52:20 GMT-0400 (Eastern Daylight Time)","603434","Trustworthy,Untrustworthy","","922","","","","decision","","<div class='trialDiv'><img src='Fruit/watermelon.png'><br><font class='baseline'><strong>Watermelon Win$</strong><p>Choose number of points to bet.</font><div class='respPicDiv'><img src='img/responseButtonOffersNo0L.png' class='respPic'></div></div>","5","4","Watermelon Win$","Fruit/watermelon.png","Won","0.2,0.8","14","0.2","59","12","",""
"html-keyboard-response","44","301329","0.0-11.0-2.11","63bda65b774a91e291c5b1a8","bdp_rwlrn","Sun Mar 12 2023 23:52:20 GMT-0400 (Eastern Daylight Time)","603434","Trustworthy,Untrustworthy","","null","","","","decisionFB","","<div class='trialDiv'><img src='Fruit/watermelon.png'><br><font class='baseline'><strong>Watermelon Win$</strong><p>Choose number of points to bet.</font><div class='respPicDiv'><img src='img/responseButtonOffersNo0L5.png' class='respPic'></div></div>","null","4","Watermelon Win$","Fruit/watermelon.png","Won","0.2,0.8","14","0.2","54","12","",""
"html-keyboard-response","45","302339","0.0-11.0-3.11","63bda65b774a91e291c5b1a8","bdp_rwlrn","Sun Mar 12 2023 23:52:20 GMT-0400 (Eastern Daylight Time)","603434","Trustworthy,Untrustworthy","","null","","","","feedback","","<div class='respPicDiv'><img src='img/responseButtonOffersNo0_wht.png' class='respPic'></div><div class='trialDiv'><img src='Fruit/watermelon.png'><br><font class='baseline'><strong>Watermelon Win$</strong><p><strong><font class='posOutcome'>You WON</font><p>You bet: 5</strong></font> &nbsp; &nbsp; &nbsp; &nbsp; &nbsp; &nbsp;<font class='posOutcome'>you receive: <strong>10</strong></font></div>","null","4","Watermelon Win$","Fruit/watermelon.png","Won","0.2,0.8","14","0.2","64","12","",""
"html-keyboard-response","46","303537","0.0-11.0-1.12","63bda65b774a91e291c5b1a8","bdp_rwlrn","Sun Mar 12 2023 23:52:20 GMT-0400 (Eastern Daylight Time)","603434","Trustworthy,Untrustworthy","","1197","","","","decision","","<div class='trialDiv'><img src='Fruit/plums1.png'><br><font class='baseline'><strong>Plum Powerball</strong><p>Choose number of points to bet.</font><div class='respPicDiv'><img src='img/responseButtonOffersNo0L.png' class='respPic'></div></div>","4","5","Plum Powerball","Fruit/plums1.png","Won","0.2,0.65","8","0.2","69","13","",""
"html-keyboard-response","47","303799","0.0-11.0-2.12","63bda65b774a91e291c5b1a8","bdp_rwlrn","Sun Mar 12 2023 23:52:20 GMT-0400 (Eastern Daylight Time)","603434","Trustworthy,Untrustworthy","","null","","","","decisionFB","","<div class='trialDiv'><img src='Fruit/plums1.png'><br><font class='baseline'><strong>Plum Powerball</strong><p>Choose number of points to bet.</font><div class='respPicDiv'><img src='img/responseButtonOffersNo0L4.png' class='respPic'></div></div>","null","5","Plum Powerball","Fruit/plums1.png","Won","0.2,0.65","8","0.2","65","13","",""
"html-keyboard-response","48","304805","0.0-11.0-3.12","63bda65b774a91e291c5b1a8","bdp_rwlrn","Sun Mar 12 2023 23:52:20 GMT-0400 (Eastern Daylight Time)","603434","Trustworthy,Untrustworthy","","null","","","","feedback","","<div class='respPicDiv'><img src='img/responseButtonOffersNo0_wht.png' class='respPic'></div><div class='trialDiv'><img src='Fruit/plums1.png'><br><font class='baseline'><strong>Plum Powerball</strong><p><strong><font class='posOutcome'>You WON</font><p>You bet: 4</strong></font> &nbsp; &nbsp; &nbsp; &nbsp; &nbsp; &nbsp;<font class='posOutcome'>you receive: <strong>8</strong></font></div>","null","5","Plum Powerball","Fruit/plums1.png","Won","0.2,0.65","8","0.2","73","13","",""
"html-keyboard-response","49","306065","0.0-11.0-1.13","63bda65b774a91e291c5b1a8","bdp_rwlrn","Sun Mar 12 2023 23:52:20 GMT-0400 (Eastern Daylight Time)","603434","Trustworthy,Untrustworthy","","1259","","","","decision","","<div class='trialDiv'><img src='Fruit/lime.png'><br><font class='baseline'><strong>Limin' Large</strong><p>Choose number of points to bet.</font><div class='respPicDiv'><img src='img/responseButtonOffersNo0L.png' class='respPic'></div></div>","1","5","Limin' Large","Fruit/lime.png","Won","0.8,0.35","11","0.8","78","14","",""
"html-keyboard-response","50","306320","0.0-11.0-2.13","63bda65b774a91e291c5b1a8","bdp_rwlrn","Sun Mar 12 2023 23:52:20 GMT-0400 (Eastern Daylight Time)","603434","Trustworthy,Untrustworthy","","null","","","","decisionFB","","<div class='trialDiv'><img src='Fruit/lime.png'><br><font class='baseline'><strong>Limin' Large</strong><p>Choose number of points to bet.</font><div class='respPicDiv'><img src='img/responseButtonOffersNo0L1.png' class='respPic'></div></div>","null","5","Limin' Large","Fruit/lime.png","Won","0.8,0.35","11","0.8","77","14","",""
"html-keyboard-response","51","307323","0.0-11.0-3.13","63bda65b774a91e291c5b1a8","bdp_rwlrn","Sun Mar 12 2023 23:52:20 GMT-0400 (Eastern Daylight Time)","603434","Trustworthy,Untrustworthy","","null","","","","feedback","","<div class='respPicDiv'><img src='img/responseButtonOffersNo0_wht.png' class='respPic'></div><div class='trialDiv'><img src='Fruit/lime.png'><br><font class='baseline'><strong>Limin' Large</strong><p><strong><font class='posOutcome'>You WON</font><p>You bet: 1</strong></font> &nbsp; &nbsp; &nbsp; &nbsp; &nbsp; &nbsp;<font class='posOutcome'>you receive: <strong>2</strong></font></div>","null","5","Limin' Large","Fruit/lime.png","Won","0.8,0.35","11","0.8","79","14","",""
"html-keyboard-response","52","308103","0.0-11.0-1.14","63bda65b774a91e291c5b1a8","bdp_rwlrn","Sun Mar 12 2023 23:52:20 GMT-0400 (Eastern Daylight Time)","603434","Trustworthy,Untrustworthy","","779","","","","decision","","<div class='trialDiv'><img src='Fruit/watermelon.png'><br><font class='baseline'><strong>Watermelon Win$</strong><p>Choose number of points to bet.</font><div class='respPicDiv'><img src='img/responseButtonOffersNo0L.png' class='respPic'></div></div>","5","5","Watermelon Win$","Fruit/watermelon.png","Lost","0.2,0.8","14","0.2","84","15","",""
"html-keyboard-response","53","308369","0.0-11.0-2.14","63bda65b774a91e291c5b1a8","bdp_rwlrn","Sun Mar 12 2023 23:52:20 GMT-0400 (Eastern Daylight Time)","603434","Trustworthy,Untrustworthy","","null","","","","decisionFB","","<div class='trialDiv'><img src='Fruit/watermelon.png'><br><font class='baseline'><strong>Watermelon Win$</strong><p>Choose number of points to bet.</font><div class='respPicDiv'><img src='img/responseButtonOffersNo0L5.png' class='respPic'></div></div>","null","5","Watermelon Win$","Fruit/watermelon.png","Lost","0.2,0.8","14","0.2","79","15","",""
"html-keyboard-response","54","309378","0.0-11.0-3.14","63bda65b774a91e291c5b1a8","bdp_rwlrn","Sun Mar 12 2023 23:52:20 GMT-0400 (Eastern Daylight Time)","603434","Trustworthy,Untrustworthy","","null","","","","feedback","","<div class='respPicDiv'><img src='img/responseButtonOffersNo0_wht.png' class='respPic'></div><div class='trialDiv'><img src='Fruit/watermelon.png'><br><font class='baseline'><strong>Watermelon Win$</strong><p><strong><font class='negOutcome'>You LOST</font><p>You bet: 5</strong></font> &nbsp; &nbsp; &nbsp; &nbsp; &nbsp; &nbsp;<font class='negOutcome'>You receive: <strong>0</strong></font></div>","null","5","Watermelon Win$","Fruit/watermelon.png","Lost","0.2,0.8","14","0.2","79","15","",""
"html-keyboard-response","55","310594","0.0-11.0-1.15","63bda65b774a91e291c5b1a8","bdp_rwlrn","Sun Mar 12 2023 23:52:20 GMT-0400 (Eastern Daylight Time)","603434","Trustworthy,Untrustworthy","","1215","","","","decision","","<div class='trialDiv'><img src='Fruit/lime.png'><br><font class='baseline'><strong>Limin' Large</strong><p>Choose number of points to bet.</font><div class='respPicDiv'><img src='img/responseButtonOffersNo0L.png' class='respPic'></div></div>","3","6","Limin' Large","Fruit/lime.png","Won","0.8,0.35","11","0.8","84","16","",""
"html-keyboard-response","56","310856","0.0-11.0-2.15","63bda65b774a91e291c5b1a8","bdp_rwlrn","Sun Mar 12 2023 23:52:20 GMT-0400 (Eastern Daylight Time)","603434","Trustworthy,Untrustworthy","","null","","","","decisionFB","","<div class='trialDiv'><img src='Fruit/lime.png'><br><font class='baseline'><strong>Limin' Large</strong><p>Choose number of points to bet.</font><div class='respPicDiv'><img src='img/responseButtonOffersNo0L3.png' class='respPic'></div></div>","null","6","Limin' Large","Fruit/lime.png","Won","0.8,0.35","11","0.8","81","16","",""
"html-keyboard-response","57","311868","0.0-11.0-3.15","63bda65b774a91e291c5b1a8","bdp_rwlrn","Sun Mar 12 2023 23:52:20 GMT-0400 (Eastern Daylight Time)","603434","Trustworthy,Untrustworthy","","null","","","","feedback","","<div class='respPicDiv'><img src='img/responseButtonOffersNo0_wht.png' class='respPic'></div><div class='trialDiv'><img src='Fruit/lime.png'><br><font class='baseline'><strong>Limin' Large</strong><p><strong><font class='posOutcome'>You WON</font><p>You bet: 3</strong></font> &nbsp; &nbsp; &nbsp; &nbsp; &nbsp; &nbsp;<font class='posOutcome'>you receive: <strong>6</strong></font></div>","null","6","Limin' Large","Fruit/lime.png","Won","0.8,0.35","11","0.8","87","16","",""
"html-keyboard-response","58","312830","0.0-11.0-1.16","63bda65b774a91e291c5b1a8","bdp_rwlrn","Sun Mar 12 2023 23:52:20 GMT-0400 (Eastern Daylight Time)","603434","Trustworthy,Untrustworthy","","961","","","","decision","","<div class='trialDiv'><img src='Fruit/plums1.png'><br><font class='baseline'><strong>Plum Powerball</strong><p>Choose number of points to bet.</font><div class='respPicDiv'><img src='img/responseButtonOffersNo0L.png' class='respPic'></div></div>","2","6","Plum Powerball","Fruit/plums1.png","Won","0.2,0.65","8","0.2","92","17","",""
"html-keyboard-response","59","313091","0.0-11.0-2.16","63bda65b774a91e291c5b1a8","bdp_rwlrn","Sun Mar 12 2023 23:52:20 GMT-0400 (Eastern Daylight Time)","603434","Trustworthy,Untrustworthy","","null","","","","decisionFB","","<div class='trialDiv'><img src='Fruit/plums1.png'><br><font class='baseline'><strong>Plum Powerball</strong><p>Choose number of points to bet.</font><div class='respPicDiv'><img src='img/responseButtonOffersNo0L2.png' class='respPic'></div></div>","null","6","Plum Powerball","Fruit/plums1.png","Won","0.2,0.65","8","0.2","90","17","",""
"html-keyboard-response","60","314097","0.0-11.0-3.16","63bda65b774a91e291c5b1a8","bdp_rwlrn","Sun Mar 12 2023 23:52:20 GMT-0400 (Eastern Daylight Time)","603434","Trustworthy,Untrustworthy","","null","","","","feedback","","<div class='respPicDiv'><img src='img/responseButtonOffersNo0_wht.png' class='respPic'></div><div class='trialDiv'><img src='Fruit/plums1.png'><br><font class='baseline'><strong>Plum Powerball</strong><p><strong><font class='posOutcome'>You WON</font><p>You bet: 2</strong></font> &nbsp; &nbsp; &nbsp; &nbsp; &nbsp; &nbsp;<font class='posOutcome'>you receive: <strong>4</strong></font></div>","null","6","Plum Powerball","Fruit/plums1.png","Won","0.2,0.65","8","0.2","94","17","",""
"html-keyboard-response","61","315491","0.0-11.0-1.17","63bda65b774a91e291c5b1a8","bdp_rwlrn","Sun Mar 12 2023 23:52:20 GMT-0400 (Eastern Daylight Time)","603434","Trustworthy,Untrustworthy","","1393","","","","decision","","<div class='trialDiv'><img src='Fruit/watermelon.png'><br><font class='baseline'><strong>Watermelon Win$</strong><p>Choose number of points to bet.</font><div class='respPicDiv'><img src='img/responseButtonOffersNo0L.png' class='respPic'></div></div>","3","6","Watermelon Win$","Fruit/watermelon.png","Lost","0.2,0.8","14","0.2","99","18","",""
"html-keyboard-response","62","315745","0.0-11.0-2.17","63bda65b774a91e291c5b1a8","bdp_rwlrn","Sun Mar 12 2023 23:52:20 GMT-0400 (Eastern Daylight Time)","603434","Trustworthy,Untrustworthy","","null","","","","decisionFB","","<div class='trialDiv'><img src='Fruit/watermelon.png'><br><font class='baseline'><strong>Watermelon Win$</strong><p>Choose number of points to bet.</font><div class='respPicDiv'><img src='img/responseButtonOffersNo0L3.png' class='respPic'></div></div>","null","6","Watermelon Win$","Fruit/watermelon.png","Lost","0.2,0.8","14","0.2","96","18","",""
"html-keyboard-response","63","316747","0.0-11.0-3.17","63bda65b774a91e291c5b1a8","bdp_rwlrn","Sun Mar 12 2023 23:52:20 GMT-0400 (Eastern Daylight Time)","603434","Trustworthy,Untrustworthy","","null","","","","feedback","","<div class='respPicDiv'><img src='img/responseButtonOffersNo0_wht.png' class='respPic'></div><div class='trialDiv'><img src='Fruit/watermelon.png'><br><font class='baseline'><strong>Watermelon Win$</strong><p><strong><font class='negOutcome'>You LOST</font><p>You bet: 3</strong></font> &nbsp; &nbsp; &nbsp; &nbsp; &nbsp; &nbsp;<font class='negOutcome'>You receive: <strong>0</strong></font></div>","null","6","Watermelon Win$","Fruit/watermelon.png","Lost","0.2,0.8","14","0.2","96","18","",""
"html-keyboard-response","64","317750","0.0-11.0-1.18","63bda65b774a91e291c5b1a8","bdp_rwlrn","Sun Mar 12 2023 23:52:20 GMT-0400 (Eastern Daylight Time)","603434","Trustworthy,Untrustworthy","","1001","","","","decision","","<div class='trialDiv'><img src='Fruit/lime.png'><br><font class='baseline'><strong>Limin' Large</strong><p>Choose number of points to bet.</font><div class='respPicDiv'><img src='img/responseButtonOffersNo0L.png' class='respPic'></div></div>","2","7","Limin' Large","Fruit/lime.png","Won","0.8,0.35","11","0.8","101","19","",""
"html-keyboard-response","65","318012","0.0-11.0-2.18","63bda65b774a91e291c5b1a8","bdp_rwlrn","Sun Mar 12 2023 23:52:20 GMT-0400 (Eastern Daylight Time)","603434","Trustworthy,Untrustworthy","","null","","","","decisionFB","","<div class='trialDiv'><img src='Fruit/lime.png'><br><font class='baseline'><strong>Limin' Large</strong><p>Choose number of points to bet.</font><div class='respPicDiv'><img src='img/responseButtonOffersNo0L2.png' class='respPic'></div></div>","null","7","Limin' Large","Fruit/lime.png","Won","0.8,0.35","11","0.8","99","19","",""
"html-keyboard-response","66","319027","0.0-11.0-3.18","63bda65b774a91e291c5b1a8","bdp_rwlrn","Sun Mar 12 2023 23:52:20 GMT-0400 (Eastern Daylight Time)","603434","Trustworthy,Untrustworthy","","null","","","","feedback","","<div class='respPicDiv'><img src='img/responseButtonOffersNo0_wht.png' class='respPic'></div><div class='trialDiv'><img src='Fruit/lime.png'><br><font class='baseline'><strong>Limin' Large</strong><p><strong><font class='posOutcome'>You WON</font><p>You bet: 2</strong></font> &nbsp; &nbsp; &nbsp; &nbsp; &nbsp; &nbsp;<font class='posOutcome'>you receive: <strong>4</strong></font></div>","null","7","Limin' Large","Fruit/lime.png","Won","0.8,0.35","11","0.8","103","19","",""
"html-keyboard-response","67","319705","0.0-11.0-1.19","63bda65b774a91e291c5b1a8","bdp_rwlrn","Sun Mar 12 2023 23:52:20 GMT-0400 (Eastern Daylight Time)","603434","Trustworthy,Untrustworthy","","677","","","","decision","","<div class='trialDiv'><img src='Fruit/watermelon.png'><br><font class='baseline'><strong>Watermelon Win$</strong><p>Choose number of points to bet.</font><div class='respPicDiv'><img src='img/responseButtonOffersNo0L.png' class='respPic'></div></div>","3","7","Watermelon Win$","Fruit/watermelon.png","Lost","0.2,0.8","14","0.2","108","20","",""
"html-keyboard-response","68","319965","0.0-11.0-2.19","63bda65b774a91e291c5b1a8","bdp_rwlrn","Sun Mar 12 2023 23:52:20 GMT-0400 (Eastern Daylight Time)","603434","Trustworthy,Untrustworthy","","null","","","","decisionFB","","<div class='trialDiv'><img src='Fruit/watermelon.png'><br><font class='baseline'><strong>Watermelon Win$</strong><p>Choose number of points to bet.</font><div class='respPicDiv'><img src='img/responseButtonOffersNo0L3.png' class='respPic'></div></div>","null","7","Watermelon Win$","Fruit/watermelon.png","Lost","0.2,0.8","14","0.2","105","20","",""
"html-keyboard-response","69","320967","0.0-11.0-3.19","63bda65b774a91e291c5b1a8","bdp_rwlrn","Sun Mar 12 2023 23:52:20 GMT-0400 (Eastern Daylight Time)","603434","Trustworthy,Untrustworthy","","null","","","","feedback","","<div class='respPicDiv'><img src='img/responseButtonOffersNo0_wht.png' class='respPic'></div><div class='trialDiv'><img src='Fruit/watermelon.png'><br><font class='baseline'><strong>Watermelon Win$</strong><p><strong><font class='negOutcome'>You LOST</font><p>You bet: 3</strong></font> &nbsp; &nbsp; &nbsp; &nbsp; &nbsp; &nbsp;<font class='negOutcome'>You receive: <strong>0</strong></font></div>","null","7","Watermelon Win$","Fruit/watermelon.png","Lost","0.2,0.8","14","0.2","105","20","",""
"html-keyboard-response","70","322295","0.0-11.0-1.20","63bda65b774a91e291c5b1a8","bdp_rwlrn","Sun Mar 12 2023 23:52:20 GMT-0400 (Eastern Daylight Time)","603434","Trustworthy,Untrustworthy","","1327","","","","decision","","<div class='trialDiv'><img src='Fruit/plums1.png'><br><font class='baseline'><strong>Plum Powerball</strong><p>Choose number of points to bet.</font><div class='respPicDiv'><img src='img/responseButtonOffersNo0L.png' class='respPic'></div></div>","4","7","Plum Powerball","Fruit/plums1.png","Won","0.2,0.65","8","0.2","110","21","",""
"html-keyboard-response","71","322554","0.0-11.0-2.20","63bda65b774a91e291c5b1a8","bdp_rwlrn","Sun Mar 12 2023 23:52:20 GMT-0400 (Eastern Daylight Time)","603434","Trustworthy,Untrustworthy","","null","","","","decisionFB","","<div class='trialDiv'><img src='Fruit/plums1.png'><br><font class='baseline'><strong>Plum Powerball</strong><p>Choose number of points to bet.</font><div class='respPicDiv'><img src='img/responseButtonOffersNo0L4.png' class='respPic'></div></div>","null","7","Plum Powerball","Fruit/plums1.png","Won","0.2,0.65","8","0.2","106","21","",""
"html-keyboard-response","72","323566","0.0-11.0-3.20","63bda65b774a91e291c5b1a8","bdp_rwlrn","Sun Mar 12 2023 23:52:20 GMT-0400 (Eastern Daylight Time)","603434","Trustworthy,Untrustworthy","","null","","","","feedback","","<div class='respPicDiv'><img src='img/responseButtonOffersNo0_wht.png' class='respPic'></div><div class='trialDiv'><img src='Fruit/plums1.png'><br><font class='baseline'><strong>Plum Powerball</strong><p><strong><font class='posOutcome'>You WON</font><p>You bet: 4</strong></font> &nbsp; &nbsp; &nbsp; &nbsp; &nbsp; &nbsp;<font class='posOutcome'>you receive: <strong>8</strong></font></div>","null","7","Plum Powerball","Fruit/plums1.png","Won","0.2,0.65","8","0.2","114","21","",""
"html-keyboard-response","73","324493","0.0-11.0-1.21","63bda65b774a91e291c5b1a8","bdp_rwlrn","Sun Mar 12 2023 23:52:20 GMT-0400 (Eastern Daylight Time)","603434","Trustworthy,Untrustworthy","","926","","","","decision","","<div class='trialDiv'><img src='Fruit/lime.png'><br><font class='baseline'><strong>Limin' Large</strong><p>Choose number of points to bet.</font><div class='respPicDiv'><img src='img/responseButtonOffersNo0L.png' class='respPic'></div></div>","1","8","Limin' Large","Fruit/lime.png","Lost","0.8,0.35","11","0.8","119","22","",""
"html-keyboard-response","74","324753","0.0-11.0-2.21","63bda65b774a91e291c5b1a8","bdp_rwlrn","Sun Mar 12 2023 23:52:20 GMT-0400 (Eastern Daylight Time)","603434","Trustworthy,Untrustworthy","","null","","","","decisionFB","","<div class='trialDiv'><img src='Fruit/lime.png'><br><font class='baseline'><strong>Limin' Large</strong><p>Choose number of points to bet.</font><div class='respPicDiv'><img src='img/responseButtonOffersNo0L1.png' class='respPic'></div></div>","null","8","Limin' Large","Fruit/lime.png","Lost","0.8,0.35","11","0.8","118","22","",""
"html-keyboard-response","75","325767","0.0-11.0-3.21","63bda65b774a91e291c5b1a8","bdp_rwlrn","Sun Mar 12 2023 23:52:20 GMT-0400 (Eastern Daylight Time)","603434","Trustworthy,Untrustworthy","","null","","","","feedback","","<div class='respPicDiv'><img src='img/responseButtonOffersNo0_wht.png' class='respPic'></div><div class='trialDiv'><img src='Fruit/lime.png'><br><font class='baseline'><strong>Limin' Large</strong><p><strong><font class='negOutcome'>You LOST</font><p>You bet: 1</strong></font> &nbsp; &nbsp; &nbsp; &nbsp; &nbsp; &nbsp;<font class='negOutcome'>You receive: <strong>0</strong></font></div>","null","8","Limin' Large","Fruit/lime.png","Lost","0.8,0.35","11","0.8","118","22","",""
"html-keyboard-response","76","327343","0.0-11.0-1.22","63bda65b774a91e291c5b1a8","bdp_rwlrn","Sun Mar 12 2023 23:52:20 GMT-0400 (Eastern Daylight Time)","603434","Trustworthy,Untrustworthy","","1574","","","","decision","","<div class='trialDiv'><img src='Fruit/plums1.png'><br><font class='baseline'><strong>Plum Powerball</strong><p>Choose number of points to bet.</font><div class='respPicDiv'><img src='img/responseButtonOffersNo0L.png' class='respPic'></div></div>","3","8","Plum Powerball","Fruit/plums1.png","Lost","0.2,0.65","8","0.2","123","23","",""
"html-keyboard-response","77","327606","0.0-11.0-2.22","63bda65b774a91e291c5b1a8","bdp_rwlrn","Sun Mar 12 2023 23:52:20 GMT-0400 (Eastern Daylight Time)","603434","Trustworthy,Untrustworthy","","null","","","","decisionFB","","<div class='trialDiv'><img src='Fruit/plums1.png'><br><font class='baseline'><strong>Plum Powerball</strong><p>Choose number of points to bet.</font><div class='respPicDiv'><img src='img/responseButtonOffersNo0L3.png' class='respPic'></div></div>","null","8","Plum Powerball","Fruit/plums1.png","Lost","0.2,0.65","8","0.2","120","23","",""
"html-keyboard-response","78","328622","0.0-11.0-3.22","63bda65b774a91e291c5b1a8","bdp_rwlrn","Sun Mar 12 2023 23:52:20 GMT-0400 (Eastern Daylight Time)","603434","Trustworthy,Untrustworthy","","null","","","","feedback","","<div class='respPicDiv'><img src='img/responseButtonOffersNo0_wht.png' class='respPic'></div><div class='trialDiv'><img src='Fruit/plums1.png'><br><font class='baseline'><strong>Plum Powerball</strong><p><strong><font class='negOutcome'>You LOST</font><p>You bet: 3</strong></font> &nbsp; &nbsp; &nbsp; &nbsp; &nbsp; &nbsp;<font class='negOutcome'>You receive: <strong>0</strong></font></div>","null","8","Plum Powerball","Fruit/plums1.png","Lost","0.2,0.65","8","0.2","120","23","",""
"html-keyboard-response","79","329660","0.0-11.0-1.23","63bda65b774a91e291c5b1a8","bdp_rwlrn","Sun Mar 12 2023 23:52:20 GMT-0400 (Eastern Daylight Time)","603434","Trustworthy,Untrustworthy","","1036","","","","decision","","<div class='trialDiv'><img src='Fruit/watermelon.png'><br><font class='baseline'><strong>Watermelon Win$</strong><p>Choose number of points to bet.</font><div class='respPicDiv'><img src='img/responseButtonOffersNo0L.png' class='respPic'></div></div>","5","8","Watermelon Win$","Fruit/watermelon.png","Lost","0.2,0.8","14","0.2","125","24","",""
"html-keyboard-response","80","329912","0.0-11.0-2.23","63bda65b774a91e291c5b1a8","bdp_rwlrn","Sun Mar 12 2023 23:52:20 GMT-0400 (Eastern Daylight Time)","603434","Trustworthy,Untrustworthy","","null","","","","decisionFB","","<div class='trialDiv'><img src='Fruit/watermelon.png'><br><font class='baseline'><strong>Watermelon Win$</strong><p>Choose number of points to bet.</font><div class='respPicDiv'><img src='img/responseButtonOffersNo0L5.png' class='respPic'></div></div>","null","8","Watermelon Win$","Fruit/watermelon.png","Lost","0.2,0.8","14","0.2","120","24","",""
"html-keyboard-response","81","330927","0.0-11.0-3.23","63bda65b774a91e291c5b1a8","bdp_rwlrn","Sun Mar 12 2023 23:52:20 GMT-0400 (Eastern Daylight Time)","603434","Trustworthy,Untrustworthy","","null","","","","feedback","","<div class='respPicDiv'><img src='img/responseButtonOffersNo0_wht.png' class='respPic'></div><div class='trialDiv'><img src='Fruit/watermelon.png'><br><font class='baseline'><strong>Watermelon Win$</strong><p><strong><font class='negOutcome'>You LOST</font><p>You bet: 5</strong></font> &nbsp; &nbsp; &nbsp; &nbsp; &nbsp; &nbsp;<font class='negOutcome'>You receive: <strong>0</strong></font></div>","null","8","Watermelon Win$","Fruit/watermelon.png","Lost","0.2,0.8","14","0.2","120","24","",""
"html-keyboard-response","82","332023","0.0-11.0-1.24","63bda65b774a91e291c5b1a8","bdp_rwlrn","Sun Mar 12 2023 23:52:20 GMT-0400 (Eastern Daylight Time)","603434","Trustworthy,Untrustworthy","","1095","","","","decision","","<div class='trialDiv'><img src='Fruit/lime.png'><br><font class='baseline'><strong>Limin' Large</strong><p>Choose number of points to bet.</font><div class='respPicDiv'><img src='img/responseButtonOffersNo0L.png' class='respPic'></div></div>","5","9","Limin' Large","Fruit/lime.png","Won","0.8,0.35","11","0.8","125","25","",""
"html-keyboard-response","83","332279","0.0-11.0-2.24","63bda65b774a91e291c5b1a8","bdp_rwlrn","Sun Mar 12 2023 23:52:20 GMT-0400 (Eastern Daylight Time)","603434","Trustworthy,Untrustworthy","","null","","","","decisionFB","","<div class='trialDiv'><img src='Fruit/lime.png'><br><font class='baseline'><strong>Limin' Large</strong><p>Choose number of points to bet.</font><div class='respPicDiv'><img src='img/responseButtonOffersNo0L5.png' class='respPic'></div></div>","null","9","Limin' Large","Fruit/lime.png","Won","0.8,0.35","11","0.8","120","25","",""
"html-keyboard-response","84","333281","0.0-11.0-3.24","63bda65b774a91e291c5b1a8","bdp_rwlrn","Sun Mar 12 2023 23:52:20 GMT-0400 (Eastern Daylight Time)","603434","Trustworthy,Untrustworthy","","null","","","","feedback","","<div class='respPicDiv'><img src='img/responseButtonOffersNo0_wht.png' class='respPic'></div><div class='trialDiv'><img src='Fruit/lime.png'><br><font class='baseline'><strong>Limin' Large</strong><p><strong><font class='posOutcome'>You WON</font><p>You bet: 5</strong></font> &nbsp; &nbsp; &nbsp; &nbsp; &nbsp; &nbsp;<font class='posOutcome'>you receive: <strong>10</strong></font></div>","null","9","Limin' Large","Fruit/lime.png","Won","0.8,0.35","11","0.8","130","25","",""
"html-keyboard-response","85","334378","0.0-11.0-1.25","63bda65b774a91e291c5b1a8","bdp_rwlrn","Sun Mar 12 2023 23:52:20 GMT-0400 (Eastern Daylight Time)","603434","Trustworthy,Untrustworthy","","1096","","","","decision","","<div class='trialDiv'><img src='Fruit/plums1.png'><br><font class='baseline'><strong>Plum Powerball</strong><p>Choose number of points to bet.</font><div class='respPicDiv'><img src='img/responseButtonOffersNo0L.png' class='respPic'></div></div>","5","9","Plum Powerball","Fruit/plums1.png","Won","0.2,0.65","8","0.2","135","26","",""
"html-keyboard-response","86","334630","0.0-11.0-2.25","63bda65b774a91e291c5b1a8","bdp_rwlrn","Sun Mar 12 2023 23:52:20 GMT-0400 (Eastern Daylight Time)","603434","Trustworthy,Untrustworthy","","null","","","","decisionFB","","<div class='trialDiv'><img src='Fruit/plums1.png'><br><font class='baseline'><strong>Plum Powerball</strong><p>Choose number of points to bet.</font><div class='respPicDiv'><img src='img/responseButtonOffersNo0L5.png' class='respPic'></div></div>","null","9","Plum Powerball","Fruit/plums1.png","Won","0.2,0.65","8","0.2","130","26","",""
"html-keyboard-response","87","335635","0.0-11.0-3.25","63bda65b774a91e291c5b1a8","bdp_rwlrn","Sun Mar 12 2023 23:52:20 GMT-0400 (Eastern Daylight Time)","603434","Trustworthy,Untrustworthy","","null","","","","feedback","","<div class='respPicDiv'><img src='img/responseButtonOffersNo0_wht.png' class='respPic'></div><div class='trialDiv'><img src='Fruit/plums1.png'><br><font class='baseline'><strong>Plum Powerball</strong><p><strong><font class='posOutcome'>You WON</font><p>You bet: 5</strong></font> &nbsp; &nbsp; &nbsp; &nbsp; &nbsp; &nbsp;<font class='posOutcome'>you receive: <strong>10</strong></font></div>","null","9","Plum Powerball","Fruit/plums1.png","Won","0.2,0.65","8","0.2","140","26","",""
"html-keyboard-response","88","336612","0.0-11.0-1.26","63bda65b774a91e291c5b1a8","bdp_rwlrn","Sun Mar 12 2023 23:52:20 GMT-0400 (Eastern Daylight Time)","603434","Trustworthy,Untrustworthy","","976","","","","decision","","<div class='trialDiv'><img src='Fruit/watermelon.png'><br><font class='baseline'><strong>Watermelon Win$</strong><p>Choose number of points to bet.</font><div class='respPicDiv'><img src='img/responseButtonOffersNo0L.png' class='respPic'></div></div>","1","9","Watermelon Win$","Fruit/watermelon.png","Lost","0.2,0.8","14","0.2","145","27","",""
"html-keyboard-response","89","336867","0.0-11.0-2.26","63bda65b774a91e291c5b1a8","bdp_rwlrn","Sun Mar 12 2023 23:52:20 GMT-0400 (Eastern Daylight Time)","603434","Trustworthy,Untrustworthy","","null","","","","decisionFB","","<div class='trialDiv'><img src='Fruit/watermelon.png'><br><font class='baseline'><strong>Watermelon Win$</strong><p>Choose number of points to bet.</font><div class='respPicDiv'><img src='img/responseButtonOffersNo0L1.png' class='respPic'></div></div>","null","9","Watermelon Win$","Fruit/watermelon.png","Lost","0.2,0.8","14","0.2","144","27","",""
"html-keyboard-response","90","337881","0.0-11.0-3.26","63bda65b774a91e291c5b1a8","bdp_rwlrn","Sun Mar 12 2023 23:52:20 GMT-0400 (Eastern Daylight Time)","603434","Trustworthy,Untrustworthy","","null","","","","feedback","","<div class='respPicDiv'><img src='img/responseButtonOffersNo0_wht.png' class='respPic'></div><div class='trialDiv'><img src='Fruit/watermelon.png'><br><font class='baseline'><strong>Watermelon Win$</strong><p><strong><font class='negOutcome'>You LOST</font><p>You bet: 1</strong></font> &nbsp; &nbsp; &nbsp; &nbsp; &nbsp; &nbsp;<font class='negOutcome'>You receive: <strong>0</strong></font></div>","null","9","Watermelon Win$","Fruit/watermelon.png","Lost","0.2,0.8","14","0.2","144","27","",""
"html-keyboard-response","91","338741","0.0-11.0-1.27","63bda65b774a91e291c5b1a8","bdp_rwlrn","Sun Mar 12 2023 23:52:20 GMT-0400 (Eastern Daylight Time)","603434","Trustworthy,Untrustworthy","","859","","","","decision","","<div class='trialDiv'><img src='Fruit/plums1.png'><br><font class='baseline'><strong>Plum Powerball</strong><p>Choose number of points to bet.</font><div class='respPicDiv'><img src='img/responseButtonOffersNo0L.png' class='respPic'></div></div>","2","10","Plum Powerball","Fruit/plums1.png","Won","0.2,0.65","8","0.2","149","28","",""
"html-keyboard-response","92","339002","0.0-11.0-2.27","63bda65b774a91e291c5b1a8","bdp_rwlrn","Sun Mar 12 2023 23:52:20 GMT-0400 (Eastern Daylight Time)","603434","Trustworthy,Untrustworthy","","null","","","","decisionFB","","<div class='trialDiv'><img src='Fruit/plums1.png'><br><font class='baseline'><strong>Plum Powerball</strong><p>Choose number of points to bet.</font><div class='respPicDiv'><img src='img/responseButtonOffersNo0L2.png' class='respPic'></div></div>","null","10","Plum Powerball","Fruit/plums1.png","Won","0.2,0.65","8","0.2","147","28","",""
"html-keyboard-response","93","340008","0.0-11.0-3.27","63bda65b774a91e291c5b1a8","bdp_rwlrn","Sun Mar 12 2023 23:52:20 GMT-0400 (Eastern Daylight Time)","603434","Trustworthy,Untrustworthy","","null","","","","feedback","","<div class='respPicDiv'><img src='img/responseButtonOffersNo0_wht.png' class='respPic'></div><div class='trialDiv'><img src='Fruit/plums1.png'><br><font class='baseline'><strong>Plum Powerball</strong><p><strong><font class='posOutcome'>You WON</font><p>You bet: 2</strong></font> &nbsp; &nbsp; &nbsp; &nbsp; &nbsp; &nbsp;<font class='posOutcome'>you receive: <strong>4</strong></font></div>","null","10","Plum Powerball","Fruit/plums1.png","Won","0.2,0.65","8","0.2","151","28","",""
"html-keyboard-response","94","341029","0.0-11.0-1.28","63bda65b774a91e291c5b1a8","bdp_rwlrn","Sun Mar 12 2023 23:52:20 GMT-0400 (Eastern Daylight Time)","603434","Trustworthy,Untrustworthy","","1020","","","","decision","","<div class='trialDiv'><img src='Fruit/lime.png'><br><font class='baseline'><strong>Limin' Large</strong><p>Choose number of points to bet.</font><div class='respPicDiv'><img src='img/responseButtonOffersNo0L.png' class='respPic'></div></div>","1","10","Limin' Large","Fruit/lime.png","Won","0.8,0.35","11","0.8","156","29","",""
"html-keyboard-response","95","341288","0.0-11.0-2.28","63bda65b774a91e291c5b1a8","bdp_rwlrn","Sun Mar 12 2023 23:52:20 GMT-0400 (Eastern Daylight Time)","603434","Trustworthy,Untrustworthy","","null","","","","decisionFB","","<div class='trialDiv'><img src='Fruit/lime.png'><br><font class='baseline'><strong>Limin' Large</strong><p>Choose number of points to bet.</font><div class='respPicDiv'><img src='img/responseButtonOffersNo0L1.png' class='respPic'></div></div>","null","10","Limin' Large","Fruit/lime.png","Won","0.8,0.35","11","0.8","155","29","",""
"html-keyboard-response","96","342304","0.0-11.0-3.28","63bda65b774a91e291c5b1a8","bdp_rwlrn","Sun Mar 12 2023 23:52:20 GMT-0400 (Eastern Daylight Time)","603434","Trustworthy,Untrustworthy","","null","","","","feedback","","<div class='respPicDiv'><img src='img/responseButtonOffersNo0_wht.png' class='respPic'></div><div class='trialDiv'><img src='Fruit/lime.png'><br><font class='baseline'><strong>Limin' Large</strong><p><strong><font class='posOutcome'>You WON</font><p>You bet: 1</strong></font> &nbsp; &nbsp; &nbsp; &nbsp; &nbsp; &nbsp;<font class='posOutcome'>you receive: <strong>2</strong></font></div>","null","10","Limin' Large","Fruit/lime.png","Won","0.8,0.35","11","0.8","157","29","",""
"html-keyboard-response","97","343099","0.0-11.0-1.29","63bda65b774a91e291c5b1a8","bdp_rwlrn","Sun Mar 12 2023 23:52:20 GMT-0400 (Eastern Daylight Time)","603434","Trustworthy,Untrustworthy","","794","","","","decision","","<div class='trialDiv'><img src='Fruit/watermelon.png'><br><font class='baseline'><strong>Watermelon Win$</strong><p>Choose number of points to bet.</font><div class='respPicDiv'><img src='img/responseButtonOffersNo0L.png' class='respPic'></div></div>","2","10","Watermelon Win$","Fruit/watermelon.png","Lost","0.2,0.8","14","0.2","162","30","",""
"html-keyboard-response","98","343356","0.0-11.0-2.29","63bda65b774a91e291c5b1a8","bdp_rwlrn","Sun Mar 12 2023 23:52:20 GMT-0400 (Eastern Daylight Time)","603434","Trustworthy,Untrustworthy","","null","","","","decisionFB","","<div class='trialDiv'><img src='Fruit/watermelon.png'><br><font class='baseline'><strong>Watermelon Win$</strong><p>Choose number of points to bet.</font><div class='respPicDiv'><img src='img/responseButtonOffersNo0L2.png' class='respPic'></div></div>","null","10","Watermelon Win$","Fruit/watermelon.png","Lost","0.2,0.8","14","0.2","160","30","",""
"html-keyboard-response","99","344377","0.0-11.0-3.29","63bda65b774a91e291c5b1a8","bdp_rwlrn","Sun Mar 12 2023 23:52:20 GMT-0400 (Eastern Daylight Time)","603434","Trustworthy,Untrustworthy","","null","","","","feedback","","<div class='respPicDiv'><img src='img/responseButtonOffersNo0_wht.png' class='respPic'></div><div class='trialDiv'><img src='Fruit/watermelon.png'><br><font class='baseline'><strong>Watermelon Win$</strong><p><strong><font class='negOutcome'>You LOST</font><p>You bet: 2</strong></font> &nbsp; &nbsp; &nbsp; &nbsp; &nbsp; &nbsp;<font class='negOutcome'>You receive: <strong>0</strong></font></div>","null","10","Watermelon Win$","Fruit/watermelon.png","Lost","0.2,0.8","14","0.2","160","30","",""
"html-keyboard-response","100","345337","0.0-11.0-1.30","63bda65b774a91e291c5b1a8","bdp_rwlrn","Sun Mar 12 2023 23:52:20 GMT-0400 (Eastern Daylight Time)","603434","Trustworthy,Untrustworthy","","959","","","","decision","","<div class='trialDiv'><img src='Fruit/plums1.png'><br><font class='baseline'><strong>Plum Powerball</strong><p>Choose number of points to bet.</font><div class='respPicDiv'><img src='img/responseButtonOffersNo0L.png' class='respPic'></div></div>","3","11","Plum Powerball","Fruit/plums1.png","Lost","0.2,0.65","8","0.2","165","31","",""
"html-keyboard-response","101","345592","0.0-11.0-2.30","63bda65b774a91e291c5b1a8","bdp_rwlrn","Sun Mar 12 2023 23:52:20 GMT-0400 (Eastern Daylight Time)","603434","Trustworthy,Untrustworthy","","null","","","","decisionFB","","<div class='trialDiv'><img src='Fruit/plums1.png'><br><font class='baseline'><strong>Plum Powerball</strong><p>Choose number of points to bet.</font><div class='respPicDiv'><img src='img/responseButtonOffersNo0L3.png' class='respPic'></div></div>","null","11","Plum Powerball","Fruit/plums1.png","Lost","0.2,0.65","8","0.2","162","31","",""
"html-keyboard-response","102","346609","0.0-11.0-3.30","63bda65b774a91e291c5b1a8","bdp_rwlrn","Sun Mar 12 2023 23:52:20 GMT-0400 (Eastern Daylight Time)","603434","Trustworthy,Untrustworthy","","null","","","","feedback","","<div class='respPicDiv'><img src='img/responseButtonOffersNo0_wht.png' class='respPic'></div><div class='trialDiv'><img src='Fruit/plums1.png'><br><font class='baseline'><strong>Plum Powerball</strong><p><strong><font class='negOutcome'>You LOST</font><p>You bet: 3</strong></font> &nbsp; &nbsp; &nbsp; &nbsp; &nbsp; &nbsp;<font class='negOutcome'>You receive: <strong>0</strong></font></div>","null","11","Plum Powerball","Fruit/plums1.png","Lost","0.2,0.65","8","0.2","162","31","",""
"html-keyboard-response","103","347239","0.0-11.0-1.31","63bda65b774a91e291c5b1a8","bdp_rwlrn","Sun Mar 12 2023 23:52:20 GMT-0400 (Eastern Daylight Time)","603434","Trustworthy,Untrustworthy","","629","","","","decision","","<div class='trialDiv'><img src='Fruit/watermelon.png'><br><font class='baseline'><strong>Watermelon Win$</strong><p>Choose number of points to bet.</font><div class='respPicDiv'><img src='img/responseButtonOffersNo0L.png' class='respPic'></div></div>","4","11","Watermelon Win$","Fruit/watermelon.png","Lost","0.2,0.8","14","0.2","167","32","",""
"html-keyboard-response","104","347495","0.0-11.0-2.31","63bda65b774a91e291c5b1a8","bdp_rwlrn","Sun Mar 12 2023 23:52:20 GMT-0400 (Eastern Daylight Time)","603434","Trustworthy,Untrustworthy","","null","","","","decisionFB","","<div class='trialDiv'><img src='Fruit/watermelon.png'><br><font class='baseline'><strong>Watermelon Win$</strong><p>Choose number of points to bet.</font><div class='respPicDiv'><img src='img/responseButtonOffersNo0L4.png' class='respPic'></div></div>","null","11","Watermelon Win$","Fruit/watermelon.png","Lost","0.2,0.8","14","0.2","163","32","",""
"html-keyboard-response","105","348510","0.0-11.0-3.31","63bda65b774a91e291c5b1a8","bdp_rwlrn","Sun Mar 12 2023 23:52:20 GMT-0400 (Eastern Daylight Time)","603434","Trustworthy,Untrustworthy","","null","","","","feedback","","<div class='respPicDiv'><img src='img/responseButtonOffersNo0_wht.png' class='respPic'></div><div class='trialDiv'><img src='Fruit/watermelon.png'><br><font class='baseline'><strong>Watermelon Win$</strong><p><strong><font class='negOutcome'>You LOST</font><p>You bet: 4</strong></font> &nbsp; &nbsp; &nbsp; &nbsp; &nbsp; &nbsp;<font class='negOutcome'>You receive: <strong>0</strong></font></div>","null","11","Watermelon Win$","Fruit/watermelon.png","Lost","0.2,0.8","14","0.2","163","32","",""
"html-keyboard-response","106","349077","0.0-11.0-1.32","63bda65b774a91e291c5b1a8","bdp_rwlrn","Sun Mar 12 2023 23:52:20 GMT-0400 (Eastern Daylight Time)","603434","Trustworthy,Untrustworthy","","565","","","","decision","","<div class='trialDiv'><img src='Fruit/lime.png'><br><font class='baseline'><strong>Limin' Large</strong><p>Choose number of points to bet.</font><div class='respPicDiv'><img src='img/responseButtonOffersNo0L.png' class='respPic'></div></div>","5","11","Limin' Large","Fruit/lime.png","Lost","0.8,0.35","11","0.8","168","33","",""
"html-keyboard-response","107","349329","0.0-11.0-2.32","63bda65b774a91e291c5b1a8","bdp_rwlrn","Sun Mar 12 2023 23:52:20 GMT-0400 (Eastern Daylight Time)","603434","Trustworthy,Untrustworthy","","null","","","","decisionFB","","<div class='trialDiv'><img src='Fruit/lime.png'><br><font class='baseline'><strong>Limin' Large</strong><p>Choose number of points to bet.</font><div class='respPicDiv'><img src='img/responseButtonOffersNo0L5.png' class='respPic'></div></div>","null","11","Limin' Large","Fruit/lime.png","Lost","0.8,0.35","11","0.8","163","33","",""
"html-keyboard-response","108","350345","0.0-11.0-3.32","63bda65b774a91e291c5b1a8","bdp_rwlrn","Sun Mar 12 2023 23:52:20 GMT-0400 (Eastern Daylight Time)","603434","Trustworthy,Untrustworthy","","null","","","","feedback","","<div class='respPicDiv'><img src='img/responseButtonOffersNo0_wht.png' class='respPic'></div><div class='trialDiv'><img src='Fruit/lime.png'><br><font class='baseline'><strong>Limin' Large</strong><p><strong><font class='negOutcome'>You LOST</font><p>You bet: 5</strong></font> &nbsp; &nbsp; &nbsp; &nbsp; &nbsp; &nbsp;<font class='negOutcome'>You receive: <strong>0</strong></font></div>","null","11","Limin' Large","Fruit/lime.png","Lost","0.8,0.35","11","0.8","163","33","",""
"html-keyboard-response","109","351372","0.0-11.0-1.33","63bda65b774a91e291c5b1a8","bdp_rwlrn","Sun Mar 12 2023 23:52:20 GMT-0400 (Eastern Daylight Time)","603434","Trustworthy,Untrustworthy","","1026","","","","decision","","<div class='trialDiv'><img src='Fruit/watermelon.png'><br><font class='baseline'><strong>Watermelon Win$</strong><p>Choose number of points to bet.</font><div class='respPicDiv'><img src='img/responseButtonOffersNo0L.png' class='respPic'></div></div>","5","12","Watermelon Win$","Fruit/watermelon.png","Won","0.2,0.8","14","0.2","168","34","",""
"html-keyboard-response","110","351630","0.0-11.0-2.33","63bda65b774a91e291c5b1a8","bdp_rwlrn","Sun Mar 12 2023 23:52:20 GMT-0400 (Eastern Daylight Time)","603434","Trustworthy,Untrustworthy","","null","","","","decisionFB","","<div class='trialDiv'><img src='Fruit/watermelon.png'><br><font class='baseline'><strong>Watermelon Win$</strong><p>Choose number of points to bet.</font><div class='respPicDiv'><img src='img/responseButtonOffersNo0L5.png' class='respPic'></div></div>","null","12","Watermelon Win$","Fruit/watermelon.png","Won","0.2,0.8","14","0.2","163","34","",""
"html-keyboard-response","111","352632","0.0-11.0-3.33","63bda65b774a91e291c5b1a8","bdp_rwlrn","Sun Mar 12 2023 23:52:20 GMT-0400 (Eastern Daylight Time)","603434","Trustworthy,Untrustworthy","","null","","","","feedback","","<div class='respPicDiv'><img src='img/responseButtonOffersNo0_wht.png' class='respPic'></div><div class='trialDiv'><img src='Fruit/watermelon.png'><br><font class='baseline'><strong>Watermelon Win$</strong><p><strong><font class='posOutcome'>You WON</font><p>You bet: 5</strong></font> &nbsp; &nbsp; &nbsp; &nbsp; &nbsp; &nbsp;<font class='posOutcome'>you receive: <strong>10</strong></font></div>","null","12","Watermelon Win$","Fruit/watermelon.png","Won","0.2,0.8","14","0.2","173","34","",""
"html-keyboard-response","112","353389","0.0-11.0-1.34","63bda65b774a91e291c5b1a8","bdp_rwlrn","Sun Mar 12 2023 23:52:20 GMT-0400 (Eastern Daylight Time)","603434","Trustworthy,Untrustworthy","","756","","","","decision","","<div class='trialDiv'><img src='Fruit/plums1.png'><br><font class='baseline'><strong>Plum Powerball</strong><p>Choose number of points to bet.</font><div class='respPicDiv'><img src='img/responseButtonOffersNo0L.png' class='respPic'></div></div>","5","12","Plum Powerball","Fruit/plums1.png","Won","0.2,0.65","8","0.2","178","35","",""
"html-keyboard-response","113","353649","0.0-11.0-2.34","63bda65b774a91e291c5b1a8","bdp_rwlrn","Sun Mar 12 2023 23:52:20 GMT-0400 (Eastern Daylight Time)","603434","Trustworthy,Untrustworthy","","null","","","","decisionFB","","<div class='trialDiv'><img src='Fruit/plums1.png'><br><font class='baseline'><strong>Plum Powerball</strong><p>Choose number of points to bet.</font><div class='respPicDiv'><img src='img/responseButtonOffersNo0L5.png' class='respPic'></div></div>","null","12","Plum Powerball","Fruit/plums1.png","Won","0.2,0.65","8","0.2","173","35","",""
"html-keyboard-response","114","354651","0.0-11.0-3.34","63bda65b774a91e291c5b1a8","bdp_rwlrn","Sun Mar 12 2023 23:52:20 GMT-0400 (Eastern Daylight Time)","603434","Trustworthy,Untrustworthy","","null","","","","feedback","","<div class='respPicDiv'><img src='img/responseButtonOffersNo0_wht.png' class='respPic'></div><div class='trialDiv'><img src='Fruit/plums1.png'><br><font class='baseline'><strong>Plum Powerball</strong><p><strong><font class='posOutcome'>You WON</font><p>You bet: 5</strong></font> &nbsp; &nbsp; &nbsp; &nbsp; &nbsp; &nbsp;<font class='posOutcome'>you receive: <strong>10</strong></font></div>","null","12","Plum Powerball","Fruit/plums1.png","Won","0.2,0.65","8","0.2","183","35","",""
"html-keyboard-response","115","355526","0.0-11.0-1.35","63bda65b774a91e291c5b1a8","bdp_rwlrn","Sun Mar 12 2023 23:52:20 GMT-0400 (Eastern Daylight Time)","603434","Trustworthy,Untrustworthy","","874","","","","decision","","<div class='trialDiv'><img src='Fruit/lime.png'><br><font class='baseline'><strong>Limin' Large</strong><p>Choose number of points to bet.</font><div class='respPicDiv'><img src='img/responseButtonOffersNo0L.png' class='respPic'></div></div>","5","12","Limin' Large","Fruit/lime.png","Lost","0.8,0.35","11","0.8","188","36","",""
"html-keyboard-response","116","355784","0.0-11.0-2.35","63bda65b774a91e291c5b1a8","bdp_rwlrn","Sun Mar 12 2023 23:52:20 GMT-0400 (Eastern Daylight Time)","603434","Trustworthy,Untrustworthy","","null","","","","decisionFB","","<div class='trialDiv'><img src='Fruit/lime.png'><br><font class='baseline'><strong>Limin' Large</strong><p>Choose number of points to bet.</font><div class='respPicDiv'><img src='img/responseButtonOffersNo0L5.png' class='respPic'></div></div>","null","12","Limin' Large","Fruit/lime.png","Lost","0.8,0.35","11","0.8","183","36","",""
"html-keyboard-response","117","356787","0.0-11.0-3.35","63bda65b774a91e291c5b1a8","bdp_rwlrn","Sun Mar 12 2023 23:52:20 GMT-0400 (Eastern Daylight Time)","603434","Trustworthy,Untrustworthy","","null","","","","feedback","","<div class='respPicDiv'><img src='img/responseButtonOffersNo0_wht.png' class='respPic'></div><div class='trialDiv'><img src='Fruit/lime.png'><br><font class='baseline'><strong>Limin' Large</strong><p><strong><font class='negOutcome'>You LOST</font><p>You bet: 5</strong></font> &nbsp; &nbsp; &nbsp; &nbsp; &nbsp; &nbsp;<font class='negOutcome'>You receive: <strong>0</strong></font></div>","null","12","Limin' Large","Fruit/lime.png","Lost","0.8,0.35","11","0.8","183","36","",""
"html-keyboard-response","118","357499","0.0-11.0-1.36","63bda65b774a91e291c5b1a8","bdp_rwlrn","Sun Mar 12 2023 23:52:20 GMT-0400 (Eastern Daylight Time)","603434","Trustworthy,Untrustworthy","","711","","","","decision","","<div class='trialDiv'><img src='Fruit/watermelon.png'><br><font class='baseline'><strong>Watermelon Win$</strong><p>Choose number of points to bet.</font><div class='respPicDiv'><img src='img/responseButtonOffersNo0L.png' class='respPic'></div></div>","2","13","Watermelon Win$","Fruit/watermelon.png","Won","0.2,0.8","14","0.2","188","37","",""
"html-keyboard-response","119","357755","0.0-11.0-2.36","63bda65b774a91e291c5b1a8","bdp_rwlrn","Sun Mar 12 2023 23:52:20 GMT-0400 (Eastern Daylight Time)","603434","Trustworthy,Untrustworthy","","null","","","","decisionFB","","<div class='trialDiv'><img src='Fruit/watermelon.png'><br><font class='baseline'><strong>Watermelon Win$</strong><p>Choose number of points to bet.</font><div class='respPicDiv'><img src='img/responseButtonOffersNo0L2.png' class='respPic'></div></div>","null","13","Watermelon Win$","Fruit/watermelon.png","Won","0.2,0.8","14","0.2","186","37","",""
"html-keyboard-response","120","358770","0.0-11.0-3.36","63bda65b774a91e291c5b1a8","bdp_rwlrn","Sun Mar 12 2023 23:52:20 GMT-0400 (Eastern Daylight Time)","603434","Trustworthy,Untrustworthy","","null","","","","feedback","","<div class='respPicDiv'><img src='img/responseButtonOffersNo0_wht.png' class='respPic'></div><div class='trialDiv'><img src='Fruit/watermelon.png'><br><font class='baseline'><strong>Watermelon Win$</strong><p><strong><font class='posOutcome'>You WON</font><p>You bet: 2</strong></font> &nbsp; &nbsp; &nbsp; &nbsp; &nbsp; &nbsp;<font class='posOutcome'>you receive: <strong>4</strong></font></div>","null","13","Watermelon Win$","Fruit/watermelon.png","Won","0.2,0.8","14","0.2","190","37","",""
"html-keyboard-response","121","359502","0.0-11.0-1.37","63bda65b774a91e291c5b1a8","bdp_rwlrn","Sun Mar 12 2023 23:52:20 GMT-0400 (Eastern Daylight Time)","603434","Trustworthy,Untrustworthy","","730","","","","decision","","<div class='trialDiv'><img src='Fruit/plums1.png'><br><font class='baseline'><strong>Plum Powerball</strong><p>Choose number of points to bet.</font><div class='respPicDiv'><img src='img/responseButtonOffersNo0L.png' class='respPic'></div></div>","3","13","Plum Powerball","Fruit/plums1.png","Won","0.2,0.65","8","0.2","195","38","",""
"html-keyboard-response","122","359757","0.0-11.0-2.37","63bda65b774a91e291c5b1a8","bdp_rwlrn","Sun Mar 12 2023 23:52:20 GMT-0400 (Eastern Daylight Time)","603434","Trustworthy,Untrustworthy","","null","","","","decisionFB","","<div class='trialDiv'><img src='Fruit/plums1.png'><br><font class='baseline'><strong>Plum Powerball</strong><p>Choose number of points to bet.</font><div class='respPicDiv'><img src='img/responseButtonOffersNo0L3.png' class='respPic'></div></div>","null","13","Plum Powerball","Fruit/plums1.png","Won","0.2,0.65","8","0.2","192","38","",""
"html-keyboard-response","123","360772","0.0-11.0-3.37","63bda65b774a91e291c5b1a8","bdp_rwlrn","Sun Mar 12 2023 23:52:20 GMT-0400 (Eastern Daylight Time)","603434","Trustworthy,Untrustworthy","","null","","","","feedback","","<div class='respPicDiv'><img src='img/responseButtonOffersNo0_wht.png' class='respPic'></div><div class='trialDiv'><img src='Fruit/plums1.png'><br><font class='baseline'><strong>Plum Powerball</strong><p><strong><font class='posOutcome'>You WON</font><p>You bet: 3</strong></font> &nbsp; &nbsp; &nbsp; &nbsp; &nbsp; &nbsp;<font class='posOutcome'>you receive: <strong>6</strong></font></div>","null","13","Plum Powerball","Fruit/plums1.png","Won","0.2,0.65","8","0.2","198","38","",""
"html-keyboard-response","124","361391","0.0-11.0-1.38","63bda65b774a91e291c5b1a8","bdp_rwlrn","Sun Mar 12 2023 23:52:20 GMT-0400 (Eastern Daylight Time)","603434","Trustworthy,Untrustworthy","","618","","","","decision","","<div class='trialDiv'><img src='Fruit/lime.png'><br><font class='baseline'><strong>Limin' Large</strong><p>Choose number of points to bet.</font><div class='respPicDiv'><img src='img/responseButtonOffersNo0L.png' class='respPic'></div></div>","4","13","Limin' Large","Fruit/lime.png","Won","0.8,0.35","11","0.8","203","39","",""
"html-keyboard-response","125","361657","0.0-11.0-2.38","63bda65b774a91e291c5b1a8","bdp_rwlrn","Sun Mar 12 2023 23:52:20 GMT-0400 (Eastern Daylight Time)","603434","Trustworthy,Untrustworthy","","null","","","","decisionFB","","<div class='trialDiv'><img src='Fruit/lime.png'><br><font class='baseline'><strong>Limin' Large</strong><p>Choose number of points to bet.</font><div class='respPicDiv'><img src='img/responseButtonOffersNo0L4.png' class='respPic'></div></div>","null","13","Limin' Large","Fruit/lime.png","Won","0.8,0.35","11","0.8","199","39","",""
"html-keyboard-response","126","362674","0.0-11.0-3.38","63bda65b774a91e291c5b1a8","bdp_rwlrn","Sun Mar 12 2023 23:52:20 GMT-0400 (Eastern Daylight Time)","603434","Trustworthy,Untrustworthy","","null","","","","feedback","","<div class='respPicDiv'><img src='img/responseButtonOffersNo0_wht.png' class='respPic'></div><div class='trialDiv'><img src='Fruit/lime.png'><br><font class='baseline'><strong>Limin' Large</strong><p><strong><font class='posOutcome'>You WON</font><p>You bet: 4</strong></font> &nbsp; &nbsp; &nbsp; &nbsp; &nbsp; &nbsp;<font class='posOutcome'>you receive: <strong>8</strong></font></div>","null","13","Limin' Large","Fruit/lime.png","Won","0.8,0.35","11","0.8","207","39","",""
"html-keyboard-response","127","363274","0.0-11.0-1.39","63bda65b774a91e291c5b1a8","bdp_rwlrn","Sun Mar 12 2023 23:52:20 GMT-0400 (Eastern Daylight Time)","603434","Trustworthy,Untrustworthy","","599","","","","decision","","<div class='trialDiv'><img src='Fruit/plums1.png'><br><font class='baseline'><strong>Plum Powerball</strong><p>Choose number of points to bet.</font><div class='respPicDiv'><img src='img/responseButtonOffersNo0L.png' class='respPic'></div></div>","5","14","Plum Powerball","Fruit/plums1.png","Lost","0.2,0.65","8","0.2","212","40","",""
"html-keyboard-response","128","363527","0.0-11.0-2.39","63bda65b774a91e291c5b1a8","bdp_rwlrn","Sun Mar 12 2023 23:52:20 GMT-0400 (Eastern Daylight Time)","603434","Trustworthy,Untrustworthy","","null","","","","decisionFB","","<div class='trialDiv'><img src='Fruit/plums1.png'><br><font class='baseline'><strong>Plum Powerball</strong><p>Choose number of points to bet.</font><div class='respPicDiv'><img src='img/responseButtonOffersNo0L5.png' class='respPic'></div></div>","null","14","Plum Powerball","Fruit/plums1.png","Lost","0.2,0.65","8","0.2","207","40","",""
"html-keyboard-response","129","364543","0.0-11.0-3.39","63bda65b774a91e291c5b1a8","bdp_rwlrn","Sun Mar 12 2023 23:52:20 GMT-0400 (Eastern Daylight Time)","603434","Trustworthy,Untrustworthy","","null","","","","feedback","","<div class='respPicDiv'><img src='img/responseButtonOffersNo0_wht.png' class='respPic'></div><div class='trialDiv'><img src='Fruit/plums1.png'><br><font class='baseline'><strong>Plum Powerball</strong><p><strong><font class='negOutcome'>You LOST</font><p>You bet: 5</strong></font> &nbsp; &nbsp; &nbsp; &nbsp; &nbsp; &nbsp;<font class='negOutcome'>You receive: <strong>0</strong></font></div>","null","14","Plum Powerball","Fruit/plums1.png","Lost","0.2,0.65","8","0.2","207","40","",""
"html-keyboard-response","130","365254","0.0-11.0-1.40","63bda65b774a91e291c5b1a8","bdp_rwlrn","Sun Mar 12 2023 23:52:20 GMT-0400 (Eastern Daylight Time)","603434","Trustworthy,Untrustworthy","","710","","","","decision","","<div class='trialDiv'><img src='Fruit/watermelon.png'><br><font class='baseline'><strong>Watermelon Win$</strong><p>Choose number of points to bet.</font><div class='respPicDiv'><img src='img/responseButtonOffersNo0L.png' class='respPic'></div></div>","5","14","Watermelon Win$","Fruit/watermelon.png","Won","0.2,0.8","14","0.2","212","41","",""
"html-keyboard-response","131","365511","0.0-11.0-2.40","63bda65b774a91e291c5b1a8","bdp_rwlrn","Sun Mar 12 2023 23:52:20 GMT-0400 (Eastern Daylight Time)","603434","Trustworthy,Untrustworthy","","null","","","","decisionFB","","<div class='trialDiv'><img src='Fruit/watermelon.png'><br><font class='baseline'><strong>Watermelon Win$</strong><p>Choose number of points to bet.</font><div class='respPicDiv'><img src='img/responseButtonOffersNo0L5.png' class='respPic'></div></div>","null","14","Watermelon Win$","Fruit/watermelon.png","Won","0.2,0.8","14","0.2","207","41","",""
"html-keyboard-response","132","366516","0.0-11.0-3.40","63bda65b774a91e291c5b1a8","bdp_rwlrn","Sun Mar 12 2023 23:52:20 GMT-0400 (Eastern Daylight Time)","603434","Trustworthy,Untrustworthy","","null","","","","feedback","","<div class='respPicDiv'><img src='img/responseButtonOffersNo0_wht.png' class='respPic'></div><div class='trialDiv'><img src='Fruit/watermelon.png'><br><font class='baseline'><strong>Watermelon Win$</strong><p><strong><font class='posOutcome'>You WON</font><p>You bet: 5</strong></font> &nbsp; &nbsp; &nbsp; &nbsp; &nbsp; &nbsp;<font class='posOutcome'>you receive: <strong>10</strong></font></div>","null","14","Watermelon Win$","Fruit/watermelon.png","Won","0.2,0.8","14","0.2","217","41","",""
"html-keyboard-response","133","367286","0.0-11.0-1.41","63bda65b774a91e291c5b1a8","bdp_rwlrn","Sun Mar 12 2023 23:52:20 GMT-0400 (Eastern Daylight Time)","603434","Trustworthy,Untrustworthy","","769","","","","decision","","<div class='trialDiv'><img src='Fruit/lime.png'><br><font class='baseline'><strong>Limin' Large</strong><p>Choose number of points to bet.</font><div class='respPicDiv'><img src='img/responseButtonOffersNo0L.png' class='respPic'></div></div>","5","14","Limin' Large","Fruit/lime.png","Lost","0.8,0.35","11","0.8","222","42","",""
"html-keyboard-response","134","367546","0.0-11.0-2.41","63bda65b774a91e291c5b1a8","bdp_rwlrn","Sun Mar 12 2023 23:52:20 GMT-0400 (Eastern Daylight Time)","603434","Trustworthy,Untrustworthy","","null","","","","decisionFB","","<div class='trialDiv'><img src='Fruit/lime.png'><br><font class='baseline'><strong>Limin' Large</strong><p>Choose number of points to bet.</font><div class='respPicDiv'><img src='img/responseButtonOffersNo0L5.png' class='respPic'></div></div>","null","14","Limin' Large","Fruit/lime.png","Lost","0.8,0.35","11","0.8","217","42","",""
"html-keyboard-response","135","368551","0.0-11.0-3.41","63bda65b774a91e291c5b1a8","bdp_rwlrn","Sun Mar 12 2023 23:52:20 GMT-0400 (Eastern Daylight Time)","603434","Trustworthy,Untrustworthy","","null","","","","feedback","","<div class='respPicDiv'><img src='img/responseButtonOffersNo0_wht.png' class='respPic'></div><div class='trialDiv'><img src='Fruit/lime.png'><br><font class='baseline'><strong>Limin' Large</strong><p><strong><font class='negOutcome'>You LOST</font><p>You bet: 5</strong></font> &nbsp; &nbsp; &nbsp; &nbsp; &nbsp; &nbsp;<font class='negOutcome'>You receive: <strong>0</strong></font></div>","null","14","Limin' Large","Fruit/lime.png","Lost","0.8,0.35","11","0.8","217","42","",""
"html-keyboard-response","136","369251","0.0-11.0-1.42","63bda65b774a91e291c5b1a8","bdp_rwlrn","Sun Mar 12 2023 23:52:20 GMT-0400 (Eastern Daylight Time)","603434","Trustworthy,Untrustworthy","","699","","","","decision","","<div class='trialDiv'><img src='Fruit/plums1.png'><br><font class='baseline'><strong>Plum Powerball</strong><p>Choose number of points to bet.</font><div class='respPicDiv'><img src='img/responseButtonOffersNo0L.png' class='respPic'></div></div>","5","15","Plum Powerball","Fruit/plums1.png","Won","0.2,0.65","8","0.2","222","43","",""
"html-keyboard-response","137","369514","0.0-11.0-2.42","63bda65b774a91e291c5b1a8","bdp_rwlrn","Sun Mar 12 2023 23:52:20 GMT-0400 (Eastern Daylight Time)","603434","Trustworthy,Untrustworthy","","null","","","","decisionFB","","<div class='trialDiv'><img src='Fruit/plums1.png'><br><font class='baseline'><strong>Plum Powerball</strong><p>Choose number of points to bet.</font><div class='respPicDiv'><img src='img/responseButtonOffersNo0L5.png' class='respPic'></div></div>","null","15","Plum Powerball","Fruit/plums1.png","Won","0.2,0.65","8","0.2","217","43","",""
"html-keyboard-response","138","370519","0.0-11.0-3.42","63bda65b774a91e291c5b1a8","bdp_rwlrn","Sun Mar 12 2023 23:52:20 GMT-0400 (Eastern Daylight Time)","603434","Trustworthy,Untrustworthy","","null","","","","feedback","","<div class='respPicDiv'><img src='img/responseButtonOffersNo0_wht.png' class='respPic'></div><div class='trialDiv'><img src='Fruit/plums1.png'><br><font class='baseline'><strong>Plum Powerball</strong><p><strong><font class='posOutcome'>You WON</font><p>You bet: 5</strong></font> &nbsp; &nbsp; &nbsp; &nbsp; &nbsp; &nbsp;<font class='posOutcome'>you receive: <strong>10</strong></font></div>","null","15","Plum Powerball","Fruit/plums1.png","Won","0.2,0.65","8","0.2","227","43","",""
"html-keyboard-response","139","371067","0.0-11.0-1.43","63bda65b774a91e291c5b1a8","bdp_rwlrn","Sun Mar 12 2023 23:52:20 GMT-0400 (Eastern Daylight Time)","603434","Trustworthy,Untrustworthy","","547","","","","decision","","<div class='trialDiv'><img src='Fruit/watermelon.png'><br><font class='baseline'><strong>Watermelon Win$</strong><p>Choose number of points to bet.</font><div class='respPicDiv'><img src='img/responseButtonOffersNo0L.png' class='respPic'></div></div>","2","15","Watermelon Win$","Fruit/watermelon.png","Won","0.2,0.8","14","0.2","232","44","",""
"html-keyboard-response","140","371319","0.0-11.0-2.43","63bda65b774a91e291c5b1a8","bdp_rwlrn","Sun Mar 12 2023 23:52:20 GMT-0400 (Eastern Daylight Time)","603434","Trustworthy,Untrustworthy","","null","","","","decisionFB","","<div class='trialDiv'><img src='Fruit/watermelon.png'><br><font class='baseline'><strong>Watermelon Win$</strong><p>Choose number of points to bet.</font><div class='respPicDiv'><img src='img/responseButtonOffersNo0L2.png' class='respPic'></div></div>","null","15","Watermelon Win$","Fruit/watermelon.png","Won","0.2,0.8","14","0.2","230","44","",""
"html-keyboard-response","141","372335","0.0-11.0-3.43","63bda65b774a91e291c5b1a8","bdp_rwlrn","Sun Mar 12 2023 23:52:20 GMT-0400 (Eastern Daylight Time)","603434","Trustworthy,Untrustworthy","","null","","","","feedback","","<div class='respPicDiv'><img src='img/responseButtonOffersNo0_wht.png' class='respPic'></div><div class='trialDiv'><img src='Fruit/watermelon.png'><br><font class='baseline'><strong>Watermelon Win$</strong><p><strong><font class='posOutcome'>You WON</font><p>You bet: 2</strong></font> &nbsp; &nbsp; &nbsp; &nbsp; &nbsp; &nbsp;<font class='posOutcome'>you receive: <strong>4</strong></font></div>","null","15","Watermelon Win$","Fruit/watermelon.png","Won","0.2,0.8","14","0.2","234","44","",""
"html-keyboard-response","142","373009","0.0-11.0-1.44","63bda65b774a91e291c5b1a8","bdp_rwlrn","Sun Mar 12 2023 23:52:20 GMT-0400 (Eastern Daylight Time)","603434","Trustworthy,Untrustworthy","","673","","","","decision","","<div class='trialDiv'><img src='Fruit/lime.png'><br><font class='baseline'><strong>Limin' Large</strong><p>Choose number of points to bet.</font><div class='respPicDiv'><img src='img/responseButtonOffersNo0L.png' class='respPic'></div></div>","3","15","Limin' Large","Fruit/lime.png","Lost","0.8,0.35","11","0.8","239","45","",""
"html-keyboard-response","143","373269","0.0-11.0-2.44","63bda65b774a91e291c5b1a8","bdp_rwlrn","Sun Mar 12 2023 23:52:20 GMT-0400 (Eastern Daylight Time)","603434","Trustworthy,Untrustworthy","","null","","","","decisionFB","","<div class='trialDiv'><img src='Fruit/lime.png'><br><font class='baseline'><strong>Limin' Large</strong><p>Choose number of points to bet.</font><div class='respPicDiv'><img src='img/responseButtonOffersNo0L3.png' class='respPic'></div></div>","null","15","Limin' Large","Fruit/lime.png","Lost","0.8,0.35","11","0.8","236","45","",""
"html-keyboard-response","144","374285","0.0-11.0-3.44","63bda65b774a91e291c5b1a8","bdp_rwlrn","Sun Mar 12 2023 23:52:20 GMT-0400 (Eastern Daylight Time)","603434","Trustworthy,Untrustworthy","","null","","","","feedback","","<div class='respPicDiv'><img src='img/responseButtonOffersNo0_wht.png' class='respPic'></div><div class='trialDiv'><img src='Fruit/lime.png'><br><font class='baseline'><strong>Limin' Large</strong><p><strong><font class='negOutcome'>You LOST</font><p>You bet: 3</strong></font> &nbsp; &nbsp; &nbsp; &nbsp; &nbsp; &nbsp;<font class='negOutcome'>You receive: <strong>0</strong></font></div>","null","15","Limin' Large","Fruit/lime.png","Lost","0.8,0.35","11","0.8","236","45","",""
"html-keyboard-response","145","374869","0.0-11.0-1.45","63bda65b774a91e291c5b1a8","bdp_rwlrn","Sun Mar 12 2023 23:52:20 GMT-0400 (Eastern Daylight Time)","603434","Trustworthy,Untrustworthy","","583","","","","decision","","<div class='trialDiv'><img src='Fruit/plums1.png'><br><font class='baseline'><strong>Plum Powerball</strong><p>Choose number of points to bet.</font><div class='respPicDiv'><img src='img/responseButtonOffersNo0L.png' class='respPic'></div></div>","4","16","Plum Powerball","Fruit/plums1.png","Won","0.2,0.65","8","0.2","241","46","",""
"html-keyboard-response","146","375123","0.0-11.0-2.45","63bda65b774a91e291c5b1a8","bdp_rwlrn","Sun Mar 12 2023 23:52:20 GMT-0400 (Eastern Daylight Time)","603434","Trustworthy,Untrustworthy","","null","","","","decisionFB","","<div class='trialDiv'><img src='Fruit/plums1.png'><br><font class='baseline'><strong>Plum Powerball</strong><p>Choose number of points to bet.</font><div class='respPicDiv'><img src='img/responseButtonOffersNo0L4.png' class='respPic'></div></div>","null","16","Plum Powerball","Fruit/plums1.png","Won","0.2,0.65","8","0.2","237","46","",""
"html-keyboard-response","147","376140","0.0-11.0-3.45","63bda65b774a91e291c5b1a8","bdp_rwlrn","Sun Mar 12 2023 23:52:20 GMT-0400 (Eastern Daylight Time)","603434","Trustworthy,Untrustworthy","","null","","","","feedback","","<div class='respPicDiv'><img src='img/responseButtonOffersNo0_wht.png' class='respPic'></div><div class='trialDiv'><img src='Fruit/plums1.png'><br><font class='baseline'><strong>Plum Powerball</strong><p><strong><font class='posOutcome'>You WON</font><p>You bet: 4</strong></font> &nbsp; &nbsp; &nbsp; &nbsp; &nbsp; &nbsp;<font class='posOutcome'>you receive: <strong>8</strong></font></div>","null","16","Plum Powerball","Fruit/plums1.png","Won","0.2,0.65","8","0.2","245","46","",""
"html-keyboard-response","148","377083","0.0-11.0-1.46","63bda65b774a91e291c5b1a8","bdp_rwlrn","Sun Mar 12 2023 23:52:20 GMT-0400 (Eastern Daylight Time)","603434","Trustworthy,Untrustworthy","","942","","","","decision","","<div class='trialDiv'><img src='Fruit/lime.png'><br><font class='baseline'><strong>Limin' Large</strong><p>Choose number of points to bet.</font><div class='respPicDiv'><img src='img/responseButtonOffersNo0L.png' class='respPic'></div></div>","4","16","Limin' Large","Fruit/lime.png","Won","0.8,0.35","11","0.8","250","47","",""
"html-keyboard-response","149","377341","0.0-11.0-2.46","63bda65b774a91e291c5b1a8","bdp_rwlrn","Sun Mar 12 2023 23:52:20 GMT-0400 (Eastern Daylight Time)","603434","Trustworthy,Untrustworthy","","null","","","","decisionFB","","<div class='trialDiv'><img src='Fruit/lime.png'><br><font class='baseline'><strong>Limin' Large</strong><p>Choose number of points to bet.</font><div class='respPicDiv'><img src='img/responseButtonOffersNo0L4.png' class='respPic'></div></div>","null","16","Limin' Large","Fruit/lime.png","Won","0.8,0.35","11","0.8","246","47","",""
"html-keyboard-response","150","378358","0.0-11.0-3.46","63bda65b774a91e291c5b1a8","bdp_rwlrn","Sun Mar 12 2023 23:52:20 GMT-0400 (Eastern Daylight Time)","603434","Trustworthy,Untrustworthy","","null","","","","feedback","","<div class='respPicDiv'><img src='img/responseButtonOffersNo0_wht.png' class='respPic'></div><div class='trialDiv'><img src='Fruit/lime.png'><br><font class='baseline'><strong>Limin' Large</strong><p><strong><font class='posOutcome'>You WON</font><p>You bet: 4</strong></font> &nbsp; &nbsp; &nbsp; &nbsp; &nbsp; &nbsp;<font class='posOutcome'>you receive: <strong>8</strong></font></div>","null","16","Limin' Large","Fruit/lime.png","Won","0.8,0.35","11","0.8","254","47","",""
"html-keyboard-response","151","379114","0.0-11.0-1.47","63bda65b774a91e291c5b1a8","bdp_rwlrn","Sun Mar 12 2023 23:52:20 GMT-0400 (Eastern Daylight Time)","603434","Trustworthy,Untrustworthy","","755","","","","decision","","<div class='trialDiv'><img src='Fruit/watermelon.png'><br><font class='baseline'><strong>Watermelon Win$</strong><p>Choose number of points to bet.</font><div class='respPicDiv'><img src='img/responseButtonOffersNo0L.png' class='respPic'></div></div>","1","16","Watermelon Win$","Fruit/watermelon.png","Won","0.2,0.8","14","0.2","259","48","",""
"html-keyboard-response","152","379378","0.0-11.0-2.47","63bda65b774a91e291c5b1a8","bdp_rwlrn","Sun Mar 12 2023 23:52:20 GMT-0400 (Eastern Daylight Time)","603434","Trustworthy,Untrustworthy","","null","","","","decisionFB","","<div class='trialDiv'><img src='Fruit/watermelon.png'><br><font class='baseline'><strong>Watermelon Win$</strong><p>Choose number of points to bet.</font><div class='respPicDiv'><img src='img/responseButtonOffersNo0L1.png' class='respPic'></div></div>","null","16","Watermelon Win$","Fruit/watermelon.png","Won","0.2,0.8","14","0.2","258","48","",""
"html-keyboard-response","153","380390","0.0-11.0-3.47","63bda65b774a91e291c5b1a8","bdp_rwlrn","Sun Mar 12 2023 23:52:20 GMT-0400 (Eastern Daylight Time)","603434","Trustworthy,Untrustworthy","","null","","","","feedback","","<div class='respPicDiv'><img src='img/responseButtonOffersNo0_wht.png' class='respPic'></div><div class='trialDiv'><img src='Fruit/watermelon.png'><br><font class='baseline'><strong>Watermelon Win$</strong><p><strong><font class='posOutcome'>You WON</font><p>You bet: 1</strong></font> &nbsp; &nbsp; &nbsp; &nbsp; &nbsp; &nbsp;<font class='posOutcome'>you receive: <strong>2</strong></font></div>","null","16","Watermelon Win$","Fruit/watermelon.png","Won","0.2,0.8","14","0.2","260","48","",""
"html-keyboard-response","154","381238","0.0-11.0-1.48","63bda65b774a91e291c5b1a8","bdp_rwlrn","Sun Mar 12 2023 23:52:20 GMT-0400 (Eastern Daylight Time)","603434","Trustworthy,Untrustworthy","","846","","","","decision","","<div class='trialDiv'><img src='Fruit/plums1.png'><br><font class='baseline'><strong>Plum Powerball</strong><p>Choose number of points to bet.</font><div class='respPicDiv'><img src='img/responseButtonOffersNo0L.png' class='respPic'></div></div>","1","17","Plum Powerball","Fruit/plums1.png","Won","0.2,0.65","8","0.2","265","49","",""
"html-keyboard-response","155","381492","0.0-11.0-2.48","63bda65b774a91e291c5b1a8","bdp_rwlrn","Sun Mar 12 2023 23:52:20 GMT-0400 (Eastern Daylight Time)","603434","Trustworthy,Untrustworthy","","null","","","","decisionFB","","<div class='trialDiv'><img src='Fruit/plums1.png'><br><font class='baseline'><strong>Plum Powerball</strong><p>Choose number of points to bet.</font><div class='respPicDiv'><img src='img/responseButtonOffersNo0L1.png' class='respPic'></div></div>","null","17","Plum Powerball","Fruit/plums1.png","Won","0.2,0.65","8","0.2","264","49","",""
"html-keyboard-response","156","382504","0.0-11.0-3.48","63bda65b774a91e291c5b1a8","bdp_rwlrn","Sun Mar 12 2023 23:52:20 GMT-0400 (Eastern Daylight Time)","603434","Trustworthy,Untrustworthy","","null","","","","feedback","","<div class='respPicDiv'><img src='img/responseButtonOffersNo0_wht.png' class='respPic'></div><div class='trialDiv'><img src='Fruit/plums1.png'><br><font class='baseline'><strong>Plum Powerball</strong><p><strong><font class='posOutcome'>You WON</font><p>You bet: 1</strong></font> &nbsp; &nbsp; &nbsp; &nbsp; &nbsp; &nbsp;<font class='posOutcome'>you receive: <strong>2</strong></font></div>","null","17","Plum Powerball","Fruit/plums1.png","Won","0.2,0.65","8","0.2","266","49","",""
"html-keyboard-response","157","383149","0.0-11.0-1.49","63bda65b774a91e291c5b1a8","bdp_rwlrn","Sun Mar 12 2023 23:52:20 GMT-0400 (Eastern Daylight Time)","603434","Trustworthy,Untrustworthy","","644","","","","decision","","<div class='trialDiv'><img src='Fruit/lime.png'><br><font class='baseline'><strong>Limin' Large</strong><p>Choose number of points to bet.</font><div class='respPicDiv'><img src='img/responseButtonOffersNo0L.png' class='respPic'></div></div>","5","17","Limin' Large","Fruit/lime.png","Won","0.8,0.35","11","0.8","271","50","",""
"html-keyboard-response","158","383403","0.0-11.0-2.49","63bda65b774a91e291c5b1a8","bdp_rwlrn","Sun Mar 12 2023 23:52:20 GMT-0400 (Eastern Daylight Time)","603434","Trustworthy,Untrustworthy","","null","","","","decisionFB","","<div class='trialDiv'><img src='Fruit/lime.png'><br><font class='baseline'><strong>Limin' Large</strong><p>Choose number of points to bet.</font><div class='respPicDiv'><img src='img/responseButtonOffersNo0L5.png' class='respPic'></div></div>","null","17","Limin' Large","Fruit/lime.png","Won","0.8,0.35","11","0.8","266","50","",""
"html-keyboard-response","159","384409","0.0-11.0-3.49","63bda65b774a91e291c5b1a8","bdp_rwlrn","Sun Mar 12 2023 23:52:20 GMT-0400 (Eastern Daylight Time)","603434","Trustworthy,Untrustworthy","","null","","","","feedback","","<div class='respPicDiv'><img src='img/responseButtonOffersNo0_wht.png' class='respPic'></div><div class='trialDiv'><img src='Fruit/lime.png'><br><font class='baseline'><strong>Limin' Large</strong><p><strong><font class='posOutcome'>You WON</font><p>You bet: 5</strong></font> &nbsp; &nbsp; &nbsp; &nbsp; &nbsp; &nbsp;<font class='posOutcome'>you receive: <strong>10</strong></font></div>","null","17","Limin' Large","Fruit/lime.png","Won","0.8,0.35","11","0.8","276","50","",""
"html-keyboard-response","160","385551","0.0-11.0-1.50","63bda65b774a91e291c5b1a8","bdp_rwlrn","Sun Mar 12 2023 23:52:20 GMT-0400 (Eastern Daylight Time)","603434","Trustworthy,Untrustworthy","","1141","","","","decision","","<div class='trialDiv'><img src='Fruit/watermelon.png'><br><font class='baseline'><strong>Watermelon Win$</strong><p>Choose number of points to bet.</font><div class='respPicDiv'><img src='img/responseButtonOffersNo0L.png' class='respPic'></div></div>","4","17","Watermelon Win$","Fruit/watermelon.png","Won","0.2,0.8","14","0.2","281","51","",""
"html-keyboard-response","161","385813","0.0-11.0-2.50","63bda65b774a91e291c5b1a8","bdp_rwlrn","Sun Mar 12 2023 23:52:20 GMT-0400 (Eastern Daylight Time)","603434","Trustworthy,Untrustworthy","","null","","","","decisionFB","","<div class='trialDiv'><img src='Fruit/watermelon.png'><br><font class='baseline'><strong>Watermelon Win$</strong><p>Choose number of points to bet.</font><div class='respPicDiv'><img src='img/responseButtonOffersNo0L4.png' class='respPic'></div></div>","null","17","Watermelon Win$","Fruit/watermelon.png","Won","0.2,0.8","14","0.2","277","51","",""
"html-keyboard-response","162","386821","0.0-11.0-3.50","63bda65b774a91e291c5b1a8","bdp_rwlrn","Sun Mar 12 2023 23:52:20 GMT-0400 (Eastern Daylight Time)","603434","Trustworthy,Untrustworthy","","null","","","","feedback","","<div class='respPicDiv'><img src='img/responseButtonOffersNo0_wht.png' class='respPic'></div><div class='trialDiv'><img src='Fruit/watermelon.png'><br><font class='baseline'><strong>Watermelon Win$</strong><p><strong><font class='posOutcome'>You WON</font><p>You bet: 4</strong></font> &nbsp; &nbsp; &nbsp; &nbsp; &nbsp; &nbsp;<font class='posOutcome'>you receive: <strong>8</strong></font></div>","null","17","Watermelon Win$","Fruit/watermelon.png","Won","0.2,0.8","14","0.2","285","51","",""
