"trial_type","trial_index","time_elapsed","internal_node_id","subject_id","task","startTime","totalTime","labels","view_history","rt","event","trial","time","trialtype","success","stimulus","key_press","ltround","name","fileID","outcome","lottotype","lottoswpt","lottocurrpshare","point_total","round","faceID","face"
"pavlovia","0","17","0.0-0.0","63d7a6a997f03198526a1941","bdp_rwlrn","Thu Mar 16 2023 03:21:14 GMT+0800 (China Standard Time)","633993","Trustworthy,Untrustworthy","","","","","","","","","","","","","","","","","","","",""
"instructions","1","9825","0.0-1.0","63d7a6a997f03198526a1941","bdp_rwlrn","Thu Mar 16 2023 03:21:14 GMT+0800 (China Standard Time)","633993","Trustworthy,Untrustworthy","[{""page_index"":0,""viewing_time"":9805}]","9806","","","","","","","","","","","","","","","","","",""
"","","","","63d7a6a997f03198526a1941","bdp_rwlrn","Thu Mar 16 2023 03:21:14 GMT+0800 (China Standard Time)","633993","Trustworthy,Untrustworthy","","","fullscreenenter","2","14138","fullscreenenter","","","","","","","","","","","","","",""
"fullscreen","2","15007","0.0-2.0","63d7a6a997f03198526a1941","bdp_rwlrn","Thu Mar 16 2023 03:21:14 GMT+0800 (China Standard Time)","633993","Trustworthy,Untrustworthy","","","","","","","true","","","","","","","","","","","","",""
"instructions","3","217260","0.0-4.0","63d7a6a997f03198526a1941","bdp_rwlrn","Thu Mar 16 2023 03:21:14 GMT+0800 (China Standard Time)","633993","Trustworthy,Untrustworthy","[{""page_index"":0,""viewing_time"":19891},{""page_index"":1,""viewing_time"":33292},{""page_index"":2,""viewing_time"":52012},{""page_index"":3,""viewing_time"":3568},{""page_index"":4,""viewing_time"":66791},{""page_index"":5,""viewing_time"":26690}]","202245","","","","","","","","","","","","","","","","","",""
"html-keyboard-response","4","224486","0.0-5.0","63d7a6a997f03198526a1941","bdp_rwlrn","Thu Mar 16 2023 03:21:14 GMT+0800 (China Standard Time)","633993","Trustworthy,Untrustworthy","","7209","","","","","","<div class='header' style='text-align:left; position: absolute; top: 5%; left: 5%;'><small>Task 1 of 5</small></div><div class='instruxDiv'><p><strong>1) What is the maximum number of points you can choose to bet on a lottery?</strong></p><p>a) 0</p><p>b) 1</p><p>c) 5</p>","C","","","","","","","","","","",""
"html-keyboard-response","5","228649","0.0-6.0","63d7a6a997f03198526a1941","bdp_rwlrn","Thu Mar 16 2023 03:21:14 GMT+0800 (China Standard Time)","633993","Trustworthy,Untrustworthy","","4055","","","","","","<div class='header' style='text-align:left; position: absolute; top: 5%; left: 5%;'><small>Task 1 of 5</small></div><div class='instruxDiv'><p><strong>1) What is the maximum number of points you can choose to bet on a lottery?</strong></p><p>a) 1</p><p>b) 1</p><p style='color:#00FF00'>c) 5</p><h3 style='color:#00FF00'>Correct!</h3><h3 class='center-content'>The correct response is c).</h3><h3 class='center-content'>The maximum number of points you can choose to bet on a lottery is 5 points.</h3><p><em>Press SPACEBAR to continue</em></p></div>"," ","","","","","","","","","","",""
"html-keyboard-response","6","234660","0.0-7.0","63d7a6a997f03198526a1941","bdp_rwlrn","Thu Mar 16 2023 03:21:14 GMT+0800 (China Standard Time)","633993","Trustworthy,Untrustworthy","","5901","","","","","","<div class='header' style='text-align:left; position: absolute; top: 5%; left: 5%;'><small>Task 1 of 5</small></div><div class='instruxDiv'><p><strong>2) How many points can you win each round?</strong></p><p>a) 10 points</p><p>b) Double what you bet</p><p>c) Quadruple what you bet</p>","A","","","","","","","","","","",""
"html-keyboard-response","7","245971","0.0-8.0","63d7a6a997f03198526a1941","bdp_rwlrn","Thu Mar 16 2023 03:21:14 GMT+0800 (China Standard Time)","633993","Trustworthy,Untrustworthy","","11192","","","","","","<div class='header' style='text-align:left; position: absolute; top: 5%; left: 5%;'><small>Task 1 of 5</small></div><div class='instruxDiv'><p><strong>2) How many points can you win each round?</strong></p><p style='color:#FF0000'>a) 10 points</p><p>b) Double what you bet</p><p>c) Quadruple what you bet</p><h3 style='color:#FF0000'>Incorrect!</h3><h3 class='center-content'>The correct response is b).</h3><h3 class='center-content'>You can win double the amount of points you bet.</h3><p><em>Press SPACEBAR to continue</em></p></div>"," ","","","","","","","","","","",""
"html-keyboard-response","8","251083","0.0-9.0","63d7a6a997f03198526a1941","bdp_rwlrn","Thu Mar 16 2023 03:21:14 GMT+0800 (China Standard Time)","633993","Trustworthy,Untrustworthy","","null","","","","","","<div class='header' style='text-align:left; position: absolute; top: 5%; left: 5%;'><small>Task 1 of 5</small></div><div class='instruxDiv'><p>Thank you for completing the quiz<p>These are the actual lotteries you will be playing in the next block:<p><div class='tc' align='center'><img class='introPic' src='Fruit/melon.png'><br><strong>Melon Millions</strong></div><div class='bl' align='center'><img class='introPic' src='Fruit/plums1.png'><br><strong>Plum Powerball</strong></div><div class='br' align='center'><img class='introPic' src='Fruit/cherrie.png'><br><strong>Cherry Chances</strong></div></div><p>Across <strong>66 rounds</strong> you will play each lottery <strong>22 times</strong> (in random order).<p style='align:center; color:white'><font <em>Press SPACEBAR to continue</em></p>","null","","","","","","","","","","",""
"instructions","9","265127","0.0-10.0","63d7a6a997f03198526a1941","bdp_rwlrn","Thu Mar 16 2023 03:21:14 GMT+0800 (China Standard Time)","633993","Trustworthy,Untrustworthy","[{""page_index"":0,""viewing_time"":7921},{""page_index"":1,""viewing_time"":6113}]","14037","","","","","","","","","","","","","","","","","",""
"html-keyboard-response","10","267222","0.0-11.0-1.0","63d7a6a997f03198526a1941","bdp_rwlrn","Thu Mar 16 2023 03:21:14 GMT+0800 (China Standard Time)","633993","Trustworthy,Untrustworthy","","1978","","","","decision","","<div class='trialDiv'><img src='Fruit/melon.png'><br><font class='baseline'><strong>Melon Millions</strong><p>Choose number of points to bet.</font><div class='respPicDiv'><img src='img/responseButtonOffersNo0L.png' class='respPic'></div></div>","5","1","Melon Millions","Fruit/melon.png","Won","0.35,0.8","13","0.35","5","1","",""
"html-keyboard-response","11","267477","0.0-11.0-2.0","63d7a6a997f03198526a1941","bdp_rwlrn","Thu Mar 16 2023 03:21:14 GMT+0800 (China Standard Time)","633993","Trustworthy,Untrustworthy","","null","","","","decisionFB","","<div class='trialDiv'><img src='Fruit/melon.png'><br><font class='baseline'><strong>Melon Millions</strong><p>Choose number of points to bet.</font><div class='respPicDiv'><img src='img/responseButtonOffersNo0L5.png' class='respPic'></div></div>","null","1","Melon Millions","Fruit/melon.png","Won","0.35,0.8","13","0.35","0","1","",""
"html-keyboard-response","12","268489","0.0-11.0-3.0","63d7a6a997f03198526a1941","bdp_rwlrn","Thu Mar 16 2023 03:21:14 GMT+0800 (China Standard Time)","633993","Trustworthy,Untrustworthy","","null","","","","feedback","","<div class='respPicDiv'><img src='img/responseButtonOffersNo0_wht.png' class='respPic'></div><div class='trialDiv'><img src='Fruit/melon.png'><br><font class='baseline'><strong>Melon Millions</strong><p><strong><font class='posOutcome'>You WON</font><p>You bet: 5</strong></font> &nbsp; &nbsp; &nbsp; &nbsp; &nbsp; &nbsp;<font class='posOutcome'>you receive: <strong>10</strong></font></div>","null","1","Melon Millions","Fruit/melon.png","Won","0.35,0.8","13","0.35","10","1","",""
"html-keyboard-response","13","270411","0.0-11.0-1.1","63d7a6a997f03198526a1941","bdp_rwlrn","Thu Mar 16 2023 03:21:14 GMT+0800 (China Standard Time)","633993","Trustworthy,Untrustworthy","","1914","","","","decision","","<div class='trialDiv'><img src='Fruit/plums1.png'><br><font class='baseline'><strong>Plum Powerball</strong><p>Choose number of points to bet.</font><div class='respPicDiv'><img src='img/responseButtonOffersNo0L.png' class='respPic'></div></div>","5","1","Plum Powerball","Fruit/plums1.png","Won","0.8,0.2","12","0.8","15","2","",""
"html-keyboard-response","14","270670","0.0-11.0-2.1","63d7a6a997f03198526a1941","bdp_rwlrn","Thu Mar 16 2023 03:21:14 GMT+0800 (China Standard Time)","633993","Trustworthy,Untrustworthy","","null","","","","decisionFB","","<div class='trialDiv'><img src='Fruit/plums1.png'><br><font class='baseline'><strong>Plum Powerball</strong><p>Choose number of points to bet.</font><div class='respPicDiv'><img src='img/responseButtonOffersNo0L5.png' class='respPic'></div></div>","null","1","Plum Powerball","Fruit/plums1.png","Won","0.8,0.2","12","0.8","10","2","",""
"html-keyboard-response","15","271677","0.0-11.0-3.1","63d7a6a997f03198526a1941","bdp_rwlrn","Thu Mar 16 2023 03:21:14 GMT+0800 (China Standard Time)","633993","Trustworthy,Untrustworthy","","null","","","","feedback","","<div class='respPicDiv'><img src='img/responseButtonOffersNo0_wht.png' class='respPic'></div><div class='trialDiv'><img src='Fruit/plums1.png'><br><font class='baseline'><strong>Plum Powerball</strong><p><strong><font class='posOutcome'>You WON</font><p>You bet: 5</strong></font> &nbsp; &nbsp; &nbsp; &nbsp; &nbsp; &nbsp;<font class='posOutcome'>you receive: <strong>10</strong></font></div>","null","1","Plum Powerball","Fruit/plums1.png","Won","0.8,0.2","12","0.8","20","2","",""
"html-keyboard-response","16","273042","0.0-11.0-1.2","63d7a6a997f03198526a1941","bdp_rwlrn","Thu Mar 16 2023 03:21:14 GMT+0800 (China Standard Time)","633993","Trustworthy,Untrustworthy","","1356","","","","decision","","<div class='trialDiv'><img src='Fruit/cherrie.png'><br><font class='baseline'><strong>Cherry Chances</strong><p>Choose number of points to bet.</font><div class='respPicDiv'><img src='img/responseButtonOffersNo0L.png' class='respPic'></div></div>","5","1","Cherry Chances","Fruit/cherrie.png","Lost","0.65,0.2","12","0.65","25","3","",""
"html-keyboard-response","17","273299","0.0-11.0-2.2","63d7a6a997f03198526a1941","bdp_rwlrn","Thu Mar 16 2023 03:21:14 GMT+0800 (China Standard Time)","633993","Trustworthy,Untrustworthy","","null","","","","decisionFB","","<div class='trialDiv'><img src='Fruit/cherrie.png'><br><font class='baseline'><strong>Cherry Chances</strong><p>Choose number of points to bet.</font><div class='respPicDiv'><img src='img/responseButtonOffersNo0L5.png' class='respPic'></div></div>","null","1","Cherry Chances","Fruit/cherrie.png","Lost","0.65,0.2","12","0.65","20","3","",""
"html-keyboard-response","18","274310","0.0-11.0-3.2","63d7a6a997f03198526a1941","bdp_rwlrn","Thu Mar 16 2023 03:21:14 GMT+0800 (China Standard Time)","633993","Trustworthy,Untrustworthy","","null","","","","feedback","","<div class='respPicDiv'><img src='img/responseButtonOffersNo0_wht.png' class='respPic'></div><div class='trialDiv'><img src='Fruit/cherrie.png'><br><font class='baseline'><strong>Cherry Chances</strong><p><strong><font class='negOutcome'>You LOST</font><p>You bet: 5</strong></font> &nbsp; &nbsp; &nbsp; &nbsp; &nbsp; &nbsp;<font class='negOutcome'>You receive: <strong>0</strong></font></div>","null","1","Cherry Chances","Fruit/cherrie.png","Lost","0.65,0.2","12","0.65","20","3","",""
"html-keyboard-response","19","277246","0.0-11.0-1.3","63d7a6a997f03198526a1941","bdp_rwlrn","Thu Mar 16 2023 03:21:14 GMT+0800 (China Standard Time)","633993","Trustworthy,Untrustworthy","","2928","","","","decision","","<div class='trialDiv'><img src='Fruit/melon.png'><br><font class='baseline'><strong>Melon Millions</strong><p>Choose number of points to bet.</font><div class='respPicDiv'><img src='img/responseButtonOffersNo0L.png' class='respPic'></div></div>","5","2","Melon Millions","Fruit/melon.png","Lost","0.35,0.8","13","0.35","25","4","",""
"html-keyboard-response","20","277509","0.0-11.0-2.3","63d7a6a997f03198526a1941","bdp_rwlrn","Thu Mar 16 2023 03:21:14 GMT+0800 (China Standard Time)","633993","Trustworthy,Untrustworthy","","null","","","","decisionFB","","<div class='trialDiv'><img src='Fruit/melon.png'><br><font class='baseline'><strong>Melon Millions</strong><p>Choose number of points to bet.</font><div class='respPicDiv'><img src='img/responseButtonOffersNo0L5.png' class='respPic'></div></div>","null","2","Melon Millions","Fruit/melon.png","Lost","0.35,0.8","13","0.35","20","4","",""
"html-keyboard-response","21","278514","0.0-11.0-3.3","63d7a6a997f03198526a1941","bdp_rwlrn","Thu Mar 16 2023 03:21:14 GMT+0800 (China Standard Time)","633993","Trustworthy,Untrustworthy","","null","","","","feedback","","<div class='respPicDiv'><img src='img/responseButtonOffersNo0_wht.png' class='respPic'></div><div class='trialDiv'><img src='Fruit/melon.png'><br><font class='baseline'><strong>Melon Millions</strong><p><strong><font class='negOutcome'>You LOST</font><p>You bet: 5</strong></font> &nbsp; &nbsp; &nbsp; &nbsp; &nbsp; &nbsp;<font class='negOutcome'>You receive: <strong>0</strong></font></div>","null","2","Melon Millions","Fruit/melon.png","Lost","0.35,0.8","13","0.35","20","4","",""
"html-keyboard-response","22","280059","0.0-11.0-1.4","63d7a6a997f03198526a1941","bdp_rwlrn","Thu Mar 16 2023 03:21:14 GMT+0800 (China Standard Time)","633993","Trustworthy,Untrustworthy","","1534","","","","decision","","<div class='trialDiv'><img src='Fruit/cherrie.png'><br><font class='baseline'><strong>Cherry Chances</strong><p>Choose number of points to bet.</font><div class='respPicDiv'><img src='img/responseButtonOffersNo0L.png' class='respPic'></div></div>","1","2","Cherry Chances","Fruit/cherrie.png","Won","0.65,0.2","12","0.65","25","5","",""
"html-keyboard-response","23","280317","0.0-11.0-2.4","63d7a6a997f03198526a1941","bdp_rwlrn","Thu Mar 16 2023 03:21:14 GMT+0800 (China Standard Time)","633993","Trustworthy,Untrustworthy","","null","","","","decisionFB","","<div class='trialDiv'><img src='Fruit/cherrie.png'><br><font class='baseline'><strong>Cherry Chances</strong><p>Choose number of points to bet.</font><div class='respPicDiv'><img src='img/responseButtonOffersNo0L1.png' class='respPic'></div></div>","null","2","Cherry Chances","Fruit/cherrie.png","Won","0.65,0.2","12","0.65","24","5","",""
"html-keyboard-response","24","281330","0.0-11.0-3.4","63d7a6a997f03198526a1941","bdp_rwlrn","Thu Mar 16 2023 03:21:14 GMT+0800 (China Standard Time)","633993","Trustworthy,Untrustworthy","","null","","","","feedback","","<div class='respPicDiv'><img src='img/responseButtonOffersNo0_wht.png' class='respPic'></div><div class='trialDiv'><img src='Fruit/cherrie.png'><br><font class='baseline'><strong>Cherry Chances</strong><p><strong><font class='posOutcome'>You WON</font><p>You bet: 1</strong></font> &nbsp; &nbsp; &nbsp; &nbsp; &nbsp; &nbsp;<font class='posOutcome'>you receive: <strong>2</strong></font></div>","null","2","Cherry Chances","Fruit/cherrie.png","Won","0.65,0.2","12","0.65","26","5","",""
"html-keyboard-response","25","283325","0.0-11.0-1.5","63d7a6a997f03198526a1941","bdp_rwlrn","Thu Mar 16 2023 03:21:14 GMT+0800 (China Standard Time)","633993","Trustworthy,Untrustworthy","","1988","","","","decision","","<div class='trialDiv'><img src='Fruit/plums1.png'><br><font class='baseline'><strong>Plum Powerball</strong><p>Choose number of points to bet.</font><div class='respPicDiv'><img src='img/responseButtonOffersNo0L.png' class='respPic'></div></div>","4","2","Plum Powerball","Fruit/plums1.png","Won","0.8,0.2","12","0.8","31","6","",""
"html-keyboard-response","26","283582","0.0-11.0-2.5","63d7a6a997f03198526a1941","bdp_rwlrn","Thu Mar 16 2023 03:21:14 GMT+0800 (China Standard Time)","633993","Trustworthy,Untrustworthy","","null","","","","decisionFB","","<div class='trialDiv'><img src='Fruit/plums1.png'><br><font class='baseline'><strong>Plum Powerball</strong><p>Choose number of points to bet.</font><div class='respPicDiv'><img src='img/responseButtonOffersNo0L4.png' class='respPic'></div></div>","null","2","Plum Powerball","Fruit/plums1.png","Won","0.8,0.2","12","0.8","27","6","",""
"html-keyboard-response","27","284591","0.0-11.0-3.5","63d7a6a997f03198526a1941","bdp_rwlrn","Thu Mar 16 2023 03:21:14 GMT+0800 (China Standard Time)","633993","Trustworthy,Untrustworthy","","null","","","","feedback","","<div class='respPicDiv'><img src='img/responseButtonOffersNo0_wht.png' class='respPic'></div><div class='trialDiv'><img src='Fruit/plums1.png'><br><font class='baseline'><strong>Plum Powerball</strong><p><strong><font class='posOutcome'>You WON</font><p>You bet: 4</strong></font> &nbsp; &nbsp; &nbsp; &nbsp; &nbsp; &nbsp;<font class='posOutcome'>you receive: <strong>8</strong></font></div>","null","2","Plum Powerball","Fruit/plums1.png","Won","0.8,0.2","12","0.8","35","6","",""
"html-keyboard-response","28","286348","0.0-11.0-1.6","63d7a6a997f03198526a1941","bdp_rwlrn","Thu Mar 16 2023 03:21:14 GMT+0800 (China Standard Time)","633993","Trustworthy,Untrustworthy","","1752","","","","decision","","<div class='trialDiv'><img src='Fruit/cherrie.png'><br><font class='baseline'><strong>Cherry Chances</strong><p>Choose number of points to bet.</font><div class='respPicDiv'><img src='img/responseButtonOffersNo0L.png' class='respPic'></div></div>","2","3","Cherry Chances","Fruit/cherrie.png","Lost","0.65,0.2","12","0.65","40","7","",""
"html-keyboard-response","29","286611","0.0-11.0-2.6","63d7a6a997f03198526a1941","bdp_rwlrn","Thu Mar 16 2023 03:21:14 GMT+0800 (China Standard Time)","633993","Trustworthy,Untrustworthy","","null","","","","decisionFB","","<div class='trialDiv'><img src='Fruit/cherrie.png'><br><font class='baseline'><strong>Cherry Chances</strong><p>Choose number of points to bet.</font><div class='respPicDiv'><img src='img/responseButtonOffersNo0L2.png' class='respPic'></div></div>","null","3","Cherry Chances","Fruit/cherrie.png","Lost","0.65,0.2","12","0.65","38","7","",""
"html-keyboard-response","30","287620","0.0-11.0-3.6","63d7a6a997f03198526a1941","bdp_rwlrn","Thu Mar 16 2023 03:21:14 GMT+0800 (China Standard Time)","633993","Trustworthy,Untrustworthy","","null","","","","feedback","","<div class='respPicDiv'><img src='img/responseButtonOffersNo0_wht.png' class='respPic'></div><div class='trialDiv'><img src='Fruit/cherrie.png'><br><font class='baseline'><strong>Cherry Chances</strong><p><strong><font class='negOutcome'>You LOST</font><p>You bet: 2</strong></font> &nbsp; &nbsp; &nbsp; &nbsp; &nbsp; &nbsp;<font class='negOutcome'>You receive: <strong>0</strong></font></div>","null","3","Cherry Chances","Fruit/cherrie.png","Lost","0.65,0.2","12","0.65","38","7","",""
"html-keyboard-response","31","289055","0.0-11.0-1.7","63d7a6a997f03198526a1941","bdp_rwlrn","Thu Mar 16 2023 03:21:14 GMT+0800 (China Standard Time)","633993","Trustworthy,Untrustworthy","","1425","","","","decision","","<div class='trialDiv'><img src='Fruit/melon.png'><br><font class='baseline'><strong>Melon Millions</strong><p>Choose number of points to bet.</font><div class='respPicDiv'><img src='img/responseButtonOffersNo0L.png' class='respPic'></div></div>","5","3","Melon Millions","Fruit/melon.png","Won","0.35,0.8","13","0.35","43","8","",""
"html-keyboard-response","32","289314","0.0-11.0-2.7","63d7a6a997f03198526a1941","bdp_rwlrn","Thu Mar 16 2023 03:21:14 GMT+0800 (China Standard Time)","633993","Trustworthy,Untrustworthy","","null","","","","decisionFB","","<div class='trialDiv'><img src='Fruit/melon.png'><br><font class='baseline'><strong>Melon Millions</strong><p>Choose number of points to bet.</font><div class='respPicDiv'><img src='img/responseButtonOffersNo0L5.png' class='respPic'></div></div>","null","3","Melon Millions","Fruit/melon.png","Won","0.35,0.8","13","0.35","38","8","",""
"html-keyboard-response","33","290326","0.0-11.0-3.7","63d7a6a997f03198526a1941","bdp_rwlrn","Thu Mar 16 2023 03:21:14 GMT+0800 (China Standard Time)","633993","Trustworthy,Untrustworthy","","null","","","","feedback","","<div class='respPicDiv'><img src='img/responseButtonOffersNo0_wht.png' class='respPic'></div><div class='trialDiv'><img src='Fruit/melon.png'><br><font class='baseline'><strong>Melon Millions</strong><p><strong><font class='posOutcome'>You WON</font><p>You bet: 5</strong></font> &nbsp; &nbsp; &nbsp; &nbsp; &nbsp; &nbsp;<font class='posOutcome'>you receive: <strong>10</strong></font></div>","null","3","Melon Millions","Fruit/melon.png","Won","0.35,0.8","13","0.35","48","8","",""
"html-keyboard-response","34","293123","0.0-11.0-1.8","63d7a6a997f03198526a1941","bdp_rwlrn","Thu Mar 16 2023 03:21:14 GMT+0800 (China Standard Time)","633993","Trustworthy,Untrustworthy","","2790","","","","decision","","<div class='trialDiv'><img src='Fruit/plums1.png'><br><font class='baseline'><strong>Plum Powerball</strong><p>Choose number of points to bet.</font><div class='respPicDiv'><img src='img/responseButtonOffersNo0L.png' class='respPic'></div></div>","3","3","Plum Powerball","Fruit/plums1.png","Won","0.8,0.2","12","0.8","53","9","",""
"html-keyboard-response","35","293382","0.0-11.0-2.8","63d7a6a997f03198526a1941","bdp_rwlrn","Thu Mar 16 2023 03:21:14 GMT+0800 (China Standard Time)","633993","Trustworthy,Untrustworthy","","null","","","","decisionFB","","<div class='trialDiv'><img src='Fruit/plums1.png'><br><font class='baseline'><strong>Plum Powerball</strong><p>Choose number of points to bet.</font><div class='respPicDiv'><img src='img/responseButtonOffersNo0L3.png' class='respPic'></div></div>","null","3","Plum Powerball","Fruit/plums1.png","Won","0.8,0.2","12","0.8","50","9","",""
"html-keyboard-response","36","294397","0.0-11.0-3.8","63d7a6a997f03198526a1941","bdp_rwlrn","Thu Mar 16 2023 03:21:14 GMT+0800 (China Standard Time)","633993","Trustworthy,Untrustworthy","","null","","","","feedback","","<div class='respPicDiv'><img src='img/responseButtonOffersNo0_wht.png' class='respPic'></div><div class='trialDiv'><img src='Fruit/plums1.png'><br><font class='baseline'><strong>Plum Powerball</strong><p><strong><font class='posOutcome'>You WON</font><p>You bet: 3</strong></font> &nbsp; &nbsp; &nbsp; &nbsp; &nbsp; &nbsp;<font class='posOutcome'>you receive: <strong>6</strong></font></div>","null","3","Plum Powerball","Fruit/plums1.png","Won","0.8,0.2","12","0.8","56","9","",""
"html-keyboard-response","37","296117","0.0-11.0-1.9","63d7a6a997f03198526a1941","bdp_rwlrn","Thu Mar 16 2023 03:21:14 GMT+0800 (China Standard Time)","633993","Trustworthy,Untrustworthy","","1709","","","","decision","","<div class='trialDiv'><img src='Fruit/cherrie.png'><br><font class='baseline'><strong>Cherry Chances</strong><p>Choose number of points to bet.</font><div class='respPicDiv'><img src='img/responseButtonOffersNo0L.png' class='respPic'></div></div>","4","4","Cherry Chances","Fruit/cherrie.png","Won","0.65,0.2","12","0.65","61","10","",""
"html-keyboard-response","38","296375","0.0-11.0-2.9","63d7a6a997f03198526a1941","bdp_rwlrn","Thu Mar 16 2023 03:21:14 GMT+0800 (China Standard Time)","633993","Trustworthy,Untrustworthy","","null","","","","decisionFB","","<div class='trialDiv'><img src='Fruit/cherrie.png'><br><font class='baseline'><strong>Cherry Chances</strong><p>Choose number of points to bet.</font><div class='respPicDiv'><img src='img/responseButtonOffersNo0L4.png' class='respPic'></div></div>","null","4","Cherry Chances","Fruit/cherrie.png","Won","0.65,0.2","12","0.65","57","10","",""
"html-keyboard-response","39","297388","0.0-11.0-3.9","63d7a6a997f03198526a1941","bdp_rwlrn","Thu Mar 16 2023 03:21:14 GMT+0800 (China Standard Time)","633993","Trustworthy,Untrustworthy","","null","","","","feedback","","<div class='respPicDiv'><img src='img/responseButtonOffersNo0_wht.png' class='respPic'></div><div class='trialDiv'><img src='Fruit/cherrie.png'><br><font class='baseline'><strong>Cherry Chances</strong><p><strong><font class='posOutcome'>You WON</font><p>You bet: 4</strong></font> &nbsp; &nbsp; &nbsp; &nbsp; &nbsp; &nbsp;<font class='posOutcome'>you receive: <strong>8</strong></font></div>","null","4","Cherry Chances","Fruit/cherrie.png","Won","0.65,0.2","12","0.65","65","10","",""
"html-keyboard-response","40","299060","0.0-11.0-1.10","63d7a6a997f03198526a1941","bdp_rwlrn","Thu Mar 16 2023 03:21:14 GMT+0800 (China Standard Time)","633993","Trustworthy,Untrustworthy","","1665","","","","decision","","<div class='trialDiv'><img src='Fruit/melon.png'><br><font class='baseline'><strong>Melon Millions</strong><p>Choose number of points to bet.</font><div class='respPicDiv'><img src='img/responseButtonOffersNo0L.png' class='respPic'></div></div>","3","4","Melon Millions","Fruit/melon.png","Won","0.35,0.8","13","0.35","70","11","",""
"html-keyboard-response","41","299315","0.0-11.0-2.10","63d7a6a997f03198526a1941","bdp_rwlrn","Thu Mar 16 2023 03:21:14 GMT+0800 (China Standard Time)","633993","Trustworthy,Untrustworthy","","null","","","","decisionFB","","<div class='trialDiv'><img src='Fruit/melon.png'><br><font class='baseline'><strong>Melon Millions</strong><p>Choose number of points to bet.</font><div class='respPicDiv'><img src='img/responseButtonOffersNo0L3.png' class='respPic'></div></div>","null","4","Melon Millions","Fruit/melon.png","Won","0.35,0.8","13","0.35","67","11","",""
"html-keyboard-response","42","300324","0.0-11.0-3.10","63d7a6a997f03198526a1941","bdp_rwlrn","Thu Mar 16 2023 03:21:14 GMT+0800 (China Standard Time)","633993","Trustworthy,Untrustworthy","","null","","","","feedback","","<div class='respPicDiv'><img src='img/responseButtonOffersNo0_wht.png' class='respPic'></div><div class='trialDiv'><img src='Fruit/melon.png'><br><font class='baseline'><strong>Melon Millions</strong><p><strong><font class='posOutcome'>You WON</font><p>You bet: 3</strong></font> &nbsp; &nbsp; &nbsp; &nbsp; &nbsp; &nbsp;<font class='posOutcome'>you receive: <strong>6</strong></font></div>","null","4","Melon Millions","Fruit/melon.png","Won","0.35,0.8","13","0.35","73","11","",""
"html-keyboard-response","43","303414","0.0-11.0-1.11","63d7a6a997f03198526a1941","bdp_rwlrn","Thu Mar 16 2023 03:21:14 GMT+0800 (China Standard Time)","633993","Trustworthy,Untrustworthy","","3086","","","","decision","","<div class='trialDiv'><img src='Fruit/plums1.png'><br><font class='baseline'><strong>Plum Powerball</strong><p>Choose number of points to bet.</font><div class='respPicDiv'><img src='img/responseButtonOffersNo0L.png' class='respPic'></div></div>","5","4","Plum Powerball","Fruit/plums1.png","Won","0.8,0.2","12","0.8","78","12","",""
"html-keyboard-response","44","303678","0.0-11.0-2.11","63d7a6a997f03198526a1941","bdp_rwlrn","Thu Mar 16 2023 03:21:14 GMT+0800 (China Standard Time)","633993","Trustworthy,Untrustworthy","","null","","","","decisionFB","","<div class='trialDiv'><img src='Fruit/plums1.png'><br><font class='baseline'><strong>Plum Powerball</strong><p>Choose number of points to bet.</font><div class='respPicDiv'><img src='img/responseButtonOffersNo0L5.png' class='respPic'></div></div>","null","4","Plum Powerball","Fruit/plums1.png","Won","0.8,0.2","12","0.8","73","12","",""
"html-keyboard-response","45","304687","0.0-11.0-3.11","63d7a6a997f03198526a1941","bdp_rwlrn","Thu Mar 16 2023 03:21:14 GMT+0800 (China Standard Time)","633993","Trustworthy,Untrustworthy","","null","","","","feedback","","<div class='respPicDiv'><img src='img/responseButtonOffersNo0_wht.png' class='respPic'></div><div class='trialDiv'><img src='Fruit/plums1.png'><br><font class='baseline'><strong>Plum Powerball</strong><p><strong><font class='posOutcome'>You WON</font><p>You bet: 5</strong></font> &nbsp; &nbsp; &nbsp; &nbsp; &nbsp; &nbsp;<font class='posOutcome'>you receive: <strong>10</strong></font></div>","null","4","Plum Powerball","Fruit/plums1.png","Won","0.8,0.2","12","0.8","83","12","",""
"html-keyboard-response","46","306125","0.0-11.0-1.12","63d7a6a997f03198526a1941","bdp_rwlrn","Thu Mar 16 2023 03:21:14 GMT+0800 (China Standard Time)","633993","Trustworthy,Untrustworthy","","1431","","","","decision","","<div class='trialDiv'><img src='Fruit/melon.png'><br><font class='baseline'><strong>Melon Millions</strong><p>Choose number of points to bet.</font><div class='respPicDiv'><img src='img/responseButtonOffersNo0L.png' class='respPic'></div></div>","4","5","Melon Millions","Fruit/melon.png","Won","0.35,0.8","13","0.35","88","13","",""
"html-keyboard-response","47","306380","0.0-11.0-2.12","63d7a6a997f03198526a1941","bdp_rwlrn","Thu Mar 16 2023 03:21:14 GMT+0800 (China Standard Time)","633993","Trustworthy,Untrustworthy","","null","","","","decisionFB","","<div class='trialDiv'><img src='Fruit/melon.png'><br><font class='baseline'><strong>Melon Millions</strong><p>Choose number of points to bet.</font><div class='respPicDiv'><img src='img/responseButtonOffersNo0L4.png' class='respPic'></div></div>","null","5","Melon Millions","Fruit/melon.png","Won","0.35,0.8","13","0.35","84","13","",""
"html-keyboard-response","48","307393","0.0-11.0-3.12","63d7a6a997f03198526a1941","bdp_rwlrn","Thu Mar 16 2023 03:21:14 GMT+0800 (China Standard Time)","633993","Trustworthy,Untrustworthy","","null","","","","feedback","","<div class='respPicDiv'><img src='img/responseButtonOffersNo0_wht.png' class='respPic'></div><div class='trialDiv'><img src='Fruit/melon.png'><br><font class='baseline'><strong>Melon Millions</strong><p><strong><font class='posOutcome'>You WON</font><p>You bet: 4</strong></font> &nbsp; &nbsp; &nbsp; &nbsp; &nbsp; &nbsp;<font class='posOutcome'>you receive: <strong>8</strong></font></div>","null","5","Melon Millions","Fruit/melon.png","Won","0.35,0.8","13","0.35","92","13","",""
"html-keyboard-response","49","308434","0.0-11.0-1.13","63d7a6a997f03198526a1941","bdp_rwlrn","Thu Mar 16 2023 03:21:14 GMT+0800 (China Standard Time)","633993","Trustworthy,Untrustworthy","","1033","","","","decision","","<div class='trialDiv'><img src='Fruit/plums1.png'><br><font class='baseline'><strong>Plum Powerball</strong><p>Choose number of points to bet.</font><div class='respPicDiv'><img src='img/responseButtonOffersNo0L.png' class='respPic'></div></div>","5","5","Plum Powerball","Fruit/plums1.png","Won","0.8,0.2","12","0.8","97","14","",""
"html-keyboard-response","50","308690","0.0-11.0-2.13","63d7a6a997f03198526a1941","bdp_rwlrn","Thu Mar 16 2023 03:21:14 GMT+0800 (China Standard Time)","633993","Trustworthy,Untrustworthy","","null","","","","decisionFB","","<div class='trialDiv'><img src='Fruit/plums1.png'><br><font class='baseline'><strong>Plum Powerball</strong><p>Choose number of points to bet.</font><div class='respPicDiv'><img src='img/responseButtonOffersNo0L5.png' class='respPic'></div></div>","null","5","Plum Powerball","Fruit/plums1.png","Won","0.8,0.2","12","0.8","92","14","",""
"html-keyboard-response","51","309699","0.0-11.0-3.13","63d7a6a997f03198526a1941","bdp_rwlrn","Thu Mar 16 2023 03:21:14 GMT+0800 (China Standard Time)","633993","Trustworthy,Untrustworthy","","null","","","","feedback","","<div class='respPicDiv'><img src='img/responseButtonOffersNo0_wht.png' class='respPic'></div><div class='trialDiv'><img src='Fruit/plums1.png'><br><font class='baseline'><strong>Plum Powerball</strong><p><strong><font class='posOutcome'>You WON</font><p>You bet: 5</strong></font> &nbsp; &nbsp; &nbsp; &nbsp; &nbsp; &nbsp;<font class='posOutcome'>you receive: <strong>10</strong></font></div>","null","5","Plum Powerball","Fruit/plums1.png","Won","0.8,0.2","12","0.8","102","14","",""
"html-keyboard-response","52","310347","0.0-11.0-1.14","63d7a6a997f03198526a1941","bdp_rwlrn","Thu Mar 16 2023 03:21:14 GMT+0800 (China Standard Time)","633993","Trustworthy,Untrustworthy","","639","","","","decision","","<div class='trialDiv'><img src='Fruit/cherrie.png'><br><font class='baseline'><strong>Cherry Chances</strong><p>Choose number of points to bet.</font><div class='respPicDiv'><img src='img/responseButtonOffersNo0L.png' class='respPic'></div></div>","1","5","Cherry Chances","Fruit/cherrie.png","Won","0.65,0.2","12","0.65","107","15","",""
"html-keyboard-response","53","310605","0.0-11.0-2.14","63d7a6a997f03198526a1941","bdp_rwlrn","Thu Mar 16 2023 03:21:14 GMT+0800 (China Standard Time)","633993","Trustworthy,Untrustworthy","","null","","","","decisionFB","","<div class='trialDiv'><img src='Fruit/cherrie.png'><br><font class='baseline'><strong>Cherry Chances</strong><p>Choose number of points to bet.</font><div class='respPicDiv'><img src='img/responseButtonOffersNo0L1.png' class='respPic'></div></div>","null","5","Cherry Chances","Fruit/cherrie.png","Won","0.65,0.2","12","0.65","106","15","",""
"html-keyboard-response","54","311612","0.0-11.0-3.14","63d7a6a997f03198526a1941","bdp_rwlrn","Thu Mar 16 2023 03:21:14 GMT+0800 (China Standard Time)","633993","Trustworthy,Untrustworthy","","null","","","","feedback","","<div class='respPicDiv'><img src='img/responseButtonOffersNo0_wht.png' class='respPic'></div><div class='trialDiv'><img src='Fruit/cherrie.png'><br><font class='baseline'><strong>Cherry Chances</strong><p><strong><font class='posOutcome'>You WON</font><p>You bet: 1</strong></font> &nbsp; &nbsp; &nbsp; &nbsp; &nbsp; &nbsp;<font class='posOutcome'>you receive: <strong>2</strong></font></div>","null","5","Cherry Chances","Fruit/cherrie.png","Won","0.65,0.2","12","0.65","108","15","",""
"html-keyboard-response","55","312318","0.0-11.0-1.15","63d7a6a997f03198526a1941","bdp_rwlrn","Thu Mar 16 2023 03:21:14 GMT+0800 (China Standard Time)","633993","Trustworthy,Untrustworthy","","695","","","","decision","","<div class='trialDiv'><img src='Fruit/plums1.png'><br><font class='baseline'><strong>Plum Powerball</strong><p>Choose number of points to bet.</font><div class='respPicDiv'><img src='img/responseButtonOffersNo0L.png' class='respPic'></div></div>","2","6","Plum Powerball","Fruit/plums1.png","Won","0.8,0.2","12","0.8","113","16","",""
"html-keyboard-response","56","312580","0.0-11.0-2.15","63d7a6a997f03198526a1941","bdp_rwlrn","Thu Mar 16 2023 03:21:14 GMT+0800 (China Standard Time)","633993","Trustworthy,Untrustworthy","","null","","","","decisionFB","","<div class='trialDiv'><img src='Fruit/plums1.png'><br><font class='baseline'><strong>Plum Powerball</strong><p>Choose number of points to bet.</font><div class='respPicDiv'><img src='img/responseButtonOffersNo0L2.png' class='respPic'></div></div>","null","6","Plum Powerball","Fruit/plums1.png","Won","0.8,0.2","12","0.8","111","16","",""
"html-keyboard-response","57","313592","0.0-11.0-3.15","63d7a6a997f03198526a1941","bdp_rwlrn","Thu Mar 16 2023 03:21:14 GMT+0800 (China Standard Time)","633993","Trustworthy,Untrustworthy","","null","","","","feedback","","<div class='respPicDiv'><img src='img/responseButtonOffersNo0_wht.png' class='respPic'></div><div class='trialDiv'><img src='Fruit/plums1.png'><br><font class='baseline'><strong>Plum Powerball</strong><p><strong><font class='posOutcome'>You WON</font><p>You bet: 2</strong></font> &nbsp; &nbsp; &nbsp; &nbsp; &nbsp; &nbsp;<font class='posOutcome'>you receive: <strong>4</strong></font></div>","null","6","Plum Powerball","Fruit/plums1.png","Won","0.8,0.2","12","0.8","115","16","",""
"html-keyboard-response","58","314671","0.0-11.0-1.16","63d7a6a997f03198526a1941","bdp_rwlrn","Thu Mar 16 2023 03:21:14 GMT+0800 (China Standard Time)","633993","Trustworthy,Untrustworthy","","1071","","","","decision","","<div class='trialDiv'><img src='Fruit/cherrie.png'><br><font class='baseline'><strong>Cherry Chances</strong><p>Choose number of points to bet.</font><div class='respPicDiv'><img src='img/responseButtonOffersNo0L.png' class='respPic'></div></div>","4","6","Cherry Chances","Fruit/cherrie.png","Won","0.65,0.2","12","0.65","120","17","",""
"html-keyboard-response","59","314931","0.0-11.0-2.16","63d7a6a997f03198526a1941","bdp_rwlrn","Thu Mar 16 2023 03:21:14 GMT+0800 (China Standard Time)","633993","Trustworthy,Untrustworthy","","null","","","","decisionFB","","<div class='trialDiv'><img src='Fruit/cherrie.png'><br><font class='baseline'><strong>Cherry Chances</strong><p>Choose number of points to bet.</font><div class='respPicDiv'><img src='img/responseButtonOffersNo0L4.png' class='respPic'></div></div>","null","6","Cherry Chances","Fruit/cherrie.png","Won","0.65,0.2","12","0.65","116","17","",""
"html-keyboard-response","60","315939","0.0-11.0-3.16","63d7a6a997f03198526a1941","bdp_rwlrn","Thu Mar 16 2023 03:21:14 GMT+0800 (China Standard Time)","633993","Trustworthy,Untrustworthy","","null","","","","feedback","","<div class='respPicDiv'><img src='img/responseButtonOffersNo0_wht.png' class='respPic'></div><div class='trialDiv'><img src='Fruit/cherrie.png'><br><font class='baseline'><strong>Cherry Chances</strong><p><strong><font class='posOutcome'>You WON</font><p>You bet: 4</strong></font> &nbsp; &nbsp; &nbsp; &nbsp; &nbsp; &nbsp;<font class='posOutcome'>you receive: <strong>8</strong></font></div>","null","6","Cherry Chances","Fruit/cherrie.png","Won","0.65,0.2","12","0.65","124","17","",""
"html-keyboard-response","61","316264","0.0-11.0-1.17","63d7a6a997f03198526a1941","bdp_rwlrn","Thu Mar 16 2023 03:21:14 GMT+0800 (China Standard Time)","633993","Trustworthy,Untrustworthy","","318","","","","decision","","<div class='trialDiv'><img src='Fruit/melon.png'><br><font class='baseline'><strong>Melon Millions</strong><p>Choose number of points to bet.</font><div class='respPicDiv'><img src='img/responseButtonOffersNo0L.png' class='respPic'></div></div>","2","6","Melon Millions","Fruit/melon.png","Lost","0.35,0.8","13","0.35","129","18","",""
"html-keyboard-response","62","316524","0.0-11.0-2.17","63d7a6a997f03198526a1941","bdp_rwlrn","Thu Mar 16 2023 03:21:14 GMT+0800 (China Standard Time)","633993","Trustworthy,Untrustworthy","","null","","","","decisionFB","","<div class='trialDiv'><img src='Fruit/melon.png'><br><font class='baseline'><strong>Melon Millions</strong><p>Choose number of points to bet.</font><div class='respPicDiv'><img src='img/responseButtonOffersNo0L2.png' class='respPic'></div></div>","null","6","Melon Millions","Fruit/melon.png","Lost","0.35,0.8","13","0.35","127","18","",""
"html-keyboard-response","63","317533","0.0-11.0-3.17","63d7a6a997f03198526a1941","bdp_rwlrn","Thu Mar 16 2023 03:21:14 GMT+0800 (China Standard Time)","633993","Trustworthy,Untrustworthy","","null","","","","feedback","","<div class='respPicDiv'><img src='img/responseButtonOffersNo0_wht.png' class='respPic'></div><div class='trialDiv'><img src='Fruit/melon.png'><br><font class='baseline'><strong>Melon Millions</strong><p><strong><font class='negOutcome'>You LOST</font><p>You bet: 2</strong></font> &nbsp; &nbsp; &nbsp; &nbsp; &nbsp; &nbsp;<font class='negOutcome'>You receive: <strong>0</strong></font></div>","null","6","Melon Millions","Fruit/melon.png","Lost","0.35,0.8","13","0.35","127","18","",""
"html-keyboard-response","64","318113","0.0-11.0-1.18","63d7a6a997f03198526a1941","bdp_rwlrn","Thu Mar 16 2023 03:21:14 GMT+0800 (China Standard Time)","633993","Trustworthy,Untrustworthy","","570","","","","decision","","<div class='trialDiv'><img src='Fruit/cherrie.png'><br><font class='baseline'><strong>Cherry Chances</strong><p>Choose number of points to bet.</font><div class='respPicDiv'><img src='img/responseButtonOffersNo0L.png' class='respPic'></div></div>","5","7","Cherry Chances","Fruit/cherrie.png","Lost","0.65,0.2","12","0.65","132","19","",""
"html-keyboard-response","65","318373","0.0-11.0-2.18","63d7a6a997f03198526a1941","bdp_rwlrn","Thu Mar 16 2023 03:21:14 GMT+0800 (China Standard Time)","633993","Trustworthy,Untrustworthy","","null","","","","decisionFB","","<div class='trialDiv'><img src='Fruit/cherrie.png'><br><font class='baseline'><strong>Cherry Chances</strong><p>Choose number of points to bet.</font><div class='respPicDiv'><img src='img/responseButtonOffersNo0L5.png' class='respPic'></div></div>","null","7","Cherry Chances","Fruit/cherrie.png","Lost","0.65,0.2","12","0.65","127","19","",""
"html-keyboard-response","66","319383","0.0-11.0-3.18","63d7a6a997f03198526a1941","bdp_rwlrn","Thu Mar 16 2023 03:21:14 GMT+0800 (China Standard Time)","633993","Trustworthy,Untrustworthy","","null","","","","feedback","","<div class='respPicDiv'><img src='img/responseButtonOffersNo0_wht.png' class='respPic'></div><div class='trialDiv'><img src='Fruit/cherrie.png'><br><font class='baseline'><strong>Cherry Chances</strong><p><strong><font class='negOutcome'>You LOST</font><p>You bet: 5</strong></font> &nbsp; &nbsp; &nbsp; &nbsp; &nbsp; &nbsp;<font class='negOutcome'>You receive: <strong>0</strong></font></div>","null","7","Cherry Chances","Fruit/cherrie.png","Lost","0.65,0.2","12","0.65","127","19","",""
"html-keyboard-response","67","319893","0.0-11.0-1.19","63d7a6a997f03198526a1941","bdp_rwlrn","Thu Mar 16 2023 03:21:14 GMT+0800 (China Standard Time)","633993","Trustworthy,Untrustworthy","","501","","","","decision","","<div class='trialDiv'><img src='Fruit/plums1.png'><br><font class='baseline'><strong>Plum Powerball</strong><p>Choose number of points to bet.</font><div class='respPicDiv'><img src='img/responseButtonOffersNo0L.png' class='respPic'></div></div>","2","7","Plum Powerball","Fruit/plums1.png","Lost","0.8,0.2","12","0.8","132","20","",""
"html-keyboard-response","68","320151","0.0-11.0-2.19","63d7a6a997f03198526a1941","bdp_rwlrn","Thu Mar 16 2023 03:21:14 GMT+0800 (China Standard Time)","633993","Trustworthy,Untrustworthy","","null","","","","decisionFB","","<div class='trialDiv'><img src='Fruit/plums1.png'><br><font class='baseline'><strong>Plum Powerball</strong><p>Choose number of points to bet.</font><div class='respPicDiv'><img src='img/responseButtonOffersNo0L2.png' class='respPic'></div></div>","null","7","Plum Powerball","Fruit/plums1.png","Lost","0.8,0.2","12","0.8","130","20","",""
"html-keyboard-response","69","321158","0.0-11.0-3.19","63d7a6a997f03198526a1941","bdp_rwlrn","Thu Mar 16 2023 03:21:14 GMT+0800 (China Standard Time)","633993","Trustworthy,Untrustworthy","","null","","","","feedback","","<div class='respPicDiv'><img src='img/responseButtonOffersNo0_wht.png' class='respPic'></div><div class='trialDiv'><img src='Fruit/plums1.png'><br><font class='baseline'><strong>Plum Powerball</strong><p><strong><font class='negOutcome'>You LOST</font><p>You bet: 2</strong></font> &nbsp; &nbsp; &nbsp; &nbsp; &nbsp; &nbsp;<font class='negOutcome'>You receive: <strong>0</strong></font></div>","null","7","Plum Powerball","Fruit/plums1.png","Lost","0.8,0.2","12","0.8","130","20","",""
"html-keyboard-response","70","321519","0.0-11.0-1.20","63d7a6a997f03198526a1941","bdp_rwlrn","Thu Mar 16 2023 03:21:14 GMT+0800 (China Standard Time)","633993","Trustworthy,Untrustworthy","","354","","","","decision","","<div class='trialDiv'><img src='Fruit/melon.png'><br><font class='baseline'><strong>Melon Millions</strong><p>Choose number of points to bet.</font><div class='respPicDiv'><img src='img/responseButtonOffersNo0L.png' class='respPic'></div></div>","4","7","Melon Millions","Fruit/melon.png","Won","0.35,0.8","13","0.35","135","21","",""
"html-keyboard-response","71","321780","0.0-11.0-2.20","63d7a6a997f03198526a1941","bdp_rwlrn","Thu Mar 16 2023 03:21:14 GMT+0800 (China Standard Time)","633993","Trustworthy,Untrustworthy","","null","","","","decisionFB","","<div class='trialDiv'><img src='Fruit/melon.png'><br><font class='baseline'><strong>Melon Millions</strong><p>Choose number of points to bet.</font><div class='respPicDiv'><img src='img/responseButtonOffersNo0L4.png' class='respPic'></div></div>","null","7","Melon Millions","Fruit/melon.png","Won","0.35,0.8","13","0.35","131","21","",""
"html-keyboard-response","72","322792","0.0-11.0-3.20","63d7a6a997f03198526a1941","bdp_rwlrn","Thu Mar 16 2023 03:21:14 GMT+0800 (China Standard Time)","633993","Trustworthy,Untrustworthy","","null","","","","feedback","","<div class='respPicDiv'><img src='img/responseButtonOffersNo0_wht.png' class='respPic'></div><div class='trialDiv'><img src='Fruit/melon.png'><br><font class='baseline'><strong>Melon Millions</strong><p><strong><font class='posOutcome'>You WON</font><p>You bet: 4</strong></font> &nbsp; &nbsp; &nbsp; &nbsp; &nbsp; &nbsp;<font class='posOutcome'>you receive: <strong>8</strong></font></div>","null","7","Melon Millions","Fruit/melon.png","Won","0.35,0.8","13","0.35","139","21","",""
"html-keyboard-response","73","323383","0.0-11.0-1.21","63d7a6a997f03198526a1941","bdp_rwlrn","Thu Mar 16 2023 03:21:14 GMT+0800 (China Standard Time)","633993","Trustworthy,Untrustworthy","","582","","","","decision","","<div class='trialDiv'><img src='Fruit/cherrie.png'><br><font class='baseline'><strong>Cherry Chances</strong><p>Choose number of points to bet.</font><div class='respPicDiv'><img src='img/responseButtonOffersNo0L.png' class='respPic'></div></div>","1","8","Cherry Chances","Fruit/cherrie.png","Lost","0.65,0.2","12","0.65","144","22","",""
"html-keyboard-response","74","323641","0.0-11.0-2.21","63d7a6a997f03198526a1941","bdp_rwlrn","Thu Mar 16 2023 03:21:14 GMT+0800 (China Standard Time)","633993","Trustworthy,Untrustworthy","","null","","","","decisionFB","","<div class='trialDiv'><img src='Fruit/cherrie.png'><br><font class='baseline'><strong>Cherry Chances</strong><p>Choose number of points to bet.</font><div class='respPicDiv'><img src='img/responseButtonOffersNo0L1.png' class='respPic'></div></div>","null","8","Cherry Chances","Fruit/cherrie.png","Lost","0.65,0.2","12","0.65","143","22","",""
"html-keyboard-response","75","324645","0.0-11.0-3.21","63d7a6a997f03198526a1941","bdp_rwlrn","Thu Mar 16 2023 03:21:14 GMT+0800 (China Standard Time)","633993","Trustworthy,Untrustworthy","","null","","","","feedback","","<div class='respPicDiv'><img src='img/responseButtonOffersNo0_wht.png' class='respPic'></div><div class='trialDiv'><img src='Fruit/cherrie.png'><br><font class='baseline'><strong>Cherry Chances</strong><p><strong><font class='negOutcome'>You LOST</font><p>You bet: 1</strong></font> &nbsp; &nbsp; &nbsp; &nbsp; &nbsp; &nbsp;<font class='negOutcome'>You receive: <strong>0</strong></font></div>","null","8","Cherry Chances","Fruit/cherrie.png","Lost","0.65,0.2","12","0.65","143","22","",""
"html-keyboard-response","76","325122","0.0-11.0-1.22","63d7a6a997f03198526a1941","bdp_rwlrn","Thu Mar 16 2023 03:21:14 GMT+0800 (China Standard Time)","633993","Trustworthy,Untrustworthy","","470","","","","decision","","<div class='trialDiv'><img src='Fruit/melon.png'><br><font class='baseline'><strong>Melon Millions</strong><p>Choose number of points to bet.</font><div class='respPicDiv'><img src='img/responseButtonOffersNo0L.png' class='respPic'></div></div>","4","8","Melon Millions","Fruit/melon.png","Won","0.35,0.8","13","0.35","148","23","",""
"html-keyboard-response","77","325379","0.0-11.0-2.22","63d7a6a997f03198526a1941","bdp_rwlrn","Thu Mar 16 2023 03:21:14 GMT+0800 (China Standard Time)","633993","Trustworthy,Untrustworthy","","null","","","","decisionFB","","<div class='trialDiv'><img src='Fruit/melon.png'><br><font class='baseline'><strong>Melon Millions</strong><p>Choose number of points to bet.</font><div class='respPicDiv'><img src='img/responseButtonOffersNo0L4.png' class='respPic'></div></div>","null","8","Melon Millions","Fruit/melon.png","Won","0.35,0.8","13","0.35","144","23","",""
"html-keyboard-response","78","326388","0.0-11.0-3.22","63d7a6a997f03198526a1941","bdp_rwlrn","Thu Mar 16 2023 03:21:14 GMT+0800 (China Standard Time)","633993","Trustworthy,Untrustworthy","","null","","","","feedback","","<div class='respPicDiv'><img src='img/responseButtonOffersNo0_wht.png' class='respPic'></div><div class='trialDiv'><img src='Fruit/melon.png'><br><font class='baseline'><strong>Melon Millions</strong><p><strong><font class='posOutcome'>You WON</font><p>You bet: 4</strong></font> &nbsp; &nbsp; &nbsp; &nbsp; &nbsp; &nbsp;<font class='posOutcome'>you receive: <strong>8</strong></font></div>","null","8","Melon Millions","Fruit/melon.png","Won","0.35,0.8","13","0.35","152","23","",""
"html-keyboard-response","79","327075","0.0-11.0-1.23","63d7a6a997f03198526a1941","bdp_rwlrn","Thu Mar 16 2023 03:21:14 GMT+0800 (China Standard Time)","633993","Trustworthy,Untrustworthy","","681","","","","decision","","<div class='trialDiv'><img src='Fruit/plums1.png'><br><font class='baseline'><strong>Plum Powerball</strong><p>Choose number of points to bet.</font><div class='respPicDiv'><img src='img/responseButtonOffersNo0L.png' class='respPic'></div></div>","4","8","Plum Powerball","Fruit/plums1.png","Won","0.8,0.2","12","0.8","157","24","",""
"html-keyboard-response","80","327331","0.0-11.0-2.23","63d7a6a997f03198526a1941","bdp_rwlrn","Thu Mar 16 2023 03:21:14 GMT+0800 (China Standard Time)","633993","Trustworthy,Untrustworthy","","null","","","","decisionFB","","<div class='trialDiv'><img src='Fruit/plums1.png'><br><font class='baseline'><strong>Plum Powerball</strong><p>Choose number of points to bet.</font><div class='respPicDiv'><img src='img/responseButtonOffersNo0L4.png' class='respPic'></div></div>","null","8","Plum Powerball","Fruit/plums1.png","Won","0.8,0.2","12","0.8","153","24","",""
"html-keyboard-response","81","328339","0.0-11.0-3.23","63d7a6a997f03198526a1941","bdp_rwlrn","Thu Mar 16 2023 03:21:14 GMT+0800 (China Standard Time)","633993","Trustworthy,Untrustworthy","","null","","","","feedback","","<div class='respPicDiv'><img src='img/responseButtonOffersNo0_wht.png' class='respPic'></div><div class='trialDiv'><img src='Fruit/plums1.png'><br><font class='baseline'><strong>Plum Powerball</strong><p><strong><font class='posOutcome'>You WON</font><p>You bet: 4</strong></font> &nbsp; &nbsp; &nbsp; &nbsp; &nbsp; &nbsp;<font class='posOutcome'>you receive: <strong>8</strong></font></div>","null","8","Plum Powerball","Fruit/plums1.png","Won","0.8,0.2","12","0.8","161","24","",""
"html-keyboard-response","82","328988","0.0-11.0-1.24","63d7a6a997f03198526a1941","bdp_rwlrn","Thu Mar 16 2023 03:21:14 GMT+0800 (China Standard Time)","633993","Trustworthy,Untrustworthy","","640","","","","decision","","<div class='trialDiv'><img src='Fruit/melon.png'><br><font class='baseline'><strong>Melon Millions</strong><p>Choose number of points to bet.</font><div class='respPicDiv'><img src='img/responseButtonOffersNo0L.png' class='respPic'></div></div>","1","9","Melon Millions","Fruit/melon.png","Lost","0.35,0.8","13","0.35","166","25","",""
"html-keyboard-response","83","329245","0.0-11.0-2.24","63d7a6a997f03198526a1941","bdp_rwlrn","Thu Mar 16 2023 03:21:14 GMT+0800 (China Standard Time)","633993","Trustworthy,Untrustworthy","","null","","","","decisionFB","","<div class='trialDiv'><img src='Fruit/melon.png'><br><font class='baseline'><strong>Melon Millions</strong><p>Choose number of points to bet.</font><div class='respPicDiv'><img src='img/responseButtonOffersNo0L1.png' class='respPic'></div></div>","null","9","Melon Millions","Fruit/melon.png","Lost","0.35,0.8","13","0.35","165","25","",""
"html-keyboard-response","84","330248","0.0-11.0-3.24","63d7a6a997f03198526a1941","bdp_rwlrn","Thu Mar 16 2023 03:21:14 GMT+0800 (China Standard Time)","633993","Trustworthy,Untrustworthy","","null","","","","feedback","","<div class='respPicDiv'><img src='img/responseButtonOffersNo0_wht.png' class='respPic'></div><div class='trialDiv'><img src='Fruit/melon.png'><br><font class='baseline'><strong>Melon Millions</strong><p><strong><font class='negOutcome'>You LOST</font><p>You bet: 1</strong></font> &nbsp; &nbsp; &nbsp; &nbsp; &nbsp; &nbsp;<font class='negOutcome'>You receive: <strong>0</strong></font></div>","null","9","Melon Millions","Fruit/melon.png","Lost","0.35,0.8","13","0.35","165","25","",""
"html-keyboard-response","85","330833","0.0-11.0-1.25","63d7a6a997f03198526a1941","bdp_rwlrn","Thu Mar 16 2023 03:21:14 GMT+0800 (China Standard Time)","633993","Trustworthy,Untrustworthy","","570","","","","decision","","<div class='trialDiv'><img src='Fruit/cherrie.png'><br><font class='baseline'><strong>Cherry Chances</strong><p>Choose number of points to bet.</font><div class='respPicDiv'><img src='img/responseButtonOffersNo0L.png' class='respPic'></div></div>","4","9","Cherry Chances","Fruit/cherrie.png","Won","0.65,0.2","12","0.65","170","26","",""
"html-keyboard-response","86","331091","0.0-11.0-2.25","63d7a6a997f03198526a1941","bdp_rwlrn","Thu Mar 16 2023 03:21:14 GMT+0800 (China Standard Time)","633993","Trustworthy,Untrustworthy","","null","","","","decisionFB","","<div class='trialDiv'><img src='Fruit/cherrie.png'><br><font class='baseline'><strong>Cherry Chances</strong><p>Choose number of points to bet.</font><div class='respPicDiv'><img src='img/responseButtonOffersNo0L4.png' class='respPic'></div></div>","null","9","Cherry Chances","Fruit/cherrie.png","Won","0.65,0.2","12","0.65","166","26","",""
"html-keyboard-response","87","332100","0.0-11.0-3.25","63d7a6a997f03198526a1941","bdp_rwlrn","Thu Mar 16 2023 03:21:14 GMT+0800 (China Standard Time)","633993","Trustworthy,Untrustworthy","","null","","","","feedback","","<div class='respPicDiv'><img src='img/responseButtonOffersNo0_wht.png' class='respPic'></div><div class='trialDiv'><img src='Fruit/cherrie.png'><br><font class='baseline'><strong>Cherry Chances</strong><p><strong><font class='posOutcome'>You WON</font><p>You bet: 4</strong></font> &nbsp; &nbsp; &nbsp; &nbsp; &nbsp; &nbsp;<font class='posOutcome'>you receive: <strong>8</strong></font></div>","null","9","Cherry Chances","Fruit/cherrie.png","Won","0.65,0.2","12","0.65","174","26","",""
"html-keyboard-response","88","332939","0.0-11.0-1.26","63d7a6a997f03198526a1941","bdp_rwlrn","Thu Mar 16 2023 03:21:14 GMT+0800 (China Standard Time)","633993","Trustworthy,Untrustworthy","","829","","","","decision","","<div class='trialDiv'><img src='Fruit/plums1.png'><br><font class='baseline'><strong>Plum Powerball</strong><p>Choose number of points to bet.</font><div class='respPicDiv'><img src='img/responseButtonOffersNo0L.png' class='respPic'></div></div>","4","9","Plum Powerball","Fruit/plums1.png","Won","0.8,0.2","12","0.8","179","27","",""
"html-keyboard-response","89","333197","0.0-11.0-2.26","63d7a6a997f03198526a1941","bdp_rwlrn","Thu Mar 16 2023 03:21:14 GMT+0800 (China Standard Time)","633993","Trustworthy,Untrustworthy","","null","","","","decisionFB","","<div class='trialDiv'><img src='Fruit/plums1.png'><br><font class='baseline'><strong>Plum Powerball</strong><p>Choose number of points to bet.</font><div class='respPicDiv'><img src='img/responseButtonOffersNo0L4.png' class='respPic'></div></div>","null","9","Plum Powerball","Fruit/plums1.png","Won","0.8,0.2","12","0.8","175","27","",""
"html-keyboard-response","90","334209","0.0-11.0-3.26","63d7a6a997f03198526a1941","bdp_rwlrn","Thu Mar 16 2023 03:21:14 GMT+0800 (China Standard Time)","633993","Trustworthy,Untrustworthy","","null","","","","feedback","","<div class='respPicDiv'><img src='img/responseButtonOffersNo0_wht.png' class='respPic'></div><div class='trialDiv'><img src='Fruit/plums1.png'><br><font class='baseline'><strong>Plum Powerball</strong><p><strong><font class='posOutcome'>You WON</font><p>You bet: 4</strong></font> &nbsp; &nbsp; &nbsp; &nbsp; &nbsp; &nbsp;<font class='posOutcome'>you receive: <strong>8</strong></font></div>","null","9","Plum Powerball","Fruit/plums1.png","Won","0.8,0.2","12","0.8","183","27","",""
"html-keyboard-response","91","335426","0.0-11.0-1.27","63d7a6a997f03198526a1941","bdp_rwlrn","Thu Mar 16 2023 03:21:14 GMT+0800 (China Standard Time)","633993","Trustworthy,Untrustworthy","","1209","","","","decision","","<div class='trialDiv'><img src='Fruit/cherrie.png'><br><font class='baseline'><strong>Cherry Chances</strong><p>Choose number of points to bet.</font><div class='respPicDiv'><img src='img/responseButtonOffersNo0L.png' class='respPic'></div></div>","5","10","Cherry Chances","Fruit/cherrie.png","Won","0.65,0.2","12","0.65","188","28","",""
"html-keyboard-response","92","335684","0.0-11.0-2.27","63d7a6a997f03198526a1941","bdp_rwlrn","Thu Mar 16 2023 03:21:14 GMT+0800 (China Standard Time)","633993","Trustworthy,Untrustworthy","","null","","","","decisionFB","","<div class='trialDiv'><img src='Fruit/cherrie.png'><br><font class='baseline'><strong>Cherry Chances</strong><p>Choose number of points to bet.</font><div class='respPicDiv'><img src='img/responseButtonOffersNo0L5.png' class='respPic'></div></div>","null","10","Cherry Chances","Fruit/cherrie.png","Won","0.65,0.2","12","0.65","183","28","",""
"html-keyboard-response","93","336695","0.0-11.0-3.27","63d7a6a997f03198526a1941","bdp_rwlrn","Thu Mar 16 2023 03:21:14 GMT+0800 (China Standard Time)","633993","Trustworthy,Untrustworthy","","null","","","","feedback","","<div class='respPicDiv'><img src='img/responseButtonOffersNo0_wht.png' class='respPic'></div><div class='trialDiv'><img src='Fruit/cherrie.png'><br><font class='baseline'><strong>Cherry Chances</strong><p><strong><font class='posOutcome'>You WON</font><p>You bet: 5</strong></font> &nbsp; &nbsp; &nbsp; &nbsp; &nbsp; &nbsp;<font class='posOutcome'>you receive: <strong>10</strong></font></div>","null","10","Cherry Chances","Fruit/cherrie.png","Won","0.65,0.2","12","0.65","193","28","",""
"html-keyboard-response","94","337376","0.0-11.0-1.28","63d7a6a997f03198526a1941","bdp_rwlrn","Thu Mar 16 2023 03:21:14 GMT+0800 (China Standard Time)","633993","Trustworthy,Untrustworthy","","674","","","","decision","","<div class='trialDiv'><img src='Fruit/plums1.png'><br><font class='baseline'><strong>Plum Powerball</strong><p>Choose number of points to bet.</font><div class='respPicDiv'><img src='img/responseButtonOffersNo0L.png' class='respPic'></div></div>","2","10","Plum Powerball","Fruit/plums1.png","Won","0.8,0.2","12","0.8","198","29","",""
"html-keyboard-response","95","337635","0.0-11.0-2.28","63d7a6a997f03198526a1941","bdp_rwlrn","Thu Mar 16 2023 03:21:14 GMT+0800 (China Standard Time)","633993","Trustworthy,Untrustworthy","","null","","","","decisionFB","","<div class='trialDiv'><img src='Fruit/plums1.png'><br><font class='baseline'><strong>Plum Powerball</strong><p>Choose number of points to bet.</font><div class='respPicDiv'><img src='img/responseButtonOffersNo0L2.png' class='respPic'></div></div>","null","10","Plum Powerball","Fruit/plums1.png","Won","0.8,0.2","12","0.8","196","29","",""
"html-keyboard-response","96","338642","0.0-11.0-3.28","63d7a6a997f03198526a1941","bdp_rwlrn","Thu Mar 16 2023 03:21:14 GMT+0800 (China Standard Time)","633993","Trustworthy,Untrustworthy","","null","","","","feedback","","<div class='respPicDiv'><img src='img/responseButtonOffersNo0_wht.png' class='respPic'></div><div class='trialDiv'><img src='Fruit/plums1.png'><br><font class='baseline'><strong>Plum Powerball</strong><p><strong><font class='posOutcome'>You WON</font><p>You bet: 2</strong></font> &nbsp; &nbsp; &nbsp; &nbsp; &nbsp; &nbsp;<font class='posOutcome'>you receive: <strong>4</strong></font></div>","null","10","Plum Powerball","Fruit/plums1.png","Won","0.8,0.2","12","0.8","200","29","",""
"html-keyboard-response","97","344418","0.0-11.0-1.29","63d7a6a997f03198526a1941","bdp_rwlrn","Thu Mar 16 2023 03:21:14 GMT+0800 (China Standard Time)","633993","Trustworthy,Untrustworthy","","5770","","","","decision","","<div class='trialDiv'><img src='Fruit/melon.png'><br><font class='baseline'><strong>Melon Millions</strong><p>Choose number of points to bet.</font><div class='respPicDiv'><img src='img/responseButtonOffersNo0L.png' class='respPic'></div></div>","4","10","Melon Millions","Fruit/melon.png","Lost","0.35,0.8","13","0.35","205","30","",""
"html-keyboard-response","98","344681","0.0-11.0-2.29","63d7a6a997f03198526a1941","bdp_rwlrn","Thu Mar 16 2023 03:21:14 GMT+0800 (China Standard Time)","633993","Trustworthy,Untrustworthy","","null","","","","decisionFB","","<div class='trialDiv'><img src='Fruit/melon.png'><br><font class='baseline'><strong>Melon Millions</strong><p>Choose number of points to bet.</font><div class='respPicDiv'><img src='img/responseButtonOffersNo0L4.png' class='respPic'></div></div>","null","10","Melon Millions","Fruit/melon.png","Lost","0.35,0.8","13","0.35","201","30","",""
"html-keyboard-response","99","345689","0.0-11.0-3.29","63d7a6a997f03198526a1941","bdp_rwlrn","Thu Mar 16 2023 03:21:14 GMT+0800 (China Standard Time)","633993","Trustworthy,Untrustworthy","","null","","","","feedback","","<div class='respPicDiv'><img src='img/responseButtonOffersNo0_wht.png' class='respPic'></div><div class='trialDiv'><img src='Fruit/melon.png'><br><font class='baseline'><strong>Melon Millions</strong><p><strong><font class='negOutcome'>You LOST</font><p>You bet: 4</strong></font> &nbsp; &nbsp; &nbsp; &nbsp; &nbsp; &nbsp;<font class='negOutcome'>You receive: <strong>0</strong></font></div>","null","10","Melon Millions","Fruit/melon.png","Lost","0.35,0.8","13","0.35","201","30","",""
"html-keyboard-response","100","349548","0.0-11.0-1.30","63d7a6a997f03198526a1941","bdp_rwlrn","Thu Mar 16 2023 03:21:14 GMT+0800 (China Standard Time)","633993","Trustworthy,Untrustworthy","","3855","","","","decision","","<div class='trialDiv'><img src='Fruit/plums1.png'><br><font class='baseline'><strong>Plum Powerball</strong><p>Choose number of points to bet.</font><div class='respPicDiv'><img src='img/responseButtonOffersNo0L.png' class='respPic'></div></div>","5","11","Plum Powerball","Fruit/plums1.png","Won","0.8,0.2","12","0.8","206","31","",""
"html-keyboard-response","101","349812","0.0-11.0-2.30","63d7a6a997f03198526a1941","bdp_rwlrn","Thu Mar 16 2023 03:21:14 GMT+0800 (China Standard Time)","633993","Trustworthy,Untrustworthy","","null","","","","decisionFB","","<div class='trialDiv'><img src='Fruit/plums1.png'><br><font class='baseline'><strong>Plum Powerball</strong><p>Choose number of points to bet.</font><div class='respPicDiv'><img src='img/responseButtonOffersNo0L5.png' class='respPic'></div></div>","null","11","Plum Powerball","Fruit/plums1.png","Won","0.8,0.2","12","0.8","201","31","",""
"html-keyboard-response","102","350819","0.0-11.0-3.30","63d7a6a997f03198526a1941","bdp_rwlrn","Thu Mar 16 2023 03:21:14 GMT+0800 (China Standard Time)","633993","Trustworthy,Untrustworthy","","null","","","","feedback","","<div class='respPicDiv'><img src='img/responseButtonOffersNo0_wht.png' class='respPic'></div><div class='trialDiv'><img src='Fruit/plums1.png'><br><font class='baseline'><strong>Plum Powerball</strong><p><strong><font class='posOutcome'>You WON</font><p>You bet: 5</strong></font> &nbsp; &nbsp; &nbsp; &nbsp; &nbsp; &nbsp;<font class='posOutcome'>you receive: <strong>10</strong></font></div>","null","11","Plum Powerball","Fruit/plums1.png","Won","0.8,0.2","12","0.8","211","31","",""
"html-keyboard-response","103","351129","0.0-11.0-1.31","63d7a6a997f03198526a1941","bdp_rwlrn","Thu Mar 16 2023 03:21:14 GMT+0800 (China Standard Time)","633993","Trustworthy,Untrustworthy","","302","","","","decision","","<div class='trialDiv'><img src='Fruit/melon.png'><br><font class='baseline'><strong>Melon Millions</strong><p>Choose number of points to bet.</font><div class='respPicDiv'><img src='img/responseButtonOffersNo0L.png' class='respPic'></div></div>","2","11","Melon Millions","Fruit/melon.png","Won","0.35,0.8","13","0.35","216","32","",""
"html-keyboard-response","104","351389","0.0-11.0-2.31","63d7a6a997f03198526a1941","bdp_rwlrn","Thu Mar 16 2023 03:21:14 GMT+0800 (China Standard Time)","633993","Trustworthy,Untrustworthy","","null","","","","decisionFB","","<div class='trialDiv'><img src='Fruit/melon.png'><br><font class='baseline'><strong>Melon Millions</strong><p>Choose number of points to bet.</font><div class='respPicDiv'><img src='img/responseButtonOffersNo0L2.png' class='respPic'></div></div>","null","11","Melon Millions","Fruit/melon.png","Won","0.35,0.8","13","0.35","214","32","",""
"html-keyboard-response","105","352401","0.0-11.0-3.31","63d7a6a997f03198526a1941","bdp_rwlrn","Thu Mar 16 2023 03:21:14 GMT+0800 (China Standard Time)","633993","Trustworthy,Untrustworthy","","null","","","","feedback","","<div class='respPicDiv'><img src='img/responseButtonOffersNo0_wht.png' class='respPic'></div><div class='trialDiv'><img src='Fruit/melon.png'><br><font class='baseline'><strong>Melon Millions</strong><p><strong><font class='posOutcome'>You WON</font><p>You bet: 2</strong></font> &nbsp; &nbsp; &nbsp; &nbsp; &nbsp; &nbsp;<font class='posOutcome'>you receive: <strong>4</strong></font></div>","null","11","Melon Millions","Fruit/melon.png","Won","0.35,0.8","13","0.35","218","32","",""
"html-keyboard-response","106","352721","0.0-11.0-1.32","63d7a6a997f03198526a1941","bdp_rwlrn","Thu Mar 16 2023 03:21:14 GMT+0800 (China Standard Time)","633993","Trustworthy,Untrustworthy","","312","","","","decision","","<div class='trialDiv'><img src='Fruit/cherrie.png'><br><font class='baseline'><strong>Cherry Chances</strong><p>Choose number of points to bet.</font><div class='respPicDiv'><img src='img/responseButtonOffersNo0L.png' class='respPic'></div></div>","5","11","Cherry Chances","Fruit/cherrie.png","Won","0.65,0.2","12","0.65","223","33","",""
"html-keyboard-response","107","352974","0.0-11.0-2.32","63d7a6a997f03198526a1941","bdp_rwlrn","Thu Mar 16 2023 03:21:14 GMT+0800 (China Standard Time)","633993","Trustworthy,Untrustworthy","","null","","","","decisionFB","","<div class='trialDiv'><img src='Fruit/cherrie.png'><br><font class='baseline'><strong>Cherry Chances</strong><p>Choose number of points to bet.</font><div class='respPicDiv'><img src='img/responseButtonOffersNo0L5.png' class='respPic'></div></div>","null","11","Cherry Chances","Fruit/cherrie.png","Won","0.65,0.2","12","0.65","218","33","",""
"html-keyboard-response","108","353980","0.0-11.0-3.32","63d7a6a997f03198526a1941","bdp_rwlrn","Thu Mar 16 2023 03:21:14 GMT+0800 (China Standard Time)","633993","Trustworthy,Untrustworthy","","null","","","","feedback","","<div class='respPicDiv'><img src='img/responseButtonOffersNo0_wht.png' class='respPic'></div><div class='trialDiv'><img src='Fruit/cherrie.png'><br><font class='baseline'><strong>Cherry Chances</strong><p><strong><font class='posOutcome'>You WON</font><p>You bet: 5</strong></font> &nbsp; &nbsp; &nbsp; &nbsp; &nbsp; &nbsp;<font class='posOutcome'>you receive: <strong>10</strong></font></div>","null","11","Cherry Chances","Fruit/cherrie.png","Won","0.65,0.2","12","0.65","228","33","",""
"html-keyboard-response","109","354201","0.0-11.0-1.33","63d7a6a997f03198526a1941","bdp_rwlrn","Thu Mar 16 2023 03:21:14 GMT+0800 (China Standard Time)","633993","Trustworthy,Untrustworthy","","217","","","","decision","","<div class='trialDiv'><img src='Fruit/melon.png'><br><font class='baseline'><strong>Melon Millions</strong><p>Choose number of points to bet.</font><div class='respPicDiv'><img src='img/responseButtonOffersNo0L.png' class='respPic'></div></div>","2","12","Melon Millions","Fruit/melon.png","Lost","0.35,0.8","13","0.35","233","34","",""
"html-keyboard-response","110","354459","0.0-11.0-2.33","63d7a6a997f03198526a1941","bdp_rwlrn","Thu Mar 16 2023 03:21:14 GMT+0800 (China Standard Time)","633993","Trustworthy,Untrustworthy","","null","","","","decisionFB","","<div class='trialDiv'><img src='Fruit/melon.png'><br><font class='baseline'><strong>Melon Millions</strong><p>Choose number of points to bet.</font><div class='respPicDiv'><img src='img/responseButtonOffersNo0L2.png' class='respPic'></div></div>","null","12","Melon Millions","Fruit/melon.png","Lost","0.35,0.8","13","0.35","231","34","",""
"html-keyboard-response","111","355468","0.0-11.0-3.33","63d7a6a997f03198526a1941","bdp_rwlrn","Thu Mar 16 2023 03:21:14 GMT+0800 (China Standard Time)","633993","Trustworthy,Untrustworthy","","null","","","","feedback","","<div class='respPicDiv'><img src='img/responseButtonOffersNo0_wht.png' class='respPic'></div><div class='trialDiv'><img src='Fruit/melon.png'><br><font class='baseline'><strong>Melon Millions</strong><p><strong><font class='negOutcome'>You LOST</font><p>You bet: 2</strong></font> &nbsp; &nbsp; &nbsp; &nbsp; &nbsp; &nbsp;<font class='negOutcome'>You receive: <strong>0</strong></font></div>","null","12","Melon Millions","Fruit/melon.png","Lost","0.35,0.8","13","0.35","231","34","",""
"html-keyboard-response","112","357011","0.0-11.0-1.34","63d7a6a997f03198526a1941","bdp_rwlrn","Thu Mar 16 2023 03:21:14 GMT+0800 (China Standard Time)","633993","Trustworthy,Untrustworthy","","1533","","","","decision","","<div class='trialDiv'><img src='Fruit/plums1.png'><br><font class='baseline'><strong>Plum Powerball</strong><p>Choose number of points to bet.</font><div class='respPicDiv'><img src='img/responseButtonOffersNo0L.png' class='respPic'></div></div>","5","12","Plum Powerball","Fruit/plums1.png","Lost","0.8,0.2","12","0.8","236","35","",""
"html-keyboard-response","113","357268","0.0-11.0-2.34","63d7a6a997f03198526a1941","bdp_rwlrn","Thu Mar 16 2023 03:21:14 GMT+0800 (China Standard Time)","633993","Trustworthy,Untrustworthy","","null","","","","decisionFB","","<div class='trialDiv'><img src='Fruit/plums1.png'><br><font class='baseline'><strong>Plum Powerball</strong><p>Choose number of points to bet.</font><div class='respPicDiv'><img src='img/responseButtonOffersNo0L5.png' class='respPic'></div></div>","null","12","Plum Powerball","Fruit/plums1.png","Lost","0.8,0.2","12","0.8","231","35","",""
"html-keyboard-response","114","358279","0.0-11.0-3.34","63d7a6a997f03198526a1941","bdp_rwlrn","Thu Mar 16 2023 03:21:14 GMT+0800 (China Standard Time)","633993","Trustworthy,Untrustworthy","","null","","","","feedback","","<div class='respPicDiv'><img src='img/responseButtonOffersNo0_wht.png' class='respPic'></div><div class='trialDiv'><img src='Fruit/plums1.png'><br><font class='baseline'><strong>Plum Powerball</strong><p><strong><font class='negOutcome'>You LOST</font><p>You bet: 5</strong></font> &nbsp; &nbsp; &nbsp; &nbsp; &nbsp; &nbsp;<font class='negOutcome'>You receive: <strong>0</strong></font></div>","null","12","Plum Powerball","Fruit/plums1.png","Lost","0.8,0.2","12","0.8","231","35","",""
"html-keyboard-response","115","360284","0.0-11.0-1.35","63d7a6a997f03198526a1941","bdp_rwlrn","Thu Mar 16 2023 03:21:14 GMT+0800 (China Standard Time)","633993","Trustworthy,Untrustworthy","","1999","","","","decision","","<div class='trialDiv'><img src='Fruit/cherrie.png'><br><font class='baseline'><strong>Cherry Chances</strong><p>Choose number of points to bet.</font><div class='respPicDiv'><img src='img/responseButtonOffersNo0L.png' class='respPic'></div></div>","5","12","Cherry Chances","Fruit/cherrie.png","Lost","0.65,0.2","12","0.65","236","36","",""
"html-keyboard-response","116","360545","0.0-11.0-2.35","63d7a6a997f03198526a1941","bdp_rwlrn","Thu Mar 16 2023 03:21:14 GMT+0800 (China Standard Time)","633993","Trustworthy,Untrustworthy","","null","","","","decisionFB","","<div class='trialDiv'><img src='Fruit/cherrie.png'><br><font class='baseline'><strong>Cherry Chances</strong><p>Choose number of points to bet.</font><div class='respPicDiv'><img src='img/responseButtonOffersNo0L5.png' class='respPic'></div></div>","null","12","Cherry Chances","Fruit/cherrie.png","Lost","0.65,0.2","12","0.65","231","36","",""
"html-keyboard-response","117","361553","0.0-11.0-3.35","63d7a6a997f03198526a1941","bdp_rwlrn","Thu Mar 16 2023 03:21:14 GMT+0800 (China Standard Time)","633993","Trustworthy,Untrustworthy","","null","","","","feedback","","<div class='respPicDiv'><img src='img/responseButtonOffersNo0_wht.png' class='respPic'></div><div class='trialDiv'><img src='Fruit/cherrie.png'><br><font class='baseline'><strong>Cherry Chances</strong><p><strong><font class='negOutcome'>You LOST</font><p>You bet: 5</strong></font> &nbsp; &nbsp; &nbsp; &nbsp; &nbsp; &nbsp;<font class='negOutcome'>You receive: <strong>0</strong></font></div>","null","12","Cherry Chances","Fruit/cherrie.png","Lost","0.65,0.2","12","0.65","231","36","",""
"html-keyboard-response","118","361881","0.0-11.0-1.36","63d7a6a997f03198526a1941","bdp_rwlrn","Thu Mar 16 2023 03:21:14 GMT+0800 (China Standard Time)","633993","Trustworthy,Untrustworthy","","320","","","","decision","","<div class='trialDiv'><img src='Fruit/melon.png'><br><font class='baseline'><strong>Melon Millions</strong><p>Choose number of points to bet.</font><div class='respPicDiv'><img src='img/responseButtonOffersNo0L.png' class='respPic'></div></div>","3","13","Melon Millions","Fruit/melon.png","Won","0.35,0.8","13","0.35","236","37","",""
"html-keyboard-response","119","362134","0.0-11.0-2.36","63d7a6a997f03198526a1941","bdp_rwlrn","Thu Mar 16 2023 03:21:14 GMT+0800 (China Standard Time)","633993","Trustworthy,Untrustworthy","","null","","","","decisionFB","","<div class='trialDiv'><img src='Fruit/melon.png'><br><font class='baseline'><strong>Melon Millions</strong><p>Choose number of points to bet.</font><div class='respPicDiv'><img src='img/responseButtonOffersNo0L3.png' class='respPic'></div></div>","null","13","Melon Millions","Fruit/melon.png","Won","0.35,0.8","13","0.35","233","37","",""
"html-keyboard-response","120","363142","0.0-11.0-3.36","63d7a6a997f03198526a1941","bdp_rwlrn","Thu Mar 16 2023 03:21:14 GMT+0800 (China Standard Time)","633993","Trustworthy,Untrustworthy","","null","","","","feedback","","<div class='respPicDiv'><img src='img/responseButtonOffersNo0_wht.png' class='respPic'></div><div class='trialDiv'><img src='Fruit/melon.png'><br><font class='baseline'><strong>Melon Millions</strong><p><strong><font class='posOutcome'>You WON</font><p>You bet: 3</strong></font> &nbsp; &nbsp; &nbsp; &nbsp; &nbsp; &nbsp;<font class='posOutcome'>you receive: <strong>6</strong></font></div>","null","13","Melon Millions","Fruit/melon.png","Won","0.35,0.8","13","0.35","239","37","",""
"html-keyboard-response","121","363460","0.0-11.0-1.37","63d7a6a997f03198526a1941","bdp_rwlrn","Thu Mar 16 2023 03:21:14 GMT+0800 (China Standard Time)","633993","Trustworthy,Untrustworthy","","310","","","","decision","","<div class='trialDiv'><img src='Fruit/cherrie.png'><br><font class='baseline'><strong>Cherry Chances</strong><p>Choose number of points to bet.</font><div class='respPicDiv'><img src='img/responseButtonOffersNo0L.png' class='respPic'></div></div>","2","13","Cherry Chances","Fruit/cherrie.png","Lost","0.65,0.2","12","0.65","244","38","",""
"html-keyboard-response","122","363718","0.0-11.0-2.37","63d7a6a997f03198526a1941","bdp_rwlrn","Thu Mar 16 2023 03:21:14 GMT+0800 (China Standard Time)","633993","Trustworthy,Untrustworthy","","null","","","","decisionFB","","<div class='trialDiv'><img src='Fruit/cherrie.png'><br><font class='baseline'><strong>Cherry Chances</strong><p>Choose number of points to bet.</font><div class='respPicDiv'><img src='img/responseButtonOffersNo0L2.png' class='respPic'></div></div>","null","13","Cherry Chances","Fruit/cherrie.png","Lost","0.65,0.2","12","0.65","242","38","",""
"html-keyboard-response","123","364729","0.0-11.0-3.37","63d7a6a997f03198526a1941","bdp_rwlrn","Thu Mar 16 2023 03:21:14 GMT+0800 (China Standard Time)","633993","Trustworthy,Untrustworthy","","null","","","","feedback","","<div class='respPicDiv'><img src='img/responseButtonOffersNo0_wht.png' class='respPic'></div><div class='trialDiv'><img src='Fruit/cherrie.png'><br><font class='baseline'><strong>Cherry Chances</strong><p><strong><font class='negOutcome'>You LOST</font><p>You bet: 2</strong></font> &nbsp; &nbsp; &nbsp; &nbsp; &nbsp; &nbsp;<font class='negOutcome'>You receive: <strong>0</strong></font></div>","null","13","Cherry Chances","Fruit/cherrie.png","Lost","0.65,0.2","12","0.65","242","38","",""
"html-keyboard-response","124","365133","0.0-11.0-1.38","63d7a6a997f03198526a1941","bdp_rwlrn","Thu Mar 16 2023 03:21:14 GMT+0800 (China Standard Time)","633993","Trustworthy,Untrustworthy","","397","","","","decision","","<div class='trialDiv'><img src='Fruit/plums1.png'><br><font class='baseline'><strong>Plum Powerball</strong><p>Choose number of points to bet.</font><div class='respPicDiv'><img src='img/responseButtonOffersNo0L.png' class='respPic'></div></div>","4","13","Plum Powerball","Fruit/plums1.png","Lost","0.8,0.2","12","0.8","247","39","",""
"html-keyboard-response","125","365394","0.0-11.0-2.38","63d7a6a997f03198526a1941","bdp_rwlrn","Thu Mar 16 2023 03:21:14 GMT+0800 (China Standard Time)","633993","Trustworthy,Untrustworthy","","null","","","","decisionFB","","<div class='trialDiv'><img src='Fruit/plums1.png'><br><font class='baseline'><strong>Plum Powerball</strong><p>Choose number of points to bet.</font><div class='respPicDiv'><img src='img/responseButtonOffersNo0L4.png' class='respPic'></div></div>","null","13","Plum Powerball","Fruit/plums1.png","Lost","0.8,0.2","12","0.8","243","39","",""
"html-keyboard-response","126","366406","0.0-11.0-3.38","63d7a6a997f03198526a1941","bdp_rwlrn","Thu Mar 16 2023 03:21:14 GMT+0800 (China Standard Time)","633993","Trustworthy,Untrustworthy","","null","","","","feedback","","<div class='respPicDiv'><img src='img/responseButtonOffersNo0_wht.png' class='respPic'></div><div class='trialDiv'><img src='Fruit/plums1.png'><br><font class='baseline'><strong>Plum Powerball</strong><p><strong><font class='negOutcome'>You LOST</font><p>You bet: 4</strong></font> &nbsp; &nbsp; &nbsp; &nbsp; &nbsp; &nbsp;<font class='negOutcome'>You receive: <strong>0</strong></font></div>","null","13","Plum Powerball","Fruit/plums1.png","Lost","0.8,0.2","12","0.8","243","39","",""
"html-keyboard-response","127","366755","0.0-11.0-1.39","63d7a6a997f03198526a1941","bdp_rwlrn","Thu Mar 16 2023 03:21:14 GMT+0800 (China Standard Time)","633993","Trustworthy,Untrustworthy","","343","","","","decision","","<div class='trialDiv'><img src='Fruit/melon.png'><br><font class='baseline'><strong>Melon Millions</strong><p>Choose number of points to bet.</font><div class='respPicDiv'><img src='img/responseButtonOffersNo0L.png' class='respPic'></div></div>","1","14","Melon Millions","Fruit/melon.png","Won","0.35,0.8","13","0.35","248","40","",""
"html-keyboard-response","128","367012","0.0-11.0-2.39","63d7a6a997f03198526a1941","bdp_rwlrn","Thu Mar 16 2023 03:21:14 GMT+0800 (China Standard Time)","633993","Trustworthy,Untrustworthy","","null","","","","decisionFB","","<div class='trialDiv'><img src='Fruit/melon.png'><br><font class='baseline'><strong>Melon Millions</strong><p>Choose number of points to bet.</font><div class='respPicDiv'><img src='img/responseButtonOffersNo0L1.png' class='respPic'></div></div>","null","14","Melon Millions","Fruit/melon.png","Won","0.35,0.8","13","0.35","247","40","",""
"html-keyboard-response","129","368024","0.0-11.0-3.39","63d7a6a997f03198526a1941","bdp_rwlrn","Thu Mar 16 2023 03:21:14 GMT+0800 (China Standard Time)","633993","Trustworthy,Untrustworthy","","null","","","","feedback","","<div class='respPicDiv'><img src='img/responseButtonOffersNo0_wht.png' class='respPic'></div><div class='trialDiv'><img src='Fruit/melon.png'><br><font class='baseline'><strong>Melon Millions</strong><p><strong><font class='posOutcome'>You WON</font><p>You bet: 1</strong></font> &nbsp; &nbsp; &nbsp; &nbsp; &nbsp; &nbsp;<font class='posOutcome'>you receive: <strong>2</strong></font></div>","null","14","Melon Millions","Fruit/melon.png","Won","0.35,0.8","13","0.35","249","40","",""
"html-keyboard-response","130","368332","0.0-11.0-1.40","63d7a6a997f03198526a1941","bdp_rwlrn","Thu Mar 16 2023 03:21:14 GMT+0800 (China Standard Time)","633993","Trustworthy,Untrustworthy","","303","","","","decision","","<div class='trialDiv'><img src='Fruit/plums1.png'><br><font class='baseline'><strong>Plum Powerball</strong><p>Choose number of points to bet.</font><div class='respPicDiv'><img src='img/responseButtonOffersNo0L.png' class='respPic'></div></div>","2","14","Plum Powerball","Fruit/plums1.png","Won","0.8,0.2","12","0.8","254","41","",""
"html-keyboard-response","131","368591","0.0-11.0-2.40","63d7a6a997f03198526a1941","bdp_rwlrn","Thu Mar 16 2023 03:21:14 GMT+0800 (China Standard Time)","633993","Trustworthy,Untrustworthy","","null","","","","decisionFB","","<div class='trialDiv'><img src='Fruit/plums1.png'><br><font class='baseline'><strong>Plum Powerball</strong><p>Choose number of points to bet.</font><div class='respPicDiv'><img src='img/responseButtonOffersNo0L2.png' class='respPic'></div></div>","null","14","Plum Powerball","Fruit/plums1.png","Won","0.8,0.2","12","0.8","252","41","",""
"html-keyboard-response","132","369598","0.0-11.0-3.40","63d7a6a997f03198526a1941","bdp_rwlrn","Thu Mar 16 2023 03:21:14 GMT+0800 (China Standard Time)","633993","Trustworthy,Untrustworthy","","null","","","","feedback","","<div class='respPicDiv'><img src='img/responseButtonOffersNo0_wht.png' class='respPic'></div><div class='trialDiv'><img src='Fruit/plums1.png'><br><font class='baseline'><strong>Plum Powerball</strong><p><strong><font class='posOutcome'>You WON</font><p>You bet: 2</strong></font> &nbsp; &nbsp; &nbsp; &nbsp; &nbsp; &nbsp;<font class='posOutcome'>you receive: <strong>4</strong></font></div>","null","14","Plum Powerball","Fruit/plums1.png","Won","0.8,0.2","12","0.8","256","41","",""
"html-keyboard-response","133","369724","0.0-11.0-1.41","63d7a6a997f03198526a1941","bdp_rwlrn","Thu Mar 16 2023 03:21:14 GMT+0800 (China Standard Time)","633993","Trustworthy,Untrustworthy","","119","","","","decision","","<div class='trialDiv'><img src='Fruit/cherrie.png'><br><font class='baseline'><strong>Cherry Chances</strong><p>Choose number of points to bet.</font><div class='respPicDiv'><img src='img/responseButtonOffersNo0L.png' class='respPic'></div></div>","5","14","Cherry Chances","Fruit/cherrie.png","Won","0.65,0.2","12","0.65","261","42","",""
"html-keyboard-response","134","369993","0.0-11.0-2.41","63d7a6a997f03198526a1941","bdp_rwlrn","Thu Mar 16 2023 03:21:14 GMT+0800 (China Standard Time)","633993","Trustworthy,Untrustworthy","","null","","","","decisionFB","","<div class='trialDiv'><img src='Fruit/cherrie.png'><br><font class='baseline'><strong>Cherry Chances</strong><p>Choose number of points to bet.</font><div class='respPicDiv'><img src='img/responseButtonOffersNo0L5.png' class='respPic'></div></div>","null","14","Cherry Chances","Fruit/cherrie.png","Won","0.65,0.2","12","0.65","256","42","",""
"html-keyboard-response","135","371003","0.0-11.0-3.41","63d7a6a997f03198526a1941","bdp_rwlrn","Thu Mar 16 2023 03:21:14 GMT+0800 (China Standard Time)","633993","Trustworthy,Untrustworthy","","null","","","","feedback","","<div class='respPicDiv'><img src='img/responseButtonOffersNo0_wht.png' class='respPic'></div><div class='trialDiv'><img src='Fruit/cherrie.png'><br><font class='baseline'><strong>Cherry Chances</strong><p><strong><font class='posOutcome'>You WON</font><p>You bet: 5</strong></font> &nbsp; &nbsp; &nbsp; &nbsp; &nbsp; &nbsp;<font class='posOutcome'>you receive: <strong>10</strong></font></div>","null","14","Cherry Chances","Fruit/cherrie.png","Won","0.65,0.2","12","0.65","266","42","",""
"html-keyboard-response","136","371285","0.0-11.0-1.42","63d7a6a997f03198526a1941","bdp_rwlrn","Thu Mar 16 2023 03:21:14 GMT+0800 (China Standard Time)","633993","Trustworthy,Untrustworthy","","274","","","","decision","","<div class='trialDiv'><img src='Fruit/plums1.png'><br><font class='baseline'><strong>Plum Powerball</strong><p>Choose number of points to bet.</font><div class='respPicDiv'><img src='img/responseButtonOffersNo0L.png' class='respPic'></div></div>","3","15","Plum Powerball","Fruit/plums1.png","Won","0.8,0.2","12","0.8","271","43","",""
"html-keyboard-response","137","371540","0.0-11.0-2.42","63d7a6a997f03198526a1941","bdp_rwlrn","Thu Mar 16 2023 03:21:14 GMT+0800 (China Standard Time)","633993","Trustworthy,Untrustworthy","","null","","","","decisionFB","","<div class='trialDiv'><img src='Fruit/plums1.png'><br><font class='baseline'><strong>Plum Powerball</strong><p>Choose number of points to bet.</font><div class='respPicDiv'><img src='img/responseButtonOffersNo0L3.png' class='respPic'></div></div>","null","15","Plum Powerball","Fruit/plums1.png","Won","0.8,0.2","12","0.8","268","43","",""
"html-keyboard-response","138","372547","0.0-11.0-3.42","63d7a6a997f03198526a1941","bdp_rwlrn","Thu Mar 16 2023 03:21:14 GMT+0800 (China Standard Time)","633993","Trustworthy,Untrustworthy","","null","","","","feedback","","<div class='respPicDiv'><img src='img/responseButtonOffersNo0_wht.png' class='respPic'></div><div class='trialDiv'><img src='Fruit/plums1.png'><br><font class='baseline'><strong>Plum Powerball</strong><p><strong><font class='posOutcome'>You WON</font><p>You bet: 3</strong></font> &nbsp; &nbsp; &nbsp; &nbsp; &nbsp; &nbsp;<font class='posOutcome'>you receive: <strong>6</strong></font></div>","null","15","Plum Powerball","Fruit/plums1.png","Won","0.8,0.2","12","0.8","274","43","",""
"html-keyboard-response","139","372915","0.0-11.0-1.43","63d7a6a997f03198526a1941","bdp_rwlrn","Thu Mar 16 2023 03:21:14 GMT+0800 (China Standard Time)","633993","Trustworthy,Untrustworthy","","364","","","","decision","","<div class='trialDiv'><img src='Fruit/cherrie.png'><br><font class='baseline'><strong>Cherry Chances</strong><p>Choose number of points to bet.</font><div class='respPicDiv'><img src='img/responseButtonOffersNo0L.png' class='respPic'></div></div>","2","15","Cherry Chances","Fruit/cherrie.png","Lost","0.65,0.2","12","0.65","279","44","",""
"html-keyboard-response","140","373174","0.0-11.0-2.43","63d7a6a997f03198526a1941","bdp_rwlrn","Thu Mar 16 2023 03:21:14 GMT+0800 (China Standard Time)","633993","Trustworthy,Untrustworthy","","null","","","","decisionFB","","<div class='trialDiv'><img src='Fruit/cherrie.png'><br><font class='baseline'><strong>Cherry Chances</strong><p>Choose number of points to bet.</font><div class='respPicDiv'><img src='img/responseButtonOffersNo0L2.png' class='respPic'></div></div>","null","15","Cherry Chances","Fruit/cherrie.png","Lost","0.65,0.2","12","0.65","277","44","",""
"html-keyboard-response","141","374181","0.0-11.0-3.43","63d7a6a997f03198526a1941","bdp_rwlrn","Thu Mar 16 2023 03:21:14 GMT+0800 (China Standard Time)","633993","Trustworthy,Untrustworthy","","null","","","","feedback","","<div class='respPicDiv'><img src='img/responseButtonOffersNo0_wht.png' class='respPic'></div><div class='trialDiv'><img src='Fruit/cherrie.png'><br><font class='baseline'><strong>Cherry Chances</strong><p><strong><font class='negOutcome'>You LOST</font><p>You bet: 2</strong></font> &nbsp; &nbsp; &nbsp; &nbsp; &nbsp; &nbsp;<font class='negOutcome'>You receive: <strong>0</strong></font></div>","null","15","Cherry Chances","Fruit/cherrie.png","Lost","0.65,0.2","12","0.65","277","44","",""
"html-keyboard-response","142","374462","0.0-11.0-1.44","63d7a6a997f03198526a1941","bdp_rwlrn","Thu Mar 16 2023 03:21:14 GMT+0800 (China Standard Time)","633993","Trustworthy,Untrustworthy","","274","","","","decision","","<div class='trialDiv'><img src='Fruit/melon.png'><br><font class='baseline'><strong>Melon Millions</strong><p>Choose number of points to bet.</font><div class='respPicDiv'><img src='img/responseButtonOffersNo0L.png' class='respPic'></div></div>","1","15","Melon Millions","Fruit/melon.png","Lost","0.35,0.8","13","0.35","282","45","",""
"html-keyboard-response","143","374719","0.0-11.0-2.44","63d7a6a997f03198526a1941","bdp_rwlrn","Thu Mar 16 2023 03:21:14 GMT+0800 (China Standard Time)","633993","Trustworthy,Untrustworthy","","null","","","","decisionFB","","<div class='trialDiv'><img src='Fruit/melon.png'><br><font class='baseline'><strong>Melon Millions</strong><p>Choose number of points to bet.</font><div class='respPicDiv'><img src='img/responseButtonOffersNo0L1.png' class='respPic'></div></div>","null","15","Melon Millions","Fruit/melon.png","Lost","0.35,0.8","13","0.35","281","45","",""
"html-keyboard-response","144","375727","0.0-11.0-3.44","63d7a6a997f03198526a1941","bdp_rwlrn","Thu Mar 16 2023 03:21:14 GMT+0800 (China Standard Time)","633993","Trustworthy,Untrustworthy","","null","","","","feedback","","<div class='respPicDiv'><img src='img/responseButtonOffersNo0_wht.png' class='respPic'></div><div class='trialDiv'><img src='Fruit/melon.png'><br><font class='baseline'><strong>Melon Millions</strong><p><strong><font class='negOutcome'>You LOST</font><p>You bet: 1</strong></font> &nbsp; &nbsp; &nbsp; &nbsp; &nbsp; &nbsp;<font class='negOutcome'>You receive: <strong>0</strong></font></div>","null","15","Melon Millions","Fruit/melon.png","Lost","0.35,0.8","13","0.35","281","45","",""
"html-keyboard-response","145","376103","0.0-11.0-1.45","63d7a6a997f03198526a1941","bdp_rwlrn","Thu Mar 16 2023 03:21:14 GMT+0800 (China Standard Time)","633993","Trustworthy,Untrustworthy","","370","","","","decision","","<div class='trialDiv'><img src='Fruit/cherrie.png'><br><font class='baseline'><strong>Cherry Chances</strong><p>Choose number of points to bet.</font><div class='respPicDiv'><img src='img/responseButtonOffersNo0L.png' class='respPic'></div></div>","5","16","Cherry Chances","Fruit/cherrie.png","Lost","0.65,0.2","12","0.65","286","46","",""
"html-keyboard-response","146","376365","0.0-11.0-2.45","63d7a6a997f03198526a1941","bdp_rwlrn","Thu Mar 16 2023 03:21:14 GMT+0800 (China Standard Time)","633993","Trustworthy,Untrustworthy","","null","","","","decisionFB","","<div class='trialDiv'><img src='Fruit/cherrie.png'><br><font class='baseline'><strong>Cherry Chances</strong><p>Choose number of points to bet.</font><div class='respPicDiv'><img src='img/responseButtonOffersNo0L5.png' class='respPic'></div></div>","null","16","Cherry Chances","Fruit/cherrie.png","Lost","0.65,0.2","12","0.65","281","46","",""
"html-keyboard-response","147","377378","0.0-11.0-3.45","63d7a6a997f03198526a1941","bdp_rwlrn","Thu Mar 16 2023 03:21:14 GMT+0800 (China Standard Time)","633993","Trustworthy,Untrustworthy","","null","","","","feedback","","<div class='respPicDiv'><img src='img/responseButtonOffersNo0_wht.png' class='respPic'></div><div class='trialDiv'><img src='Fruit/cherrie.png'><br><font class='baseline'><strong>Cherry Chances</strong><p><strong><font class='negOutcome'>You LOST</font><p>You bet: 5</strong></font> &nbsp; &nbsp; &nbsp; &nbsp; &nbsp; &nbsp;<font class='negOutcome'>You receive: <strong>0</strong></font></div>","null","16","Cherry Chances","Fruit/cherrie.png","Lost","0.65,0.2","12","0.65","281","46","",""
"html-keyboard-response","148","377868","0.0-11.0-1.46","63d7a6a997f03198526a1941","bdp_rwlrn","Thu Mar 16 2023 03:21:14 GMT+0800 (China Standard Time)","633993","Trustworthy,Untrustworthy","","483","","","","decision","","<div class='trialDiv'><img src='Fruit/plums1.png'><br><font class='baseline'><strong>Plum Powerball</strong><p>Choose number of points to bet.</font><div class='respPicDiv'><img src='img/responseButtonOffersNo0L.png' class='respPic'></div></div>","5","16","Plum Powerball","Fruit/plums1.png","Lost","0.8,0.2","12","0.8","286","47","",""
"html-keyboard-response","149","378129","0.0-11.0-2.46","63d7a6a997f03198526a1941","bdp_rwlrn","Thu Mar 16 2023 03:21:14 GMT+0800 (China Standard Time)","633993","Trustworthy,Untrustworthy","","null","","","","decisionFB","","<div class='trialDiv'><img src='Fruit/plums1.png'><br><font class='baseline'><strong>Plum Powerball</strong><p>Choose number of points to bet.</font><div class='respPicDiv'><img src='img/responseButtonOffersNo0L5.png' class='respPic'></div></div>","null","16","Plum Powerball","Fruit/plums1.png","Lost","0.8,0.2","12","0.8","281","47","",""
"html-keyboard-response","150","379137","0.0-11.0-3.46","63d7a6a997f03198526a1941","bdp_rwlrn","Thu Mar 16 2023 03:21:14 GMT+0800 (China Standard Time)","633993","Trustworthy,Untrustworthy","","null","","","","feedback","","<div class='respPicDiv'><img src='img/responseButtonOffersNo0_wht.png' class='respPic'></div><div class='trialDiv'><img src='Fruit/plums1.png'><br><font class='baseline'><strong>Plum Powerball</strong><p><strong><font class='negOutcome'>You LOST</font><p>You bet: 5</strong></font> &nbsp; &nbsp; &nbsp; &nbsp; &nbsp; &nbsp;<font class='negOutcome'>You receive: <strong>0</strong></font></div>","null","16","Plum Powerball","Fruit/plums1.png","Lost","0.8,0.2","12","0.8","281","47","",""
"html-keyboard-response","151","379333","0.0-11.0-1.47","63d7a6a997f03198526a1941","bdp_rwlrn","Thu Mar 16 2023 03:21:14 GMT+0800 (China Standard Time)","633993","Trustworthy,Untrustworthy","","191","","","","decision","","<div class='trialDiv'><img src='Fruit/melon.png'><br><font class='baseline'><strong>Melon Millions</strong><p>Choose number of points to bet.</font><div class='respPicDiv'><img src='img/responseButtonOffersNo0L.png' class='respPic'></div></div>","4","16","Melon Millions","Fruit/melon.png","Won","0.35,0.8","13","0.35","286","48","",""
"html-keyboard-response","152","379592","0.0-11.0-2.47","63d7a6a997f03198526a1941","bdp_rwlrn","Thu Mar 16 2023 03:21:14 GMT+0800 (China Standard Time)","633993","Trustworthy,Untrustworthy","","null","","","","decisionFB","","<div class='trialDiv'><img src='Fruit/melon.png'><br><font class='baseline'><strong>Melon Millions</strong><p>Choose number of points to bet.</font><div class='respPicDiv'><img src='img/responseButtonOffersNo0L4.png' class='respPic'></div></div>","null","16","Melon Millions","Fruit/melon.png","Won","0.35,0.8","13","0.35","282","48","",""
"html-keyboard-response","153","380599","0.0-11.0-3.47","63d7a6a997f03198526a1941","bdp_rwlrn","Thu Mar 16 2023 03:21:14 GMT+0800 (China Standard Time)","633993","Trustworthy,Untrustworthy","","null","","","","feedback","","<div class='respPicDiv'><img src='img/responseButtonOffersNo0_wht.png' class='respPic'></div><div class='trialDiv'><img src='Fruit/melon.png'><br><font class='baseline'><strong>Melon Millions</strong><p><strong><font class='posOutcome'>You WON</font><p>You bet: 4</strong></font> &nbsp; &nbsp; &nbsp; &nbsp; &nbsp; &nbsp;<font class='posOutcome'>you receive: <strong>8</strong></font></div>","null","16","Melon Millions","Fruit/melon.png","Won","0.35,0.8","13","0.35","290","48","",""
"html-keyboard-response","154","380676","0.0-11.0-1.48","63d7a6a997f03198526a1941","bdp_rwlrn","Thu Mar 16 2023 03:21:14 GMT+0800 (China Standard Time)","633993","Trustworthy,Untrustworthy","","70","","","","decision","","<div class='trialDiv'><img src='Fruit/cherrie.png'><br><font class='baseline'><strong>Cherry Chances</strong><p>Choose number of points to bet.</font><div class='respPicDiv'><img src='img/responseButtonOffersNo0L.png' class='respPic'></div></div>","2","17","Cherry Chances","Fruit/cherrie.png","Lost","0.65,0.2","12","0.65","295","49","",""
"html-keyboard-response","155","380931","0.0-11.0-2.48","63d7a6a997f03198526a1941","bdp_rwlrn","Thu Mar 16 2023 03:21:14 GMT+0800 (China Standard Time)","633993","Trustworthy,Untrustworthy","","null","","","","decisionFB","","<div class='trialDiv'><img src='Fruit/cherrie.png'><br><font class='baseline'><strong>Cherry Chances</strong><p>Choose number of points to bet.</font><div class='respPicDiv'><img src='img/responseButtonOffersNo0L2.png' class='respPic'></div></div>","null","17","Cherry Chances","Fruit/cherrie.png","Lost","0.65,0.2","12","0.65","293","49","",""
"html-keyboard-response","156","381938","0.0-11.0-3.48","63d7a6a997f03198526a1941","bdp_rwlrn","Thu Mar 16 2023 03:21:14 GMT+0800 (China Standard Time)","633993","Trustworthy,Untrustworthy","","null","","","","feedback","","<div class='respPicDiv'><img src='img/responseButtonOffersNo0_wht.png' class='respPic'></div><div class='trialDiv'><img src='Fruit/cherrie.png'><br><font class='baseline'><strong>Cherry Chances</strong><p><strong><font class='negOutcome'>You LOST</font><p>You bet: 2</strong></font> &nbsp; &nbsp; &nbsp; &nbsp; &nbsp; &nbsp;<font class='negOutcome'>You receive: <strong>0</strong></font></div>","null","17","Cherry Chances","Fruit/cherrie.png","Lost","0.65,0.2","12","0.65","293","49","",""
"html-keyboard-response","157","382237","0.0-11.0-1.49","63d7a6a997f03198526a1941","bdp_rwlrn","Thu Mar 16 2023 03:21:14 GMT+0800 (China Standard Time)","633993","Trustworthy,Untrustworthy","","296","","","","decision","","<div class='trialDiv'><img src='Fruit/plums1.png'><br><font class='baseline'><strong>Plum Powerball</strong><p>Choose number of points to bet.</font><div class='respPicDiv'><img src='img/responseButtonOffersNo0L.png' class='respPic'></div></div>","4","17","Plum Powerball","Fruit/plums1.png","Won","0.8,0.2","12","0.8","298","50","",""
"html-keyboard-response","158","382491","0.0-11.0-2.49","63d7a6a997f03198526a1941","bdp_rwlrn","Thu Mar 16 2023 03:21:14 GMT+0800 (China Standard Time)","633993","Trustworthy,Untrustworthy","","null","","","","decisionFB","","<div class='trialDiv'><img src='Fruit/plums1.png'><br><font class='baseline'><strong>Plum Powerball</strong><p>Choose number of points to bet.</font><div class='respPicDiv'><img src='img/responseButtonOffersNo0L4.png' class='respPic'></div></div>","null","17","Plum Powerball","Fruit/plums1.png","Won","0.8,0.2","12","0.8","294","50","",""
"html-keyboard-response","159","383495","0.0-11.0-3.49","63d7a6a997f03198526a1941","bdp_rwlrn","Thu Mar 16 2023 03:21:14 GMT+0800 (China Standard Time)","633993","Trustworthy,Untrustworthy","","null","","","","feedback","","<div class='respPicDiv'><img src='img/responseButtonOffersNo0_wht.png' class='respPic'></div><div class='trialDiv'><img src='Fruit/plums1.png'><br><font class='baseline'><strong>Plum Powerball</strong><p><strong><font class='posOutcome'>You WON</font><p>You bet: 4</strong></font> &nbsp; &nbsp; &nbsp; &nbsp; &nbsp; &nbsp;<font class='posOutcome'>you receive: <strong>8</strong></font></div>","null","17","Plum Powerball","Fruit/plums1.png","Won","0.8,0.2","12","0.8","302","50","",""
"html-keyboard-response","160","383850","0.0-11.0-1.50","63d7a6a997f03198526a1941","bdp_rwlrn","Thu Mar 16 2023 03:21:14 GMT+0800 (China Standard Time)","633993","Trustworthy,Untrustworthy","","349","","","","decision","","<div class='trialDiv'><img src='Fruit/melon.png'><br><font class='baseline'><strong>Melon Millions</strong><p>Choose number of points to bet.</font><div class='respPicDiv'><img src='img/responseButtonOffersNo0L.png' class='respPic'></div></div>","1","17","Melon Millions","Fruit/melon.png","Won","0.35,0.8","13","0.35","307","51","",""
"html-keyboard-response","161","384107","0.0-11.0-2.50","63d7a6a997f03198526a1941","bdp_rwlrn","Thu Mar 16 2023 03:21:14 GMT+0800 (China Standard Time)","633993","Trustworthy,Untrustworthy","","null","","","","decisionFB","","<div class='trialDiv'><img src='Fruit/melon.png'><br><font class='baseline'><strong>Melon Millions</strong><p>Choose number of points to bet.</font><div class='respPicDiv'><img src='img/responseButtonOffersNo0L1.png' class='respPic'></div></div>","null","17","Melon Millions","Fruit/melon.png","Won","0.35,0.8","13","0.35","306","51","",""
"html-keyboard-response","162","385115","0.0-11.0-3.50","63d7a6a997f03198526a1941","bdp_rwlrn","Thu Mar 16 2023 03:21:14 GMT+0800 (China Standard Time)","633993","Trustworthy,Untrustworthy","","null","","","","feedback","","<div class='respPicDiv'><img src='img/responseButtonOffersNo0_wht.png' class='respPic'></div><div class='trialDiv'><img src='Fruit/melon.png'><br><font class='baseline'><strong>Melon Millions</strong><p><strong><font class='posOutcome'>You WON</font><p>You bet: 1</strong></font> &nbsp; &nbsp; &nbsp; &nbsp; &nbsp; &nbsp;<font class='posOutcome'>you receive: <strong>2</strong></font></div>","null","17","Melon Millions","Fruit/melon.png","Won","0.35,0.8","13","0.35","308","51","",""
"html-keyboard-response","163","386465","0.0-11.0-1.51","63d7a6a997f03198526a1941","bdp_rwlrn","Thu Mar 16 2023 03:21:14 GMT+0800 (China Standard Time)","633993","Trustworthy,Untrustworthy","","1347","","","","decision","","<div class='trialDiv'><img src='Fruit/cherrie.png'><br><font class='baseline'><strong>Cherry Chances</strong><p>Choose number of points to bet.</font><div class='respPicDiv'><img src='img/responseButtonOffersNo0L.png' class='respPic'></div></div>","4","18","Cherry Chances","Fruit/cherrie.png","Lost","0.65,0.2","12","0.65","313","52","",""
