"trial_type","trial_index","time_elapsed","internal_node_id","subject_id","task","startTime","totalTime","labels","view_history","rt","event","trial","time","trialtype","success","stimulus","key_press","ltround","name","fileID","outcome","lottotype","lottoswpt","lottocurrpshare","point_total","round","faceID","face"
"pavlovia","0","6","0.0-0.0","60d2d061fd054556769ca306","bdp_rwlrn","Mon Mar 13 2023 00:00:32 GMT-0400 (Eastern Daylight Time)","373885","Untrustworthy,Trustworthy","","","","","","","","","","","","","","","","","","","",""
"instructions","1","3119","0.0-1.0","60d2d061fd054556769ca306","bdp_rwlrn","Mon Mar 13 2023 00:00:32 GMT-0400 (Eastern Daylight Time)","373885","Untrustworthy,Trustworthy","[{""page_index"":0,""viewing_time"":3113}]","3113","","","","","","","","","","","","","","","","","",""
"","","","","60d2d061fd054556769ca306","bdp_rwlrn","Mon Mar 13 2023 00:00:32 GMT-0400 (Eastern Daylight Time)","373885","Untrustworthy,Trustworthy","","","fullscreenenter","2","5391","fullscreenenter","","","","","","","","","","","","","",""
"fullscreen","2","6368","0.0-2.0","60d2d061fd054556769ca306","bdp_rwlrn","Mon Mar 13 2023 00:00:32 GMT-0400 (Eastern Daylight Time)","373885","Untrustworthy,Trustworthy","","","","","","","true","","","","","","","","","","","","",""
"instructions","3","50301","0.0-4.0","60d2d061fd054556769ca306","bdp_rwlrn","Mon Mar 13 2023 00:00:32 GMT-0400 (Eastern Daylight Time)","373885","Untrustworthy,Trustworthy","[{""page_index"":0,""viewing_time"":12261},{""page_index"":1,""viewing_time"":12186},{""page_index"":2,""viewing_time"":3092},{""page_index"":3,""viewing_time"":2215},{""page_index"":4,""viewing_time"":11744},{""page_index"":5,""viewing_time"":2433}]","43931","","","","","","","","","","","","","","","","","",""
"html-keyboard-response","4","55342","0.0-5.0","60d2d061fd054556769ca306","bdp_rwlrn","Mon Mar 13 2023 00:00:32 GMT-0400 (Eastern Daylight Time)","373885","Untrustworthy,Trustworthy","","5039","","","","","","<div class='header' style='text-align:left; position: absolute; top: 5%; left: 5%;'><small>Task 3 of 5</small></div><div class='instruxDiv'><p><strong>1) What is the maximum number of points you can choose to bet on a lottery?</strong></p><p>a) 0</p><p>b) 1</p><p>c) 5</p>","C","","","","","","","","","","",""
"html-keyboard-response","5","56223","0.0-6.0","60d2d061fd054556769ca306","bdp_rwlrn","Mon Mar 13 2023 00:00:32 GMT-0400 (Eastern Daylight Time)","373885","Untrustworthy,Trustworthy","","779","","","","","","<div class='header' style='text-align:left; position: absolute; top: 5%; left: 5%;'><small>Task 3 of 5</small></div><div class='instruxDiv'><p><strong>1) What is the maximum number of points you can choose to bet on a lottery?</strong></p><p>a) 1</p><p>b) 1</p><p style='color:#00FF00'>c) 5</p><h3 style='color:#00FF00'>Correct!</h3><h3 class='center-content'>The correct response is c).</h3><h3 class='center-content'>The maximum number of points you can choose to bet on a lottery is 5 points.</h3><p><em>Press SPACEBAR to continue</em></p></div>"," ","","","","","","","","","","",""
"html-keyboard-response","6","62016","0.0-7.0","60d2d061fd054556769ca306","bdp_rwlrn","Mon Mar 13 2023 00:00:32 GMT-0400 (Eastern Daylight Time)","373885","Untrustworthy,Trustworthy","","5691","","","","","","<div class='header' style='text-align:left; position: absolute; top: 5%; left: 5%;'><small>Task 3 of 5</small></div><div class='instruxDiv'><p><strong>2) How many points can you win each round?</strong></p><p>a) 10 points</p><p>b) Double what you bet</p><p>c) Quadruple what you bet</p>","B","","","","","","","","","","",""
"html-keyboard-response","7","62909","0.0-8.0","60d2d061fd054556769ca306","bdp_rwlrn","Mon Mar 13 2023 00:00:32 GMT-0400 (Eastern Daylight Time)","373885","Untrustworthy,Trustworthy","","792","","","","","","<div class='header' style='text-align:left; position: absolute; top: 5%; left: 5%;'><small>Task 3 of 5</small></div><div class='instruxDiv'><p><strong>2) How many points can you win each round?</strong></p><p>a) 10 points</p><p style='color:#00FF00'>b) Double what you bet</p><p>c) Quadruple what you bet</p><h3 style='color:#00FF00'>Correct!</h3><h3 class='center-content'>The correct response is b).</h3><h3 class='center-content'>You can win double the amount of points you bet.</h3><p><em>Press SPACEBAR to continue</em></p></div>"," ","","","","","","","","","","",""
"html-keyboard-response","8","68013","0.0-9.0","60d2d061fd054556769ca306","bdp_rwlrn","Mon Mar 13 2023 00:00:32 GMT-0400 (Eastern Daylight Time)","373885","Untrustworthy,Trustworthy","","null","","","","","","<div class='header' style='text-align:left; position: absolute; top: 5%; left: 5%;'><small>Task 3 of 5</small></div><div class='instruxDiv'><p>Thank you for completing the quiz<p>These are the actual lotteries you will be playing in the next block:<p><div class='tc' align='center'><img class='introPic' src='Fruit/mixed-berries2.png'><br><strong>Berry Bla$t</strong></div><div class='bl' align='center'><img class='introPic' src='Fruit/cherrie.png'><br><strong>Cherry Chances</strong></div><div class='br' align='center'><img class='introPic' src='Fruit/mango.png'><br><strong>Mega Mangos</strong></div></div><p>Across <strong>66 rounds</strong> you will play each lottery <strong>22 times</strong> (in random order).<p style='align:center; color:white'><font <em>Press SPACEBAR to continue</em></p>","null","","","","","","","","","","",""
"instructions","9","74108","0.0-10.0","60d2d061fd054556769ca306","bdp_rwlrn","Mon Mar 13 2023 00:00:32 GMT-0400 (Eastern Daylight Time)","373885","Untrustworthy,Trustworthy","[{""page_index"":0,""viewing_time"":803},{""page_index"":1,""viewing_time"":5291}]","6094","","","","","","","","","","","","","","","","","",""
"html-keyboard-response","10","75510","0.0-11.0-1.0","60d2d061fd054556769ca306","bdp_rwlrn","Mon Mar 13 2023 00:00:32 GMT-0400 (Eastern Daylight Time)","373885","Untrustworthy,Trustworthy","","1298","","","","decision","","<div class='trialDiv'><img src='Fruit/mango.png'><br><font class='baseline'><strong>Mega Mangos</strong><p>Choose number of points to bet.</font><div class='respPicDiv'><img src='img/responseButtonOffersNo0L.png' class='respPic'></div></div>","5","1","Mega Mangos","Fruit/mango.png","Lost","0.2,0.8","10","0.2","5","1","",""
"html-keyboard-response","11","75763","0.0-11.0-2.0","60d2d061fd054556769ca306","bdp_rwlrn","Mon Mar 13 2023 00:00:32 GMT-0400 (Eastern Daylight Time)","373885","Untrustworthy,Trustworthy","","null","","","","decisionFB","","<div class='trialDiv'><img src='Fruit/mango.png'><br><font class='baseline'><strong>Mega Mangos</strong><p>Choose number of points to bet.</font><div class='respPicDiv'><img src='img/responseButtonOffersNo0L5.png' class='respPic'></div></div>","null","1","Mega Mangos","Fruit/mango.png","Lost","0.2,0.8","10","0.2","0","1","",""
"html-keyboard-response","12","76766","0.0-11.0-3.0","60d2d061fd054556769ca306","bdp_rwlrn","Mon Mar 13 2023 00:00:32 GMT-0400 (Eastern Daylight Time)","373885","Untrustworthy,Trustworthy","","null","","","","feedback","","<div class='respPicDiv'><img src='img/responseButtonOffersNo0_wht.png' class='respPic'></div><div class='trialDiv'><img src='Fruit/mango.png'><br><font class='baseline'><strong>Mega Mangos</strong><p><strong><font class='negOutcome'>You LOST</font><p>You bet: 5</strong></font> &nbsp; &nbsp; &nbsp; &nbsp; &nbsp; &nbsp;<font class='negOutcome'>You receive: <strong>0</strong></font></div>","null","1","Mega Mangos","Fruit/mango.png","Lost","0.2,0.8","10","0.2","0","1","",""
"html-keyboard-response","13","77673","0.0-11.0-1.1","60d2d061fd054556769ca306","bdp_rwlrn","Mon Mar 13 2023 00:00:32 GMT-0400 (Eastern Daylight Time)","373885","Untrustworthy,Trustworthy","","906","","","","decision","","<div class='trialDiv'><img src='Fruit/mixed-berries2.png'><br><font class='baseline'><strong>Berry Bla$t</strong><p>Choose number of points to bet.</font><div class='respPicDiv'><img src='img/responseButtonOffersNo0L.png' class='respPic'></div></div>","5","1","Berry Bla$t","Fruit/mixed-berries2.png","Won","0.8,0.35","12","0.8","5","2","",""
"html-keyboard-response","14","77925","0.0-11.0-2.1","60d2d061fd054556769ca306","bdp_rwlrn","Mon Mar 13 2023 00:00:32 GMT-0400 (Eastern Daylight Time)","373885","Untrustworthy,Trustworthy","","null","","","","decisionFB","","<div class='trialDiv'><img src='Fruit/mixed-berries2.png'><br><font class='baseline'><strong>Berry Bla$t</strong><p>Choose number of points to bet.</font><div class='respPicDiv'><img src='img/responseButtonOffersNo0L5.png' class='respPic'></div></div>","null","1","Berry Bla$t","Fruit/mixed-berries2.png","Won","0.8,0.35","12","0.8","0","2","",""
"html-keyboard-response","15","78926","0.0-11.0-3.1","60d2d061fd054556769ca306","bdp_rwlrn","Mon Mar 13 2023 00:00:32 GMT-0400 (Eastern Daylight Time)","373885","Untrustworthy,Trustworthy","","null","","","","feedback","","<div class='respPicDiv'><img src='img/responseButtonOffersNo0_wht.png' class='respPic'></div><div class='trialDiv'><img src='Fruit/mixed-berries2.png'><br><font class='baseline'><strong>Berry Bla$t</strong><p><strong><font class='posOutcome'>You WON</font><p>You bet: 5</strong></font> &nbsp; &nbsp; &nbsp; &nbsp; &nbsp; &nbsp;<font class='posOutcome'>you receive: <strong>10</strong></font></div>","null","1","Berry Bla$t","Fruit/mixed-berries2.png","Won","0.8,0.35","12","0.8","10","2","",""
"html-keyboard-response","16","79642","0.0-11.0-1.2","60d2d061fd054556769ca306","bdp_rwlrn","Mon Mar 13 2023 00:00:32 GMT-0400 (Eastern Daylight Time)","373885","Untrustworthy,Trustworthy","","715","","","","decision","","<div class='trialDiv'><img src='Fruit/cherrie.png'><br><font class='baseline'><strong>Cherry Chances</strong><p>Choose number of points to bet.</font><div class='respPicDiv'><img src='img/responseButtonOffersNo0L.png' class='respPic'></div></div>","5","1","Cherry Chances","Fruit/cherrie.png","Lost","0.35,0.8","10","0.35","15","3","",""
"html-keyboard-response","17","79894","0.0-11.0-2.2","60d2d061fd054556769ca306","bdp_rwlrn","Mon Mar 13 2023 00:00:32 GMT-0400 (Eastern Daylight Time)","373885","Untrustworthy,Trustworthy","","null","","","","decisionFB","","<div class='trialDiv'><img src='Fruit/cherrie.png'><br><font class='baseline'><strong>Cherry Chances</strong><p>Choose number of points to bet.</font><div class='respPicDiv'><img src='img/responseButtonOffersNo0L5.png' class='respPic'></div></div>","null","1","Cherry Chances","Fruit/cherrie.png","Lost","0.35,0.8","10","0.35","10","3","",""
"html-keyboard-response","18","80896","0.0-11.0-3.2","60d2d061fd054556769ca306","bdp_rwlrn","Mon Mar 13 2023 00:00:32 GMT-0400 (Eastern Daylight Time)","373885","Untrustworthy,Trustworthy","","null","","","","feedback","","<div class='respPicDiv'><img src='img/responseButtonOffersNo0_wht.png' class='respPic'></div><div class='trialDiv'><img src='Fruit/cherrie.png'><br><font class='baseline'><strong>Cherry Chances</strong><p><strong><font class='negOutcome'>You LOST</font><p>You bet: 5</strong></font> &nbsp; &nbsp; &nbsp; &nbsp; &nbsp; &nbsp;<font class='negOutcome'>You receive: <strong>0</strong></font></div>","null","1","Cherry Chances","Fruit/cherrie.png","Lost","0.35,0.8","10","0.35","10","3","",""
"html-keyboard-response","19","81439","0.0-11.0-1.3","60d2d061fd054556769ca306","bdp_rwlrn","Mon Mar 13 2023 00:00:32 GMT-0400 (Eastern Daylight Time)","373885","Untrustworthy,Trustworthy","","541","","","","decision","","<div class='trialDiv'><img src='Fruit/mango.png'><br><font class='baseline'><strong>Mega Mangos</strong><p>Choose number of points to bet.</font><div class='respPicDiv'><img src='img/responseButtonOffersNo0L.png' class='respPic'></div></div>","5","2","Mega Mangos","Fruit/mango.png","Lost","0.2,0.8","10","0.2","15","4","",""
"html-keyboard-response","20","81690","0.0-11.0-2.3","60d2d061fd054556769ca306","bdp_rwlrn","Mon Mar 13 2023 00:00:32 GMT-0400 (Eastern Daylight Time)","373885","Untrustworthy,Trustworthy","","null","","","","decisionFB","","<div class='trialDiv'><img src='Fruit/mango.png'><br><font class='baseline'><strong>Mega Mangos</strong><p>Choose number of points to bet.</font><div class='respPicDiv'><img src='img/responseButtonOffersNo0L5.png' class='respPic'></div></div>","null","2","Mega Mangos","Fruit/mango.png","Lost","0.2,0.8","10","0.2","10","4","",""
"html-keyboard-response","21","82693","0.0-11.0-3.3","60d2d061fd054556769ca306","bdp_rwlrn","Mon Mar 13 2023 00:00:32 GMT-0400 (Eastern Daylight Time)","373885","Untrustworthy,Trustworthy","","null","","","","feedback","","<div class='respPicDiv'><img src='img/responseButtonOffersNo0_wht.png' class='respPic'></div><div class='trialDiv'><img src='Fruit/mango.png'><br><font class='baseline'><strong>Mega Mangos</strong><p><strong><font class='negOutcome'>You LOST</font><p>You bet: 5</strong></font> &nbsp; &nbsp; &nbsp; &nbsp; &nbsp; &nbsp;<font class='negOutcome'>You receive: <strong>0</strong></font></div>","null","2","Mega Mangos","Fruit/mango.png","Lost","0.2,0.8","10","0.2","10","4","",""
"html-keyboard-response","22","83183","0.0-11.0-1.4","60d2d061fd054556769ca306","bdp_rwlrn","Mon Mar 13 2023 00:00:32 GMT-0400 (Eastern Daylight Time)","373885","Untrustworthy,Trustworthy","","489","","","","decision","","<div class='trialDiv'><img src='Fruit/mixed-berries2.png'><br><font class='baseline'><strong>Berry Bla$t</strong><p>Choose number of points to bet.</font><div class='respPicDiv'><img src='img/responseButtonOffersNo0L.png' class='respPic'></div></div>","5","2","Berry Bla$t","Fruit/mixed-berries2.png","Won","0.8,0.35","12","0.8","15","5","",""
"html-keyboard-response","23","83435","0.0-11.0-2.4","60d2d061fd054556769ca306","bdp_rwlrn","Mon Mar 13 2023 00:00:32 GMT-0400 (Eastern Daylight Time)","373885","Untrustworthy,Trustworthy","","null","","","","decisionFB","","<div class='trialDiv'><img src='Fruit/mixed-berries2.png'><br><font class='baseline'><strong>Berry Bla$t</strong><p>Choose number of points to bet.</font><div class='respPicDiv'><img src='img/responseButtonOffersNo0L5.png' class='respPic'></div></div>","null","2","Berry Bla$t","Fruit/mixed-berries2.png","Won","0.8,0.35","12","0.8","10","5","",""
"html-keyboard-response","24","84438","0.0-11.0-3.4","60d2d061fd054556769ca306","bdp_rwlrn","Mon Mar 13 2023 00:00:32 GMT-0400 (Eastern Daylight Time)","373885","Untrustworthy,Trustworthy","","null","","","","feedback","","<div class='respPicDiv'><img src='img/responseButtonOffersNo0_wht.png' class='respPic'></div><div class='trialDiv'><img src='Fruit/mixed-berries2.png'><br><font class='baseline'><strong>Berry Bla$t</strong><p><strong><font class='posOutcome'>You WON</font><p>You bet: 5</strong></font> &nbsp; &nbsp; &nbsp; &nbsp; &nbsp; &nbsp;<font class='posOutcome'>you receive: <strong>10</strong></font></div>","null","2","Berry Bla$t","Fruit/mixed-berries2.png","Won","0.8,0.35","12","0.8","20","5","",""
"html-keyboard-response","25","86393","0.0-11.0-1.5","60d2d061fd054556769ca306","bdp_rwlrn","Mon Mar 13 2023 00:00:32 GMT-0400 (Eastern Daylight Time)","373885","Untrustworthy,Trustworthy","","1953","","","","decision","","<div class='trialDiv'><img src='Fruit/cherrie.png'><br><font class='baseline'><strong>Cherry Chances</strong><p>Choose number of points to bet.</font><div class='respPicDiv'><img src='img/responseButtonOffersNo0L.png' class='respPic'></div></div>","5","2","Cherry Chances","Fruit/cherrie.png","Lost","0.35,0.8","10","0.35","25","6","",""
"html-keyboard-response","26","86645","0.0-11.0-2.5","60d2d061fd054556769ca306","bdp_rwlrn","Mon Mar 13 2023 00:00:32 GMT-0400 (Eastern Daylight Time)","373885","Untrustworthy,Trustworthy","","null","","","","decisionFB","","<div class='trialDiv'><img src='Fruit/cherrie.png'><br><font class='baseline'><strong>Cherry Chances</strong><p>Choose number of points to bet.</font><div class='respPicDiv'><img src='img/responseButtonOffersNo0L5.png' class='respPic'></div></div>","null","2","Cherry Chances","Fruit/cherrie.png","Lost","0.35,0.8","10","0.35","20","6","",""
"html-keyboard-response","27","87647","0.0-11.0-3.5","60d2d061fd054556769ca306","bdp_rwlrn","Mon Mar 13 2023 00:00:32 GMT-0400 (Eastern Daylight Time)","373885","Untrustworthy,Trustworthy","","null","","","","feedback","","<div class='respPicDiv'><img src='img/responseButtonOffersNo0_wht.png' class='respPic'></div><div class='trialDiv'><img src='Fruit/cherrie.png'><br><font class='baseline'><strong>Cherry Chances</strong><p><strong><font class='negOutcome'>You LOST</font><p>You bet: 5</strong></font> &nbsp; &nbsp; &nbsp; &nbsp; &nbsp; &nbsp;<font class='negOutcome'>You receive: <strong>0</strong></font></div>","null","2","Cherry Chances","Fruit/cherrie.png","Lost","0.35,0.8","10","0.35","20","6","",""
"html-keyboard-response","28","88370","0.0-11.0-1.6","60d2d061fd054556769ca306","bdp_rwlrn","Mon Mar 13 2023 00:00:32 GMT-0400 (Eastern Daylight Time)","373885","Untrustworthy,Trustworthy","","723","","","","decision","","<div class='trialDiv'><img src='Fruit/mixed-berries2.png'><br><font class='baseline'><strong>Berry Bla$t</strong><p>Choose number of points to bet.</font><div class='respPicDiv'><img src='img/responseButtonOffersNo0L.png' class='respPic'></div></div>","5","3","Berry Bla$t","Fruit/mixed-berries2.png","Won","0.8,0.35","12","0.8","25","7","",""
"html-keyboard-response","29","88622","0.0-11.0-2.6","60d2d061fd054556769ca306","bdp_rwlrn","Mon Mar 13 2023 00:00:32 GMT-0400 (Eastern Daylight Time)","373885","Untrustworthy,Trustworthy","","null","","","","decisionFB","","<div class='trialDiv'><img src='Fruit/mixed-berries2.png'><br><font class='baseline'><strong>Berry Bla$t</strong><p>Choose number of points to bet.</font><div class='respPicDiv'><img src='img/responseButtonOffersNo0L5.png' class='respPic'></div></div>","null","3","Berry Bla$t","Fruit/mixed-berries2.png","Won","0.8,0.35","12","0.8","20","7","",""
"html-keyboard-response","30","89624","0.0-11.0-3.6","60d2d061fd054556769ca306","bdp_rwlrn","Mon Mar 13 2023 00:00:32 GMT-0400 (Eastern Daylight Time)","373885","Untrustworthy,Trustworthy","","null","","","","feedback","","<div class='respPicDiv'><img src='img/responseButtonOffersNo0_wht.png' class='respPic'></div><div class='trialDiv'><img src='Fruit/mixed-berries2.png'><br><font class='baseline'><strong>Berry Bla$t</strong><p><strong><font class='posOutcome'>You WON</font><p>You bet: 5</strong></font> &nbsp; &nbsp; &nbsp; &nbsp; &nbsp; &nbsp;<font class='posOutcome'>you receive: <strong>10</strong></font></div>","null","3","Berry Bla$t","Fruit/mixed-berries2.png","Won","0.8,0.35","12","0.8","30","7","",""
"html-keyboard-response","31","92181","0.0-11.0-1.7","60d2d061fd054556769ca306","bdp_rwlrn","Mon Mar 13 2023 00:00:32 GMT-0400 (Eastern Daylight Time)","373885","Untrustworthy,Trustworthy","","2556","","","","decision","","<div class='trialDiv'><img src='Fruit/mango.png'><br><font class='baseline'><strong>Mega Mangos</strong><p>Choose number of points to bet.</font><div class='respPicDiv'><img src='img/responseButtonOffersNo0L.png' class='respPic'></div></div>","1","3","Mega Mangos","Fruit/mango.png","Lost","0.2,0.8","10","0.2","35","8","",""
"html-keyboard-response","32","92433","0.0-11.0-2.7","60d2d061fd054556769ca306","bdp_rwlrn","Mon Mar 13 2023 00:00:32 GMT-0400 (Eastern Daylight Time)","373885","Untrustworthy,Trustworthy","","null","","","","decisionFB","","<div class='trialDiv'><img src='Fruit/mango.png'><br><font class='baseline'><strong>Mega Mangos</strong><p>Choose number of points to bet.</font><div class='respPicDiv'><img src='img/responseButtonOffersNo0L1.png' class='respPic'></div></div>","null","3","Mega Mangos","Fruit/mango.png","Lost","0.2,0.8","10","0.2","34","8","",""
"html-keyboard-response","33","93435","0.0-11.0-3.7","60d2d061fd054556769ca306","bdp_rwlrn","Mon Mar 13 2023 00:00:32 GMT-0400 (Eastern Daylight Time)","373885","Untrustworthy,Trustworthy","","null","","","","feedback","","<div class='respPicDiv'><img src='img/responseButtonOffersNo0_wht.png' class='respPic'></div><div class='trialDiv'><img src='Fruit/mango.png'><br><font class='baseline'><strong>Mega Mangos</strong><p><strong><font class='negOutcome'>You LOST</font><p>You bet: 1</strong></font> &nbsp; &nbsp; &nbsp; &nbsp; &nbsp; &nbsp;<font class='negOutcome'>You receive: <strong>0</strong></font></div>","null","3","Mega Mangos","Fruit/mango.png","Lost","0.2,0.8","10","0.2","34","8","",""
"html-keyboard-response","34","95316","0.0-11.0-1.8","60d2d061fd054556769ca306","bdp_rwlrn","Mon Mar 13 2023 00:00:32 GMT-0400 (Eastern Daylight Time)","373885","Untrustworthy,Trustworthy","","1880","","","","decision","","<div class='trialDiv'><img src='Fruit/cherrie.png'><br><font class='baseline'><strong>Cherry Chances</strong><p>Choose number of points to bet.</font><div class='respPicDiv'><img src='img/responseButtonOffersNo0L.png' class='respPic'></div></div>","1","3","Cherry Chances","Fruit/cherrie.png","Lost","0.35,0.8","10","0.35","39","9","",""
"html-keyboard-response","35","95569","0.0-11.0-2.8","60d2d061fd054556769ca306","bdp_rwlrn","Mon Mar 13 2023 00:00:32 GMT-0400 (Eastern Daylight Time)","373885","Untrustworthy,Trustworthy","","null","","","","decisionFB","","<div class='trialDiv'><img src='Fruit/cherrie.png'><br><font class='baseline'><strong>Cherry Chances</strong><p>Choose number of points to bet.</font><div class='respPicDiv'><img src='img/responseButtonOffersNo0L1.png' class='respPic'></div></div>","null","3","Cherry Chances","Fruit/cherrie.png","Lost","0.35,0.8","10","0.35","38","9","",""
"html-keyboard-response","36","96571","0.0-11.0-3.8","60d2d061fd054556769ca306","bdp_rwlrn","Mon Mar 13 2023 00:00:32 GMT-0400 (Eastern Daylight Time)","373885","Untrustworthy,Trustworthy","","null","","","","feedback","","<div class='respPicDiv'><img src='img/responseButtonOffersNo0_wht.png' class='respPic'></div><div class='trialDiv'><img src='Fruit/cherrie.png'><br><font class='baseline'><strong>Cherry Chances</strong><p><strong><font class='negOutcome'>You LOST</font><p>You bet: 1</strong></font> &nbsp; &nbsp; &nbsp; &nbsp; &nbsp; &nbsp;<font class='negOutcome'>You receive: <strong>0</strong></font></div>","null","3","Cherry Chances","Fruit/cherrie.png","Lost","0.35,0.8","10","0.35","38","9","",""
"html-keyboard-response","37","97350","0.0-11.0-1.9","60d2d061fd054556769ca306","bdp_rwlrn","Mon Mar 13 2023 00:00:32 GMT-0400 (Eastern Daylight Time)","373885","Untrustworthy,Trustworthy","","777","","","","decision","","<div class='trialDiv'><img src='Fruit/mango.png'><br><font class='baseline'><strong>Mega Mangos</strong><p>Choose number of points to bet.</font><div class='respPicDiv'><img src='img/responseButtonOffersNo0L.png' class='respPic'></div></div>","1","4","Mega Mangos","Fruit/mango.png","Lost","0.2,0.8","10","0.2","43","10","",""
"html-keyboard-response","38","97602","0.0-11.0-2.9","60d2d061fd054556769ca306","bdp_rwlrn","Mon Mar 13 2023 00:00:32 GMT-0400 (Eastern Daylight Time)","373885","Untrustworthy,Trustworthy","","null","","","","decisionFB","","<div class='trialDiv'><img src='Fruit/mango.png'><br><font class='baseline'><strong>Mega Mangos</strong><p>Choose number of points to bet.</font><div class='respPicDiv'><img src='img/responseButtonOffersNo0L1.png' class='respPic'></div></div>","null","4","Mega Mangos","Fruit/mango.png","Lost","0.2,0.8","10","0.2","42","10","",""
"html-keyboard-response","39","98605","0.0-11.0-3.9","60d2d061fd054556769ca306","bdp_rwlrn","Mon Mar 13 2023 00:00:32 GMT-0400 (Eastern Daylight Time)","373885","Untrustworthy,Trustworthy","","null","","","","feedback","","<div class='respPicDiv'><img src='img/responseButtonOffersNo0_wht.png' class='respPic'></div><div class='trialDiv'><img src='Fruit/mango.png'><br><font class='baseline'><strong>Mega Mangos</strong><p><strong><font class='negOutcome'>You LOST</font><p>You bet: 1</strong></font> &nbsp; &nbsp; &nbsp; &nbsp; &nbsp; &nbsp;<font class='negOutcome'>You receive: <strong>0</strong></font></div>","null","4","Mega Mangos","Fruit/mango.png","Lost","0.2,0.8","10","0.2","42","10","",""
"html-keyboard-response","40","101830","0.0-11.0-1.10","60d2d061fd054556769ca306","bdp_rwlrn","Mon Mar 13 2023 00:00:32 GMT-0400 (Eastern Daylight Time)","373885","Untrustworthy,Trustworthy","","3224","","","","decision","","<div class='trialDiv'><img src='Fruit/cherrie.png'><br><font class='baseline'><strong>Cherry Chances</strong><p>Choose number of points to bet.</font><div class='respPicDiv'><img src='img/responseButtonOffersNo0L.png' class='respPic'></div></div>","1","4","Cherry Chances","Fruit/cherrie.png","Lost","0.35,0.8","10","0.35","47","11","",""
"html-keyboard-response","41","102083","0.0-11.0-2.10","60d2d061fd054556769ca306","bdp_rwlrn","Mon Mar 13 2023 00:00:32 GMT-0400 (Eastern Daylight Time)","373885","Untrustworthy,Trustworthy","","null","","","","decisionFB","","<div class='trialDiv'><img src='Fruit/cherrie.png'><br><font class='baseline'><strong>Cherry Chances</strong><p>Choose number of points to bet.</font><div class='respPicDiv'><img src='img/responseButtonOffersNo0L1.png' class='respPic'></div></div>","null","4","Cherry Chances","Fruit/cherrie.png","Lost","0.35,0.8","10","0.35","46","11","",""
"html-keyboard-response","42","103085","0.0-11.0-3.10","60d2d061fd054556769ca306","bdp_rwlrn","Mon Mar 13 2023 00:00:32 GMT-0400 (Eastern Daylight Time)","373885","Untrustworthy,Trustworthy","","null","","","","feedback","","<div class='respPicDiv'><img src='img/responseButtonOffersNo0_wht.png' class='respPic'></div><div class='trialDiv'><img src='Fruit/cherrie.png'><br><font class='baseline'><strong>Cherry Chances</strong><p><strong><font class='negOutcome'>You LOST</font><p>You bet: 1</strong></font> &nbsp; &nbsp; &nbsp; &nbsp; &nbsp; &nbsp;<font class='negOutcome'>You receive: <strong>0</strong></font></div>","null","4","Cherry Chances","Fruit/cherrie.png","Lost","0.35,0.8","10","0.35","46","11","",""
"html-keyboard-response","43","104388","0.0-11.0-1.11","60d2d061fd054556769ca306","bdp_rwlrn","Mon Mar 13 2023 00:00:32 GMT-0400 (Eastern Daylight Time)","373885","Untrustworthy,Trustworthy","","1302","","","","decision","","<div class='trialDiv'><img src='Fruit/mixed-berries2.png'><br><font class='baseline'><strong>Berry Bla$t</strong><p>Choose number of points to bet.</font><div class='respPicDiv'><img src='img/responseButtonOffersNo0L.png' class='respPic'></div></div>","5","4","Berry Bla$t","Fruit/mixed-berries2.png","Won","0.8,0.35","12","0.8","51","12","",""
"html-keyboard-response","44","104640","0.0-11.0-2.11","60d2d061fd054556769ca306","bdp_rwlrn","Mon Mar 13 2023 00:00:32 GMT-0400 (Eastern Daylight Time)","373885","Untrustworthy,Trustworthy","","null","","","","decisionFB","","<div class='trialDiv'><img src='Fruit/mixed-berries2.png'><br><font class='baseline'><strong>Berry Bla$t</strong><p>Choose number of points to bet.</font><div class='respPicDiv'><img src='img/responseButtonOffersNo0L5.png' class='respPic'></div></div>","null","4","Berry Bla$t","Fruit/mixed-berries2.png","Won","0.8,0.35","12","0.8","46","12","",""
"html-keyboard-response","45","105642","0.0-11.0-3.11","60d2d061fd054556769ca306","bdp_rwlrn","Mon Mar 13 2023 00:00:32 GMT-0400 (Eastern Daylight Time)","373885","Untrustworthy,Trustworthy","","null","","","","feedback","","<div class='respPicDiv'><img src='img/responseButtonOffersNo0_wht.png' class='respPic'></div><div class='trialDiv'><img src='Fruit/mixed-berries2.png'><br><font class='baseline'><strong>Berry Bla$t</strong><p><strong><font class='posOutcome'>You WON</font><p>You bet: 5</strong></font> &nbsp; &nbsp; &nbsp; &nbsp; &nbsp; &nbsp;<font class='posOutcome'>you receive: <strong>10</strong></font></div>","null","4","Berry Bla$t","Fruit/mixed-berries2.png","Won","0.8,0.35","12","0.8","56","12","",""
"html-keyboard-response","46","106338","0.0-11.0-1.12","60d2d061fd054556769ca306","bdp_rwlrn","Mon Mar 13 2023 00:00:32 GMT-0400 (Eastern Daylight Time)","373885","Untrustworthy,Trustworthy","","695","","","","decision","","<div class='trialDiv'><img src='Fruit/cherrie.png'><br><font class='baseline'><strong>Cherry Chances</strong><p>Choose number of points to bet.</font><div class='respPicDiv'><img src='img/responseButtonOffersNo0L.png' class='respPic'></div></div>","1","5","Cherry Chances","Fruit/cherrie.png","Won","0.35,0.8","10","0.35","61","13","",""
"html-keyboard-response","47","106589","0.0-11.0-2.12","60d2d061fd054556769ca306","bdp_rwlrn","Mon Mar 13 2023 00:00:32 GMT-0400 (Eastern Daylight Time)","373885","Untrustworthy,Trustworthy","","null","","","","decisionFB","","<div class='trialDiv'><img src='Fruit/cherrie.png'><br><font class='baseline'><strong>Cherry Chances</strong><p>Choose number of points to bet.</font><div class='respPicDiv'><img src='img/responseButtonOffersNo0L1.png' class='respPic'></div></div>","null","5","Cherry Chances","Fruit/cherrie.png","Won","0.35,0.8","10","0.35","60","13","",""
"html-keyboard-response","48","107592","0.0-11.0-3.12","60d2d061fd054556769ca306","bdp_rwlrn","Mon Mar 13 2023 00:00:32 GMT-0400 (Eastern Daylight Time)","373885","Untrustworthy,Trustworthy","","null","","","","feedback","","<div class='respPicDiv'><img src='img/responseButtonOffersNo0_wht.png' class='respPic'></div><div class='trialDiv'><img src='Fruit/cherrie.png'><br><font class='baseline'><strong>Cherry Chances</strong><p><strong><font class='posOutcome'>You WON</font><p>You bet: 1</strong></font> &nbsp; &nbsp; &nbsp; &nbsp; &nbsp; &nbsp;<font class='posOutcome'>you receive: <strong>2</strong></font></div>","null","5","Cherry Chances","Fruit/cherrie.png","Won","0.35,0.8","10","0.35","62","13","",""
"html-keyboard-response","49","109431","0.0-11.0-1.13","60d2d061fd054556769ca306","bdp_rwlrn","Mon Mar 13 2023 00:00:32 GMT-0400 (Eastern Daylight Time)","373885","Untrustworthy,Trustworthy","","1838","","","","decision","","<div class='trialDiv'><img src='Fruit/mango.png'><br><font class='baseline'><strong>Mega Mangos</strong><p>Choose number of points to bet.</font><div class='respPicDiv'><img src='img/responseButtonOffersNo0L.png' class='respPic'></div></div>","5","5","Mega Mangos","Fruit/mango.png","Lost","0.2,0.8","10","0.2","67","14","",""
"html-keyboard-response","50","109683","0.0-11.0-2.13","60d2d061fd054556769ca306","bdp_rwlrn","Mon Mar 13 2023 00:00:32 GMT-0400 (Eastern Daylight Time)","373885","Untrustworthy,Trustworthy","","null","","","","decisionFB","","<div class='trialDiv'><img src='Fruit/mango.png'><br><font class='baseline'><strong>Mega Mangos</strong><p>Choose number of points to bet.</font><div class='respPicDiv'><img src='img/responseButtonOffersNo0L5.png' class='respPic'></div></div>","null","5","Mega Mangos","Fruit/mango.png","Lost","0.2,0.8","10","0.2","62","14","",""
"html-keyboard-response","51","110691","0.0-11.0-3.13","60d2d061fd054556769ca306","bdp_rwlrn","Mon Mar 13 2023 00:00:32 GMT-0400 (Eastern Daylight Time)","373885","Untrustworthy,Trustworthy","","null","","","","feedback","","<div class='respPicDiv'><img src='img/responseButtonOffersNo0_wht.png' class='respPic'></div><div class='trialDiv'><img src='Fruit/mango.png'><br><font class='baseline'><strong>Mega Mangos</strong><p><strong><font class='negOutcome'>You LOST</font><p>You bet: 5</strong></font> &nbsp; &nbsp; &nbsp; &nbsp; &nbsp; &nbsp;<font class='negOutcome'>You receive: <strong>0</strong></font></div>","null","5","Mega Mangos","Fruit/mango.png","Lost","0.2,0.8","10","0.2","62","14","",""
"html-keyboard-response","52","111183","0.0-11.0-1.14","60d2d061fd054556769ca306","bdp_rwlrn","Mon Mar 13 2023 00:00:32 GMT-0400 (Eastern Daylight Time)","373885","Untrustworthy,Trustworthy","","491","","","","decision","","<div class='trialDiv'><img src='Fruit/mixed-berries2.png'><br><font class='baseline'><strong>Berry Bla$t</strong><p>Choose number of points to bet.</font><div class='respPicDiv'><img src='img/responseButtonOffersNo0L.png' class='respPic'></div></div>","1","5","Berry Bla$t","Fruit/mixed-berries2.png","Won","0.8,0.35","12","0.8","67","15","",""
"html-keyboard-response","53","111436","0.0-11.0-2.14","60d2d061fd054556769ca306","bdp_rwlrn","Mon Mar 13 2023 00:00:32 GMT-0400 (Eastern Daylight Time)","373885","Untrustworthy,Trustworthy","","null","","","","decisionFB","","<div class='trialDiv'><img src='Fruit/mixed-berries2.png'><br><font class='baseline'><strong>Berry Bla$t</strong><p>Choose number of points to bet.</font><div class='respPicDiv'><img src='img/responseButtonOffersNo0L1.png' class='respPic'></div></div>","null","5","Berry Bla$t","Fruit/mixed-berries2.png","Won","0.8,0.35","12","0.8","66","15","",""
"html-keyboard-response","54","112438","0.0-11.0-3.14","60d2d061fd054556769ca306","bdp_rwlrn","Mon Mar 13 2023 00:00:32 GMT-0400 (Eastern Daylight Time)","373885","Untrustworthy,Trustworthy","","null","","","","feedback","","<div class='respPicDiv'><img src='img/responseButtonOffersNo0_wht.png' class='respPic'></div><div class='trialDiv'><img src='Fruit/mixed-berries2.png'><br><font class='baseline'><strong>Berry Bla$t</strong><p><strong><font class='posOutcome'>You WON</font><p>You bet: 1</strong></font> &nbsp; &nbsp; &nbsp; &nbsp; &nbsp; &nbsp;<font class='posOutcome'>you receive: <strong>2</strong></font></div>","null","5","Berry Bla$t","Fruit/mixed-berries2.png","Won","0.8,0.35","12","0.8","68","15","",""
"html-keyboard-response","55","114484","0.0-11.0-1.15","60d2d061fd054556769ca306","bdp_rwlrn","Mon Mar 13 2023 00:00:32 GMT-0400 (Eastern Daylight Time)","373885","Untrustworthy,Trustworthy","","2044","","","","decision","","<div class='trialDiv'><img src='Fruit/cherrie.png'><br><font class='baseline'><strong>Cherry Chances</strong><p>Choose number of points to bet.</font><div class='respPicDiv'><img src='img/responseButtonOffersNo0L.png' class='respPic'></div></div>","5","6","Cherry Chances","Fruit/cherrie.png","Won","0.35,0.8","10","0.35","73","16","",""
"html-keyboard-response","56","114735","0.0-11.0-2.15","60d2d061fd054556769ca306","bdp_rwlrn","Mon Mar 13 2023 00:00:32 GMT-0400 (Eastern Daylight Time)","373885","Untrustworthy,Trustworthy","","null","","","","decisionFB","","<div class='trialDiv'><img src='Fruit/cherrie.png'><br><font class='baseline'><strong>Cherry Chances</strong><p>Choose number of points to bet.</font><div class='respPicDiv'><img src='img/responseButtonOffersNo0L5.png' class='respPic'></div></div>","null","6","Cherry Chances","Fruit/cherrie.png","Won","0.35,0.8","10","0.35","68","16","",""
"html-keyboard-response","57","115737","0.0-11.0-3.15","60d2d061fd054556769ca306","bdp_rwlrn","Mon Mar 13 2023 00:00:32 GMT-0400 (Eastern Daylight Time)","373885","Untrustworthy,Trustworthy","","null","","","","feedback","","<div class='respPicDiv'><img src='img/responseButtonOffersNo0_wht.png' class='respPic'></div><div class='trialDiv'><img src='Fruit/cherrie.png'><br><font class='baseline'><strong>Cherry Chances</strong><p><strong><font class='posOutcome'>You WON</font><p>You bet: 5</strong></font> &nbsp; &nbsp; &nbsp; &nbsp; &nbsp; &nbsp;<font class='posOutcome'>you receive: <strong>10</strong></font></div>","null","6","Cherry Chances","Fruit/cherrie.png","Won","0.35,0.8","10","0.35","78","16","",""
"html-keyboard-response","58","117273","0.0-11.0-1.16","60d2d061fd054556769ca306","bdp_rwlrn","Mon Mar 13 2023 00:00:32 GMT-0400 (Eastern Daylight Time)","373885","Untrustworthy,Trustworthy","","1535","","","","decision","","<div class='trialDiv'><img src='Fruit/mango.png'><br><font class='baseline'><strong>Mega Mangos</strong><p>Choose number of points to bet.</font><div class='respPicDiv'><img src='img/responseButtonOffersNo0L.png' class='respPic'></div></div>","5","6","Mega Mangos","Fruit/mango.png","Lost","0.2,0.8","10","0.2","83","17","",""
"html-keyboard-response","59","117525","0.0-11.0-2.16","60d2d061fd054556769ca306","bdp_rwlrn","Mon Mar 13 2023 00:00:32 GMT-0400 (Eastern Daylight Time)","373885","Untrustworthy,Trustworthy","","null","","","","decisionFB","","<div class='trialDiv'><img src='Fruit/mango.png'><br><font class='baseline'><strong>Mega Mangos</strong><p>Choose number of points to bet.</font><div class='respPicDiv'><img src='img/responseButtonOffersNo0L5.png' class='respPic'></div></div>","null","6","Mega Mangos","Fruit/mango.png","Lost","0.2,0.8","10","0.2","78","17","",""
"html-keyboard-response","60","118527","0.0-11.0-3.16","60d2d061fd054556769ca306","bdp_rwlrn","Mon Mar 13 2023 00:00:32 GMT-0400 (Eastern Daylight Time)","373885","Untrustworthy,Trustworthy","","null","","","","feedback","","<div class='respPicDiv'><img src='img/responseButtonOffersNo0_wht.png' class='respPic'></div><div class='trialDiv'><img src='Fruit/mango.png'><br><font class='baseline'><strong>Mega Mangos</strong><p><strong><font class='negOutcome'>You LOST</font><p>You bet: 5</strong></font> &nbsp; &nbsp; &nbsp; &nbsp; &nbsp; &nbsp;<font class='negOutcome'>You receive: <strong>0</strong></font></div>","null","6","Mega Mangos","Fruit/mango.png","Lost","0.2,0.8","10","0.2","78","17","",""
"html-keyboard-response","61","119647","0.0-11.0-1.17","60d2d061fd054556769ca306","bdp_rwlrn","Mon Mar 13 2023 00:00:32 GMT-0400 (Eastern Daylight Time)","373885","Untrustworthy,Trustworthy","","1119","","","","decision","","<div class='trialDiv'><img src='Fruit/mixed-berries2.png'><br><font class='baseline'><strong>Berry Bla$t</strong><p>Choose number of points to bet.</font><div class='respPicDiv'><img src='img/responseButtonOffersNo0L.png' class='respPic'></div></div>","5","6","Berry Bla$t","Fruit/mixed-berries2.png","Lost","0.8,0.35","12","0.8","83","18","",""
"html-keyboard-response","62","119899","0.0-11.0-2.17","60d2d061fd054556769ca306","bdp_rwlrn","Mon Mar 13 2023 00:00:32 GMT-0400 (Eastern Daylight Time)","373885","Untrustworthy,Trustworthy","","null","","","","decisionFB","","<div class='trialDiv'><img src='Fruit/mixed-berries2.png'><br><font class='baseline'><strong>Berry Bla$t</strong><p>Choose number of points to bet.</font><div class='respPicDiv'><img src='img/responseButtonOffersNo0L5.png' class='respPic'></div></div>","null","6","Berry Bla$t","Fruit/mixed-berries2.png","Lost","0.8,0.35","12","0.8","78","18","",""
"html-keyboard-response","63","120903","0.0-11.0-3.17","60d2d061fd054556769ca306","bdp_rwlrn","Mon Mar 13 2023 00:00:32 GMT-0400 (Eastern Daylight Time)","373885","Untrustworthy,Trustworthy","","null","","","","feedback","","<div class='respPicDiv'><img src='img/responseButtonOffersNo0_wht.png' class='respPic'></div><div class='trialDiv'><img src='Fruit/mixed-berries2.png'><br><font class='baseline'><strong>Berry Bla$t</strong><p><strong><font class='negOutcome'>You LOST</font><p>You bet: 5</strong></font> &nbsp; &nbsp; &nbsp; &nbsp; &nbsp; &nbsp;<font class='negOutcome'>You receive: <strong>0</strong></font></div>","null","6","Berry Bla$t","Fruit/mixed-berries2.png","Lost","0.8,0.35","12","0.8","78","18","",""
"html-keyboard-response","64","122114","0.0-11.0-1.18","60d2d061fd054556769ca306","bdp_rwlrn","Mon Mar 13 2023 00:00:32 GMT-0400 (Eastern Daylight Time)","373885","Untrustworthy,Trustworthy","","1211","","","","decision","","<div class='trialDiv'><img src='Fruit/cherrie.png'><br><font class='baseline'><strong>Cherry Chances</strong><p>Choose number of points to bet.</font><div class='respPicDiv'><img src='img/responseButtonOffersNo0L.png' class='respPic'></div></div>","5","7","Cherry Chances","Fruit/cherrie.png","Lost","0.35,0.8","10","0.35","83","19","",""
"html-keyboard-response","65","122366","0.0-11.0-2.18","60d2d061fd054556769ca306","bdp_rwlrn","Mon Mar 13 2023 00:00:32 GMT-0400 (Eastern Daylight Time)","373885","Untrustworthy,Trustworthy","","null","","","","decisionFB","","<div class='trialDiv'><img src='Fruit/cherrie.png'><br><font class='baseline'><strong>Cherry Chances</strong><p>Choose number of points to bet.</font><div class='respPicDiv'><img src='img/responseButtonOffersNo0L5.png' class='respPic'></div></div>","null","7","Cherry Chances","Fruit/cherrie.png","Lost","0.35,0.8","10","0.35","78","19","",""
"html-keyboard-response","66","123369","0.0-11.0-3.18","60d2d061fd054556769ca306","bdp_rwlrn","Mon Mar 13 2023 00:00:32 GMT-0400 (Eastern Daylight Time)","373885","Untrustworthy,Trustworthy","","null","","","","feedback","","<div class='respPicDiv'><img src='img/responseButtonOffersNo0_wht.png' class='respPic'></div><div class='trialDiv'><img src='Fruit/cherrie.png'><br><font class='baseline'><strong>Cherry Chances</strong><p><strong><font class='negOutcome'>You LOST</font><p>You bet: 5</strong></font> &nbsp; &nbsp; &nbsp; &nbsp; &nbsp; &nbsp;<font class='negOutcome'>You receive: <strong>0</strong></font></div>","null","7","Cherry Chances","Fruit/cherrie.png","Lost","0.35,0.8","10","0.35","78","19","",""
"html-keyboard-response","67","124324","0.0-11.0-1.19","60d2d061fd054556769ca306","bdp_rwlrn","Mon Mar 13 2023 00:00:32 GMT-0400 (Eastern Daylight Time)","373885","Untrustworthy,Trustworthy","","953","","","","decision","","<div class='trialDiv'><img src='Fruit/mixed-berries2.png'><br><font class='baseline'><strong>Berry Bla$t</strong><p>Choose number of points to bet.</font><div class='respPicDiv'><img src='img/responseButtonOffersNo0L.png' class='respPic'></div></div>","5","7","Berry Bla$t","Fruit/mixed-berries2.png","Won","0.8,0.35","12","0.8","83","20","",""
"html-keyboard-response","68","124576","0.0-11.0-2.19","60d2d061fd054556769ca306","bdp_rwlrn","Mon Mar 13 2023 00:00:32 GMT-0400 (Eastern Daylight Time)","373885","Untrustworthy,Trustworthy","","null","","","","decisionFB","","<div class='trialDiv'><img src='Fruit/mixed-berries2.png'><br><font class='baseline'><strong>Berry Bla$t</strong><p>Choose number of points to bet.</font><div class='respPicDiv'><img src='img/responseButtonOffersNo0L5.png' class='respPic'></div></div>","null","7","Berry Bla$t","Fruit/mixed-berries2.png","Won","0.8,0.35","12","0.8","78","20","",""
"html-keyboard-response","69","125578","0.0-11.0-3.19","60d2d061fd054556769ca306","bdp_rwlrn","Mon Mar 13 2023 00:00:32 GMT-0400 (Eastern Daylight Time)","373885","Untrustworthy,Trustworthy","","null","","","","feedback","","<div class='respPicDiv'><img src='img/responseButtonOffersNo0_wht.png' class='respPic'></div><div class='trialDiv'><img src='Fruit/mixed-berries2.png'><br><font class='baseline'><strong>Berry Bla$t</strong><p><strong><font class='posOutcome'>You WON</font><p>You bet: 5</strong></font> &nbsp; &nbsp; &nbsp; &nbsp; &nbsp; &nbsp;<font class='posOutcome'>you receive: <strong>10</strong></font></div>","null","7","Berry Bla$t","Fruit/mixed-berries2.png","Won","0.8,0.35","12","0.8","88","20","",""
"html-keyboard-response","70","128427","0.0-11.0-1.20","60d2d061fd054556769ca306","bdp_rwlrn","Mon Mar 13 2023 00:00:32 GMT-0400 (Eastern Daylight Time)","373885","Untrustworthy,Trustworthy","","2848","","","","decision","","<div class='trialDiv'><img src='Fruit/mango.png'><br><font class='baseline'><strong>Mega Mangos</strong><p>Choose number of points to bet.</font><div class='respPicDiv'><img src='img/responseButtonOffersNo0L.png' class='respPic'></div></div>","1","7","Mega Mangos","Fruit/mango.png","Lost","0.2,0.8","10","0.2","93","21","",""
"html-keyboard-response","71","128680","0.0-11.0-2.20","60d2d061fd054556769ca306","bdp_rwlrn","Mon Mar 13 2023 00:00:32 GMT-0400 (Eastern Daylight Time)","373885","Untrustworthy,Trustworthy","","null","","","","decisionFB","","<div class='trialDiv'><img src='Fruit/mango.png'><br><font class='baseline'><strong>Mega Mangos</strong><p>Choose number of points to bet.</font><div class='respPicDiv'><img src='img/responseButtonOffersNo0L1.png' class='respPic'></div></div>","null","7","Mega Mangos","Fruit/mango.png","Lost","0.2,0.8","10","0.2","92","21","",""
"html-keyboard-response","72","129682","0.0-11.0-3.20","60d2d061fd054556769ca306","bdp_rwlrn","Mon Mar 13 2023 00:00:32 GMT-0400 (Eastern Daylight Time)","373885","Untrustworthy,Trustworthy","","null","","","","feedback","","<div class='respPicDiv'><img src='img/responseButtonOffersNo0_wht.png' class='respPic'></div><div class='trialDiv'><img src='Fruit/mango.png'><br><font class='baseline'><strong>Mega Mangos</strong><p><strong><font class='negOutcome'>You LOST</font><p>You bet: 1</strong></font> &nbsp; &nbsp; &nbsp; &nbsp; &nbsp; &nbsp;<font class='negOutcome'>You receive: <strong>0</strong></font></div>","null","7","Mega Mangos","Fruit/mango.png","Lost","0.2,0.8","10","0.2","92","21","",""
"html-keyboard-response","73","130771","0.0-11.0-1.21","60d2d061fd054556769ca306","bdp_rwlrn","Mon Mar 13 2023 00:00:32 GMT-0400 (Eastern Daylight Time)","373885","Untrustworthy,Trustworthy","","1088","","","","decision","","<div class='trialDiv'><img src='Fruit/cherrie.png'><br><font class='baseline'><strong>Cherry Chances</strong><p>Choose number of points to bet.</font><div class='respPicDiv'><img src='img/responseButtonOffersNo0L.png' class='respPic'></div></div>","3","8","Cherry Chances","Fruit/cherrie.png","Won","0.35,0.8","10","0.35","97","22","",""
"html-keyboard-response","74","131023","0.0-11.0-2.21","60d2d061fd054556769ca306","bdp_rwlrn","Mon Mar 13 2023 00:00:32 GMT-0400 (Eastern Daylight Time)","373885","Untrustworthy,Trustworthy","","null","","","","decisionFB","","<div class='trialDiv'><img src='Fruit/cherrie.png'><br><font class='baseline'><strong>Cherry Chances</strong><p>Choose number of points to bet.</font><div class='respPicDiv'><img src='img/responseButtonOffersNo0L3.png' class='respPic'></div></div>","null","8","Cherry Chances","Fruit/cherrie.png","Won","0.35,0.8","10","0.35","94","22","",""
"html-keyboard-response","75","132025","0.0-11.0-3.21","60d2d061fd054556769ca306","bdp_rwlrn","Mon Mar 13 2023 00:00:32 GMT-0400 (Eastern Daylight Time)","373885","Untrustworthy,Trustworthy","","null","","","","feedback","","<div class='respPicDiv'><img src='img/responseButtonOffersNo0_wht.png' class='respPic'></div><div class='trialDiv'><img src='Fruit/cherrie.png'><br><font class='baseline'><strong>Cherry Chances</strong><p><strong><font class='posOutcome'>You WON</font><p>You bet: 3</strong></font> &nbsp; &nbsp; &nbsp; &nbsp; &nbsp; &nbsp;<font class='posOutcome'>you receive: <strong>6</strong></font></div>","null","8","Cherry Chances","Fruit/cherrie.png","Won","0.35,0.8","10","0.35","100","22","",""
"html-keyboard-response","76","132666","0.0-11.0-1.22","60d2d061fd054556769ca306","bdp_rwlrn","Mon Mar 13 2023 00:00:32 GMT-0400 (Eastern Daylight Time)","373885","Untrustworthy,Trustworthy","","639","","","","decision","","<div class='trialDiv'><img src='Fruit/mixed-berries2.png'><br><font class='baseline'><strong>Berry Bla$t</strong><p>Choose number of points to bet.</font><div class='respPicDiv'><img src='img/responseButtonOffersNo0L.png' class='respPic'></div></div>","5","8","Berry Bla$t","Fruit/mixed-berries2.png","Won","0.8,0.35","12","0.8","105","23","",""
"html-keyboard-response","77","132917","0.0-11.0-2.22","60d2d061fd054556769ca306","bdp_rwlrn","Mon Mar 13 2023 00:00:32 GMT-0400 (Eastern Daylight Time)","373885","Untrustworthy,Trustworthy","","null","","","","decisionFB","","<div class='trialDiv'><img src='Fruit/mixed-berries2.png'><br><font class='baseline'><strong>Berry Bla$t</strong><p>Choose number of points to bet.</font><div class='respPicDiv'><img src='img/responseButtonOffersNo0L5.png' class='respPic'></div></div>","null","8","Berry Bla$t","Fruit/mixed-berries2.png","Won","0.8,0.35","12","0.8","100","23","",""
"html-keyboard-response","78","133920","0.0-11.0-3.22","60d2d061fd054556769ca306","bdp_rwlrn","Mon Mar 13 2023 00:00:32 GMT-0400 (Eastern Daylight Time)","373885","Untrustworthy,Trustworthy","","null","","","","feedback","","<div class='respPicDiv'><img src='img/responseButtonOffersNo0_wht.png' class='respPic'></div><div class='trialDiv'><img src='Fruit/mixed-berries2.png'><br><font class='baseline'><strong>Berry Bla$t</strong><p><strong><font class='posOutcome'>You WON</font><p>You bet: 5</strong></font> &nbsp; &nbsp; &nbsp; &nbsp; &nbsp; &nbsp;<font class='posOutcome'>you receive: <strong>10</strong></font></div>","null","8","Berry Bla$t","Fruit/mixed-berries2.png","Won","0.8,0.35","12","0.8","110","23","",""
"html-keyboard-response","79","135005","0.0-11.0-1.23","60d2d061fd054556769ca306","bdp_rwlrn","Mon Mar 13 2023 00:00:32 GMT-0400 (Eastern Daylight Time)","373885","Untrustworthy,Trustworthy","","1084","","","","decision","","<div class='trialDiv'><img src='Fruit/mango.png'><br><font class='baseline'><strong>Mega Mangos</strong><p>Choose number of points to bet.</font><div class='respPicDiv'><img src='img/responseButtonOffersNo0L.png' class='respPic'></div></div>","1","8","Mega Mangos","Fruit/mango.png","Lost","0.2,0.8","10","0.2","115","24","",""
"html-keyboard-response","80","135256","0.0-11.0-2.23","60d2d061fd054556769ca306","bdp_rwlrn","Mon Mar 13 2023 00:00:32 GMT-0400 (Eastern Daylight Time)","373885","Untrustworthy,Trustworthy","","null","","","","decisionFB","","<div class='trialDiv'><img src='Fruit/mango.png'><br><font class='baseline'><strong>Mega Mangos</strong><p>Choose number of points to bet.</font><div class='respPicDiv'><img src='img/responseButtonOffersNo0L1.png' class='respPic'></div></div>","null","8","Mega Mangos","Fruit/mango.png","Lost","0.2,0.8","10","0.2","114","24","",""
"html-keyboard-response","81","136258","0.0-11.0-3.23","60d2d061fd054556769ca306","bdp_rwlrn","Mon Mar 13 2023 00:00:32 GMT-0400 (Eastern Daylight Time)","373885","Untrustworthy,Trustworthy","","null","","","","feedback","","<div class='respPicDiv'><img src='img/responseButtonOffersNo0_wht.png' class='respPic'></div><div class='trialDiv'><img src='Fruit/mango.png'><br><font class='baseline'><strong>Mega Mangos</strong><p><strong><font class='negOutcome'>You LOST</font><p>You bet: 1</strong></font> &nbsp; &nbsp; &nbsp; &nbsp; &nbsp; &nbsp;<font class='negOutcome'>You receive: <strong>0</strong></font></div>","null","8","Mega Mangos","Fruit/mango.png","Lost","0.2,0.8","10","0.2","114","24","",""
"html-keyboard-response","82","137052","0.0-11.0-1.24","60d2d061fd054556769ca306","bdp_rwlrn","Mon Mar 13 2023 00:00:32 GMT-0400 (Eastern Daylight Time)","373885","Untrustworthy,Trustworthy","","793","","","","decision","","<div class='trialDiv'><img src='Fruit/mixed-berries2.png'><br><font class='baseline'><strong>Berry Bla$t</strong><p>Choose number of points to bet.</font><div class='respPicDiv'><img src='img/responseButtonOffersNo0L.png' class='respPic'></div></div>","5","9","Berry Bla$t","Fruit/mixed-berries2.png","Won","0.8,0.35","12","0.8","119","25","",""
"html-keyboard-response","83","137304","0.0-11.0-2.24","60d2d061fd054556769ca306","bdp_rwlrn","Mon Mar 13 2023 00:00:32 GMT-0400 (Eastern Daylight Time)","373885","Untrustworthy,Trustworthy","","null","","","","decisionFB","","<div class='trialDiv'><img src='Fruit/mixed-berries2.png'><br><font class='baseline'><strong>Berry Bla$t</strong><p>Choose number of points to bet.</font><div class='respPicDiv'><img src='img/responseButtonOffersNo0L5.png' class='respPic'></div></div>","null","9","Berry Bla$t","Fruit/mixed-berries2.png","Won","0.8,0.35","12","0.8","114","25","",""
"html-keyboard-response","84","138306","0.0-11.0-3.24","60d2d061fd054556769ca306","bdp_rwlrn","Mon Mar 13 2023 00:00:32 GMT-0400 (Eastern Daylight Time)","373885","Untrustworthy,Trustworthy","","null","","","","feedback","","<div class='respPicDiv'><img src='img/responseButtonOffersNo0_wht.png' class='respPic'></div><div class='trialDiv'><img src='Fruit/mixed-berries2.png'><br><font class='baseline'><strong>Berry Bla$t</strong><p><strong><font class='posOutcome'>You WON</font><p>You bet: 5</strong></font> &nbsp; &nbsp; &nbsp; &nbsp; &nbsp; &nbsp;<font class='posOutcome'>you receive: <strong>10</strong></font></div>","null","9","Berry Bla$t","Fruit/mixed-berries2.png","Won","0.8,0.35","12","0.8","124","25","",""
"html-keyboard-response","85","138824","0.0-11.0-1.25","60d2d061fd054556769ca306","bdp_rwlrn","Mon Mar 13 2023 00:00:32 GMT-0400 (Eastern Daylight Time)","373885","Untrustworthy,Trustworthy","","517","","","","decision","","<div class='trialDiv'><img src='Fruit/mango.png'><br><font class='baseline'><strong>Mega Mangos</strong><p>Choose number of points to bet.</font><div class='respPicDiv'><img src='img/responseButtonOffersNo0L.png' class='respPic'></div></div>","3","9","Mega Mangos","Fruit/mango.png","Lost","0.2,0.8","10","0.2","129","26","",""
"html-keyboard-response","86","139075","0.0-11.0-2.25","60d2d061fd054556769ca306","bdp_rwlrn","Mon Mar 13 2023 00:00:32 GMT-0400 (Eastern Daylight Time)","373885","Untrustworthy,Trustworthy","","null","","","","decisionFB","","<div class='trialDiv'><img src='Fruit/mango.png'><br><font class='baseline'><strong>Mega Mangos</strong><p>Choose number of points to bet.</font><div class='respPicDiv'><img src='img/responseButtonOffersNo0L3.png' class='respPic'></div></div>","null","9","Mega Mangos","Fruit/mango.png","Lost","0.2,0.8","10","0.2","126","26","",""
"html-keyboard-response","87","140077","0.0-11.0-3.25","60d2d061fd054556769ca306","bdp_rwlrn","Mon Mar 13 2023 00:00:32 GMT-0400 (Eastern Daylight Time)","373885","Untrustworthy,Trustworthy","","null","","","","feedback","","<div class='respPicDiv'><img src='img/responseButtonOffersNo0_wht.png' class='respPic'></div><div class='trialDiv'><img src='Fruit/mango.png'><br><font class='baseline'><strong>Mega Mangos</strong><p><strong><font class='negOutcome'>You LOST</font><p>You bet: 3</strong></font> &nbsp; &nbsp; &nbsp; &nbsp; &nbsp; &nbsp;<font class='negOutcome'>You receive: <strong>0</strong></font></div>","null","9","Mega Mangos","Fruit/mango.png","Lost","0.2,0.8","10","0.2","126","26","",""
"html-keyboard-response","88","142132","0.0-11.0-1.26","60d2d061fd054556769ca306","bdp_rwlrn","Mon Mar 13 2023 00:00:32 GMT-0400 (Eastern Daylight Time)","373885","Untrustworthy,Trustworthy","","2054","","","","decision","","<div class='trialDiv'><img src='Fruit/cherrie.png'><br><font class='baseline'><strong>Cherry Chances</strong><p>Choose number of points to bet.</font><div class='respPicDiv'><img src='img/responseButtonOffersNo0L.png' class='respPic'></div></div>","1","9","Cherry Chances","Fruit/cherrie.png","Lost","0.35,0.8","10","0.35","131","27","",""
"html-keyboard-response","89","142384","0.0-11.0-2.26","60d2d061fd054556769ca306","bdp_rwlrn","Mon Mar 13 2023 00:00:32 GMT-0400 (Eastern Daylight Time)","373885","Untrustworthy,Trustworthy","","null","","","","decisionFB","","<div class='trialDiv'><img src='Fruit/cherrie.png'><br><font class='baseline'><strong>Cherry Chances</strong><p>Choose number of points to bet.</font><div class='respPicDiv'><img src='img/responseButtonOffersNo0L1.png' class='respPic'></div></div>","null","9","Cherry Chances","Fruit/cherrie.png","Lost","0.35,0.8","10","0.35","130","27","",""
"html-keyboard-response","90","143387","0.0-11.0-3.26","60d2d061fd054556769ca306","bdp_rwlrn","Mon Mar 13 2023 00:00:32 GMT-0400 (Eastern Daylight Time)","373885","Untrustworthy,Trustworthy","","null","","","","feedback","","<div class='respPicDiv'><img src='img/responseButtonOffersNo0_wht.png' class='respPic'></div><div class='trialDiv'><img src='Fruit/cherrie.png'><br><font class='baseline'><strong>Cherry Chances</strong><p><strong><font class='negOutcome'>You LOST</font><p>You bet: 1</strong></font> &nbsp; &nbsp; &nbsp; &nbsp; &nbsp; &nbsp;<font class='negOutcome'>You receive: <strong>0</strong></font></div>","null","9","Cherry Chances","Fruit/cherrie.png","Lost","0.35,0.8","10","0.35","130","27","",""
"html-keyboard-response","91","144045","0.0-11.0-1.27","60d2d061fd054556769ca306","bdp_rwlrn","Mon Mar 13 2023 00:00:32 GMT-0400 (Eastern Daylight Time)","373885","Untrustworthy,Trustworthy","","657","","","","decision","","<div class='trialDiv'><img src='Fruit/mixed-berries2.png'><br><font class='baseline'><strong>Berry Bla$t</strong><p>Choose number of points to bet.</font><div class='respPicDiv'><img src='img/responseButtonOffersNo0L.png' class='respPic'></div></div>","5","10","Berry Bla$t","Fruit/mixed-berries2.png","Lost","0.8,0.35","12","0.8","135","28","",""
"html-keyboard-response","92","144297","0.0-11.0-2.27","60d2d061fd054556769ca306","bdp_rwlrn","Mon Mar 13 2023 00:00:32 GMT-0400 (Eastern Daylight Time)","373885","Untrustworthy,Trustworthy","","null","","","","decisionFB","","<div class='trialDiv'><img src='Fruit/mixed-berries2.png'><br><font class='baseline'><strong>Berry Bla$t</strong><p>Choose number of points to bet.</font><div class='respPicDiv'><img src='img/responseButtonOffersNo0L5.png' class='respPic'></div></div>","null","10","Berry Bla$t","Fruit/mixed-berries2.png","Lost","0.8,0.35","12","0.8","130","28","",""
"html-keyboard-response","93","145299","0.0-11.0-3.27","60d2d061fd054556769ca306","bdp_rwlrn","Mon Mar 13 2023 00:00:32 GMT-0400 (Eastern Daylight Time)","373885","Untrustworthy,Trustworthy","","null","","","","feedback","","<div class='respPicDiv'><img src='img/responseButtonOffersNo0_wht.png' class='respPic'></div><div class='trialDiv'><img src='Fruit/mixed-berries2.png'><br><font class='baseline'><strong>Berry Bla$t</strong><p><strong><font class='negOutcome'>You LOST</font><p>You bet: 5</strong></font> &nbsp; &nbsp; &nbsp; &nbsp; &nbsp; &nbsp;<font class='negOutcome'>You receive: <strong>0</strong></font></div>","null","10","Berry Bla$t","Fruit/mixed-berries2.png","Lost","0.8,0.35","12","0.8","130","28","",""
"html-keyboard-response","94","146919","0.0-11.0-1.28","60d2d061fd054556769ca306","bdp_rwlrn","Mon Mar 13 2023 00:00:32 GMT-0400 (Eastern Daylight Time)","373885","Untrustworthy,Trustworthy","","1618","","","","decision","","<div class='trialDiv'><img src='Fruit/mango.png'><br><font class='baseline'><strong>Mega Mangos</strong><p>Choose number of points to bet.</font><div class='respPicDiv'><img src='img/responseButtonOffersNo0L.png' class='respPic'></div></div>","3","10","Mega Mangos","Fruit/mango.png","Won","0.2,0.8","10","0.2","135","29","",""
"html-keyboard-response","95","147170","0.0-11.0-2.28","60d2d061fd054556769ca306","bdp_rwlrn","Mon Mar 13 2023 00:00:32 GMT-0400 (Eastern Daylight Time)","373885","Untrustworthy,Trustworthy","","null","","","","decisionFB","","<div class='trialDiv'><img src='Fruit/mango.png'><br><font class='baseline'><strong>Mega Mangos</strong><p>Choose number of points to bet.</font><div class='respPicDiv'><img src='img/responseButtonOffersNo0L3.png' class='respPic'></div></div>","null","10","Mega Mangos","Fruit/mango.png","Won","0.2,0.8","10","0.2","132","29","",""
"html-keyboard-response","96","148173","0.0-11.0-3.28","60d2d061fd054556769ca306","bdp_rwlrn","Mon Mar 13 2023 00:00:32 GMT-0400 (Eastern Daylight Time)","373885","Untrustworthy,Trustworthy","","null","","","","feedback","","<div class='respPicDiv'><img src='img/responseButtonOffersNo0_wht.png' class='respPic'></div><div class='trialDiv'><img src='Fruit/mango.png'><br><font class='baseline'><strong>Mega Mangos</strong><p><strong><font class='posOutcome'>You WON</font><p>You bet: 3</strong></font> &nbsp; &nbsp; &nbsp; &nbsp; &nbsp; &nbsp;<font class='posOutcome'>you receive: <strong>6</strong></font></div>","null","10","Mega Mangos","Fruit/mango.png","Won","0.2,0.8","10","0.2","138","29","",""
"html-keyboard-response","97","148629","0.0-11.0-1.29","60d2d061fd054556769ca306","bdp_rwlrn","Mon Mar 13 2023 00:00:32 GMT-0400 (Eastern Daylight Time)","373885","Untrustworthy,Trustworthy","","456","","","","decision","","<div class='trialDiv'><img src='Fruit/cherrie.png'><br><font class='baseline'><strong>Cherry Chances</strong><p>Choose number of points to bet.</font><div class='respPicDiv'><img src='img/responseButtonOffersNo0L.png' class='respPic'></div></div>","1","10","Cherry Chances","Fruit/cherrie.png","Lost","0.35,0.8","10","0.35","143","30","",""
"html-keyboard-response","98","148882","0.0-11.0-2.29","60d2d061fd054556769ca306","bdp_rwlrn","Mon Mar 13 2023 00:00:32 GMT-0400 (Eastern Daylight Time)","373885","Untrustworthy,Trustworthy","","null","","","","decisionFB","","<div class='trialDiv'><img src='Fruit/cherrie.png'><br><font class='baseline'><strong>Cherry Chances</strong><p>Choose number of points to bet.</font><div class='respPicDiv'><img src='img/responseButtonOffersNo0L1.png' class='respPic'></div></div>","null","10","Cherry Chances","Fruit/cherrie.png","Lost","0.35,0.8","10","0.35","142","30","",""
"html-keyboard-response","99","149884","0.0-11.0-3.29","60d2d061fd054556769ca306","bdp_rwlrn","Mon Mar 13 2023 00:00:32 GMT-0400 (Eastern Daylight Time)","373885","Untrustworthy,Trustworthy","","null","","","","feedback","","<div class='respPicDiv'><img src='img/responseButtonOffersNo0_wht.png' class='respPic'></div><div class='trialDiv'><img src='Fruit/cherrie.png'><br><font class='baseline'><strong>Cherry Chances</strong><p><strong><font class='negOutcome'>You LOST</font><p>You bet: 1</strong></font> &nbsp; &nbsp; &nbsp; &nbsp; &nbsp; &nbsp;<font class='negOutcome'>You receive: <strong>0</strong></font></div>","null","10","Cherry Chances","Fruit/cherrie.png","Lost","0.35,0.8","10","0.35","142","30","",""
"html-keyboard-response","100","150406","0.0-11.0-1.30","60d2d061fd054556769ca306","bdp_rwlrn","Mon Mar 13 2023 00:00:32 GMT-0400 (Eastern Daylight Time)","373885","Untrustworthy,Trustworthy","","520","","","","decision","","<div class='trialDiv'><img src='Fruit/mixed-berries2.png'><br><font class='baseline'><strong>Berry Bla$t</strong><p>Choose number of points to bet.</font><div class='respPicDiv'><img src='img/responseButtonOffersNo0L.png' class='respPic'></div></div>","5","11","Berry Bla$t","Fruit/mixed-berries2.png","Won","0.8,0.35","12","0.8","147","31","",""
"html-keyboard-response","101","150658","0.0-11.0-2.30","60d2d061fd054556769ca306","bdp_rwlrn","Mon Mar 13 2023 00:00:32 GMT-0400 (Eastern Daylight Time)","373885","Untrustworthy,Trustworthy","","null","","","","decisionFB","","<div class='trialDiv'><img src='Fruit/mixed-berries2.png'><br><font class='baseline'><strong>Berry Bla$t</strong><p>Choose number of points to bet.</font><div class='respPicDiv'><img src='img/responseButtonOffersNo0L5.png' class='respPic'></div></div>","null","11","Berry Bla$t","Fruit/mixed-berries2.png","Won","0.8,0.35","12","0.8","142","31","",""
"html-keyboard-response","102","151659","0.0-11.0-3.30","60d2d061fd054556769ca306","bdp_rwlrn","Mon Mar 13 2023 00:00:32 GMT-0400 (Eastern Daylight Time)","373885","Untrustworthy,Trustworthy","","null","","","","feedback","","<div class='respPicDiv'><img src='img/responseButtonOffersNo0_wht.png' class='respPic'></div><div class='trialDiv'><img src='Fruit/mixed-berries2.png'><br><font class='baseline'><strong>Berry Bla$t</strong><p><strong><font class='posOutcome'>You WON</font><p>You bet: 5</strong></font> &nbsp; &nbsp; &nbsp; &nbsp; &nbsp; &nbsp;<font class='posOutcome'>you receive: <strong>10</strong></font></div>","null","11","Berry Bla$t","Fruit/mixed-berries2.png","Won","0.8,0.35","12","0.8","152","31","",""
"html-keyboard-response","103","152086","0.0-11.0-1.31","60d2d061fd054556769ca306","bdp_rwlrn","Mon Mar 13 2023 00:00:32 GMT-0400 (Eastern Daylight Time)","373885","Untrustworthy,Trustworthy","","426","","","","decision","","<div class='trialDiv'><img src='Fruit/mango.png'><br><font class='baseline'><strong>Mega Mangos</strong><p>Choose number of points to bet.</font><div class='respPicDiv'><img src='img/responseButtonOffersNo0L.png' class='respPic'></div></div>","3","11","Mega Mangos","Fruit/mango.png","Lost","0.2,0.8","10","0.2","157","32","",""
"html-keyboard-response","104","152338","0.0-11.0-2.31","60d2d061fd054556769ca306","bdp_rwlrn","Mon Mar 13 2023 00:00:32 GMT-0400 (Eastern Daylight Time)","373885","Untrustworthy,Trustworthy","","null","","","","decisionFB","","<div class='trialDiv'><img src='Fruit/mango.png'><br><font class='baseline'><strong>Mega Mangos</strong><p>Choose number of points to bet.</font><div class='respPicDiv'><img src='img/responseButtonOffersNo0L3.png' class='respPic'></div></div>","null","11","Mega Mangos","Fruit/mango.png","Lost","0.2,0.8","10","0.2","154","32","",""
"html-keyboard-response","105","153340","0.0-11.0-3.31","60d2d061fd054556769ca306","bdp_rwlrn","Mon Mar 13 2023 00:00:32 GMT-0400 (Eastern Daylight Time)","373885","Untrustworthy,Trustworthy","","null","","","","feedback","","<div class='respPicDiv'><img src='img/responseButtonOffersNo0_wht.png' class='respPic'></div><div class='trialDiv'><img src='Fruit/mango.png'><br><font class='baseline'><strong>Mega Mangos</strong><p><strong><font class='negOutcome'>You LOST</font><p>You bet: 3</strong></font> &nbsp; &nbsp; &nbsp; &nbsp; &nbsp; &nbsp;<font class='negOutcome'>You receive: <strong>0</strong></font></div>","null","11","Mega Mangos","Fruit/mango.png","Lost","0.2,0.8","10","0.2","154","32","",""
"html-keyboard-response","106","153693","0.0-11.0-1.32","60d2d061fd054556769ca306","bdp_rwlrn","Mon Mar 13 2023 00:00:32 GMT-0400 (Eastern Daylight Time)","373885","Untrustworthy,Trustworthy","","351","","","","decision","","<div class='trialDiv'><img src='Fruit/cherrie.png'><br><font class='baseline'><strong>Cherry Chances</strong><p>Choose number of points to bet.</font><div class='respPicDiv'><img src='img/responseButtonOffersNo0L.png' class='respPic'></div></div>","1","11","Cherry Chances","Fruit/cherrie.png","Won","0.35,0.8","10","0.35","159","33","",""
"html-keyboard-response","107","153945","0.0-11.0-2.32","60d2d061fd054556769ca306","bdp_rwlrn","Mon Mar 13 2023 00:00:32 GMT-0400 (Eastern Daylight Time)","373885","Untrustworthy,Trustworthy","","null","","","","decisionFB","","<div class='trialDiv'><img src='Fruit/cherrie.png'><br><font class='baseline'><strong>Cherry Chances</strong><p>Choose number of points to bet.</font><div class='respPicDiv'><img src='img/responseButtonOffersNo0L1.png' class='respPic'></div></div>","null","11","Cherry Chances","Fruit/cherrie.png","Won","0.35,0.8","10","0.35","158","33","",""
"html-keyboard-response","108","154947","0.0-11.0-3.32","60d2d061fd054556769ca306","bdp_rwlrn","Mon Mar 13 2023 00:00:32 GMT-0400 (Eastern Daylight Time)","373885","Untrustworthy,Trustworthy","","null","","","","feedback","","<div class='respPicDiv'><img src='img/responseButtonOffersNo0_wht.png' class='respPic'></div><div class='trialDiv'><img src='Fruit/cherrie.png'><br><font class='baseline'><strong>Cherry Chances</strong><p><strong><font class='posOutcome'>You WON</font><p>You bet: 1</strong></font> &nbsp; &nbsp; &nbsp; &nbsp; &nbsp; &nbsp;<font class='posOutcome'>you receive: <strong>2</strong></font></div>","null","11","Cherry Chances","Fruit/cherrie.png","Won","0.35,0.8","10","0.35","160","33","",""
"html-keyboard-response","109","155146","0.0-11.0-1.33","60d2d061fd054556769ca306","bdp_rwlrn","Mon Mar 13 2023 00:00:32 GMT-0400 (Eastern Daylight Time)","373885","Untrustworthy,Trustworthy","","198","","","","decision","","<div class='trialDiv'><img src='Fruit/mixed-berries2.png'><br><font class='baseline'><strong>Berry Bla$t</strong><p>Choose number of points to bet.</font><div class='respPicDiv'><img src='img/responseButtonOffersNo0L.png' class='respPic'></div></div>","5","12","Berry Bla$t","Fruit/mixed-berries2.png","Won","0.8,0.35","12","0.8","165","34","",""
"html-keyboard-response","110","155399","0.0-11.0-2.33","60d2d061fd054556769ca306","bdp_rwlrn","Mon Mar 13 2023 00:00:32 GMT-0400 (Eastern Daylight Time)","373885","Untrustworthy,Trustworthy","","null","","","","decisionFB","","<div class='trialDiv'><img src='Fruit/mixed-berries2.png'><br><font class='baseline'><strong>Berry Bla$t</strong><p>Choose number of points to bet.</font><div class='respPicDiv'><img src='img/responseButtonOffersNo0L5.png' class='respPic'></div></div>","null","12","Berry Bla$t","Fruit/mixed-berries2.png","Won","0.8,0.35","12","0.8","160","34","",""
"html-keyboard-response","111","156401","0.0-11.0-3.33","60d2d061fd054556769ca306","bdp_rwlrn","Mon Mar 13 2023 00:00:32 GMT-0400 (Eastern Daylight Time)","373885","Untrustworthy,Trustworthy","","null","","","","feedback","","<div class='respPicDiv'><img src='img/responseButtonOffersNo0_wht.png' class='respPic'></div><div class='trialDiv'><img src='Fruit/mixed-berries2.png'><br><font class='baseline'><strong>Berry Bla$t</strong><p><strong><font class='posOutcome'>You WON</font><p>You bet: 5</strong></font> &nbsp; &nbsp; &nbsp; &nbsp; &nbsp; &nbsp;<font class='posOutcome'>you receive: <strong>10</strong></font></div>","null","12","Berry Bla$t","Fruit/mixed-berries2.png","Won","0.8,0.35","12","0.8","170","34","",""
"html-keyboard-response","112","156597","0.0-11.0-1.34","60d2d061fd054556769ca306","bdp_rwlrn","Mon Mar 13 2023 00:00:32 GMT-0400 (Eastern Daylight Time)","373885","Untrustworthy,Trustworthy","","195","","","","decision","","<div class='trialDiv'><img src='Fruit/cherrie.png'><br><font class='baseline'><strong>Cherry Chances</strong><p>Choose number of points to bet.</font><div class='respPicDiv'><img src='img/responseButtonOffersNo0L.png' class='respPic'></div></div>","3","12","Cherry Chances","Fruit/cherrie.png","Lost","0.35,0.8","10","0.35","175","35","",""
"html-keyboard-response","113","156849","0.0-11.0-2.34","60d2d061fd054556769ca306","bdp_rwlrn","Mon Mar 13 2023 00:00:32 GMT-0400 (Eastern Daylight Time)","373885","Untrustworthy,Trustworthy","","null","","","","decisionFB","","<div class='trialDiv'><img src='Fruit/cherrie.png'><br><font class='baseline'><strong>Cherry Chances</strong><p>Choose number of points to bet.</font><div class='respPicDiv'><img src='img/responseButtonOffersNo0L3.png' class='respPic'></div></div>","null","12","Cherry Chances","Fruit/cherrie.png","Lost","0.35,0.8","10","0.35","172","35","",""
"html-keyboard-response","114","157851","0.0-11.0-3.34","60d2d061fd054556769ca306","bdp_rwlrn","Mon Mar 13 2023 00:00:32 GMT-0400 (Eastern Daylight Time)","373885","Untrustworthy,Trustworthy","","null","","","","feedback","","<div class='respPicDiv'><img src='img/responseButtonOffersNo0_wht.png' class='respPic'></div><div class='trialDiv'><img src='Fruit/cherrie.png'><br><font class='baseline'><strong>Cherry Chances</strong><p><strong><font class='negOutcome'>You LOST</font><p>You bet: 3</strong></font> &nbsp; &nbsp; &nbsp; &nbsp; &nbsp; &nbsp;<font class='negOutcome'>You receive: <strong>0</strong></font></div>","null","12","Cherry Chances","Fruit/cherrie.png","Lost","0.35,0.8","10","0.35","172","35","",""
"html-keyboard-response","115","159235","0.0-11.0-1.35","60d2d061fd054556769ca306","bdp_rwlrn","Mon Mar 13 2023 00:00:32 GMT-0400 (Eastern Daylight Time)","373885","Untrustworthy,Trustworthy","","1383","","","","decision","","<div class='trialDiv'><img src='Fruit/mango.png'><br><font class='baseline'><strong>Mega Mangos</strong><p>Choose number of points to bet.</font><div class='respPicDiv'><img src='img/responseButtonOffersNo0L.png' class='respPic'></div></div>","3","12","Mega Mangos","Fruit/mango.png","Lost","0.2,0.8","10","0.2","177","36","",""
"html-keyboard-response","116","159488","0.0-11.0-2.35","60d2d061fd054556769ca306","bdp_rwlrn","Mon Mar 13 2023 00:00:32 GMT-0400 (Eastern Daylight Time)","373885","Untrustworthy,Trustworthy","","null","","","","decisionFB","","<div class='trialDiv'><img src='Fruit/mango.png'><br><font class='baseline'><strong>Mega Mangos</strong><p>Choose number of points to bet.</font><div class='respPicDiv'><img src='img/responseButtonOffersNo0L3.png' class='respPic'></div></div>","null","12","Mega Mangos","Fruit/mango.png","Lost","0.2,0.8","10","0.2","174","36","",""
"html-keyboard-response","117","160489","0.0-11.0-3.35","60d2d061fd054556769ca306","bdp_rwlrn","Mon Mar 13 2023 00:00:32 GMT-0400 (Eastern Daylight Time)","373885","Untrustworthy,Trustworthy","","null","","","","feedback","","<div class='respPicDiv'><img src='img/responseButtonOffersNo0_wht.png' class='respPic'></div><div class='trialDiv'><img src='Fruit/mango.png'><br><font class='baseline'><strong>Mega Mangos</strong><p><strong><font class='negOutcome'>You LOST</font><p>You bet: 3</strong></font> &nbsp; &nbsp; &nbsp; &nbsp; &nbsp; &nbsp;<font class='negOutcome'>You receive: <strong>0</strong></font></div>","null","12","Mega Mangos","Fruit/mango.png","Lost","0.2,0.8","10","0.2","174","36","",""
"html-keyboard-response","118","161273","0.0-11.0-1.36","60d2d061fd054556769ca306","bdp_rwlrn","Mon Mar 13 2023 00:00:32 GMT-0400 (Eastern Daylight Time)","373885","Untrustworthy,Trustworthy","","783","","","","decision","","<div class='trialDiv'><img src='Fruit/mixed-berries2.png'><br><font class='baseline'><strong>Berry Bla$t</strong><p>Choose number of points to bet.</font><div class='respPicDiv'><img src='img/responseButtonOffersNo0L.png' class='respPic'></div></div>","5","13","Berry Bla$t","Fruit/mixed-berries2.png","Lost","0.8,0.35","12","0.8","179","37","",""
"html-keyboard-response","119","161525","0.0-11.0-2.36","60d2d061fd054556769ca306","bdp_rwlrn","Mon Mar 13 2023 00:00:32 GMT-0400 (Eastern Daylight Time)","373885","Untrustworthy,Trustworthy","","null","","","","decisionFB","","<div class='trialDiv'><img src='Fruit/mixed-berries2.png'><br><font class='baseline'><strong>Berry Bla$t</strong><p>Choose number of points to bet.</font><div class='respPicDiv'><img src='img/responseButtonOffersNo0L5.png' class='respPic'></div></div>","null","13","Berry Bla$t","Fruit/mixed-berries2.png","Lost","0.8,0.35","12","0.8","174","37","",""
"html-keyboard-response","120","162527","0.0-11.0-3.36","60d2d061fd054556769ca306","bdp_rwlrn","Mon Mar 13 2023 00:00:32 GMT-0400 (Eastern Daylight Time)","373885","Untrustworthy,Trustworthy","","null","","","","feedback","","<div class='respPicDiv'><img src='img/responseButtonOffersNo0_wht.png' class='respPic'></div><div class='trialDiv'><img src='Fruit/mixed-berries2.png'><br><font class='baseline'><strong>Berry Bla$t</strong><p><strong><font class='negOutcome'>You LOST</font><p>You bet: 5</strong></font> &nbsp; &nbsp; &nbsp; &nbsp; &nbsp; &nbsp;<font class='negOutcome'>You receive: <strong>0</strong></font></div>","null","13","Berry Bla$t","Fruit/mixed-berries2.png","Lost","0.8,0.35","12","0.8","174","37","",""
"html-keyboard-response","121","163073","0.0-11.0-1.37","60d2d061fd054556769ca306","bdp_rwlrn","Mon Mar 13 2023 00:00:32 GMT-0400 (Eastern Daylight Time)","373885","Untrustworthy,Trustworthy","","545","","","","decision","","<div class='trialDiv'><img src='Fruit/mango.png'><br><font class='baseline'><strong>Mega Mangos</strong><p>Choose number of points to bet.</font><div class='respPicDiv'><img src='img/responseButtonOffersNo0L.png' class='respPic'></div></div>","3","13","Mega Mangos","Fruit/mango.png","Lost","0.2,0.8","10","0.2","179","38","",""
"html-keyboard-response","122","163325","0.0-11.0-2.37","60d2d061fd054556769ca306","bdp_rwlrn","Mon Mar 13 2023 00:00:32 GMT-0400 (Eastern Daylight Time)","373885","Untrustworthy,Trustworthy","","null","","","","decisionFB","","<div class='trialDiv'><img src='Fruit/mango.png'><br><font class='baseline'><strong>Mega Mangos</strong><p>Choose number of points to bet.</font><div class='respPicDiv'><img src='img/responseButtonOffersNo0L3.png' class='respPic'></div></div>","null","13","Mega Mangos","Fruit/mango.png","Lost","0.2,0.8","10","0.2","176","38","",""
"html-keyboard-response","123","164327","0.0-11.0-3.37","60d2d061fd054556769ca306","bdp_rwlrn","Mon Mar 13 2023 00:00:32 GMT-0400 (Eastern Daylight Time)","373885","Untrustworthy,Trustworthy","","null","","","","feedback","","<div class='respPicDiv'><img src='img/responseButtonOffersNo0_wht.png' class='respPic'></div><div class='trialDiv'><img src='Fruit/mango.png'><br><font class='baseline'><strong>Mega Mangos</strong><p><strong><font class='negOutcome'>You LOST</font><p>You bet: 3</strong></font> &nbsp; &nbsp; &nbsp; &nbsp; &nbsp; &nbsp;<font class='negOutcome'>You receive: <strong>0</strong></font></div>","null","13","Mega Mangos","Fruit/mango.png","Lost","0.2,0.8","10","0.2","176","38","",""
"html-keyboard-response","124","165108","0.0-11.0-1.38","60d2d061fd054556769ca306","bdp_rwlrn","Mon Mar 13 2023 00:00:32 GMT-0400 (Eastern Daylight Time)","373885","Untrustworthy,Trustworthy","","780","","","","decision","","<div class='trialDiv'><img src='Fruit/cherrie.png'><br><font class='baseline'><strong>Cherry Chances</strong><p>Choose number of points to bet.</font><div class='respPicDiv'><img src='img/responseButtonOffersNo0L.png' class='respPic'></div></div>","3","13","Cherry Chances","Fruit/cherrie.png","Won","0.35,0.8","10","0.35","181","39","",""
"html-keyboard-response","125","165360","0.0-11.0-2.38","60d2d061fd054556769ca306","bdp_rwlrn","Mon Mar 13 2023 00:00:32 GMT-0400 (Eastern Daylight Time)","373885","Untrustworthy,Trustworthy","","null","","","","decisionFB","","<div class='trialDiv'><img src='Fruit/cherrie.png'><br><font class='baseline'><strong>Cherry Chances</strong><p>Choose number of points to bet.</font><div class='respPicDiv'><img src='img/responseButtonOffersNo0L3.png' class='respPic'></div></div>","null","13","Cherry Chances","Fruit/cherrie.png","Won","0.35,0.8","10","0.35","178","39","",""
"html-keyboard-response","126","166368","0.0-11.0-3.38","60d2d061fd054556769ca306","bdp_rwlrn","Mon Mar 13 2023 00:00:32 GMT-0400 (Eastern Daylight Time)","373885","Untrustworthy,Trustworthy","","null","","","","feedback","","<div class='respPicDiv'><img src='img/responseButtonOffersNo0_wht.png' class='respPic'></div><div class='trialDiv'><img src='Fruit/cherrie.png'><br><font class='baseline'><strong>Cherry Chances</strong><p><strong><font class='posOutcome'>You WON</font><p>You bet: 3</strong></font> &nbsp; &nbsp; &nbsp; &nbsp; &nbsp; &nbsp;<font class='posOutcome'>you receive: <strong>6</strong></font></div>","null","13","Cherry Chances","Fruit/cherrie.png","Won","0.35,0.8","10","0.35","184","39","",""
"html-keyboard-response","127","167153","0.0-11.0-1.39","60d2d061fd054556769ca306","bdp_rwlrn","Mon Mar 13 2023 00:00:32 GMT-0400 (Eastern Daylight Time)","373885","Untrustworthy,Trustworthy","","785","","","","decision","","<div class='trialDiv'><img src='Fruit/mixed-berries2.png'><br><font class='baseline'><strong>Berry Bla$t</strong><p>Choose number of points to bet.</font><div class='respPicDiv'><img src='img/responseButtonOffersNo0L.png' class='respPic'></div></div>","3","14","Berry Bla$t","Fruit/mixed-berries2.png","Won","0.8,0.35","12","0.8","189","40","",""
"html-keyboard-response","128","167405","0.0-11.0-2.39","60d2d061fd054556769ca306","bdp_rwlrn","Mon Mar 13 2023 00:00:32 GMT-0400 (Eastern Daylight Time)","373885","Untrustworthy,Trustworthy","","null","","","","decisionFB","","<div class='trialDiv'><img src='Fruit/mixed-berries2.png'><br><font class='baseline'><strong>Berry Bla$t</strong><p>Choose number of points to bet.</font><div class='respPicDiv'><img src='img/responseButtonOffersNo0L3.png' class='respPic'></div></div>","null","14","Berry Bla$t","Fruit/mixed-berries2.png","Won","0.8,0.35","12","0.8","186","40","",""
"html-keyboard-response","129","168407","0.0-11.0-3.39","60d2d061fd054556769ca306","bdp_rwlrn","Mon Mar 13 2023 00:00:32 GMT-0400 (Eastern Daylight Time)","373885","Untrustworthy,Trustworthy","","null","","","","feedback","","<div class='respPicDiv'><img src='img/responseButtonOffersNo0_wht.png' class='respPic'></div><div class='trialDiv'><img src='Fruit/mixed-berries2.png'><br><font class='baseline'><strong>Berry Bla$t</strong><p><strong><font class='posOutcome'>You WON</font><p>You bet: 3</strong></font> &nbsp; &nbsp; &nbsp; &nbsp; &nbsp; &nbsp;<font class='posOutcome'>you receive: <strong>6</strong></font></div>","null","14","Berry Bla$t","Fruit/mixed-berries2.png","Won","0.8,0.35","12","0.8","192","40","",""
"html-keyboard-response","130","169810","0.0-11.0-1.40","60d2d061fd054556769ca306","bdp_rwlrn","Mon Mar 13 2023 00:00:32 GMT-0400 (Eastern Daylight Time)","373885","Untrustworthy,Trustworthy","","1402","","","","decision","","<div class='trialDiv'><img src='Fruit/cherrie.png'><br><font class='baseline'><strong>Cherry Chances</strong><p>Choose number of points to bet.</font><div class='respPicDiv'><img src='img/responseButtonOffersNo0L.png' class='respPic'></div></div>","1","14","Cherry Chances","Fruit/cherrie.png","Lost","0.35,0.8","10","0.35","197","41","",""
"html-keyboard-response","131","170063","0.0-11.0-2.40","60d2d061fd054556769ca306","bdp_rwlrn","Mon Mar 13 2023 00:00:32 GMT-0400 (Eastern Daylight Time)","373885","Untrustworthy,Trustworthy","","null","","","","decisionFB","","<div class='trialDiv'><img src='Fruit/cherrie.png'><br><font class='baseline'><strong>Cherry Chances</strong><p>Choose number of points to bet.</font><div class='respPicDiv'><img src='img/responseButtonOffersNo0L1.png' class='respPic'></div></div>","null","14","Cherry Chances","Fruit/cherrie.png","Lost","0.35,0.8","10","0.35","196","41","",""
"html-keyboard-response","132","171065","0.0-11.0-3.40","60d2d061fd054556769ca306","bdp_rwlrn","Mon Mar 13 2023 00:00:32 GMT-0400 (Eastern Daylight Time)","373885","Untrustworthy,Trustworthy","","null","","","","feedback","","<div class='respPicDiv'><img src='img/responseButtonOffersNo0_wht.png' class='respPic'></div><div class='trialDiv'><img src='Fruit/cherrie.png'><br><font class='baseline'><strong>Cherry Chances</strong><p><strong><font class='negOutcome'>You LOST</font><p>You bet: 1</strong></font> &nbsp; &nbsp; &nbsp; &nbsp; &nbsp; &nbsp;<font class='negOutcome'>You receive: <strong>0</strong></font></div>","null","14","Cherry Chances","Fruit/cherrie.png","Lost","0.35,0.8","10","0.35","196","41","",""
"html-keyboard-response","133","172358","0.0-11.0-1.41","60d2d061fd054556769ca306","bdp_rwlrn","Mon Mar 13 2023 00:00:32 GMT-0400 (Eastern Daylight Time)","373885","Untrustworthy,Trustworthy","","1291","","","","decision","","<div class='trialDiv'><img src='Fruit/mango.png'><br><font class='baseline'><strong>Mega Mangos</strong><p>Choose number of points to bet.</font><div class='respPicDiv'><img src='img/responseButtonOffersNo0L.png' class='respPic'></div></div>","3","14","Mega Mangos","Fruit/mango.png","Lost","0.2,0.8","10","0.2","201","42","",""
"html-keyboard-response","134","172610","0.0-11.0-2.41","60d2d061fd054556769ca306","bdp_rwlrn","Mon Mar 13 2023 00:00:32 GMT-0400 (Eastern Daylight Time)","373885","Untrustworthy,Trustworthy","","null","","","","decisionFB","","<div class='trialDiv'><img src='Fruit/mango.png'><br><font class='baseline'><strong>Mega Mangos</strong><p>Choose number of points to bet.</font><div class='respPicDiv'><img src='img/responseButtonOffersNo0L3.png' class='respPic'></div></div>","null","14","Mega Mangos","Fruit/mango.png","Lost","0.2,0.8","10","0.2","198","42","",""
"html-keyboard-response","135","173612","0.0-11.0-3.41","60d2d061fd054556769ca306","bdp_rwlrn","Mon Mar 13 2023 00:00:32 GMT-0400 (Eastern Daylight Time)","373885","Untrustworthy,Trustworthy","","null","","","","feedback","","<div class='respPicDiv'><img src='img/responseButtonOffersNo0_wht.png' class='respPic'></div><div class='trialDiv'><img src='Fruit/mango.png'><br><font class='baseline'><strong>Mega Mangos</strong><p><strong><font class='negOutcome'>You LOST</font><p>You bet: 3</strong></font> &nbsp; &nbsp; &nbsp; &nbsp; &nbsp; &nbsp;<font class='negOutcome'>You receive: <strong>0</strong></font></div>","null","14","Mega Mangos","Fruit/mango.png","Lost","0.2,0.8","10","0.2","198","42","",""
"html-keyboard-response","136","174165","0.0-11.0-1.42","60d2d061fd054556769ca306","bdp_rwlrn","Mon Mar 13 2023 00:00:32 GMT-0400 (Eastern Daylight Time)","373885","Untrustworthy,Trustworthy","","553","","","","decision","","<div class='trialDiv'><img src='Fruit/mixed-berries2.png'><br><font class='baseline'><strong>Berry Bla$t</strong><p>Choose number of points to bet.</font><div class='respPicDiv'><img src='img/responseButtonOffersNo0L.png' class='respPic'></div></div>","5","15","Berry Bla$t","Fruit/mixed-berries2.png","Lost","0.8,0.35","12","0.8","203","43","",""
"html-keyboard-response","137","174417","0.0-11.0-2.42","60d2d061fd054556769ca306","bdp_rwlrn","Mon Mar 13 2023 00:00:32 GMT-0400 (Eastern Daylight Time)","373885","Untrustworthy,Trustworthy","","null","","","","decisionFB","","<div class='trialDiv'><img src='Fruit/mixed-berries2.png'><br><font class='baseline'><strong>Berry Bla$t</strong><p>Choose number of points to bet.</font><div class='respPicDiv'><img src='img/responseButtonOffersNo0L5.png' class='respPic'></div></div>","null","15","Berry Bla$t","Fruit/mixed-berries2.png","Lost","0.8,0.35","12","0.8","198","43","",""
"html-keyboard-response","138","175419","0.0-11.0-3.42","60d2d061fd054556769ca306","bdp_rwlrn","Mon Mar 13 2023 00:00:32 GMT-0400 (Eastern Daylight Time)","373885","Untrustworthy,Trustworthy","","null","","","","feedback","","<div class='respPicDiv'><img src='img/responseButtonOffersNo0_wht.png' class='respPic'></div><div class='trialDiv'><img src='Fruit/mixed-berries2.png'><br><font class='baseline'><strong>Berry Bla$t</strong><p><strong><font class='negOutcome'>You LOST</font><p>You bet: 5</strong></font> &nbsp; &nbsp; &nbsp; &nbsp; &nbsp; &nbsp;<font class='negOutcome'>You receive: <strong>0</strong></font></div>","null","15","Berry Bla$t","Fruit/mixed-berries2.png","Lost","0.8,0.35","12","0.8","198","43","",""
"html-keyboard-response","139","176051","0.0-11.0-1.43","60d2d061fd054556769ca306","bdp_rwlrn","Mon Mar 13 2023 00:00:32 GMT-0400 (Eastern Daylight Time)","373885","Untrustworthy,Trustworthy","","630","","","","decision","","<div class='trialDiv'><img src='Fruit/mango.png'><br><font class='baseline'><strong>Mega Mangos</strong><p>Choose number of points to bet.</font><div class='respPicDiv'><img src='img/responseButtonOffersNo0L.png' class='respPic'></div></div>","3","15","Mega Mangos","Fruit/mango.png","Lost","0.2,0.8","10","0.2","203","44","",""
"html-keyboard-response","140","176302","0.0-11.0-2.43","60d2d061fd054556769ca306","bdp_rwlrn","Mon Mar 13 2023 00:00:32 GMT-0400 (Eastern Daylight Time)","373885","Untrustworthy,Trustworthy","","null","","","","decisionFB","","<div class='trialDiv'><img src='Fruit/mango.png'><br><font class='baseline'><strong>Mega Mangos</strong><p>Choose number of points to bet.</font><div class='respPicDiv'><img src='img/responseButtonOffersNo0L3.png' class='respPic'></div></div>","null","15","Mega Mangos","Fruit/mango.png","Lost","0.2,0.8","10","0.2","200","44","",""
"html-keyboard-response","141","177307","0.0-11.0-3.43","60d2d061fd054556769ca306","bdp_rwlrn","Mon Mar 13 2023 00:00:32 GMT-0400 (Eastern Daylight Time)","373885","Untrustworthy,Trustworthy","","null","","","","feedback","","<div class='respPicDiv'><img src='img/responseButtonOffersNo0_wht.png' class='respPic'></div><div class='trialDiv'><img src='Fruit/mango.png'><br><font class='baseline'><strong>Mega Mangos</strong><p><strong><font class='negOutcome'>You LOST</font><p>You bet: 3</strong></font> &nbsp; &nbsp; &nbsp; &nbsp; &nbsp; &nbsp;<font class='negOutcome'>You receive: <strong>0</strong></font></div>","null","15","Mega Mangos","Fruit/mango.png","Lost","0.2,0.8","10","0.2","200","44","",""
"html-keyboard-response","142","178401","0.0-11.0-1.44","60d2d061fd054556769ca306","bdp_rwlrn","Mon Mar 13 2023 00:00:32 GMT-0400 (Eastern Daylight Time)","373885","Untrustworthy,Trustworthy","","1093","","","","decision","","<div class='trialDiv'><img src='Fruit/cherrie.png'><br><font class='baseline'><strong>Cherry Chances</strong><p>Choose number of points to bet.</font><div class='respPicDiv'><img src='img/responseButtonOffersNo0L.png' class='respPic'></div></div>","1","15","Cherry Chances","Fruit/cherrie.png","Won","0.35,0.8","10","0.35","205","45","",""
"html-keyboard-response","143","178653","0.0-11.0-2.44","60d2d061fd054556769ca306","bdp_rwlrn","Mon Mar 13 2023 00:00:32 GMT-0400 (Eastern Daylight Time)","373885","Untrustworthy,Trustworthy","","null","","","","decisionFB","","<div class='trialDiv'><img src='Fruit/cherrie.png'><br><font class='baseline'><strong>Cherry Chances</strong><p>Choose number of points to bet.</font><div class='respPicDiv'><img src='img/responseButtonOffersNo0L1.png' class='respPic'></div></div>","null","15","Cherry Chances","Fruit/cherrie.png","Won","0.35,0.8","10","0.35","204","45","",""
"html-keyboard-response","144","179655","0.0-11.0-3.44","60d2d061fd054556769ca306","bdp_rwlrn","Mon Mar 13 2023 00:00:32 GMT-0400 (Eastern Daylight Time)","373885","Untrustworthy,Trustworthy","","null","","","","feedback","","<div class='respPicDiv'><img src='img/responseButtonOffersNo0_wht.png' class='respPic'></div><div class='trialDiv'><img src='Fruit/cherrie.png'><br><font class='baseline'><strong>Cherry Chances</strong><p><strong><font class='posOutcome'>You WON</font><p>You bet: 1</strong></font> &nbsp; &nbsp; &nbsp; &nbsp; &nbsp; &nbsp;<font class='posOutcome'>you receive: <strong>2</strong></font></div>","null","15","Cherry Chances","Fruit/cherrie.png","Won","0.35,0.8","10","0.35","206","45","",""
"html-keyboard-response","145","180017","0.0-11.0-1.45","60d2d061fd054556769ca306","bdp_rwlrn","Mon Mar 13 2023 00:00:32 GMT-0400 (Eastern Daylight Time)","373885","Untrustworthy,Trustworthy","","360","","","","decision","","<div class='trialDiv'><img src='Fruit/mixed-berries2.png'><br><font class='baseline'><strong>Berry Bla$t</strong><p>Choose number of points to bet.</font><div class='respPicDiv'><img src='img/responseButtonOffersNo0L.png' class='respPic'></div></div>","5","16","Berry Bla$t","Fruit/mixed-berries2.png","Lost","0.8,0.35","12","0.8","211","46","",""
"html-keyboard-response","146","180269","0.0-11.0-2.45","60d2d061fd054556769ca306","bdp_rwlrn","Mon Mar 13 2023 00:00:32 GMT-0400 (Eastern Daylight Time)","373885","Untrustworthy,Trustworthy","","null","","","","decisionFB","","<div class='trialDiv'><img src='Fruit/mixed-berries2.png'><br><font class='baseline'><strong>Berry Bla$t</strong><p>Choose number of points to bet.</font><div class='respPicDiv'><img src='img/responseButtonOffersNo0L5.png' class='respPic'></div></div>","null","16","Berry Bla$t","Fruit/mixed-berries2.png","Lost","0.8,0.35","12","0.8","206","46","",""
"html-keyboard-response","147","181271","0.0-11.0-3.45","60d2d061fd054556769ca306","bdp_rwlrn","Mon Mar 13 2023 00:00:32 GMT-0400 (Eastern Daylight Time)","373885","Untrustworthy,Trustworthy","","null","","","","feedback","","<div class='respPicDiv'><img src='img/responseButtonOffersNo0_wht.png' class='respPic'></div><div class='trialDiv'><img src='Fruit/mixed-berries2.png'><br><font class='baseline'><strong>Berry Bla$t</strong><p><strong><font class='negOutcome'>You LOST</font><p>You bet: 5</strong></font> &nbsp; &nbsp; &nbsp; &nbsp; &nbsp; &nbsp;<font class='negOutcome'>You receive: <strong>0</strong></font></div>","null","16","Berry Bla$t","Fruit/mixed-berries2.png","Lost","0.8,0.35","12","0.8","206","46","",""
"html-keyboard-response","148","181551","0.0-11.0-1.46","60d2d061fd054556769ca306","bdp_rwlrn","Mon Mar 13 2023 00:00:32 GMT-0400 (Eastern Daylight Time)","373885","Untrustworthy,Trustworthy","","278","","","","decision","","<div class='trialDiv'><img src='Fruit/mango.png'><br><font class='baseline'><strong>Mega Mangos</strong><p>Choose number of points to bet.</font><div class='respPicDiv'><img src='img/responseButtonOffersNo0L.png' class='respPic'></div></div>","5","16","Mega Mangos","Fruit/mango.png","Won","0.2,0.8","10","0.2","211","47","",""
"html-keyboard-response","149","181803","0.0-11.0-2.46","60d2d061fd054556769ca306","bdp_rwlrn","Mon Mar 13 2023 00:00:32 GMT-0400 (Eastern Daylight Time)","373885","Untrustworthy,Trustworthy","","null","","","","decisionFB","","<div class='trialDiv'><img src='Fruit/mango.png'><br><font class='baseline'><strong>Mega Mangos</strong><p>Choose number of points to bet.</font><div class='respPicDiv'><img src='img/responseButtonOffersNo0L5.png' class='respPic'></div></div>","null","16","Mega Mangos","Fruit/mango.png","Won","0.2,0.8","10","0.2","206","47","",""
"html-keyboard-response","150","182805","0.0-11.0-3.46","60d2d061fd054556769ca306","bdp_rwlrn","Mon Mar 13 2023 00:00:32 GMT-0400 (Eastern Daylight Time)","373885","Untrustworthy,Trustworthy","","null","","","","feedback","","<div class='respPicDiv'><img src='img/responseButtonOffersNo0_wht.png' class='respPic'></div><div class='trialDiv'><img src='Fruit/mango.png'><br><font class='baseline'><strong>Mega Mangos</strong><p><strong><font class='posOutcome'>You WON</font><p>You bet: 5</strong></font> &nbsp; &nbsp; &nbsp; &nbsp; &nbsp; &nbsp;<font class='posOutcome'>you receive: <strong>10</strong></font></div>","null","16","Mega Mangos","Fruit/mango.png","Won","0.2,0.8","10","0.2","216","47","",""
"html-keyboard-response","151","184029","0.0-11.0-1.47","60d2d061fd054556769ca306","bdp_rwlrn","Mon Mar 13 2023 00:00:32 GMT-0400 (Eastern Daylight Time)","373885","Untrustworthy,Trustworthy","","1223","","","","decision","","<div class='trialDiv'><img src='Fruit/cherrie.png'><br><font class='baseline'><strong>Cherry Chances</strong><p>Choose number of points to bet.</font><div class='respPicDiv'><img src='img/responseButtonOffersNo0L.png' class='respPic'></div></div>","5","16","Cherry Chances","Fruit/cherrie.png","Lost","0.35,0.8","10","0.35","221","48","",""
"html-keyboard-response","152","184282","0.0-11.0-2.47","60d2d061fd054556769ca306","bdp_rwlrn","Mon Mar 13 2023 00:00:32 GMT-0400 (Eastern Daylight Time)","373885","Untrustworthy,Trustworthy","","null","","","","decisionFB","","<div class='trialDiv'><img src='Fruit/cherrie.png'><br><font class='baseline'><strong>Cherry Chances</strong><p>Choose number of points to bet.</font><div class='respPicDiv'><img src='img/responseButtonOffersNo0L5.png' class='respPic'></div></div>","null","16","Cherry Chances","Fruit/cherrie.png","Lost","0.35,0.8","10","0.35","216","48","",""
"html-keyboard-response","153","185284","0.0-11.0-3.47","60d2d061fd054556769ca306","bdp_rwlrn","Mon Mar 13 2023 00:00:32 GMT-0400 (Eastern Daylight Time)","373885","Untrustworthy,Trustworthy","","null","","","","feedback","","<div class='respPicDiv'><img src='img/responseButtonOffersNo0_wht.png' class='respPic'></div><div class='trialDiv'><img src='Fruit/cherrie.png'><br><font class='baseline'><strong>Cherry Chances</strong><p><strong><font class='negOutcome'>You LOST</font><p>You bet: 5</strong></font> &nbsp; &nbsp; &nbsp; &nbsp; &nbsp; &nbsp;<font class='negOutcome'>You receive: <strong>0</strong></font></div>","null","16","Cherry Chances","Fruit/cherrie.png","Lost","0.35,0.8","10","0.35","216","48","",""
"html-keyboard-response","154","185799","0.0-11.0-1.48","60d2d061fd054556769ca306","bdp_rwlrn","Mon Mar 13 2023 00:00:32 GMT-0400 (Eastern Daylight Time)","373885","Untrustworthy,Trustworthy","","514","","","","decision","","<div class='trialDiv'><img src='Fruit/mango.png'><br><font class='baseline'><strong>Mega Mangos</strong><p>Choose number of points to bet.</font><div class='respPicDiv'><img src='img/responseButtonOffersNo0L.png' class='respPic'></div></div>","5","17","Mega Mangos","Fruit/mango.png","Won","0.2,0.8","10","0.2","221","49","",""
"html-keyboard-response","155","186050","0.0-11.0-2.48","60d2d061fd054556769ca306","bdp_rwlrn","Mon Mar 13 2023 00:00:32 GMT-0400 (Eastern Daylight Time)","373885","Untrustworthy,Trustworthy","","null","","","","decisionFB","","<div class='trialDiv'><img src='Fruit/mango.png'><br><font class='baseline'><strong>Mega Mangos</strong><p>Choose number of points to bet.</font><div class='respPicDiv'><img src='img/responseButtonOffersNo0L5.png' class='respPic'></div></div>","null","17","Mega Mangos","Fruit/mango.png","Won","0.2,0.8","10","0.2","216","49","",""
"html-keyboard-response","156","187053","0.0-11.0-3.48","60d2d061fd054556769ca306","bdp_rwlrn","Mon Mar 13 2023 00:00:32 GMT-0400 (Eastern Daylight Time)","373885","Untrustworthy,Trustworthy","","null","","","","feedback","","<div class='respPicDiv'><img src='img/responseButtonOffersNo0_wht.png' class='respPic'></div><div class='trialDiv'><img src='Fruit/mango.png'><br><font class='baseline'><strong>Mega Mangos</strong><p><strong><font class='posOutcome'>You WON</font><p>You bet: 5</strong></font> &nbsp; &nbsp; &nbsp; &nbsp; &nbsp; &nbsp;<font class='posOutcome'>you receive: <strong>10</strong></font></div>","null","17","Mega Mangos","Fruit/mango.png","Won","0.2,0.8","10","0.2","226","49","",""
"html-keyboard-response","157","187764","0.0-11.0-1.49","60d2d061fd054556769ca306","bdp_rwlrn","Mon Mar 13 2023 00:00:32 GMT-0400 (Eastern Daylight Time)","373885","Untrustworthy,Trustworthy","","710","","","","decision","","<div class='trialDiv'><img src='Fruit/mixed-berries2.png'><br><font class='baseline'><strong>Berry Bla$t</strong><p>Choose number of points to bet.</font><div class='respPicDiv'><img src='img/responseButtonOffersNo0L.png' class='respPic'></div></div>","5","17","Berry Bla$t","Fruit/mixed-berries2.png","Lost","0.8,0.35","12","0.8","231","50","",""
"html-keyboard-response","158","188016","0.0-11.0-2.49","60d2d061fd054556769ca306","bdp_rwlrn","Mon Mar 13 2023 00:00:32 GMT-0400 (Eastern Daylight Time)","373885","Untrustworthy,Trustworthy","","null","","","","decisionFB","","<div class='trialDiv'><img src='Fruit/mixed-berries2.png'><br><font class='baseline'><strong>Berry Bla$t</strong><p>Choose number of points to bet.</font><div class='respPicDiv'><img src='img/responseButtonOffersNo0L5.png' class='respPic'></div></div>","null","17","Berry Bla$t","Fruit/mixed-berries2.png","Lost","0.8,0.35","12","0.8","226","50","",""
"html-keyboard-response","159","189018","0.0-11.0-3.49","60d2d061fd054556769ca306","bdp_rwlrn","Mon Mar 13 2023 00:00:32 GMT-0400 (Eastern Daylight Time)","373885","Untrustworthy,Trustworthy","","null","","","","feedback","","<div class='respPicDiv'><img src='img/responseButtonOffersNo0_wht.png' class='respPic'></div><div class='trialDiv'><img src='Fruit/mixed-berries2.png'><br><font class='baseline'><strong>Berry Bla$t</strong><p><strong><font class='negOutcome'>You LOST</font><p>You bet: 5</strong></font> &nbsp; &nbsp; &nbsp; &nbsp; &nbsp; &nbsp;<font class='negOutcome'>You receive: <strong>0</strong></font></div>","null","17","Berry Bla$t","Fruit/mixed-berries2.png","Lost","0.8,0.35","12","0.8","226","50","",""
"html-keyboard-response","160","189392","0.0-11.0-1.50","60d2d061fd054556769ca306","bdp_rwlrn","Mon Mar 13 2023 00:00:32 GMT-0400 (Eastern Daylight Time)","373885","Untrustworthy,Trustworthy","","373","","","","decision","","<div class='trialDiv'><img src='Fruit/cherrie.png'><br><font class='baseline'><strong>Cherry Chances</strong><p>Choose number of points to bet.</font><div class='respPicDiv'><img src='img/responseButtonOffersNo0L.png' class='respPic'></div></div>","5","17","Cherry Chances","Fruit/cherrie.png","Won","0.35,0.8","10","0.35","231","51","",""
"html-keyboard-response","161","189644","0.0-11.0-2.50","60d2d061fd054556769ca306","bdp_rwlrn","Mon Mar 13 2023 00:00:32 GMT-0400 (Eastern Daylight Time)","373885","Untrustworthy,Trustworthy","","null","","","","decisionFB","","<div class='trialDiv'><img src='Fruit/cherrie.png'><br><font class='baseline'><strong>Cherry Chances</strong><p>Choose number of points to bet.</font><div class='respPicDiv'><img src='img/responseButtonOffersNo0L5.png' class='respPic'></div></div>","null","17","Cherry Chances","Fruit/cherrie.png","Won","0.35,0.8","10","0.35","226","51","",""
"html-keyboard-response","162","190645","0.0-11.0-3.50","60d2d061fd054556769ca306","bdp_rwlrn","Mon Mar 13 2023 00:00:32 GMT-0400 (Eastern Daylight Time)","373885","Untrustworthy,Trustworthy","","null","","","","feedback","","<div class='respPicDiv'><img src='img/responseButtonOffersNo0_wht.png' class='respPic'></div><div class='trialDiv'><img src='Fruit/cherrie.png'><br><font class='baseline'><strong>Cherry Chances</strong><p><strong><font class='posOutcome'>You WON</font><p>You bet: 5</strong></font> &nbsp; &nbsp; &nbsp; &nbsp; &nbsp; &nbsp;<font class='posOutcome'>you receive: <strong>10</strong></font></div>","null","17","Cherry Chances","Fruit/cherrie.png","Won","0.35,0.8","10","0.35","236","51","",""
