"trial_type","trial_index","time_elapsed","internal_node_id","subject_id","task","startTime","totalTime","labels","view_history","rt","event","trial","time","trialtype","success","stimulus","key_press","numBlurs","ltround","name","fileID","outcome","lottotype","lottoswpt","lottocurrpshare","point_total","round","faceID","face"
"pavlovia","0","6","0.0-0.0","63ea63669423c84daf2c5dbd","bdp_rwlrn","Wed Mar 15 2023 19:29:21 GMT-0400 (Eastern Daylight Time)","768074","Trustworthy,Untrustworthy","","","","","","","","","","","","","","","","","","","","",""
"instructions","1","17544","0.0-1.0","63ea63669423c84daf2c5dbd","bdp_rwlrn","Wed Mar 15 2023 19:29:21 GMT-0400 (Eastern Daylight Time)","768074","Trustworthy,Untrustworthy","[{""page_index"":0,""viewing_time"":17536}]","17536","","","","","","","","","","","","","","","","","","",""
"","","","","63ea63669423c84daf2c5dbd","bdp_rwlrn","Wed Mar 15 2023 19:29:21 GMT-0400 (Eastern Daylight Time)","768074","Trustworthy,Untrustworthy","","","fullscreenenter","2","20922","fullscreenenter","","","","","","","","","","","","","","",""
"fullscreen","2","21907","0.0-2.0","63ea63669423c84daf2c5dbd","bdp_rwlrn","Wed Mar 15 2023 19:29:21 GMT-0400 (Eastern Daylight Time)","768074","Trustworthy,Untrustworthy","","","","","","","true","","","","","","","","","","","","","",""
"instructions","3","316690","0.0-4.0","63ea63669423c84daf2c5dbd","bdp_rwlrn","Wed Mar 15 2023 19:29:21 GMT-0400 (Eastern Daylight Time)","768074","Trustworthy,Untrustworthy","[{""page_index"":0,""viewing_time"":36571},{""page_index"":1,""viewing_time"":122190},{""page_index"":2,""viewing_time"":65229},{""page_index"":3,""viewing_time"":34894},{""page_index"":4,""viewing_time"":18415},{""page_index"":5,""viewing_time"":17479}]","294778","","","","","","","","","","","","","","","","","","",""
"html-keyboard-response","4","328023","0.0-5.0","63ea63669423c84daf2c5dbd","bdp_rwlrn","Wed Mar 15 2023 19:29:21 GMT-0400 (Eastern Daylight Time)","768074","Trustworthy,Untrustworthy","","11330","","","","","","<div class='header' style='text-align:left; position: absolute; top: 5%; left: 5%;'><small>Task 1 of 5</small></div><div class='instruxDiv'><p><strong>1) What is the maximum number of points you can choose to bet on a lottery?</strong></p><p>a) 0</p><p>b) 1</p><p>c) 5</p>","C","","","","","","","","","","","",""
"html-keyboard-response","5","332373","0.0-6.0","63ea63669423c84daf2c5dbd","bdp_rwlrn","Wed Mar 15 2023 19:29:21 GMT-0400 (Eastern Daylight Time)","768074","Trustworthy,Untrustworthy","","4235","","","","","","<div class='header' style='text-align:left; position: absolute; top: 5%; left: 5%;'><small>Task 1 of 5</small></div><div class='instruxDiv'><p><strong>1) What is the maximum number of points you can choose to bet on a lottery?</strong></p><p>a) 1</p><p>b) 1</p><p style='color:#00FF00'>c) 5</p><h3 style='color:#00FF00'>Correct!</h3><h3 class='center-content'>The correct response is c).</h3><h3 class='center-content'>The maximum number of points you can choose to bet on a lottery is 5 points.</h3><p><em>Press SPACEBAR to continue</em></p></div>"," ","","","","","","","","","","","",""
"html-keyboard-response","6","336733","0.0-7.0","63ea63669423c84daf2c5dbd","bdp_rwlrn","Wed Mar 15 2023 19:29:21 GMT-0400 (Eastern Daylight Time)","768074","Trustworthy,Untrustworthy","","4245","","","","","","<div class='header' style='text-align:left; position: absolute; top: 5%; left: 5%;'><small>Task 1 of 5</small></div><div class='instruxDiv'><p><strong>2) How many points can you win each round?</strong></p><p>a) 10 points</p><p>b) Double what you bet</p><p>c) Quadruple what you bet</p>","B","","","","","","","","","","","",""
"html-keyboard-response","7","337800","0.0-8.0","63ea63669423c84daf2c5dbd","bdp_rwlrn","Wed Mar 15 2023 19:29:21 GMT-0400 (Eastern Daylight Time)","768074","Trustworthy,Untrustworthy","","960","","","","","","<div class='header' style='text-align:left; position: absolute; top: 5%; left: 5%;'><small>Task 1 of 5</small></div><div class='instruxDiv'><p><strong>2) How many points can you win each round?</strong></p><p>a) 10 points</p><p style='color:#00FF00'>b) Double what you bet</p><p>c) Quadruple what you bet</p><h3 style='color:#00FF00'>Correct!</h3><h3 class='center-content'>The correct response is b).</h3><h3 class='center-content'>You can win double the amount of points you bet.</h3><p><em>Press SPACEBAR to continue</em></p></div>"," ","","","","","","","","","","","",""
"html-keyboard-response","8","342905","0.0-9.0","63ea63669423c84daf2c5dbd","bdp_rwlrn","Wed Mar 15 2023 19:29:21 GMT-0400 (Eastern Daylight Time)","768074","Trustworthy,Untrustworthy","","null","","","","","","<div class='header' style='text-align:left; position: absolute; top: 5%; left: 5%;'><small>Task 1 of 5</small></div><div class='instruxDiv'><p>Thank you for completing the quiz<p>These are the actual lotteries you will be playing in the next block:<p><div class='tc' align='center'><img class='introPic' src='Fruit/pineapple.png'><br><strong>Primo Pineapple</strong></div><div class='bl' align='center'><img class='introPic' src='Fruit/plums1.png'><br><strong>Plum Powerball</strong></div><div class='br' align='center'><img class='introPic' src='Fruit/papayas.png'><br><strong>Papaya Payday</strong></div></div><p>Across <strong>66 rounds</strong> you will play each lottery <strong>22 times</strong> (in random order).<p style='align:center; color:white'><font <em>Press SPACEBAR to continue</em></p>","null","","","","","","","","","","","",""
"instructions","9","395835","0.0-10.0","63ea63669423c84daf2c5dbd","bdp_rwlrn","Wed Mar 15 2023 19:29:21 GMT-0400 (Eastern Daylight Time)","768074","Trustworthy,Untrustworthy","[{""page_index"":0,""viewing_time"":47590},{""page_index"":1,""viewing_time"":5338}]","52929","","","","","","","","","","","","","","","","","","",""
"","","","","63ea63669423c84daf2c5dbd","bdp_rwlrn","Wed Mar 15 2023 19:29:21 GMT-0400 (Eastern Daylight Time)","768074","Trustworthy,Untrustworthy","","","blur","10","403538","blurevent","","","","1","","","","","","","","","","",""
"","","","","63ea63669423c84daf2c5dbd","bdp_rwlrn","Wed Mar 15 2023 19:29:21 GMT-0400 (Eastern Daylight Time)","768074","Trustworthy,Untrustworthy","","","focus","10","440679","focusevent","","","","","","","","","","","","","","",""
"html-keyboard-response","10","447012","0.0-11.0-1.0","63ea63669423c84daf2c5dbd","bdp_rwlrn","Wed Mar 15 2023 19:29:21 GMT-0400 (Eastern Daylight Time)","768074","Trustworthy,Untrustworthy","","51070","blur","10","403538","decision","","<div class='trialDiv'><img src='Fruit/plums1.png'><br><font class='baseline'><strong>Plum Powerball</strong><p>Choose number of points to bet.</font><div class='respPicDiv'><img src='img/responseButtonOffersNo0L.png' class='respPic'></div></div>","5","1","1","Plum Powerball","Fruit/plums1.png","Won","0.65,0.35","13","0.65","5","1","",""
"html-keyboard-response","11","447272","0.0-11.0-2.0","63ea63669423c84daf2c5dbd","bdp_rwlrn","Wed Mar 15 2023 19:29:21 GMT-0400 (Eastern Daylight Time)","768074","Trustworthy,Untrustworthy","","null","","","","decisionFB","","<div class='trialDiv'><img src='Fruit/plums1.png'><br><font class='baseline'><strong>Plum Powerball</strong><p>Choose number of points to bet.</font><div class='respPicDiv'><img src='img/responseButtonOffersNo0L5.png' class='respPic'></div></div>","null","","1","Plum Powerball","Fruit/plums1.png","Won","0.65,0.35","13","0.65","0","1","",""
"html-keyboard-response","12","448288","0.0-11.0-3.0","63ea63669423c84daf2c5dbd","bdp_rwlrn","Wed Mar 15 2023 19:29:21 GMT-0400 (Eastern Daylight Time)","768074","Trustworthy,Untrustworthy","","null","","","","feedback","","<div class='respPicDiv'><img src='img/responseButtonOffersNo0_wht.png' class='respPic'></div><div class='trialDiv'><img src='Fruit/plums1.png'><br><font class='baseline'><strong>Plum Powerball</strong><p><strong><font class='posOutcome'>You WON</font><p>You bet: 5</strong></font> &nbsp; &nbsp; &nbsp; &nbsp; &nbsp; &nbsp;<font class='posOutcome'>you receive: <strong>10</strong></font></div>","null","","1","Plum Powerball","Fruit/plums1.png","Won","0.65,0.35","13","0.65","10","1","",""
"image-keyboard-response","13","458743","0.0-11.0-0.1-0.1","63ea63669423c84daf2c5dbd","bdp_rwlrn","Wed Mar 15 2023 19:29:21 GMT-0400 (Eastern Daylight Time)","768074","Trustworthy,Untrustworthy","","10455","","","","blurwarn","","","49","1","","","","","","","","","","",""
"html-keyboard-response","14","462136","0.0-11.0-1.1","63ea63669423c84daf2c5dbd","bdp_rwlrn","Wed Mar 15 2023 19:29:21 GMT-0400 (Eastern Daylight Time)","768074","Trustworthy,Untrustworthy","","3138","","","","decision","","<div class='trialDiv'><img src='Fruit/papayas.png'><br><font class='baseline'><strong>Papaya Payday</strong><p>Choose number of points to bet.</font><div class='respPicDiv'><img src='img/responseButtonOffersNo0L.png' class='respPic'></div></div>","5","","1","Papaya Payday","Fruit/papayas.png","Lost","0.65,0.2","10","0.65","15","2","",""
"html-keyboard-response","15","462403","0.0-11.0-2.1","63ea63669423c84daf2c5dbd","bdp_rwlrn","Wed Mar 15 2023 19:29:21 GMT-0400 (Eastern Daylight Time)","768074","Trustworthy,Untrustworthy","","null","","","","decisionFB","","<div class='trialDiv'><img src='Fruit/papayas.png'><br><font class='baseline'><strong>Papaya Payday</strong><p>Choose number of points to bet.</font><div class='respPicDiv'><img src='img/responseButtonOffersNo0L5.png' class='respPic'></div></div>","null","","1","Papaya Payday","Fruit/papayas.png","Lost","0.65,0.2","10","0.65","10","2","",""
"html-keyboard-response","16","463421","0.0-11.0-3.1","63ea63669423c84daf2c5dbd","bdp_rwlrn","Wed Mar 15 2023 19:29:21 GMT-0400 (Eastern Daylight Time)","768074","Trustworthy,Untrustworthy","","null","","","","feedback","","<div class='respPicDiv'><img src='img/responseButtonOffersNo0_wht.png' class='respPic'></div><div class='trialDiv'><img src='Fruit/papayas.png'><br><font class='baseline'><strong>Papaya Payday</strong><p><strong><font class='negOutcome'>You LOST</font><p>You bet: 5</strong></font> &nbsp; &nbsp; &nbsp; &nbsp; &nbsp; &nbsp;<font class='negOutcome'>You receive: <strong>0</strong></font></div>","null","","1","Papaya Payday","Fruit/papayas.png","Lost","0.65,0.2","10","0.65","10","2","",""
"html-keyboard-response","17","467859","0.0-11.0-1.2","63ea63669423c84daf2c5dbd","bdp_rwlrn","Wed Mar 15 2023 19:29:21 GMT-0400 (Eastern Daylight Time)","768074","Trustworthy,Untrustworthy","","4436","","","","decision","","<div class='trialDiv'><img src='Fruit/pineapple.png'><br><font class='baseline'><strong>Primo Pineapple</strong><p>Choose number of points to bet.</font><div class='respPicDiv'><img src='img/responseButtonOffersNo0L.png' class='respPic'></div></div>","4","","1","Primo Pineapple","Fruit/pineapple.png","Won","0.35,0.8","11","0.35","15","3","",""
"html-keyboard-response","18","468127","0.0-11.0-2.2","63ea63669423c84daf2c5dbd","bdp_rwlrn","Wed Mar 15 2023 19:29:21 GMT-0400 (Eastern Daylight Time)","768074","Trustworthy,Untrustworthy","","null","","","","decisionFB","","<div class='trialDiv'><img src='Fruit/pineapple.png'><br><font class='baseline'><strong>Primo Pineapple</strong><p>Choose number of points to bet.</font><div class='respPicDiv'><img src='img/responseButtonOffersNo0L4.png' class='respPic'></div></div>","null","","1","Primo Pineapple","Fruit/pineapple.png","Won","0.35,0.8","11","0.35","11","3","",""
"html-keyboard-response","19","469143","0.0-11.0-3.2","63ea63669423c84daf2c5dbd","bdp_rwlrn","Wed Mar 15 2023 19:29:21 GMT-0400 (Eastern Daylight Time)","768074","Trustworthy,Untrustworthy","","null","","","","feedback","","<div class='respPicDiv'><img src='img/responseButtonOffersNo0_wht.png' class='respPic'></div><div class='trialDiv'><img src='Fruit/pineapple.png'><br><font class='baseline'><strong>Primo Pineapple</strong><p><strong><font class='posOutcome'>You WON</font><p>You bet: 4</strong></font> &nbsp; &nbsp; &nbsp; &nbsp; &nbsp; &nbsp;<font class='posOutcome'>you receive: <strong>8</strong></font></div>","null","","1","Primo Pineapple","Fruit/pineapple.png","Won","0.35,0.8","11","0.35","19","3","",""
"html-keyboard-response","20","470548","0.0-11.0-1.3","63ea63669423c84daf2c5dbd","bdp_rwlrn","Wed Mar 15 2023 19:29:21 GMT-0400 (Eastern Daylight Time)","768074","Trustworthy,Untrustworthy","","1403","","","","decision","","<div class='trialDiv'><img src='Fruit/plums1.png'><br><font class='baseline'><strong>Plum Powerball</strong><p>Choose number of points to bet.</font><div class='respPicDiv'><img src='img/responseButtonOffersNo0L.png' class='respPic'></div></div>","4","","2","Plum Powerball","Fruit/plums1.png","Lost","0.65,0.35","13","0.65","24","4","",""
"html-keyboard-response","21","470811","0.0-11.0-2.3","63ea63669423c84daf2c5dbd","bdp_rwlrn","Wed Mar 15 2023 19:29:21 GMT-0400 (Eastern Daylight Time)","768074","Trustworthy,Untrustworthy","","null","","","","decisionFB","","<div class='trialDiv'><img src='Fruit/plums1.png'><br><font class='baseline'><strong>Plum Powerball</strong><p>Choose number of points to bet.</font><div class='respPicDiv'><img src='img/responseButtonOffersNo0L4.png' class='respPic'></div></div>","null","","2","Plum Powerball","Fruit/plums1.png","Lost","0.65,0.35","13","0.65","20","4","",""
"html-keyboard-response","22","471824","0.0-11.0-3.3","63ea63669423c84daf2c5dbd","bdp_rwlrn","Wed Mar 15 2023 19:29:21 GMT-0400 (Eastern Daylight Time)","768074","Trustworthy,Untrustworthy","","null","","","","feedback","","<div class='respPicDiv'><img src='img/responseButtonOffersNo0_wht.png' class='respPic'></div><div class='trialDiv'><img src='Fruit/plums1.png'><br><font class='baseline'><strong>Plum Powerball</strong><p><strong><font class='negOutcome'>You LOST</font><p>You bet: 4</strong></font> &nbsp; &nbsp; &nbsp; &nbsp; &nbsp; &nbsp;<font class='negOutcome'>You receive: <strong>0</strong></font></div>","null","","2","Plum Powerball","Fruit/plums1.png","Lost","0.65,0.35","13","0.65","20","4","",""
"html-keyboard-response","23","473430","0.0-11.0-1.4","63ea63669423c84daf2c5dbd","bdp_rwlrn","Wed Mar 15 2023 19:29:21 GMT-0400 (Eastern Daylight Time)","768074","Trustworthy,Untrustworthy","","1604","","","","decision","","<div class='trialDiv'><img src='Fruit/pineapple.png'><br><font class='baseline'><strong>Primo Pineapple</strong><p>Choose number of points to bet.</font><div class='respPicDiv'><img src='img/responseButtonOffersNo0L.png' class='respPic'></div></div>","5","","2","Primo Pineapple","Fruit/pineapple.png","Lost","0.35,0.8","11","0.35","25","5","",""
"html-keyboard-response","24","473682","0.0-11.0-2.4","63ea63669423c84daf2c5dbd","bdp_rwlrn","Wed Mar 15 2023 19:29:21 GMT-0400 (Eastern Daylight Time)","768074","Trustworthy,Untrustworthy","","null","","","","decisionFB","","<div class='trialDiv'><img src='Fruit/pineapple.png'><br><font class='baseline'><strong>Primo Pineapple</strong><p>Choose number of points to bet.</font><div class='respPicDiv'><img src='img/responseButtonOffersNo0L5.png' class='respPic'></div></div>","null","","2","Primo Pineapple","Fruit/pineapple.png","Lost","0.35,0.8","11","0.35","20","5","",""
"html-keyboard-response","25","474696","0.0-11.0-3.4","63ea63669423c84daf2c5dbd","bdp_rwlrn","Wed Mar 15 2023 19:29:21 GMT-0400 (Eastern Daylight Time)","768074","Trustworthy,Untrustworthy","","null","","","","feedback","","<div class='respPicDiv'><img src='img/responseButtonOffersNo0_wht.png' class='respPic'></div><div class='trialDiv'><img src='Fruit/pineapple.png'><br><font class='baseline'><strong>Primo Pineapple</strong><p><strong><font class='negOutcome'>You LOST</font><p>You bet: 5</strong></font> &nbsp; &nbsp; &nbsp; &nbsp; &nbsp; &nbsp;<font class='negOutcome'>You receive: <strong>0</strong></font></div>","null","","2","Primo Pineapple","Fruit/pineapple.png","Lost","0.35,0.8","11","0.35","20","5","",""
"html-keyboard-response","26","475722","0.0-11.0-1.5","63ea63669423c84daf2c5dbd","bdp_rwlrn","Wed Mar 15 2023 19:29:21 GMT-0400 (Eastern Daylight Time)","768074","Trustworthy,Untrustworthy","","1025","","","","decision","","<div class='trialDiv'><img src='Fruit/papayas.png'><br><font class='baseline'><strong>Papaya Payday</strong><p>Choose number of points to bet.</font><div class='respPicDiv'><img src='img/responseButtonOffersNo0L.png' class='respPic'></div></div>","3","","2","Papaya Payday","Fruit/papayas.png","Lost","0.65,0.2","10","0.65","25","6","",""
"html-keyboard-response","27","475991","0.0-11.0-2.5","63ea63669423c84daf2c5dbd","bdp_rwlrn","Wed Mar 15 2023 19:29:21 GMT-0400 (Eastern Daylight Time)","768074","Trustworthy,Untrustworthy","","null","","","","decisionFB","","<div class='trialDiv'><img src='Fruit/papayas.png'><br><font class='baseline'><strong>Papaya Payday</strong><p>Choose number of points to bet.</font><div class='respPicDiv'><img src='img/responseButtonOffersNo0L3.png' class='respPic'></div></div>","null","","2","Papaya Payday","Fruit/papayas.png","Lost","0.65,0.2","10","0.65","22","6","",""
"html-keyboard-response","28","476996","0.0-11.0-3.5","63ea63669423c84daf2c5dbd","bdp_rwlrn","Wed Mar 15 2023 19:29:21 GMT-0400 (Eastern Daylight Time)","768074","Trustworthy,Untrustworthy","","null","","","","feedback","","<div class='respPicDiv'><img src='img/responseButtonOffersNo0_wht.png' class='respPic'></div><div class='trialDiv'><img src='Fruit/papayas.png'><br><font class='baseline'><strong>Papaya Payday</strong><p><strong><font class='negOutcome'>You LOST</font><p>You bet: 3</strong></font> &nbsp; &nbsp; &nbsp; &nbsp; &nbsp; &nbsp;<font class='negOutcome'>You receive: <strong>0</strong></font></div>","null","","2","Papaya Payday","Fruit/papayas.png","Lost","0.65,0.2","10","0.65","22","6","",""
"html-keyboard-response","29","478327","0.0-11.0-1.6","63ea63669423c84daf2c5dbd","bdp_rwlrn","Wed Mar 15 2023 19:29:21 GMT-0400 (Eastern Daylight Time)","768074","Trustworthy,Untrustworthy","","1330","","","","decision","","<div class='trialDiv'><img src='Fruit/pineapple.png'><br><font class='baseline'><strong>Primo Pineapple</strong><p>Choose number of points to bet.</font><div class='respPicDiv'><img src='img/responseButtonOffersNo0L.png' class='respPic'></div></div>","5","","3","Primo Pineapple","Fruit/pineapple.png","Lost","0.35,0.8","11","0.35","27","7","",""
"html-keyboard-response","30","478587","0.0-11.0-2.6","63ea63669423c84daf2c5dbd","bdp_rwlrn","Wed Mar 15 2023 19:29:21 GMT-0400 (Eastern Daylight Time)","768074","Trustworthy,Untrustworthy","","null","","","","decisionFB","","<div class='trialDiv'><img src='Fruit/pineapple.png'><br><font class='baseline'><strong>Primo Pineapple</strong><p>Choose number of points to bet.</font><div class='respPicDiv'><img src='img/responseButtonOffersNo0L5.png' class='respPic'></div></div>","null","","3","Primo Pineapple","Fruit/pineapple.png","Lost","0.35,0.8","11","0.35","22","7","",""
"html-keyboard-response","31","479604","0.0-11.0-3.6","63ea63669423c84daf2c5dbd","bdp_rwlrn","Wed Mar 15 2023 19:29:21 GMT-0400 (Eastern Daylight Time)","768074","Trustworthy,Untrustworthy","","null","","","","feedback","","<div class='respPicDiv'><img src='img/responseButtonOffersNo0_wht.png' class='respPic'></div><div class='trialDiv'><img src='Fruit/pineapple.png'><br><font class='baseline'><strong>Primo Pineapple</strong><p><strong><font class='negOutcome'>You LOST</font><p>You bet: 5</strong></font> &nbsp; &nbsp; &nbsp; &nbsp; &nbsp; &nbsp;<font class='negOutcome'>You receive: <strong>0</strong></font></div>","null","","3","Primo Pineapple","Fruit/pineapple.png","Lost","0.35,0.8","11","0.35","22","7","",""
"html-keyboard-response","32","481539","0.0-11.0-1.7","63ea63669423c84daf2c5dbd","bdp_rwlrn","Wed Mar 15 2023 19:29:21 GMT-0400 (Eastern Daylight Time)","768074","Trustworthy,Untrustworthy","","1927","","","","decision","","<div class='trialDiv'><img src='Fruit/plums1.png'><br><font class='baseline'><strong>Plum Powerball</strong><p>Choose number of points to bet.</font><div class='respPicDiv'><img src='img/responseButtonOffersNo0L.png' class='respPic'></div></div>","4","","3","Plum Powerball","Fruit/plums1.png","Won","0.65,0.35","13","0.65","27","8","",""
"html-keyboard-response","33","481806","0.0-11.0-2.7","63ea63669423c84daf2c5dbd","bdp_rwlrn","Wed Mar 15 2023 19:29:21 GMT-0400 (Eastern Daylight Time)","768074","Trustworthy,Untrustworthy","","null","","","","decisionFB","","<div class='trialDiv'><img src='Fruit/plums1.png'><br><font class='baseline'><strong>Plum Powerball</strong><p>Choose number of points to bet.</font><div class='respPicDiv'><img src='img/responseButtonOffersNo0L4.png' class='respPic'></div></div>","null","","3","Plum Powerball","Fruit/plums1.png","Won","0.65,0.35","13","0.65","23","8","",""
"html-keyboard-response","34","482810","0.0-11.0-3.7","63ea63669423c84daf2c5dbd","bdp_rwlrn","Wed Mar 15 2023 19:29:21 GMT-0400 (Eastern Daylight Time)","768074","Trustworthy,Untrustworthy","","null","","","","feedback","","<div class='respPicDiv'><img src='img/responseButtonOffersNo0_wht.png' class='respPic'></div><div class='trialDiv'><img src='Fruit/plums1.png'><br><font class='baseline'><strong>Plum Powerball</strong><p><strong><font class='posOutcome'>You WON</font><p>You bet: 4</strong></font> &nbsp; &nbsp; &nbsp; &nbsp; &nbsp; &nbsp;<font class='posOutcome'>you receive: <strong>8</strong></font></div>","null","","3","Plum Powerball","Fruit/plums1.png","Won","0.65,0.35","13","0.65","31","8","",""
"html-keyboard-response","35","484508","0.0-11.0-1.8","63ea63669423c84daf2c5dbd","bdp_rwlrn","Wed Mar 15 2023 19:29:21 GMT-0400 (Eastern Daylight Time)","768074","Trustworthy,Untrustworthy","","1697","","","","decision","","<div class='trialDiv'><img src='Fruit/papayas.png'><br><font class='baseline'><strong>Papaya Payday</strong><p>Choose number of points to bet.</font><div class='respPicDiv'><img src='img/responseButtonOffersNo0L.png' class='respPic'></div></div>","1","","3","Papaya Payday","Fruit/papayas.png","Lost","0.65,0.2","10","0.65","36","9","",""
"html-keyboard-response","36","484774","0.0-11.0-2.8","63ea63669423c84daf2c5dbd","bdp_rwlrn","Wed Mar 15 2023 19:29:21 GMT-0400 (Eastern Daylight Time)","768074","Trustworthy,Untrustworthy","","null","","","","decisionFB","","<div class='trialDiv'><img src='Fruit/papayas.png'><br><font class='baseline'><strong>Papaya Payday</strong><p>Choose number of points to bet.</font><div class='respPicDiv'><img src='img/responseButtonOffersNo0L1.png' class='respPic'></div></div>","null","","3","Papaya Payday","Fruit/papayas.png","Lost","0.65,0.2","10","0.65","35","9","",""
"html-keyboard-response","37","485787","0.0-11.0-3.8","63ea63669423c84daf2c5dbd","bdp_rwlrn","Wed Mar 15 2023 19:29:21 GMT-0400 (Eastern Daylight Time)","768074","Trustworthy,Untrustworthy","","null","","","","feedback","","<div class='respPicDiv'><img src='img/responseButtonOffersNo0_wht.png' class='respPic'></div><div class='trialDiv'><img src='Fruit/papayas.png'><br><font class='baseline'><strong>Papaya Payday</strong><p><strong><font class='negOutcome'>You LOST</font><p>You bet: 1</strong></font> &nbsp; &nbsp; &nbsp; &nbsp; &nbsp; &nbsp;<font class='negOutcome'>You receive: <strong>0</strong></font></div>","null","","3","Papaya Payday","Fruit/papayas.png","Lost","0.65,0.2","10","0.65","35","9","",""
"html-keyboard-response","38","486566","0.0-11.0-1.9","63ea63669423c84daf2c5dbd","bdp_rwlrn","Wed Mar 15 2023 19:29:21 GMT-0400 (Eastern Daylight Time)","768074","Trustworthy,Untrustworthy","","777","","","","decision","","<div class='trialDiv'><img src='Fruit/plums1.png'><br><font class='baseline'><strong>Plum Powerball</strong><p>Choose number of points to bet.</font><div class='respPicDiv'><img src='img/responseButtonOffersNo0L.png' class='respPic'></div></div>","2","","4","Plum Powerball","Fruit/plums1.png","Won","0.65,0.35","13","0.65","40","10","",""
"html-keyboard-response","39","486832","0.0-11.0-2.9","63ea63669423c84daf2c5dbd","bdp_rwlrn","Wed Mar 15 2023 19:29:21 GMT-0400 (Eastern Daylight Time)","768074","Trustworthy,Untrustworthy","","null","","","","decisionFB","","<div class='trialDiv'><img src='Fruit/plums1.png'><br><font class='baseline'><strong>Plum Powerball</strong><p>Choose number of points to bet.</font><div class='respPicDiv'><img src='img/responseButtonOffersNo0L2.png' class='respPic'></div></div>","null","","4","Plum Powerball","Fruit/plums1.png","Won","0.65,0.35","13","0.65","38","10","",""
"html-keyboard-response","40","487845","0.0-11.0-3.9","63ea63669423c84daf2c5dbd","bdp_rwlrn","Wed Mar 15 2023 19:29:21 GMT-0400 (Eastern Daylight Time)","768074","Trustworthy,Untrustworthy","","null","","","","feedback","","<div class='respPicDiv'><img src='img/responseButtonOffersNo0_wht.png' class='respPic'></div><div class='trialDiv'><img src='Fruit/plums1.png'><br><font class='baseline'><strong>Plum Powerball</strong><p><strong><font class='posOutcome'>You WON</font><p>You bet: 2</strong></font> &nbsp; &nbsp; &nbsp; &nbsp; &nbsp; &nbsp;<font class='posOutcome'>you receive: <strong>4</strong></font></div>","null","","4","Plum Powerball","Fruit/plums1.png","Won","0.65,0.35","13","0.65","42","10","",""
"html-keyboard-response","41","488708","0.0-11.0-1.10","63ea63669423c84daf2c5dbd","bdp_rwlrn","Wed Mar 15 2023 19:29:21 GMT-0400 (Eastern Daylight Time)","768074","Trustworthy,Untrustworthy","","861","","","","decision","","<div class='trialDiv'><img src='Fruit/papayas.png'><br><font class='baseline'><strong>Papaya Payday</strong><p>Choose number of points to bet.</font><div class='respPicDiv'><img src='img/responseButtonOffersNo0L.png' class='respPic'></div></div>","3","","4","Papaya Payday","Fruit/papayas.png","Won","0.65,0.2","10","0.65","47","11","",""
"html-keyboard-response","42","488970","0.0-11.0-2.10","63ea63669423c84daf2c5dbd","bdp_rwlrn","Wed Mar 15 2023 19:29:21 GMT-0400 (Eastern Daylight Time)","768074","Trustworthy,Untrustworthy","","null","","","","decisionFB","","<div class='trialDiv'><img src='Fruit/papayas.png'><br><font class='baseline'><strong>Papaya Payday</strong><p>Choose number of points to bet.</font><div class='respPicDiv'><img src='img/responseButtonOffersNo0L3.png' class='respPic'></div></div>","null","","4","Papaya Payday","Fruit/papayas.png","Won","0.65,0.2","10","0.65","44","11","",""
"html-keyboard-response","43","489986","0.0-11.0-3.10","63ea63669423c84daf2c5dbd","bdp_rwlrn","Wed Mar 15 2023 19:29:21 GMT-0400 (Eastern Daylight Time)","768074","Trustworthy,Untrustworthy","","null","","","","feedback","","<div class='respPicDiv'><img src='img/responseButtonOffersNo0_wht.png' class='respPic'></div><div class='trialDiv'><img src='Fruit/papayas.png'><br><font class='baseline'><strong>Papaya Payday</strong><p><strong><font class='posOutcome'>You WON</font><p>You bet: 3</strong></font> &nbsp; &nbsp; &nbsp; &nbsp; &nbsp; &nbsp;<font class='posOutcome'>you receive: <strong>6</strong></font></div>","null","","4","Papaya Payday","Fruit/papayas.png","Won","0.65,0.2","10","0.65","50","11","",""
"html-keyboard-response","44","491736","0.0-11.0-1.11","63ea63669423c84daf2c5dbd","bdp_rwlrn","Wed Mar 15 2023 19:29:21 GMT-0400 (Eastern Daylight Time)","768074","Trustworthy,Untrustworthy","","1749","","","","decision","","<div class='trialDiv'><img src='Fruit/pineapple.png'><br><font class='baseline'><strong>Primo Pineapple</strong><p>Choose number of points to bet.</font><div class='respPicDiv'><img src='img/responseButtonOffersNo0L.png' class='respPic'></div></div>","4","","4","Primo Pineapple","Fruit/pineapple.png","Lost","0.35,0.8","11","0.35","55","12","",""
"html-keyboard-response","45","491988","0.0-11.0-2.11","63ea63669423c84daf2c5dbd","bdp_rwlrn","Wed Mar 15 2023 19:29:21 GMT-0400 (Eastern Daylight Time)","768074","Trustworthy,Untrustworthy","","null","","","","decisionFB","","<div class='trialDiv'><img src='Fruit/pineapple.png'><br><font class='baseline'><strong>Primo Pineapple</strong><p>Choose number of points to bet.</font><div class='respPicDiv'><img src='img/responseButtonOffersNo0L4.png' class='respPic'></div></div>","null","","4","Primo Pineapple","Fruit/pineapple.png","Lost","0.35,0.8","11","0.35","51","12","",""
"html-keyboard-response","46","493000","0.0-11.0-3.11","63ea63669423c84daf2c5dbd","bdp_rwlrn","Wed Mar 15 2023 19:29:21 GMT-0400 (Eastern Daylight Time)","768074","Trustworthy,Untrustworthy","","null","","","","feedback","","<div class='respPicDiv'><img src='img/responseButtonOffersNo0_wht.png' class='respPic'></div><div class='trialDiv'><img src='Fruit/pineapple.png'><br><font class='baseline'><strong>Primo Pineapple</strong><p><strong><font class='negOutcome'>You LOST</font><p>You bet: 4</strong></font> &nbsp; &nbsp; &nbsp; &nbsp; &nbsp; &nbsp;<font class='negOutcome'>You receive: <strong>0</strong></font></div>","null","","4","Primo Pineapple","Fruit/pineapple.png","Lost","0.35,0.8","11","0.35","51","12","",""
"html-keyboard-response","47","494390","0.0-11.0-1.12","63ea63669423c84daf2c5dbd","bdp_rwlrn","Wed Mar 15 2023 19:29:21 GMT-0400 (Eastern Daylight Time)","768074","Trustworthy,Untrustworthy","","1388","","","","decision","","<div class='trialDiv'><img src='Fruit/plums1.png'><br><font class='baseline'><strong>Plum Powerball</strong><p>Choose number of points to bet.</font><div class='respPicDiv'><img src='img/responseButtonOffersNo0L.png' class='respPic'></div></div>","5","","5","Plum Powerball","Fruit/plums1.png","Lost","0.65,0.35","13","0.65","56","13","",""
"html-keyboard-response","48","494642","0.0-11.0-2.12","63ea63669423c84daf2c5dbd","bdp_rwlrn","Wed Mar 15 2023 19:29:21 GMT-0400 (Eastern Daylight Time)","768074","Trustworthy,Untrustworthy","","null","","","","decisionFB","","<div class='trialDiv'><img src='Fruit/plums1.png'><br><font class='baseline'><strong>Plum Powerball</strong><p>Choose number of points to bet.</font><div class='respPicDiv'><img src='img/responseButtonOffersNo0L5.png' class='respPic'></div></div>","null","","5","Plum Powerball","Fruit/plums1.png","Lost","0.65,0.35","13","0.65","51","13","",""
"html-keyboard-response","49","495666","0.0-11.0-3.12","63ea63669423c84daf2c5dbd","bdp_rwlrn","Wed Mar 15 2023 19:29:21 GMT-0400 (Eastern Daylight Time)","768074","Trustworthy,Untrustworthy","","null","","","","feedback","","<div class='respPicDiv'><img src='img/responseButtonOffersNo0_wht.png' class='respPic'></div><div class='trialDiv'><img src='Fruit/plums1.png'><br><font class='baseline'><strong>Plum Powerball</strong><p><strong><font class='negOutcome'>You LOST</font><p>You bet: 5</strong></font> &nbsp; &nbsp; &nbsp; &nbsp; &nbsp; &nbsp;<font class='negOutcome'>You receive: <strong>0</strong></font></div>","null","","5","Plum Powerball","Fruit/plums1.png","Lost","0.65,0.35","13","0.65","51","13","",""
"html-keyboard-response","50","496635","0.0-11.0-1.13","63ea63669423c84daf2c5dbd","bdp_rwlrn","Wed Mar 15 2023 19:29:21 GMT-0400 (Eastern Daylight Time)","768074","Trustworthy,Untrustworthy","","968","","","","decision","","<div class='trialDiv'><img src='Fruit/papayas.png'><br><font class='baseline'><strong>Papaya Payday</strong><p>Choose number of points to bet.</font><div class='respPicDiv'><img src='img/responseButtonOffersNo0L.png' class='respPic'></div></div>","3","","5","Papaya Payday","Fruit/papayas.png","Lost","0.65,0.2","10","0.65","56","14","",""
"html-keyboard-response","51","496888","0.0-11.0-2.13","63ea63669423c84daf2c5dbd","bdp_rwlrn","Wed Mar 15 2023 19:29:21 GMT-0400 (Eastern Daylight Time)","768074","Trustworthy,Untrustworthy","","null","","","","decisionFB","","<div class='trialDiv'><img src='Fruit/papayas.png'><br><font class='baseline'><strong>Papaya Payday</strong><p>Choose number of points to bet.</font><div class='respPicDiv'><img src='img/responseButtonOffersNo0L3.png' class='respPic'></div></div>","null","","5","Papaya Payday","Fruit/papayas.png","Lost","0.65,0.2","10","0.65","53","14","",""
"html-keyboard-response","52","497904","0.0-11.0-3.13","63ea63669423c84daf2c5dbd","bdp_rwlrn","Wed Mar 15 2023 19:29:21 GMT-0400 (Eastern Daylight Time)","768074","Trustworthy,Untrustworthy","","null","","","","feedback","","<div class='respPicDiv'><img src='img/responseButtonOffersNo0_wht.png' class='respPic'></div><div class='trialDiv'><img src='Fruit/papayas.png'><br><font class='baseline'><strong>Papaya Payday</strong><p><strong><font class='negOutcome'>You LOST</font><p>You bet: 3</strong></font> &nbsp; &nbsp; &nbsp; &nbsp; &nbsp; &nbsp;<font class='negOutcome'>You receive: <strong>0</strong></font></div>","null","","5","Papaya Payday","Fruit/papayas.png","Lost","0.65,0.2","10","0.65","53","14","",""
"html-keyboard-response","53","520859","0.0-11.0-1.14","63ea63669423c84daf2c5dbd","bdp_rwlrn","Wed Mar 15 2023 19:29:21 GMT-0400 (Eastern Daylight Time)","768074","Trustworthy,Untrustworthy","","22954","","","","decision","","<div class='trialDiv'><img src='Fruit/pineapple.png'><br><font class='baseline'><strong>Primo Pineapple</strong><p>Choose number of points to bet.</font><div class='respPicDiv'><img src='img/responseButtonOffersNo0L.png' class='respPic'></div></div>","4","","5","Primo Pineapple","Fruit/pineapple.png","Won","0.35,0.8","11","0.35","58","15","",""
"html-keyboard-response","54","521112","0.0-11.0-2.14","63ea63669423c84daf2c5dbd","bdp_rwlrn","Wed Mar 15 2023 19:29:21 GMT-0400 (Eastern Daylight Time)","768074","Trustworthy,Untrustworthy","","null","","","","decisionFB","","<div class='trialDiv'><img src='Fruit/pineapple.png'><br><font class='baseline'><strong>Primo Pineapple</strong><p>Choose number of points to bet.</font><div class='respPicDiv'><img src='img/responseButtonOffersNo0L4.png' class='respPic'></div></div>","null","","5","Primo Pineapple","Fruit/pineapple.png","Won","0.35,0.8","11","0.35","54","15","",""
"html-keyboard-response","55","522145","0.0-11.0-3.14","63ea63669423c84daf2c5dbd","bdp_rwlrn","Wed Mar 15 2023 19:29:21 GMT-0400 (Eastern Daylight Time)","768074","Trustworthy,Untrustworthy","","null","","","","feedback","","<div class='respPicDiv'><img src='img/responseButtonOffersNo0_wht.png' class='respPic'></div><div class='trialDiv'><img src='Fruit/pineapple.png'><br><font class='baseline'><strong>Primo Pineapple</strong><p><strong><font class='posOutcome'>You WON</font><p>You bet: 4</strong></font> &nbsp; &nbsp; &nbsp; &nbsp; &nbsp; &nbsp;<font class='posOutcome'>you receive: <strong>8</strong></font></div>","null","","5","Primo Pineapple","Fruit/pineapple.png","Won","0.35,0.8","11","0.35","62","15","",""
"html-keyboard-response","56","524390","0.0-11.0-1.15","63ea63669423c84daf2c5dbd","bdp_rwlrn","Wed Mar 15 2023 19:29:21 GMT-0400 (Eastern Daylight Time)","768074","Trustworthy,Untrustworthy","","2242","","","","decision","","<div class='trialDiv'><img src='Fruit/plums1.png'><br><font class='baseline'><strong>Plum Powerball</strong><p>Choose number of points to bet.</font><div class='respPicDiv'><img src='img/responseButtonOffersNo0L.png' class='respPic'></div></div>","5","","6","Plum Powerball","Fruit/plums1.png","Won","0.65,0.35","13","0.65","67","16","",""
"html-keyboard-response","57","524672","0.0-11.0-2.15","63ea63669423c84daf2c5dbd","bdp_rwlrn","Wed Mar 15 2023 19:29:21 GMT-0400 (Eastern Daylight Time)","768074","Trustworthy,Untrustworthy","","null","","","","decisionFB","","<div class='trialDiv'><img src='Fruit/plums1.png'><br><font class='baseline'><strong>Plum Powerball</strong><p>Choose number of points to bet.</font><div class='respPicDiv'><img src='img/responseButtonOffersNo0L5.png' class='respPic'></div></div>","null","","6","Plum Powerball","Fruit/plums1.png","Won","0.65,0.35","13","0.65","62","16","",""
"html-keyboard-response","58","525692","0.0-11.0-3.15","63ea63669423c84daf2c5dbd","bdp_rwlrn","Wed Mar 15 2023 19:29:21 GMT-0400 (Eastern Daylight Time)","768074","Trustworthy,Untrustworthy","","null","","","","feedback","","<div class='respPicDiv'><img src='img/responseButtonOffersNo0_wht.png' class='respPic'></div><div class='trialDiv'><img src='Fruit/plums1.png'><br><font class='baseline'><strong>Plum Powerball</strong><p><strong><font class='posOutcome'>You WON</font><p>You bet: 5</strong></font> &nbsp; &nbsp; &nbsp; &nbsp; &nbsp; &nbsp;<font class='posOutcome'>you receive: <strong>10</strong></font></div>","null","","6","Plum Powerball","Fruit/plums1.png","Won","0.65,0.35","13","0.65","72","16","",""
"html-keyboard-response","59","526961","0.0-11.0-1.16","63ea63669423c84daf2c5dbd","bdp_rwlrn","Wed Mar 15 2023 19:29:21 GMT-0400 (Eastern Daylight Time)","768074","Trustworthy,Untrustworthy","","1266","","","","decision","","<div class='trialDiv'><img src='Fruit/papayas.png'><br><font class='baseline'><strong>Papaya Payday</strong><p>Choose number of points to bet.</font><div class='respPicDiv'><img src='img/responseButtonOffersNo0L.png' class='respPic'></div></div>","2","","6","Papaya Payday","Fruit/papayas.png","Lost","0.65,0.2","10","0.65","77","17","",""
"html-keyboard-response","60","527227","0.0-11.0-2.16","63ea63669423c84daf2c5dbd","bdp_rwlrn","Wed Mar 15 2023 19:29:21 GMT-0400 (Eastern Daylight Time)","768074","Trustworthy,Untrustworthy","","null","","","","decisionFB","","<div class='trialDiv'><img src='Fruit/papayas.png'><br><font class='baseline'><strong>Papaya Payday</strong><p>Choose number of points to bet.</font><div class='respPicDiv'><img src='img/responseButtonOffersNo0L2.png' class='respPic'></div></div>","null","","6","Papaya Payday","Fruit/papayas.png","Lost","0.65,0.2","10","0.65","75","17","",""
"html-keyboard-response","61","528242","0.0-11.0-3.16","63ea63669423c84daf2c5dbd","bdp_rwlrn","Wed Mar 15 2023 19:29:21 GMT-0400 (Eastern Daylight Time)","768074","Trustworthy,Untrustworthy","","null","","","","feedback","","<div class='respPicDiv'><img src='img/responseButtonOffersNo0_wht.png' class='respPic'></div><div class='trialDiv'><img src='Fruit/papayas.png'><br><font class='baseline'><strong>Papaya Payday</strong><p><strong><font class='negOutcome'>You LOST</font><p>You bet: 2</strong></font> &nbsp; &nbsp; &nbsp; &nbsp; &nbsp; &nbsp;<font class='negOutcome'>You receive: <strong>0</strong></font></div>","null","","6","Papaya Payday","Fruit/papayas.png","Lost","0.65,0.2","10","0.65","75","17","",""
"html-keyboard-response","62","528715","0.0-11.0-1.17","63ea63669423c84daf2c5dbd","bdp_rwlrn","Wed Mar 15 2023 19:29:21 GMT-0400 (Eastern Daylight Time)","768074","Trustworthy,Untrustworthy","","473","","","","decision","","<div class='trialDiv'><img src='Fruit/pineapple.png'><br><font class='baseline'><strong>Primo Pineapple</strong><p>Choose number of points to bet.</font><div class='respPicDiv'><img src='img/responseButtonOffersNo0L.png' class='respPic'></div></div>","3","","6","Primo Pineapple","Fruit/pineapple.png","Lost","0.35,0.8","11","0.35","80","18","",""
"html-keyboard-response","63","528979","0.0-11.0-2.17","63ea63669423c84daf2c5dbd","bdp_rwlrn","Wed Mar 15 2023 19:29:21 GMT-0400 (Eastern Daylight Time)","768074","Trustworthy,Untrustworthy","","null","","","","decisionFB","","<div class='trialDiv'><img src='Fruit/pineapple.png'><br><font class='baseline'><strong>Primo Pineapple</strong><p>Choose number of points to bet.</font><div class='respPicDiv'><img src='img/responseButtonOffersNo0L3.png' class='respPic'></div></div>","null","","6","Primo Pineapple","Fruit/pineapple.png","Lost","0.35,0.8","11","0.35","77","18","",""
"html-keyboard-response","64","529989","0.0-11.0-3.17","63ea63669423c84daf2c5dbd","bdp_rwlrn","Wed Mar 15 2023 19:29:21 GMT-0400 (Eastern Daylight Time)","768074","Trustworthy,Untrustworthy","","null","","","","feedback","","<div class='respPicDiv'><img src='img/responseButtonOffersNo0_wht.png' class='respPic'></div><div class='trialDiv'><img src='Fruit/pineapple.png'><br><font class='baseline'><strong>Primo Pineapple</strong><p><strong><font class='negOutcome'>You LOST</font><p>You bet: 3</strong></font> &nbsp; &nbsp; &nbsp; &nbsp; &nbsp; &nbsp;<font class='negOutcome'>You receive: <strong>0</strong></font></div>","null","","6","Primo Pineapple","Fruit/pineapple.png","Lost","0.35,0.8","11","0.35","77","18","",""
"html-keyboard-response","65","531673","0.0-11.0-1.18","63ea63669423c84daf2c5dbd","bdp_rwlrn","Wed Mar 15 2023 19:29:21 GMT-0400 (Eastern Daylight Time)","768074","Trustworthy,Untrustworthy","","1683","","","","decision","","<div class='trialDiv'><img src='Fruit/papayas.png'><br><font class='baseline'><strong>Papaya Payday</strong><p>Choose number of points to bet.</font><div class='respPicDiv'><img src='img/responseButtonOffersNo0L.png' class='respPic'></div></div>","4","","7","Papaya Payday","Fruit/papayas.png","Won","0.65,0.2","10","0.65","82","19","",""
"html-keyboard-response","66","531939","0.0-11.0-2.18","63ea63669423c84daf2c5dbd","bdp_rwlrn","Wed Mar 15 2023 19:29:21 GMT-0400 (Eastern Daylight Time)","768074","Trustworthy,Untrustworthy","","null","","","","decisionFB","","<div class='trialDiv'><img src='Fruit/papayas.png'><br><font class='baseline'><strong>Papaya Payday</strong><p>Choose number of points to bet.</font><div class='respPicDiv'><img src='img/responseButtonOffersNo0L4.png' class='respPic'></div></div>","null","","7","Papaya Payday","Fruit/papayas.png","Won","0.65,0.2","10","0.65","78","19","",""
"html-keyboard-response","67","532957","0.0-11.0-3.18","63ea63669423c84daf2c5dbd","bdp_rwlrn","Wed Mar 15 2023 19:29:21 GMT-0400 (Eastern Daylight Time)","768074","Trustworthy,Untrustworthy","","null","","","","feedback","","<div class='respPicDiv'><img src='img/responseButtonOffersNo0_wht.png' class='respPic'></div><div class='trialDiv'><img src='Fruit/papayas.png'><br><font class='baseline'><strong>Papaya Payday</strong><p><strong><font class='posOutcome'>You WON</font><p>You bet: 4</strong></font> &nbsp; &nbsp; &nbsp; &nbsp; &nbsp; &nbsp;<font class='posOutcome'>you receive: <strong>8</strong></font></div>","null","","7","Papaya Payday","Fruit/papayas.png","Won","0.65,0.2","10","0.65","86","19","",""
"html-keyboard-response","68","534287","0.0-11.0-1.19","63ea63669423c84daf2c5dbd","bdp_rwlrn","Wed Mar 15 2023 19:29:21 GMT-0400 (Eastern Daylight Time)","768074","Trustworthy,Untrustworthy","","1325","","","","decision","","<div class='trialDiv'><img src='Fruit/plums1.png'><br><font class='baseline'><strong>Plum Powerball</strong><p>Choose number of points to bet.</font><div class='respPicDiv'><img src='img/responseButtonOffersNo0L.png' class='respPic'></div></div>","4","","7","Plum Powerball","Fruit/plums1.png","Won","0.65,0.35","13","0.65","91","20","",""
"html-keyboard-response","69","534550","0.0-11.0-2.19","63ea63669423c84daf2c5dbd","bdp_rwlrn","Wed Mar 15 2023 19:29:21 GMT-0400 (Eastern Daylight Time)","768074","Trustworthy,Untrustworthy","","null","","","","decisionFB","","<div class='trialDiv'><img src='Fruit/plums1.png'><br><font class='baseline'><strong>Plum Powerball</strong><p>Choose number of points to bet.</font><div class='respPicDiv'><img src='img/responseButtonOffersNo0L4.png' class='respPic'></div></div>","null","","7","Plum Powerball","Fruit/plums1.png","Won","0.65,0.35","13","0.65","87","20","",""
"html-keyboard-response","70","535563","0.0-11.0-3.19","63ea63669423c84daf2c5dbd","bdp_rwlrn","Wed Mar 15 2023 19:29:21 GMT-0400 (Eastern Daylight Time)","768074","Trustworthy,Untrustworthy","","null","","","","feedback","","<div class='respPicDiv'><img src='img/responseButtonOffersNo0_wht.png' class='respPic'></div><div class='trialDiv'><img src='Fruit/plums1.png'><br><font class='baseline'><strong>Plum Powerball</strong><p><strong><font class='posOutcome'>You WON</font><p>You bet: 4</strong></font> &nbsp; &nbsp; &nbsp; &nbsp; &nbsp; &nbsp;<font class='posOutcome'>you receive: <strong>8</strong></font></div>","null","","7","Plum Powerball","Fruit/plums1.png","Won","0.65,0.35","13","0.65","95","20","",""
"html-keyboard-response","71","536743","0.0-11.0-1.20","63ea63669423c84daf2c5dbd","bdp_rwlrn","Wed Mar 15 2023 19:29:21 GMT-0400 (Eastern Daylight Time)","768074","Trustworthy,Untrustworthy","","1179","","","","decision","","<div class='trialDiv'><img src='Fruit/pineapple.png'><br><font class='baseline'><strong>Primo Pineapple</strong><p>Choose number of points to bet.</font><div class='respPicDiv'><img src='img/responseButtonOffersNo0L.png' class='respPic'></div></div>","5","","7","Primo Pineapple","Fruit/pineapple.png","Lost","0.35,0.8","11","0.35","100","21","",""
"html-keyboard-response","72","537010","0.0-11.0-2.20","63ea63669423c84daf2c5dbd","bdp_rwlrn","Wed Mar 15 2023 19:29:21 GMT-0400 (Eastern Daylight Time)","768074","Trustworthy,Untrustworthy","","null","","","","decisionFB","","<div class='trialDiv'><img src='Fruit/pineapple.png'><br><font class='baseline'><strong>Primo Pineapple</strong><p>Choose number of points to bet.</font><div class='respPicDiv'><img src='img/responseButtonOffersNo0L5.png' class='respPic'></div></div>","null","","7","Primo Pineapple","Fruit/pineapple.png","Lost","0.35,0.8","11","0.35","95","21","",""
"html-keyboard-response","73","538023","0.0-11.0-3.20","63ea63669423c84daf2c5dbd","bdp_rwlrn","Wed Mar 15 2023 19:29:21 GMT-0400 (Eastern Daylight Time)","768074","Trustworthy,Untrustworthy","","null","","","","feedback","","<div class='respPicDiv'><img src='img/responseButtonOffersNo0_wht.png' class='respPic'></div><div class='trialDiv'><img src='Fruit/pineapple.png'><br><font class='baseline'><strong>Primo Pineapple</strong><p><strong><font class='negOutcome'>You LOST</font><p>You bet: 5</strong></font> &nbsp; &nbsp; &nbsp; &nbsp; &nbsp; &nbsp;<font class='negOutcome'>You receive: <strong>0</strong></font></div>","null","","7","Primo Pineapple","Fruit/pineapple.png","Lost","0.35,0.8","11","0.35","95","21","",""
"html-keyboard-response","74","538388","0.0-11.0-1.21","63ea63669423c84daf2c5dbd","bdp_rwlrn","Wed Mar 15 2023 19:29:21 GMT-0400 (Eastern Daylight Time)","768074","Trustworthy,Untrustworthy","","365","","","","decision","","<div class='trialDiv'><img src='Fruit/papayas.png'><br><font class='baseline'><strong>Papaya Payday</strong><p>Choose number of points to bet.</font><div class='respPicDiv'><img src='img/responseButtonOffersNo0L.png' class='respPic'></div></div>","4","","8","Papaya Payday","Fruit/papayas.png","Lost","0.65,0.2","10","0.65","100","22","",""
"html-keyboard-response","75","538648","0.0-11.0-2.21","63ea63669423c84daf2c5dbd","bdp_rwlrn","Wed Mar 15 2023 19:29:21 GMT-0400 (Eastern Daylight Time)","768074","Trustworthy,Untrustworthy","","null","","","","decisionFB","","<div class='trialDiv'><img src='Fruit/papayas.png'><br><font class='baseline'><strong>Papaya Payday</strong><p>Choose number of points to bet.</font><div class='respPicDiv'><img src='img/responseButtonOffersNo0L4.png' class='respPic'></div></div>","null","","8","Papaya Payday","Fruit/papayas.png","Lost","0.65,0.2","10","0.65","96","22","",""
"html-keyboard-response","76","539663","0.0-11.0-3.21","63ea63669423c84daf2c5dbd","bdp_rwlrn","Wed Mar 15 2023 19:29:21 GMT-0400 (Eastern Daylight Time)","768074","Trustworthy,Untrustworthy","","null","","","","feedback","","<div class='respPicDiv'><img src='img/responseButtonOffersNo0_wht.png' class='respPic'></div><div class='trialDiv'><img src='Fruit/papayas.png'><br><font class='baseline'><strong>Papaya Payday</strong><p><strong><font class='negOutcome'>You LOST</font><p>You bet: 4</strong></font> &nbsp; &nbsp; &nbsp; &nbsp; &nbsp; &nbsp;<font class='negOutcome'>You receive: <strong>0</strong></font></div>","null","","8","Papaya Payday","Fruit/papayas.png","Lost","0.65,0.2","10","0.65","96","22","",""
"html-keyboard-response","77","539928","0.0-11.0-1.22","63ea63669423c84daf2c5dbd","bdp_rwlrn","Wed Mar 15 2023 19:29:21 GMT-0400 (Eastern Daylight Time)","768074","Trustworthy,Untrustworthy","","264","","","","decision","","<div class='trialDiv'><img src='Fruit/pineapple.png'><br><font class='baseline'><strong>Primo Pineapple</strong><p>Choose number of points to bet.</font><div class='respPicDiv'><img src='img/responseButtonOffersNo0L.png' class='respPic'></div></div>","5","","8","Primo Pineapple","Fruit/pineapple.png","Won","0.35,0.8","11","0.35","101","23","",""
"html-keyboard-response","78","540190","0.0-11.0-2.22","63ea63669423c84daf2c5dbd","bdp_rwlrn","Wed Mar 15 2023 19:29:21 GMT-0400 (Eastern Daylight Time)","768074","Trustworthy,Untrustworthy","","null","","","","decisionFB","","<div class='trialDiv'><img src='Fruit/pineapple.png'><br><font class='baseline'><strong>Primo Pineapple</strong><p>Choose number of points to bet.</font><div class='respPicDiv'><img src='img/responseButtonOffersNo0L5.png' class='respPic'></div></div>","null","","8","Primo Pineapple","Fruit/pineapple.png","Won","0.35,0.8","11","0.35","96","23","",""
"html-keyboard-response","79","541202","0.0-11.0-3.22","63ea63669423c84daf2c5dbd","bdp_rwlrn","Wed Mar 15 2023 19:29:21 GMT-0400 (Eastern Daylight Time)","768074","Trustworthy,Untrustworthy","","null","","","","feedback","","<div class='respPicDiv'><img src='img/responseButtonOffersNo0_wht.png' class='respPic'></div><div class='trialDiv'><img src='Fruit/pineapple.png'><br><font class='baseline'><strong>Primo Pineapple</strong><p><strong><font class='posOutcome'>You WON</font><p>You bet: 5</strong></font> &nbsp; &nbsp; &nbsp; &nbsp; &nbsp; &nbsp;<font class='posOutcome'>you receive: <strong>10</strong></font></div>","null","","8","Primo Pineapple","Fruit/pineapple.png","Won","0.35,0.8","11","0.35","106","23","",""
"html-keyboard-response","80","542498","0.0-11.0-1.23","63ea63669423c84daf2c5dbd","bdp_rwlrn","Wed Mar 15 2023 19:29:21 GMT-0400 (Eastern Daylight Time)","768074","Trustworthy,Untrustworthy","","1294","","","","decision","","<div class='trialDiv'><img src='Fruit/plums1.png'><br><font class='baseline'><strong>Plum Powerball</strong><p>Choose number of points to bet.</font><div class='respPicDiv'><img src='img/responseButtonOffersNo0L.png' class='respPic'></div></div>","5","","8","Plum Powerball","Fruit/plums1.png","Won","0.65,0.35","13","0.65","111","24","",""
"html-keyboard-response","81","542763","0.0-11.0-2.23","63ea63669423c84daf2c5dbd","bdp_rwlrn","Wed Mar 15 2023 19:29:21 GMT-0400 (Eastern Daylight Time)","768074","Trustworthy,Untrustworthy","","null","","","","decisionFB","","<div class='trialDiv'><img src='Fruit/plums1.png'><br><font class='baseline'><strong>Plum Powerball</strong><p>Choose number of points to bet.</font><div class='respPicDiv'><img src='img/responseButtonOffersNo0L5.png' class='respPic'></div></div>","null","","8","Plum Powerball","Fruit/plums1.png","Won","0.65,0.35","13","0.65","106","24","",""
"html-keyboard-response","82","543776","0.0-11.0-3.23","63ea63669423c84daf2c5dbd","bdp_rwlrn","Wed Mar 15 2023 19:29:21 GMT-0400 (Eastern Daylight Time)","768074","Trustworthy,Untrustworthy","","null","","","","feedback","","<div class='respPicDiv'><img src='img/responseButtonOffersNo0_wht.png' class='respPic'></div><div class='trialDiv'><img src='Fruit/plums1.png'><br><font class='baseline'><strong>Plum Powerball</strong><p><strong><font class='posOutcome'>You WON</font><p>You bet: 5</strong></font> &nbsp; &nbsp; &nbsp; &nbsp; &nbsp; &nbsp;<font class='posOutcome'>you receive: <strong>10</strong></font></div>","null","","8","Plum Powerball","Fruit/plums1.png","Won","0.65,0.35","13","0.65","116","24","",""
"html-keyboard-response","83","545178","0.0-11.0-1.24","63ea63669423c84daf2c5dbd","bdp_rwlrn","Wed Mar 15 2023 19:29:21 GMT-0400 (Eastern Daylight Time)","768074","Trustworthy,Untrustworthy","","1401","","","","decision","","<div class='trialDiv'><img src='Fruit/papayas.png'><br><font class='baseline'><strong>Papaya Payday</strong><p>Choose number of points to bet.</font><div class='respPicDiv'><img src='img/responseButtonOffersNo0L.png' class='respPic'></div></div>","5","","9","Papaya Payday","Fruit/papayas.png","Lost","0.65,0.2","10","0.65","121","25","",""
"html-keyboard-response","84","545450","0.0-11.0-2.24","63ea63669423c84daf2c5dbd","bdp_rwlrn","Wed Mar 15 2023 19:29:21 GMT-0400 (Eastern Daylight Time)","768074","Trustworthy,Untrustworthy","","null","","","","decisionFB","","<div class='trialDiv'><img src='Fruit/papayas.png'><br><font class='baseline'><strong>Papaya Payday</strong><p>Choose number of points to bet.</font><div class='respPicDiv'><img src='img/responseButtonOffersNo0L5.png' class='respPic'></div></div>","null","","9","Papaya Payday","Fruit/papayas.png","Lost","0.65,0.2","10","0.65","116","25","",""
"html-keyboard-response","85","546464","0.0-11.0-3.24","63ea63669423c84daf2c5dbd","bdp_rwlrn","Wed Mar 15 2023 19:29:21 GMT-0400 (Eastern Daylight Time)","768074","Trustworthy,Untrustworthy","","null","","","","feedback","","<div class='respPicDiv'><img src='img/responseButtonOffersNo0_wht.png' class='respPic'></div><div class='trialDiv'><img src='Fruit/papayas.png'><br><font class='baseline'><strong>Papaya Payday</strong><p><strong><font class='negOutcome'>You LOST</font><p>You bet: 5</strong></font> &nbsp; &nbsp; &nbsp; &nbsp; &nbsp; &nbsp;<font class='negOutcome'>You receive: <strong>0</strong></font></div>","null","","9","Papaya Payday","Fruit/papayas.png","Lost","0.65,0.2","10","0.65","116","25","",""
"html-keyboard-response","86","546758","0.0-11.0-1.25","63ea63669423c84daf2c5dbd","bdp_rwlrn","Wed Mar 15 2023 19:29:21 GMT-0400 (Eastern Daylight Time)","768074","Trustworthy,Untrustworthy","","293","","","","decision","","<div class='trialDiv'><img src='Fruit/pineapple.png'><br><font class='baseline'><strong>Primo Pineapple</strong><p>Choose number of points to bet.</font><div class='respPicDiv'><img src='img/responseButtonOffersNo0L.png' class='respPic'></div></div>","4","","9","Primo Pineapple","Fruit/pineapple.png","Won","0.35,0.8","11","0.35","121","26","",""
"html-keyboard-response","87","547022","0.0-11.0-2.25","63ea63669423c84daf2c5dbd","bdp_rwlrn","Wed Mar 15 2023 19:29:21 GMT-0400 (Eastern Daylight Time)","768074","Trustworthy,Untrustworthy","","null","","","","decisionFB","","<div class='trialDiv'><img src='Fruit/pineapple.png'><br><font class='baseline'><strong>Primo Pineapple</strong><p>Choose number of points to bet.</font><div class='respPicDiv'><img src='img/responseButtonOffersNo0L4.png' class='respPic'></div></div>","null","","9","Primo Pineapple","Fruit/pineapple.png","Won","0.35,0.8","11","0.35","117","26","",""
"html-keyboard-response","88","548034","0.0-11.0-3.25","63ea63669423c84daf2c5dbd","bdp_rwlrn","Wed Mar 15 2023 19:29:21 GMT-0400 (Eastern Daylight Time)","768074","Trustworthy,Untrustworthy","","null","","","","feedback","","<div class='respPicDiv'><img src='img/responseButtonOffersNo0_wht.png' class='respPic'></div><div class='trialDiv'><img src='Fruit/pineapple.png'><br><font class='baseline'><strong>Primo Pineapple</strong><p><strong><font class='posOutcome'>You WON</font><p>You bet: 4</strong></font> &nbsp; &nbsp; &nbsp; &nbsp; &nbsp; &nbsp;<font class='posOutcome'>you receive: <strong>8</strong></font></div>","null","","9","Primo Pineapple","Fruit/pineapple.png","Won","0.35,0.8","11","0.35","125","26","",""
"html-keyboard-response","89","548654","0.0-11.0-1.26","63ea63669423c84daf2c5dbd","bdp_rwlrn","Wed Mar 15 2023 19:29:21 GMT-0400 (Eastern Daylight Time)","768074","Trustworthy,Untrustworthy","","618","","","","decision","","<div class='trialDiv'><img src='Fruit/plums1.png'><br><font class='baseline'><strong>Plum Powerball</strong><p>Choose number of points to bet.</font><div class='respPicDiv'><img src='img/responseButtonOffersNo0L.png' class='respPic'></div></div>","4","","9","Plum Powerball","Fruit/plums1.png","Lost","0.65,0.35","13","0.65","130","27","",""
"html-keyboard-response","90","548910","0.0-11.0-2.26","63ea63669423c84daf2c5dbd","bdp_rwlrn","Wed Mar 15 2023 19:29:21 GMT-0400 (Eastern Daylight Time)","768074","Trustworthy,Untrustworthy","","null","","","","decisionFB","","<div class='trialDiv'><img src='Fruit/plums1.png'><br><font class='baseline'><strong>Plum Powerball</strong><p>Choose number of points to bet.</font><div class='respPicDiv'><img src='img/responseButtonOffersNo0L4.png' class='respPic'></div></div>","null","","9","Plum Powerball","Fruit/plums1.png","Lost","0.65,0.35","13","0.65","126","27","",""
"html-keyboard-response","91","549925","0.0-11.0-3.26","63ea63669423c84daf2c5dbd","bdp_rwlrn","Wed Mar 15 2023 19:29:21 GMT-0400 (Eastern Daylight Time)","768074","Trustworthy,Untrustworthy","","null","","","","feedback","","<div class='respPicDiv'><img src='img/responseButtonOffersNo0_wht.png' class='respPic'></div><div class='trialDiv'><img src='Fruit/plums1.png'><br><font class='baseline'><strong>Plum Powerball</strong><p><strong><font class='negOutcome'>You LOST</font><p>You bet: 4</strong></font> &nbsp; &nbsp; &nbsp; &nbsp; &nbsp; &nbsp;<font class='negOutcome'>You receive: <strong>0</strong></font></div>","null","","9","Plum Powerball","Fruit/plums1.png","Lost","0.65,0.35","13","0.65","126","27","",""
"html-keyboard-response","92","550227","0.0-11.0-1.27","63ea63669423c84daf2c5dbd","bdp_rwlrn","Wed Mar 15 2023 19:29:21 GMT-0400 (Eastern Daylight Time)","768074","Trustworthy,Untrustworthy","","298","","","","decision","","<div class='trialDiv'><img src='Fruit/pineapple.png'><br><font class='baseline'><strong>Primo Pineapple</strong><p>Choose number of points to bet.</font><div class='respPicDiv'><img src='img/responseButtonOffersNo0L.png' class='respPic'></div></div>","3","","10","Primo Pineapple","Fruit/pineapple.png","Won","0.35,0.8","11","0.35","131","28","",""
"html-keyboard-response","93","550482","0.0-11.0-2.27","63ea63669423c84daf2c5dbd","bdp_rwlrn","Wed Mar 15 2023 19:29:21 GMT-0400 (Eastern Daylight Time)","768074","Trustworthy,Untrustworthy","","null","","","","decisionFB","","<div class='trialDiv'><img src='Fruit/pineapple.png'><br><font class='baseline'><strong>Primo Pineapple</strong><p>Choose number of points to bet.</font><div class='respPicDiv'><img src='img/responseButtonOffersNo0L3.png' class='respPic'></div></div>","null","","10","Primo Pineapple","Fruit/pineapple.png","Won","0.35,0.8","11","0.35","128","28","",""
"html-keyboard-response","94","551496","0.0-11.0-3.27","63ea63669423c84daf2c5dbd","bdp_rwlrn","Wed Mar 15 2023 19:29:21 GMT-0400 (Eastern Daylight Time)","768074","Trustworthy,Untrustworthy","","null","","","","feedback","","<div class='respPicDiv'><img src='img/responseButtonOffersNo0_wht.png' class='respPic'></div><div class='trialDiv'><img src='Fruit/pineapple.png'><br><font class='baseline'><strong>Primo Pineapple</strong><p><strong><font class='posOutcome'>You WON</font><p>You bet: 3</strong></font> &nbsp; &nbsp; &nbsp; &nbsp; &nbsp; &nbsp;<font class='posOutcome'>you receive: <strong>6</strong></font></div>","null","","10","Primo Pineapple","Fruit/pineapple.png","Won","0.35,0.8","11","0.35","134","28","",""
"html-keyboard-response","95","552090","0.0-11.0-1.28","63ea63669423c84daf2c5dbd","bdp_rwlrn","Wed Mar 15 2023 19:29:21 GMT-0400 (Eastern Daylight Time)","768074","Trustworthy,Untrustworthy","","591","","","","decision","","<div class='trialDiv'><img src='Fruit/plums1.png'><br><font class='baseline'><strong>Plum Powerball</strong><p>Choose number of points to bet.</font><div class='respPicDiv'><img src='img/responseButtonOffersNo0L.png' class='respPic'></div></div>","3","","10","Plum Powerball","Fruit/plums1.png","Lost","0.65,0.35","13","0.65","139","29","",""
"html-keyboard-response","96","552351","0.0-11.0-2.28","63ea63669423c84daf2c5dbd","bdp_rwlrn","Wed Mar 15 2023 19:29:21 GMT-0400 (Eastern Daylight Time)","768074","Trustworthy,Untrustworthy","","null","","","","decisionFB","","<div class='trialDiv'><img src='Fruit/plums1.png'><br><font class='baseline'><strong>Plum Powerball</strong><p>Choose number of points to bet.</font><div class='respPicDiv'><img src='img/responseButtonOffersNo0L3.png' class='respPic'></div></div>","null","","10","Plum Powerball","Fruit/plums1.png","Lost","0.65,0.35","13","0.65","136","29","",""
"html-keyboard-response","97","553366","0.0-11.0-3.28","63ea63669423c84daf2c5dbd","bdp_rwlrn","Wed Mar 15 2023 19:29:21 GMT-0400 (Eastern Daylight Time)","768074","Trustworthy,Untrustworthy","","null","","","","feedback","","<div class='respPicDiv'><img src='img/responseButtonOffersNo0_wht.png' class='respPic'></div><div class='trialDiv'><img src='Fruit/plums1.png'><br><font class='baseline'><strong>Plum Powerball</strong><p><strong><font class='negOutcome'>You LOST</font><p>You bet: 3</strong></font> &nbsp; &nbsp; &nbsp; &nbsp; &nbsp; &nbsp;<font class='negOutcome'>You receive: <strong>0</strong></font></div>","null","","10","Plum Powerball","Fruit/plums1.png","Lost","0.65,0.35","13","0.65","136","29","",""
"html-keyboard-response","98","553913","0.0-11.0-1.29","63ea63669423c84daf2c5dbd","bdp_rwlrn","Wed Mar 15 2023 19:29:21 GMT-0400 (Eastern Daylight Time)","768074","Trustworthy,Untrustworthy","","545","","","","decision","","<div class='trialDiv'><img src='Fruit/papayas.png'><br><font class='baseline'><strong>Papaya Payday</strong><p>Choose number of points to bet.</font><div class='respPicDiv'><img src='img/responseButtonOffersNo0L.png' class='respPic'></div></div>","4","","10","Papaya Payday","Fruit/papayas.png","Lost","0.65,0.2","10","0.65","141","30","",""
"html-keyboard-response","99","554178","0.0-11.0-2.29","63ea63669423c84daf2c5dbd","bdp_rwlrn","Wed Mar 15 2023 19:29:21 GMT-0400 (Eastern Daylight Time)","768074","Trustworthy,Untrustworthy","","null","","","","decisionFB","","<div class='trialDiv'><img src='Fruit/papayas.png'><br><font class='baseline'><strong>Papaya Payday</strong><p>Choose number of points to bet.</font><div class='respPicDiv'><img src='img/responseButtonOffersNo0L4.png' class='respPic'></div></div>","null","","10","Papaya Payday","Fruit/papayas.png","Lost","0.65,0.2","10","0.65","137","30","",""
"html-keyboard-response","100","555182","0.0-11.0-3.29","63ea63669423c84daf2c5dbd","bdp_rwlrn","Wed Mar 15 2023 19:29:21 GMT-0400 (Eastern Daylight Time)","768074","Trustworthy,Untrustworthy","","null","","","","feedback","","<div class='respPicDiv'><img src='img/responseButtonOffersNo0_wht.png' class='respPic'></div><div class='trialDiv'><img src='Fruit/papayas.png'><br><font class='baseline'><strong>Papaya Payday</strong><p><strong><font class='negOutcome'>You LOST</font><p>You bet: 4</strong></font> &nbsp; &nbsp; &nbsp; &nbsp; &nbsp; &nbsp;<font class='negOutcome'>You receive: <strong>0</strong></font></div>","null","","10","Papaya Payday","Fruit/papayas.png","Lost","0.65,0.2","10","0.65","137","30","",""
"html-keyboard-response","101","555352","0.0-11.0-1.30","63ea63669423c84daf2c5dbd","bdp_rwlrn","Wed Mar 15 2023 19:29:21 GMT-0400 (Eastern Daylight Time)","768074","Trustworthy,Untrustworthy","","168","","","","decision","","<div class='trialDiv'><img src='Fruit/plums1.png'><br><font class='baseline'><strong>Plum Powerball</strong><p>Choose number of points to bet.</font><div class='respPicDiv'><img src='img/responseButtonOffersNo0L.png' class='respPic'></div></div>","5","","11","Plum Powerball","Fruit/plums1.png","Lost","0.65,0.35","13","0.65","142","31","",""
"html-keyboard-response","102","555619","0.0-11.0-2.30","63ea63669423c84daf2c5dbd","bdp_rwlrn","Wed Mar 15 2023 19:29:21 GMT-0400 (Eastern Daylight Time)","768074","Trustworthy,Untrustworthy","","null","","","","decisionFB","","<div class='trialDiv'><img src='Fruit/plums1.png'><br><font class='baseline'><strong>Plum Powerball</strong><p>Choose number of points to bet.</font><div class='respPicDiv'><img src='img/responseButtonOffersNo0L5.png' class='respPic'></div></div>","null","","11","Plum Powerball","Fruit/plums1.png","Lost","0.65,0.35","13","0.65","137","31","",""
"html-keyboard-response","103","556637","0.0-11.0-3.30","63ea63669423c84daf2c5dbd","bdp_rwlrn","Wed Mar 15 2023 19:29:21 GMT-0400 (Eastern Daylight Time)","768074","Trustworthy,Untrustworthy","","null","","","","feedback","","<div class='respPicDiv'><img src='img/responseButtonOffersNo0_wht.png' class='respPic'></div><div class='trialDiv'><img src='Fruit/plums1.png'><br><font class='baseline'><strong>Plum Powerball</strong><p><strong><font class='negOutcome'>You LOST</font><p>You bet: 5</strong></font> &nbsp; &nbsp; &nbsp; &nbsp; &nbsp; &nbsp;<font class='negOutcome'>You receive: <strong>0</strong></font></div>","null","","11","Plum Powerball","Fruit/plums1.png","Lost","0.65,0.35","13","0.65","137","31","",""
"html-keyboard-response","104","557108","0.0-11.0-1.31","63ea63669423c84daf2c5dbd","bdp_rwlrn","Wed Mar 15 2023 19:29:21 GMT-0400 (Eastern Daylight Time)","768074","Trustworthy,Untrustworthy","","469","","","","decision","","<div class='trialDiv'><img src='Fruit/papayas.png'><br><font class='baseline'><strong>Papaya Payday</strong><p>Choose number of points to bet.</font><div class='respPicDiv'><img src='img/responseButtonOffersNo0L.png' class='respPic'></div></div>","2","","11","Papaya Payday","Fruit/papayas.png","Won","0.65,0.2","10","0.65","142","32","",""
"html-keyboard-response","105","557365","0.0-11.0-2.31","63ea63669423c84daf2c5dbd","bdp_rwlrn","Wed Mar 15 2023 19:29:21 GMT-0400 (Eastern Daylight Time)","768074","Trustworthy,Untrustworthy","","null","","","","decisionFB","","<div class='trialDiv'><img src='Fruit/papayas.png'><br><font class='baseline'><strong>Papaya Payday</strong><p>Choose number of points to bet.</font><div class='respPicDiv'><img src='img/responseButtonOffersNo0L2.png' class='respPic'></div></div>","null","","11","Papaya Payday","Fruit/papayas.png","Won","0.65,0.2","10","0.65","140","32","",""
"html-keyboard-response","106","558381","0.0-11.0-3.31","63ea63669423c84daf2c5dbd","bdp_rwlrn","Wed Mar 15 2023 19:29:21 GMT-0400 (Eastern Daylight Time)","768074","Trustworthy,Untrustworthy","","null","","","","feedback","","<div class='respPicDiv'><img src='img/responseButtonOffersNo0_wht.png' class='respPic'></div><div class='trialDiv'><img src='Fruit/papayas.png'><br><font class='baseline'><strong>Papaya Payday</strong><p><strong><font class='posOutcome'>You WON</font><p>You bet: 2</strong></font> &nbsp; &nbsp; &nbsp; &nbsp; &nbsp; &nbsp;<font class='posOutcome'>you receive: <strong>4</strong></font></div>","null","","11","Papaya Payday","Fruit/papayas.png","Won","0.65,0.2","10","0.65","144","32","",""
"html-keyboard-response","107","558873","0.0-11.0-1.32","63ea63669423c84daf2c5dbd","bdp_rwlrn","Wed Mar 15 2023 19:29:21 GMT-0400 (Eastern Daylight Time)","768074","Trustworthy,Untrustworthy","","491","","","","decision","","<div class='trialDiv'><img src='Fruit/pineapple.png'><br><font class='baseline'><strong>Primo Pineapple</strong><p>Choose number of points to bet.</font><div class='respPicDiv'><img src='img/responseButtonOffersNo0L.png' class='respPic'></div></div>","2","","11","Primo Pineapple","Fruit/pineapple.png","Won","0.35,0.8","11","0.35","149","33","",""
"html-keyboard-response","108","559128","0.0-11.0-2.32","63ea63669423c84daf2c5dbd","bdp_rwlrn","Wed Mar 15 2023 19:29:21 GMT-0400 (Eastern Daylight Time)","768074","Trustworthy,Untrustworthy","","null","","","","decisionFB","","<div class='trialDiv'><img src='Fruit/pineapple.png'><br><font class='baseline'><strong>Primo Pineapple</strong><p>Choose number of points to bet.</font><div class='respPicDiv'><img src='img/responseButtonOffersNo0L2.png' class='respPic'></div></div>","null","","11","Primo Pineapple","Fruit/pineapple.png","Won","0.35,0.8","11","0.35","147","33","",""
"html-keyboard-response","109","560142","0.0-11.0-3.32","63ea63669423c84daf2c5dbd","bdp_rwlrn","Wed Mar 15 2023 19:29:21 GMT-0400 (Eastern Daylight Time)","768074","Trustworthy,Untrustworthy","","null","","","","feedback","","<div class='respPicDiv'><img src='img/responseButtonOffersNo0_wht.png' class='respPic'></div><div class='trialDiv'><img src='Fruit/pineapple.png'><br><font class='baseline'><strong>Primo Pineapple</strong><p><strong><font class='posOutcome'>You WON</font><p>You bet: 2</strong></font> &nbsp; &nbsp; &nbsp; &nbsp; &nbsp; &nbsp;<font class='posOutcome'>you receive: <strong>4</strong></font></div>","null","","11","Primo Pineapple","Fruit/pineapple.png","Won","0.35,0.8","11","0.35","151","33","",""
"html-keyboard-response","110","560780","0.0-11.0-1.33","63ea63669423c84daf2c5dbd","bdp_rwlrn","Wed Mar 15 2023 19:29:21 GMT-0400 (Eastern Daylight Time)","768074","Trustworthy,Untrustworthy","","636","","","","decision","","<div class='trialDiv'><img src='Fruit/plums1.png'><br><font class='baseline'><strong>Plum Powerball</strong><p>Choose number of points to bet.</font><div class='respPicDiv'><img src='img/responseButtonOffersNo0L.png' class='respPic'></div></div>","2","","12","Plum Powerball","Fruit/plums1.png","Lost","0.65,0.35","13","0.65","156","34","",""
"html-keyboard-response","111","561033","0.0-11.0-2.33","63ea63669423c84daf2c5dbd","bdp_rwlrn","Wed Mar 15 2023 19:29:21 GMT-0400 (Eastern Daylight Time)","768074","Trustworthy,Untrustworthy","","null","","","","decisionFB","","<div class='trialDiv'><img src='Fruit/plums1.png'><br><font class='baseline'><strong>Plum Powerball</strong><p>Choose number of points to bet.</font><div class='respPicDiv'><img src='img/responseButtonOffersNo0L2.png' class='respPic'></div></div>","null","","12","Plum Powerball","Fruit/plums1.png","Lost","0.65,0.35","13","0.65","154","34","",""
"html-keyboard-response","112","562037","0.0-11.0-3.33","63ea63669423c84daf2c5dbd","bdp_rwlrn","Wed Mar 15 2023 19:29:21 GMT-0400 (Eastern Daylight Time)","768074","Trustworthy,Untrustworthy","","null","","","","feedback","","<div class='respPicDiv'><img src='img/responseButtonOffersNo0_wht.png' class='respPic'></div><div class='trialDiv'><img src='Fruit/plums1.png'><br><font class='baseline'><strong>Plum Powerball</strong><p><strong><font class='negOutcome'>You LOST</font><p>You bet: 2</strong></font> &nbsp; &nbsp; &nbsp; &nbsp; &nbsp; &nbsp;<font class='negOutcome'>You receive: <strong>0</strong></font></div>","null","","12","Plum Powerball","Fruit/plums1.png","Lost","0.65,0.35","13","0.65","154","34","",""
"html-keyboard-response","113","562276","0.0-11.0-1.34","63ea63669423c84daf2c5dbd","bdp_rwlrn","Wed Mar 15 2023 19:29:21 GMT-0400 (Eastern Daylight Time)","768074","Trustworthy,Untrustworthy","","238","","","","decision","","<div class='trialDiv'><img src='Fruit/pineapple.png'><br><font class='baseline'><strong>Primo Pineapple</strong><p>Choose number of points to bet.</font><div class='respPicDiv'><img src='img/responseButtonOffersNo0L.png' class='respPic'></div></div>","3","","12","Primo Pineapple","Fruit/pineapple.png","Won","0.35,0.8","11","0.35","159","35","",""
"html-keyboard-response","114","562533","0.0-11.0-2.34","63ea63669423c84daf2c5dbd","bdp_rwlrn","Wed Mar 15 2023 19:29:21 GMT-0400 (Eastern Daylight Time)","768074","Trustworthy,Untrustworthy","","null","","","","decisionFB","","<div class='trialDiv'><img src='Fruit/pineapple.png'><br><font class='baseline'><strong>Primo Pineapple</strong><p>Choose number of points to bet.</font><div class='respPicDiv'><img src='img/responseButtonOffersNo0L3.png' class='respPic'></div></div>","null","","12","Primo Pineapple","Fruit/pineapple.png","Won","0.35,0.8","11","0.35","156","35","",""
"html-keyboard-response","115","563546","0.0-11.0-3.34","63ea63669423c84daf2c5dbd","bdp_rwlrn","Wed Mar 15 2023 19:29:21 GMT-0400 (Eastern Daylight Time)","768074","Trustworthy,Untrustworthy","","null","","","","feedback","","<div class='respPicDiv'><img src='img/responseButtonOffersNo0_wht.png' class='respPic'></div><div class='trialDiv'><img src='Fruit/pineapple.png'><br><font class='baseline'><strong>Primo Pineapple</strong><p><strong><font class='posOutcome'>You WON</font><p>You bet: 3</strong></font> &nbsp; &nbsp; &nbsp; &nbsp; &nbsp; &nbsp;<font class='posOutcome'>you receive: <strong>6</strong></font></div>","null","","12","Primo Pineapple","Fruit/pineapple.png","Won","0.35,0.8","11","0.35","162","35","",""
"html-keyboard-response","116","564143","0.0-11.0-1.35","63ea63669423c84daf2c5dbd","bdp_rwlrn","Wed Mar 15 2023 19:29:21 GMT-0400 (Eastern Daylight Time)","768074","Trustworthy,Untrustworthy","","595","","","","decision","","<div class='trialDiv'><img src='Fruit/papayas.png'><br><font class='baseline'><strong>Papaya Payday</strong><p>Choose number of points to bet.</font><div class='respPicDiv'><img src='img/responseButtonOffersNo0L.png' class='respPic'></div></div>","3","","12","Papaya Payday","Fruit/papayas.png","Won","0.65,0.2","10","0.65","167","36","",""
"html-keyboard-response","117","564406","0.0-11.0-2.35","63ea63669423c84daf2c5dbd","bdp_rwlrn","Wed Mar 15 2023 19:29:21 GMT-0400 (Eastern Daylight Time)","768074","Trustworthy,Untrustworthy","","null","","","","decisionFB","","<div class='trialDiv'><img src='Fruit/papayas.png'><br><font class='baseline'><strong>Papaya Payday</strong><p>Choose number of points to bet.</font><div class='respPicDiv'><img src='img/responseButtonOffersNo0L3.png' class='respPic'></div></div>","null","","12","Papaya Payday","Fruit/papayas.png","Won","0.65,0.2","10","0.65","164","36","",""
"html-keyboard-response","118","565416","0.0-11.0-3.35","63ea63669423c84daf2c5dbd","bdp_rwlrn","Wed Mar 15 2023 19:29:21 GMT-0400 (Eastern Daylight Time)","768074","Trustworthy,Untrustworthy","","null","","","","feedback","","<div class='respPicDiv'><img src='img/responseButtonOffersNo0_wht.png' class='respPic'></div><div class='trialDiv'><img src='Fruit/papayas.png'><br><font class='baseline'><strong>Papaya Payday</strong><p><strong><font class='posOutcome'>You WON</font><p>You bet: 3</strong></font> &nbsp; &nbsp; &nbsp; &nbsp; &nbsp; &nbsp;<font class='posOutcome'>you receive: <strong>6</strong></font></div>","null","","12","Papaya Payday","Fruit/papayas.png","Won","0.65,0.2","10","0.65","170","36","",""
"html-keyboard-response","119","566139","0.0-11.0-1.36","63ea63669423c84daf2c5dbd","bdp_rwlrn","Wed Mar 15 2023 19:29:21 GMT-0400 (Eastern Daylight Time)","768074","Trustworthy,Untrustworthy","","721","","","","decision","","<div class='trialDiv'><img src='Fruit/pineapple.png'><br><font class='baseline'><strong>Primo Pineapple</strong><p>Choose number of points to bet.</font><div class='respPicDiv'><img src='img/responseButtonOffersNo0L.png' class='respPic'></div></div>","3","","13","Primo Pineapple","Fruit/pineapple.png","Won","0.35,0.8","11","0.35","175","37","",""
"html-keyboard-response","120","566399","0.0-11.0-2.36","63ea63669423c84daf2c5dbd","bdp_rwlrn","Wed Mar 15 2023 19:29:21 GMT-0400 (Eastern Daylight Time)","768074","Trustworthy,Untrustworthy","","null","","","","decisionFB","","<div class='trialDiv'><img src='Fruit/pineapple.png'><br><font class='baseline'><strong>Primo Pineapple</strong><p>Choose number of points to bet.</font><div class='respPicDiv'><img src='img/responseButtonOffersNo0L3.png' class='respPic'></div></div>","null","","13","Primo Pineapple","Fruit/pineapple.png","Won","0.35,0.8","11","0.35","172","37","",""
"html-keyboard-response","121","567415","0.0-11.0-3.36","63ea63669423c84daf2c5dbd","bdp_rwlrn","Wed Mar 15 2023 19:29:21 GMT-0400 (Eastern Daylight Time)","768074","Trustworthy,Untrustworthy","","null","","","","feedback","","<div class='respPicDiv'><img src='img/responseButtonOffersNo0_wht.png' class='respPic'></div><div class='trialDiv'><img src='Fruit/pineapple.png'><br><font class='baseline'><strong>Primo Pineapple</strong><p><strong><font class='posOutcome'>You WON</font><p>You bet: 3</strong></font> &nbsp; &nbsp; &nbsp; &nbsp; &nbsp; &nbsp;<font class='posOutcome'>you receive: <strong>6</strong></font></div>","null","","13","Primo Pineapple","Fruit/pineapple.png","Won","0.35,0.8","11","0.35","178","37","",""
"html-keyboard-response","122","568384","0.0-11.0-1.37","63ea63669423c84daf2c5dbd","bdp_rwlrn","Wed Mar 15 2023 19:29:21 GMT-0400 (Eastern Daylight Time)","768074","Trustworthy,Untrustworthy","","966","","","","decision","","<div class='trialDiv'><img src='Fruit/papayas.png'><br><font class='baseline'><strong>Papaya Payday</strong><p>Choose number of points to bet.</font><div class='respPicDiv'><img src='img/responseButtonOffersNo0L.png' class='respPic'></div></div>","3","","13","Papaya Payday","Fruit/papayas.png","Lost","0.65,0.2","10","0.65","183","38","",""
"html-keyboard-response","123","568646","0.0-11.0-2.37","63ea63669423c84daf2c5dbd","bdp_rwlrn","Wed Mar 15 2023 19:29:21 GMT-0400 (Eastern Daylight Time)","768074","Trustworthy,Untrustworthy","","null","","","","decisionFB","","<div class='trialDiv'><img src='Fruit/papayas.png'><br><font class='baseline'><strong>Papaya Payday</strong><p>Choose number of points to bet.</font><div class='respPicDiv'><img src='img/responseButtonOffersNo0L3.png' class='respPic'></div></div>","null","","13","Papaya Payday","Fruit/papayas.png","Lost","0.65,0.2","10","0.65","180","38","",""
"html-keyboard-response","124","569658","0.0-11.0-3.37","63ea63669423c84daf2c5dbd","bdp_rwlrn","Wed Mar 15 2023 19:29:21 GMT-0400 (Eastern Daylight Time)","768074","Trustworthy,Untrustworthy","","null","","","","feedback","","<div class='respPicDiv'><img src='img/responseButtonOffersNo0_wht.png' class='respPic'></div><div class='trialDiv'><img src='Fruit/papayas.png'><br><font class='baseline'><strong>Papaya Payday</strong><p><strong><font class='negOutcome'>You LOST</font><p>You bet: 3</strong></font> &nbsp; &nbsp; &nbsp; &nbsp; &nbsp; &nbsp;<font class='negOutcome'>You receive: <strong>0</strong></font></div>","null","","13","Papaya Payday","Fruit/papayas.png","Lost","0.65,0.2","10","0.65","180","38","",""
"html-keyboard-response","125","569941","0.0-11.0-1.38","63ea63669423c84daf2c5dbd","bdp_rwlrn","Wed Mar 15 2023 19:29:21 GMT-0400 (Eastern Daylight Time)","768074","Trustworthy,Untrustworthy","","282","","","","decision","","<div class='trialDiv'><img src='Fruit/plums1.png'><br><font class='baseline'><strong>Plum Powerball</strong><p>Choose number of points to bet.</font><div class='respPicDiv'><img src='img/responseButtonOffersNo0L.png' class='respPic'></div></div>","2","","13","Plum Powerball","Fruit/plums1.png","Lost","0.65,0.35","13","0.65","185","39","",""
"html-keyboard-response","126","570203","0.0-11.0-2.38","63ea63669423c84daf2c5dbd","bdp_rwlrn","Wed Mar 15 2023 19:29:21 GMT-0400 (Eastern Daylight Time)","768074","Trustworthy,Untrustworthy","","null","","","","decisionFB","","<div class='trialDiv'><img src='Fruit/plums1.png'><br><font class='baseline'><strong>Plum Powerball</strong><p>Choose number of points to bet.</font><div class='respPicDiv'><img src='img/responseButtonOffersNo0L2.png' class='respPic'></div></div>","null","","13","Plum Powerball","Fruit/plums1.png","Lost","0.65,0.35","13","0.65","183","39","",""
"html-keyboard-response","127","571222","0.0-11.0-3.38","63ea63669423c84daf2c5dbd","bdp_rwlrn","Wed Mar 15 2023 19:29:21 GMT-0400 (Eastern Daylight Time)","768074","Trustworthy,Untrustworthy","","null","","","","feedback","","<div class='respPicDiv'><img src='img/responseButtonOffersNo0_wht.png' class='respPic'></div><div class='trialDiv'><img src='Fruit/plums1.png'><br><font class='baseline'><strong>Plum Powerball</strong><p><strong><font class='negOutcome'>You LOST</font><p>You bet: 2</strong></font> &nbsp; &nbsp; &nbsp; &nbsp; &nbsp; &nbsp;<font class='negOutcome'>You receive: <strong>0</strong></font></div>","null","","13","Plum Powerball","Fruit/plums1.png","Lost","0.65,0.35","13","0.65","183","39","",""
"html-keyboard-response","128","571403","0.0-11.0-1.39","63ea63669423c84daf2c5dbd","bdp_rwlrn","Wed Mar 15 2023 19:29:21 GMT-0400 (Eastern Daylight Time)","768074","Trustworthy,Untrustworthy","","179","","","","decision","","<div class='trialDiv'><img src='Fruit/papayas.png'><br><font class='baseline'><strong>Papaya Payday</strong><p>Choose number of points to bet.</font><div class='respPicDiv'><img src='img/responseButtonOffersNo0L.png' class='respPic'></div></div>","4","","14","Papaya Payday","Fruit/papayas.png","Lost","0.65,0.2","10","0.65","188","40","",""
"html-keyboard-response","129","571669","0.0-11.0-2.39","63ea63669423c84daf2c5dbd","bdp_rwlrn","Wed Mar 15 2023 19:29:21 GMT-0400 (Eastern Daylight Time)","768074","Trustworthy,Untrustworthy","","null","","","","decisionFB","","<div class='trialDiv'><img src='Fruit/papayas.png'><br><font class='baseline'><strong>Papaya Payday</strong><p>Choose number of points to bet.</font><div class='respPicDiv'><img src='img/responseButtonOffersNo0L4.png' class='respPic'></div></div>","null","","14","Papaya Payday","Fruit/papayas.png","Lost","0.65,0.2","10","0.65","184","40","",""
"html-keyboard-response","130","572679","0.0-11.0-3.39","63ea63669423c84daf2c5dbd","bdp_rwlrn","Wed Mar 15 2023 19:29:21 GMT-0400 (Eastern Daylight Time)","768074","Trustworthy,Untrustworthy","","null","","","","feedback","","<div class='respPicDiv'><img src='img/responseButtonOffersNo0_wht.png' class='respPic'></div><div class='trialDiv'><img src='Fruit/papayas.png'><br><font class='baseline'><strong>Papaya Payday</strong><p><strong><font class='negOutcome'>You LOST</font><p>You bet: 4</strong></font> &nbsp; &nbsp; &nbsp; &nbsp; &nbsp; &nbsp;<font class='negOutcome'>You receive: <strong>0</strong></font></div>","null","","14","Papaya Payday","Fruit/papayas.png","Lost","0.65,0.2","10","0.65","184","40","",""
"html-keyboard-response","131","572941","0.0-11.0-1.40","63ea63669423c84daf2c5dbd","bdp_rwlrn","Wed Mar 15 2023 19:29:21 GMT-0400 (Eastern Daylight Time)","768074","Trustworthy,Untrustworthy","","259","","","","decision","","<div class='trialDiv'><img src='Fruit/pineapple.png'><br><font class='baseline'><strong>Primo Pineapple</strong><p>Choose number of points to bet.</font><div class='respPicDiv'><img src='img/responseButtonOffersNo0L.png' class='respPic'></div></div>","5","","14","Primo Pineapple","Fruit/pineapple.png","Won","0.35,0.8","11","0.35","189","41","",""
"html-keyboard-response","132","573211","0.0-11.0-2.40","63ea63669423c84daf2c5dbd","bdp_rwlrn","Wed Mar 15 2023 19:29:21 GMT-0400 (Eastern Daylight Time)","768074","Trustworthy,Untrustworthy","","null","","","","decisionFB","","<div class='trialDiv'><img src='Fruit/pineapple.png'><br><font class='baseline'><strong>Primo Pineapple</strong><p>Choose number of points to bet.</font><div class='respPicDiv'><img src='img/responseButtonOffersNo0L5.png' class='respPic'></div></div>","null","","14","Primo Pineapple","Fruit/pineapple.png","Won","0.35,0.8","11","0.35","184","41","",""
"html-keyboard-response","133","574227","0.0-11.0-3.40","63ea63669423c84daf2c5dbd","bdp_rwlrn","Wed Mar 15 2023 19:29:21 GMT-0400 (Eastern Daylight Time)","768074","Trustworthy,Untrustworthy","","null","","","","feedback","","<div class='respPicDiv'><img src='img/responseButtonOffersNo0_wht.png' class='respPic'></div><div class='trialDiv'><img src='Fruit/pineapple.png'><br><font class='baseline'><strong>Primo Pineapple</strong><p><strong><font class='posOutcome'>You WON</font><p>You bet: 5</strong></font> &nbsp; &nbsp; &nbsp; &nbsp; &nbsp; &nbsp;<font class='posOutcome'>you receive: <strong>10</strong></font></div>","null","","14","Primo Pineapple","Fruit/pineapple.png","Won","0.35,0.8","11","0.35","194","41","",""
"html-keyboard-response","134","574906","0.0-11.0-1.41","63ea63669423c84daf2c5dbd","bdp_rwlrn","Wed Mar 15 2023 19:29:21 GMT-0400 (Eastern Daylight Time)","768074","Trustworthy,Untrustworthy","","677","","","","decision","","<div class='trialDiv'><img src='Fruit/plums1.png'><br><font class='baseline'><strong>Plum Powerball</strong><p>Choose number of points to bet.</font><div class='respPicDiv'><img src='img/responseButtonOffersNo0L.png' class='respPic'></div></div>","5","","14","Plum Powerball","Fruit/plums1.png","Won","0.65,0.35","13","0.65","199","42","",""
"html-keyboard-response","135","575167","0.0-11.0-2.41","63ea63669423c84daf2c5dbd","bdp_rwlrn","Wed Mar 15 2023 19:29:21 GMT-0400 (Eastern Daylight Time)","768074","Trustworthy,Untrustworthy","","null","","","","decisionFB","","<div class='trialDiv'><img src='Fruit/plums1.png'><br><font class='baseline'><strong>Plum Powerball</strong><p>Choose number of points to bet.</font><div class='respPicDiv'><img src='img/responseButtonOffersNo0L5.png' class='respPic'></div></div>","null","","14","Plum Powerball","Fruit/plums1.png","Won","0.65,0.35","13","0.65","194","42","",""
"html-keyboard-response","136","576180","0.0-11.0-3.41","63ea63669423c84daf2c5dbd","bdp_rwlrn","Wed Mar 15 2023 19:29:21 GMT-0400 (Eastern Daylight Time)","768074","Trustworthy,Untrustworthy","","null","","","","feedback","","<div class='respPicDiv'><img src='img/responseButtonOffersNo0_wht.png' class='respPic'></div><div class='trialDiv'><img src='Fruit/plums1.png'><br><font class='baseline'><strong>Plum Powerball</strong><p><strong><font class='posOutcome'>You WON</font><p>You bet: 5</strong></font> &nbsp; &nbsp; &nbsp; &nbsp; &nbsp; &nbsp;<font class='posOutcome'>you receive: <strong>10</strong></font></div>","null","","14","Plum Powerball","Fruit/plums1.png","Won","0.65,0.35","13","0.65","204","42","",""
"html-keyboard-response","137","577067","0.0-11.0-1.42","63ea63669423c84daf2c5dbd","bdp_rwlrn","Wed Mar 15 2023 19:29:21 GMT-0400 (Eastern Daylight Time)","768074","Trustworthy,Untrustworthy","","887","","","","decision","","<div class='trialDiv'><img src='Fruit/papayas.png'><br><font class='baseline'><strong>Papaya Payday</strong><p>Choose number of points to bet.</font><div class='respPicDiv'><img src='img/responseButtonOffersNo0L.png' class='respPic'></div></div>","5","","15","Papaya Payday","Fruit/papayas.png","Lost","0.65,0.2","10","0.65","209","43","",""
"html-keyboard-response","138","577334","0.0-11.0-2.42","63ea63669423c84daf2c5dbd","bdp_rwlrn","Wed Mar 15 2023 19:29:21 GMT-0400 (Eastern Daylight Time)","768074","Trustworthy,Untrustworthy","","null","","","","decisionFB","","<div class='trialDiv'><img src='Fruit/papayas.png'><br><font class='baseline'><strong>Papaya Payday</strong><p>Choose number of points to bet.</font><div class='respPicDiv'><img src='img/responseButtonOffersNo0L5.png' class='respPic'></div></div>","null","","15","Papaya Payday","Fruit/papayas.png","Lost","0.65,0.2","10","0.65","204","43","",""
"html-keyboard-response","139","578335","0.0-11.0-3.42","63ea63669423c84daf2c5dbd","bdp_rwlrn","Wed Mar 15 2023 19:29:21 GMT-0400 (Eastern Daylight Time)","768074","Trustworthy,Untrustworthy","","null","","","","feedback","","<div class='respPicDiv'><img src='img/responseButtonOffersNo0_wht.png' class='respPic'></div><div class='trialDiv'><img src='Fruit/papayas.png'><br><font class='baseline'><strong>Papaya Payday</strong><p><strong><font class='negOutcome'>You LOST</font><p>You bet: 5</strong></font> &nbsp; &nbsp; &nbsp; &nbsp; &nbsp; &nbsp;<font class='negOutcome'>You receive: <strong>0</strong></font></div>","null","","15","Papaya Payday","Fruit/papayas.png","Lost","0.65,0.2","10","0.65","204","43","",""
"html-keyboard-response","140","578833","0.0-11.0-1.43","63ea63669423c84daf2c5dbd","bdp_rwlrn","Wed Mar 15 2023 19:29:21 GMT-0400 (Eastern Daylight Time)","768074","Trustworthy,Untrustworthy","","497","","","","decision","","<div class='trialDiv'><img src='Fruit/plums1.png'><br><font class='baseline'><strong>Plum Powerball</strong><p>Choose number of points to bet.</font><div class='respPicDiv'><img src='img/responseButtonOffersNo0L.png' class='respPic'></div></div>","4","","15","Plum Powerball","Fruit/plums1.png","Won","0.65,0.35","13","0.65","209","44","",""
"html-keyboard-response","141","579099","0.0-11.0-2.43","63ea63669423c84daf2c5dbd","bdp_rwlrn","Wed Mar 15 2023 19:29:21 GMT-0400 (Eastern Daylight Time)","768074","Trustworthy,Untrustworthy","","null","","","","decisionFB","","<div class='trialDiv'><img src='Fruit/plums1.png'><br><font class='baseline'><strong>Plum Powerball</strong><p>Choose number of points to bet.</font><div class='respPicDiv'><img src='img/responseButtonOffersNo0L4.png' class='respPic'></div></div>","null","","15","Plum Powerball","Fruit/plums1.png","Won","0.65,0.35","13","0.65","205","44","",""
"html-keyboard-response","142","580116","0.0-11.0-3.43","63ea63669423c84daf2c5dbd","bdp_rwlrn","Wed Mar 15 2023 19:29:21 GMT-0400 (Eastern Daylight Time)","768074","Trustworthy,Untrustworthy","","null","","","","feedback","","<div class='respPicDiv'><img src='img/responseButtonOffersNo0_wht.png' class='respPic'></div><div class='trialDiv'><img src='Fruit/plums1.png'><br><font class='baseline'><strong>Plum Powerball</strong><p><strong><font class='posOutcome'>You WON</font><p>You bet: 4</strong></font> &nbsp; &nbsp; &nbsp; &nbsp; &nbsp; &nbsp;<font class='posOutcome'>you receive: <strong>8</strong></font></div>","null","","15","Plum Powerball","Fruit/plums1.png","Won","0.65,0.35","13","0.65","213","44","",""
"html-keyboard-response","143","580858","0.0-11.0-1.44","63ea63669423c84daf2c5dbd","bdp_rwlrn","Wed Mar 15 2023 19:29:21 GMT-0400 (Eastern Daylight Time)","768074","Trustworthy,Untrustworthy","","742","","","","decision","","<div class='trialDiv'><img src='Fruit/pineapple.png'><br><font class='baseline'><strong>Primo Pineapple</strong><p>Choose number of points to bet.</font><div class='respPicDiv'><img src='img/responseButtonOffersNo0L.png' class='respPic'></div></div>","4","","15","Primo Pineapple","Fruit/pineapple.png","Lost","0.35,0.8","11","0.35","218","45","",""
"html-keyboard-response","144","581115","0.0-11.0-2.44","63ea63669423c84daf2c5dbd","bdp_rwlrn","Wed Mar 15 2023 19:29:21 GMT-0400 (Eastern Daylight Time)","768074","Trustworthy,Untrustworthy","","null","","","","decisionFB","","<div class='trialDiv'><img src='Fruit/pineapple.png'><br><font class='baseline'><strong>Primo Pineapple</strong><p>Choose number of points to bet.</font><div class='respPicDiv'><img src='img/responseButtonOffersNo0L4.png' class='respPic'></div></div>","null","","15","Primo Pineapple","Fruit/pineapple.png","Lost","0.35,0.8","11","0.35","214","45","",""
"html-keyboard-response","145","582124","0.0-11.0-3.44","63ea63669423c84daf2c5dbd","bdp_rwlrn","Wed Mar 15 2023 19:29:21 GMT-0400 (Eastern Daylight Time)","768074","Trustworthy,Untrustworthy","","null","","","","feedback","","<div class='respPicDiv'><img src='img/responseButtonOffersNo0_wht.png' class='respPic'></div><div class='trialDiv'><img src='Fruit/pineapple.png'><br><font class='baseline'><strong>Primo Pineapple</strong><p><strong><font class='negOutcome'>You LOST</font><p>You bet: 4</strong></font> &nbsp; &nbsp; &nbsp; &nbsp; &nbsp; &nbsp;<font class='negOutcome'>You receive: <strong>0</strong></font></div>","null","","15","Primo Pineapple","Fruit/pineapple.png","Lost","0.35,0.8","11","0.35","214","45","",""
"html-keyboard-response","146","582510","0.0-11.0-1.45","63ea63669423c84daf2c5dbd","bdp_rwlrn","Wed Mar 15 2023 19:29:21 GMT-0400 (Eastern Daylight Time)","768074","Trustworthy,Untrustworthy","","384","","","","decision","","<div class='trialDiv'><img src='Fruit/papayas.png'><br><font class='baseline'><strong>Papaya Payday</strong><p>Choose number of points to bet.</font><div class='respPicDiv'><img src='img/responseButtonOffersNo0L.png' class='respPic'></div></div>","3","","16","Papaya Payday","Fruit/papayas.png","Lost","0.65,0.2","10","0.65","219","46","",""
"html-keyboard-response","147","582769","0.0-11.0-2.45","63ea63669423c84daf2c5dbd","bdp_rwlrn","Wed Mar 15 2023 19:29:21 GMT-0400 (Eastern Daylight Time)","768074","Trustworthy,Untrustworthy","","null","","","","decisionFB","","<div class='trialDiv'><img src='Fruit/papayas.png'><br><font class='baseline'><strong>Papaya Payday</strong><p>Choose number of points to bet.</font><div class='respPicDiv'><img src='img/responseButtonOffersNo0L3.png' class='respPic'></div></div>","null","","16","Papaya Payday","Fruit/papayas.png","Lost","0.65,0.2","10","0.65","216","46","",""
"html-keyboard-response","148","583777","0.0-11.0-3.45","63ea63669423c84daf2c5dbd","bdp_rwlrn","Wed Mar 15 2023 19:29:21 GMT-0400 (Eastern Daylight Time)","768074","Trustworthy,Untrustworthy","","null","","","","feedback","","<div class='respPicDiv'><img src='img/responseButtonOffersNo0_wht.png' class='respPic'></div><div class='trialDiv'><img src='Fruit/papayas.png'><br><font class='baseline'><strong>Papaya Payday</strong><p><strong><font class='negOutcome'>You LOST</font><p>You bet: 3</strong></font> &nbsp; &nbsp; &nbsp; &nbsp; &nbsp; &nbsp;<font class='negOutcome'>You receive: <strong>0</strong></font></div>","null","","16","Papaya Payday","Fruit/papayas.png","Lost","0.65,0.2","10","0.65","216","46","",""
"html-keyboard-response","149","584092","0.0-11.0-1.46","63ea63669423c84daf2c5dbd","bdp_rwlrn","Wed Mar 15 2023 19:29:21 GMT-0400 (Eastern Daylight Time)","768074","Trustworthy,Untrustworthy","","313","","","","decision","","<div class='trialDiv'><img src='Fruit/pineapple.png'><br><font class='baseline'><strong>Primo Pineapple</strong><p>Choose number of points to bet.</font><div class='respPicDiv'><img src='img/responseButtonOffersNo0L.png' class='respPic'></div></div>","2","","16","Primo Pineapple","Fruit/pineapple.png","Won","0.35,0.8","11","0.35","221","47","",""
"html-keyboard-response","150","584350","0.0-11.0-2.46","63ea63669423c84daf2c5dbd","bdp_rwlrn","Wed Mar 15 2023 19:29:21 GMT-0400 (Eastern Daylight Time)","768074","Trustworthy,Untrustworthy","","null","","","","decisionFB","","<div class='trialDiv'><img src='Fruit/pineapple.png'><br><font class='baseline'><strong>Primo Pineapple</strong><p>Choose number of points to bet.</font><div class='respPicDiv'><img src='img/responseButtonOffersNo0L2.png' class='respPic'></div></div>","null","","16","Primo Pineapple","Fruit/pineapple.png","Won","0.35,0.8","11","0.35","219","47","",""
"html-keyboard-response","151","585364","0.0-11.0-3.46","63ea63669423c84daf2c5dbd","bdp_rwlrn","Wed Mar 15 2023 19:29:21 GMT-0400 (Eastern Daylight Time)","768074","Trustworthy,Untrustworthy","","null","","","","feedback","","<div class='respPicDiv'><img src='img/responseButtonOffersNo0_wht.png' class='respPic'></div><div class='trialDiv'><img src='Fruit/pineapple.png'><br><font class='baseline'><strong>Primo Pineapple</strong><p><strong><font class='posOutcome'>You WON</font><p>You bet: 2</strong></font> &nbsp; &nbsp; &nbsp; &nbsp; &nbsp; &nbsp;<font class='posOutcome'>you receive: <strong>4</strong></font></div>","null","","16","Primo Pineapple","Fruit/pineapple.png","Won","0.35,0.8","11","0.35","223","47","",""
"html-keyboard-response","152","585781","0.0-11.0-1.47","63ea63669423c84daf2c5dbd","bdp_rwlrn","Wed Mar 15 2023 19:29:21 GMT-0400 (Eastern Daylight Time)","768074","Trustworthy,Untrustworthy","","415","","","","decision","","<div class='trialDiv'><img src='Fruit/plums1.png'><br><font class='baseline'><strong>Plum Powerball</strong><p>Choose number of points to bet.</font><div class='respPicDiv'><img src='img/responseButtonOffersNo0L.png' class='respPic'></div></div>","2","","16","Plum Powerball","Fruit/plums1.png","Won","0.65,0.35","13","0.65","228","48","",""
"html-keyboard-response","153","586033","0.0-11.0-2.47","63ea63669423c84daf2c5dbd","bdp_rwlrn","Wed Mar 15 2023 19:29:21 GMT-0400 (Eastern Daylight Time)","768074","Trustworthy,Untrustworthy","","null","","","","decisionFB","","<div class='trialDiv'><img src='Fruit/plums1.png'><br><font class='baseline'><strong>Plum Powerball</strong><p>Choose number of points to bet.</font><div class='respPicDiv'><img src='img/responseButtonOffersNo0L2.png' class='respPic'></div></div>","null","","16","Plum Powerball","Fruit/plums1.png","Won","0.65,0.35","13","0.65","226","48","",""
"html-keyboard-response","154","587044","0.0-11.0-3.47","63ea63669423c84daf2c5dbd","bdp_rwlrn","Wed Mar 15 2023 19:29:21 GMT-0400 (Eastern Daylight Time)","768074","Trustworthy,Untrustworthy","","null","","","","feedback","","<div class='respPicDiv'><img src='img/responseButtonOffersNo0_wht.png' class='respPic'></div><div class='trialDiv'><img src='Fruit/plums1.png'><br><font class='baseline'><strong>Plum Powerball</strong><p><strong><font class='posOutcome'>You WON</font><p>You bet: 2</strong></font> &nbsp; &nbsp; &nbsp; &nbsp; &nbsp; &nbsp;<font class='posOutcome'>you receive: <strong>4</strong></font></div>","null","","16","Plum Powerball","Fruit/plums1.png","Won","0.65,0.35","13","0.65","230","48","",""
"html-keyboard-response","155","587586","0.0-11.0-1.48","63ea63669423c84daf2c5dbd","bdp_rwlrn","Wed Mar 15 2023 19:29:21 GMT-0400 (Eastern Daylight Time)","768074","Trustworthy,Untrustworthy","","540","","","","decision","","<div class='trialDiv'><img src='Fruit/pineapple.png'><br><font class='baseline'><strong>Primo Pineapple</strong><p>Choose number of points to bet.</font><div class='respPicDiv'><img src='img/responseButtonOffersNo0L.png' class='respPic'></div></div>","2","","17","Primo Pineapple","Fruit/pineapple.png","Won","0.35,0.8","11","0.35","235","49","",""
"html-keyboard-response","156","587839","0.0-11.0-2.48","63ea63669423c84daf2c5dbd","bdp_rwlrn","Wed Mar 15 2023 19:29:21 GMT-0400 (Eastern Daylight Time)","768074","Trustworthy,Untrustworthy","","null","","","","decisionFB","","<div class='trialDiv'><img src='Fruit/pineapple.png'><br><font class='baseline'><strong>Primo Pineapple</strong><p>Choose number of points to bet.</font><div class='respPicDiv'><img src='img/responseButtonOffersNo0L2.png' class='respPic'></div></div>","null","","17","Primo Pineapple","Fruit/pineapple.png","Won","0.35,0.8","11","0.35","233","49","",""
"html-keyboard-response","157","588856","0.0-11.0-3.48","63ea63669423c84daf2c5dbd","bdp_rwlrn","Wed Mar 15 2023 19:29:21 GMT-0400 (Eastern Daylight Time)","768074","Trustworthy,Untrustworthy","","null","","","","feedback","","<div class='respPicDiv'><img src='img/responseButtonOffersNo0_wht.png' class='respPic'></div><div class='trialDiv'><img src='Fruit/pineapple.png'><br><font class='baseline'><strong>Primo Pineapple</strong><p><strong><font class='posOutcome'>You WON</font><p>You bet: 2</strong></font> &nbsp; &nbsp; &nbsp; &nbsp; &nbsp; &nbsp;<font class='posOutcome'>you receive: <strong>4</strong></font></div>","null","","17","Primo Pineapple","Fruit/pineapple.png","Won","0.35,0.8","11","0.35","237","49","",""
"html-keyboard-response","158","589246","0.0-11.0-1.49","63ea63669423c84daf2c5dbd","bdp_rwlrn","Wed Mar 15 2023 19:29:21 GMT-0400 (Eastern Daylight Time)","768074","Trustworthy,Untrustworthy","","389","","","","decision","","<div class='trialDiv'><img src='Fruit/papayas.png'><br><font class='baseline'><strong>Papaya Payday</strong><p>Choose number of points to bet.</font><div class='respPicDiv'><img src='img/responseButtonOffersNo0L.png' class='respPic'></div></div>","2","","17","Papaya Payday","Fruit/papayas.png","Lost","0.65,0.2","10","0.65","242","50","",""
"html-keyboard-response","159","589509","0.0-11.0-2.49","63ea63669423c84daf2c5dbd","bdp_rwlrn","Wed Mar 15 2023 19:29:21 GMT-0400 (Eastern Daylight Time)","768074","Trustworthy,Untrustworthy","","null","","","","decisionFB","","<div class='trialDiv'><img src='Fruit/papayas.png'><br><font class='baseline'><strong>Papaya Payday</strong><p>Choose number of points to bet.</font><div class='respPicDiv'><img src='img/responseButtonOffersNo0L2.png' class='respPic'></div></div>","null","","17","Papaya Payday","Fruit/papayas.png","Lost","0.65,0.2","10","0.65","240","50","",""
"html-keyboard-response","160","590524","0.0-11.0-3.49","63ea63669423c84daf2c5dbd","bdp_rwlrn","Wed Mar 15 2023 19:29:21 GMT-0400 (Eastern Daylight Time)","768074","Trustworthy,Untrustworthy","","null","","","","feedback","","<div class='respPicDiv'><img src='img/responseButtonOffersNo0_wht.png' class='respPic'></div><div class='trialDiv'><img src='Fruit/papayas.png'><br><font class='baseline'><strong>Papaya Payday</strong><p><strong><font class='negOutcome'>You LOST</font><p>You bet: 2</strong></font> &nbsp; &nbsp; &nbsp; &nbsp; &nbsp; &nbsp;<font class='negOutcome'>You receive: <strong>0</strong></font></div>","null","","17","Papaya Payday","Fruit/papayas.png","Lost","0.65,0.2","10","0.65","240","50","",""
