"trial_type","trial_index","time_elapsed","internal_node_id","subject_id","task","startTime","totalTime","labels","view_history","rt","event","trial","time","trialtype","success","stimulus","key_press","ltround","name","fileID","outcome","lottotype","lottoswpt","lottocurrpshare","point_total","round","faceID","face"
"pavlovia","0","5","0.0-0.0","63ead6f452e11793b2f8dab8","bdp_rwlrn","Tue Mar 14 2023 18:10:26 GMT-0700 (Pacific Daylight Time)","828857","Trustworthy,Untrustworthy","","","","","","","","","","","","","","","","","","","",""
"instructions","1","33676","0.0-1.0","63ead6f452e11793b2f8dab8","bdp_rwlrn","Tue Mar 14 2023 18:10:26 GMT-0700 (Pacific Daylight Time)","828857","Trustworthy,Untrustworthy","[{""page_index"":0,""viewing_time"":33669}]","33670","","","","","","","","","","","","","","","","","",""
"","","","","63ead6f452e11793b2f8dab8","bdp_rwlrn","Tue Mar 14 2023 18:10:26 GMT-0700 (Pacific Daylight Time)","828857","Trustworthy,Untrustworthy","","","fullscreenenter","2","38968","fullscreenenter","","","","","","","","","","","","","",""
"fullscreen","2","39932","0.0-2.0","63ead6f452e11793b2f8dab8","bdp_rwlrn","Tue Mar 14 2023 18:10:26 GMT-0700 (Pacific Daylight Time)","828857","Trustworthy,Untrustworthy","","","","","","","true","","","","","","","","","","","","",""
"instructions","3","353769","0.0-4.0","63ead6f452e11793b2f8dab8","bdp_rwlrn","Tue Mar 14 2023 18:10:26 GMT-0700 (Pacific Daylight Time)","828857","Trustworthy,Untrustworthy","[{""page_index"":0,""viewing_time"":24087},{""page_index"":1,""viewing_time"":26093},{""page_index"":0,""viewing_time"":792},{""page_index"":1,""viewing_time"":14232},{""page_index"":2,""viewing_time"":74123},{""page_index"":3,""viewing_time"":501},{""page_index"":2,""viewing_time"":45160},{""page_index"":3,""viewing_time"":93366},{""page_index"":4,""viewing_time"":29983},{""page_index"":5,""viewing_time"":5490}]","313828","","","","","","","","","","","","","","","","","",""
"html-keyboard-response","4","357992","0.0-5.0","63ead6f452e11793b2f8dab8","bdp_rwlrn","Tue Mar 14 2023 18:10:26 GMT-0700 (Pacific Daylight Time)","828857","Trustworthy,Untrustworthy","","4219","","","","","","<div class='header' style='text-align:left; position: absolute; top: 5%; left: 5%;'><small>Task 1 of 5</small></div><div class='instruxDiv'><p><strong>1) What is the maximum number of points you can choose to bet on a lottery?</strong></p><p>a) 0</p><p>b) 1</p><p>c) 5</p>","C","","","","","","","","","","",""
"html-keyboard-response","5","359770","0.0-6.0","63ead6f452e11793b2f8dab8","bdp_rwlrn","Tue Mar 14 2023 18:10:26 GMT-0700 (Pacific Daylight Time)","828857","Trustworthy,Untrustworthy","","1666","","","","","","<div class='header' style='text-align:left; position: absolute; top: 5%; left: 5%;'><small>Task 1 of 5</small></div><div class='instruxDiv'><p><strong>1) What is the maximum number of points you can choose to bet on a lottery?</strong></p><p>a) 1</p><p>b) 1</p><p style='color:#00FF00'>c) 5</p><h3 style='color:#00FF00'>Correct!</h3><h3 class='center-content'>The correct response is c).</h3><h3 class='center-content'>The maximum number of points you can choose to bet on a lottery is 5 points.</h3><p><em>Press SPACEBAR to continue</em></p></div>"," ","","","","","","","","","","",""
"html-keyboard-response","6","363631","0.0-7.0","63ead6f452e11793b2f8dab8","bdp_rwlrn","Tue Mar 14 2023 18:10:26 GMT-0700 (Pacific Daylight Time)","828857","Trustworthy,Untrustworthy","","3745","","","","","","<div class='header' style='text-align:left; position: absolute; top: 5%; left: 5%;'><small>Task 1 of 5</small></div><div class='instruxDiv'><p><strong>2) How many points can you win each round?</strong></p><p>a) 10 points</p><p>b) Double what you bet</p><p>c) Quadruple what you bet</p>","B","","","","","","","","","","",""
"html-keyboard-response","7","364666","0.0-8.0","63ead6f452e11793b2f8dab8","bdp_rwlrn","Tue Mar 14 2023 18:10:26 GMT-0700 (Pacific Daylight Time)","828857","Trustworthy,Untrustworthy","","920","","","","","","<div class='header' style='text-align:left; position: absolute; top: 5%; left: 5%;'><small>Task 1 of 5</small></div><div class='instruxDiv'><p><strong>2) How many points can you win each round?</strong></p><p>a) 10 points</p><p style='color:#00FF00'>b) Double what you bet</p><p>c) Quadruple what you bet</p><h3 style='color:#00FF00'>Correct!</h3><h3 class='center-content'>The correct response is b).</h3><h3 class='center-content'>You can win double the amount of points you bet.</h3><p><em>Press SPACEBAR to continue</em></p></div>"," ","","","","","","","","","","",""
"html-keyboard-response","8","369781","0.0-9.0","63ead6f452e11793b2f8dab8","bdp_rwlrn","Tue Mar 14 2023 18:10:26 GMT-0700 (Pacific Daylight Time)","828857","Trustworthy,Untrustworthy","","null","","","","","","<div class='header' style='text-align:left; position: absolute; top: 5%; left: 5%;'><small>Task 1 of 5</small></div><div class='instruxDiv'><p>Thank you for completing the quiz<p>These are the actual lotteries you will be playing in the next block:<p><div class='tc' align='center'><img class='introPic' src='Fruit/grapes.png'><br><strong>Great Grapes</strong></div><div class='bl' align='center'><img class='introPic' src='Fruit/cherrie.png'><br><strong>Cherry Chances</strong></div><div class='br' align='center'><img class='introPic' src='Fruit/apple.png'><br><strong>Awesome Apples</strong></div></div><p>Across <strong>66 rounds</strong> you will play each lottery <strong>22 times</strong> (in random order).<p style='align:center; color:white'><font <em>Press SPACEBAR to continue</em></p>","null","","","","","","","","","","",""
"instructions","9","379133","0.0-10.0","63ead6f452e11793b2f8dab8","bdp_rwlrn","Tue Mar 14 2023 18:10:26 GMT-0700 (Pacific Daylight Time)","828857","Trustworthy,Untrustworthy","[{""page_index"":0,""viewing_time"":4237},{""page_index"":1,""viewing_time"":5113}]","9351","","","","","","","","","","","","","","","","","",""
"html-keyboard-response","10","382165","0.0-11.0-1.0","63ead6f452e11793b2f8dab8","bdp_rwlrn","Tue Mar 14 2023 18:10:26 GMT-0700 (Pacific Daylight Time)","828857","Trustworthy,Untrustworthy","","2926","","","","decision","","<div class='trialDiv'><img src='Fruit/grapes.png'><br><font class='baseline'><strong>Great Grapes</strong><p>Choose number of points to bet.</font><div class='respPicDiv'><img src='img/responseButtonOffersNo0L.png' class='respPic'></div></div>","4","1","Great Grapes","Fruit/grapes.png","Won","0.35,0.8","8","0.35","5","1","",""
"html-keyboard-response","11","382423","0.0-11.0-2.0","63ead6f452e11793b2f8dab8","bdp_rwlrn","Tue Mar 14 2023 18:10:26 GMT-0700 (Pacific Daylight Time)","828857","Trustworthy,Untrustworthy","","null","","","","decisionFB","","<div class='trialDiv'><img src='Fruit/grapes.png'><br><font class='baseline'><strong>Great Grapes</strong><p>Choose number of points to bet.</font><div class='respPicDiv'><img src='img/responseButtonOffersNo0L4.png' class='respPic'></div></div>","null","1","Great Grapes","Fruit/grapes.png","Won","0.35,0.8","8","0.35","1","1","",""
"html-keyboard-response","12","383440","0.0-11.0-3.0","63ead6f452e11793b2f8dab8","bdp_rwlrn","Tue Mar 14 2023 18:10:26 GMT-0700 (Pacific Daylight Time)","828857","Trustworthy,Untrustworthy","","null","","","","feedback","","<div class='respPicDiv'><img src='img/responseButtonOffersNo0_wht.png' class='respPic'></div><div class='trialDiv'><img src='Fruit/grapes.png'><br><font class='baseline'><strong>Great Grapes</strong><p><strong><font class='posOutcome'>You WON</font><p>You bet: 4</strong></font> &nbsp; &nbsp; &nbsp; &nbsp; &nbsp; &nbsp;<font class='posOutcome'>you receive: <strong>8</strong></font></div>","null","1","Great Grapes","Fruit/grapes.png","Won","0.35,0.8","8","0.35","9","1","",""
"html-keyboard-response","13","385588","0.0-11.0-1.1","63ead6f452e11793b2f8dab8","bdp_rwlrn","Tue Mar 14 2023 18:10:26 GMT-0700 (Pacific Daylight Time)","828857","Trustworthy,Untrustworthy","","2144","","","","decision","","<div class='trialDiv'><img src='Fruit/cherrie.png'><br><font class='baseline'><strong>Cherry Chances</strong><p>Choose number of points to bet.</font><div class='respPicDiv'><img src='img/responseButtonOffersNo0L.png' class='respPic'></div></div>","5","1","Cherry Chances","Fruit/cherrie.png","Won","0.8,0.2","12","0.8","14","2","",""
"html-keyboard-response","14","385850","0.0-11.0-2.1","63ead6f452e11793b2f8dab8","bdp_rwlrn","Tue Mar 14 2023 18:10:26 GMT-0700 (Pacific Daylight Time)","828857","Trustworthy,Untrustworthy","","null","","","","decisionFB","","<div class='trialDiv'><img src='Fruit/cherrie.png'><br><font class='baseline'><strong>Cherry Chances</strong><p>Choose number of points to bet.</font><div class='respPicDiv'><img src='img/responseButtonOffersNo0L5.png' class='respPic'></div></div>","null","1","Cherry Chances","Fruit/cherrie.png","Won","0.8,0.2","12","0.8","9","2","",""
"html-keyboard-response","15","386869","0.0-11.0-3.1","63ead6f452e11793b2f8dab8","bdp_rwlrn","Tue Mar 14 2023 18:10:26 GMT-0700 (Pacific Daylight Time)","828857","Trustworthy,Untrustworthy","","null","","","","feedback","","<div class='respPicDiv'><img src='img/responseButtonOffersNo0_wht.png' class='respPic'></div><div class='trialDiv'><img src='Fruit/cherrie.png'><br><font class='baseline'><strong>Cherry Chances</strong><p><strong><font class='posOutcome'>You WON</font><p>You bet: 5</strong></font> &nbsp; &nbsp; &nbsp; &nbsp; &nbsp; &nbsp;<font class='posOutcome'>you receive: <strong>10</strong></font></div>","null","1","Cherry Chances","Fruit/cherrie.png","Won","0.8,0.2","12","0.8","19","2","",""
"html-keyboard-response","16","387735","0.0-11.0-1.2","63ead6f452e11793b2f8dab8","bdp_rwlrn","Tue Mar 14 2023 18:10:26 GMT-0700 (Pacific Daylight Time)","828857","Trustworthy,Untrustworthy","","863","","","","decision","","<div class='trialDiv'><img src='Fruit/apple.png'><br><font class='baseline'><strong>Awesome Apples</strong><p>Choose number of points to bet.</font><div class='respPicDiv'><img src='img/responseButtonOffersNo0L.png' class='respPic'></div></div>","5","1","Awesome Apples","Fruit/apple.png","Lost","0.65,0.2","13","0.65","24","3","",""
"html-keyboard-response","17","387997","0.0-11.0-2.2","63ead6f452e11793b2f8dab8","bdp_rwlrn","Tue Mar 14 2023 18:10:26 GMT-0700 (Pacific Daylight Time)","828857","Trustworthy,Untrustworthy","","null","","","","decisionFB","","<div class='trialDiv'><img src='Fruit/apple.png'><br><font class='baseline'><strong>Awesome Apples</strong><p>Choose number of points to bet.</font><div class='respPicDiv'><img src='img/responseButtonOffersNo0L5.png' class='respPic'></div></div>","null","1","Awesome Apples","Fruit/apple.png","Lost","0.65,0.2","13","0.65","19","3","",""
"html-keyboard-response","18","389016","0.0-11.0-3.2","63ead6f452e11793b2f8dab8","bdp_rwlrn","Tue Mar 14 2023 18:10:26 GMT-0700 (Pacific Daylight Time)","828857","Trustworthy,Untrustworthy","","null","","","","feedback","","<div class='respPicDiv'><img src='img/responseButtonOffersNo0_wht.png' class='respPic'></div><div class='trialDiv'><img src='Fruit/apple.png'><br><font class='baseline'><strong>Awesome Apples</strong><p><strong><font class='negOutcome'>You LOST</font><p>You bet: 5</strong></font> &nbsp; &nbsp; &nbsp; &nbsp; &nbsp; &nbsp;<font class='negOutcome'>You receive: <strong>0</strong></font></div>","null","1","Awesome Apples","Fruit/apple.png","Lost","0.65,0.2","13","0.65","19","3","",""
"html-keyboard-response","19","389489","0.0-11.0-1.3","63ead6f452e11793b2f8dab8","bdp_rwlrn","Tue Mar 14 2023 18:10:26 GMT-0700 (Pacific Daylight Time)","828857","Trustworthy,Untrustworthy","","470","","","","decision","","<div class='trialDiv'><img src='Fruit/grapes.png'><br><font class='baseline'><strong>Great Grapes</strong><p>Choose number of points to bet.</font><div class='respPicDiv'><img src='img/responseButtonOffersNo0L.png' class='respPic'></div></div>","5","2","Great Grapes","Fruit/grapes.png","Lost","0.35,0.8","8","0.35","24","4","",""
"html-keyboard-response","20","389745","0.0-11.0-2.3","63ead6f452e11793b2f8dab8","bdp_rwlrn","Tue Mar 14 2023 18:10:26 GMT-0700 (Pacific Daylight Time)","828857","Trustworthy,Untrustworthy","","null","","","","decisionFB","","<div class='trialDiv'><img src='Fruit/grapes.png'><br><font class='baseline'><strong>Great Grapes</strong><p>Choose number of points to bet.</font><div class='respPicDiv'><img src='img/responseButtonOffersNo0L5.png' class='respPic'></div></div>","null","2","Great Grapes","Fruit/grapes.png","Lost","0.35,0.8","8","0.35","19","4","",""
"html-keyboard-response","21","390762","0.0-11.0-3.3","63ead6f452e11793b2f8dab8","bdp_rwlrn","Tue Mar 14 2023 18:10:26 GMT-0700 (Pacific Daylight Time)","828857","Trustworthy,Untrustworthy","","null","","","","feedback","","<div class='respPicDiv'><img src='img/responseButtonOffersNo0_wht.png' class='respPic'></div><div class='trialDiv'><img src='Fruit/grapes.png'><br><font class='baseline'><strong>Great Grapes</strong><p><strong><font class='negOutcome'>You LOST</font><p>You bet: 5</strong></font> &nbsp; &nbsp; &nbsp; &nbsp; &nbsp; &nbsp;<font class='negOutcome'>You receive: <strong>0</strong></font></div>","null","2","Great Grapes","Fruit/grapes.png","Lost","0.35,0.8","8","0.35","19","4","",""
"html-keyboard-response","22","393538","0.0-11.0-1.4","63ead6f452e11793b2f8dab8","bdp_rwlrn","Tue Mar 14 2023 18:10:26 GMT-0700 (Pacific Daylight Time)","828857","Trustworthy,Untrustworthy","","2773","","","","decision","","<div class='trialDiv'><img src='Fruit/cherrie.png'><br><font class='baseline'><strong>Cherry Chances</strong><p>Choose number of points to bet.</font><div class='respPicDiv'><img src='img/responseButtonOffersNo0L.png' class='respPic'></div></div>","5","2","Cherry Chances","Fruit/cherrie.png","Lost","0.8,0.2","12","0.8","24","5","",""
"html-keyboard-response","23","393803","0.0-11.0-2.4","63ead6f452e11793b2f8dab8","bdp_rwlrn","Tue Mar 14 2023 18:10:26 GMT-0700 (Pacific Daylight Time)","828857","Trustworthy,Untrustworthy","","null","","","","decisionFB","","<div class='trialDiv'><img src='Fruit/cherrie.png'><br><font class='baseline'><strong>Cherry Chances</strong><p>Choose number of points to bet.</font><div class='respPicDiv'><img src='img/responseButtonOffersNo0L5.png' class='respPic'></div></div>","null","2","Cherry Chances","Fruit/cherrie.png","Lost","0.8,0.2","12","0.8","19","5","",""
"html-keyboard-response","24","394822","0.0-11.0-3.4","63ead6f452e11793b2f8dab8","bdp_rwlrn","Tue Mar 14 2023 18:10:26 GMT-0700 (Pacific Daylight Time)","828857","Trustworthy,Untrustworthy","","null","","","","feedback","","<div class='respPicDiv'><img src='img/responseButtonOffersNo0_wht.png' class='respPic'></div><div class='trialDiv'><img src='Fruit/cherrie.png'><br><font class='baseline'><strong>Cherry Chances</strong><p><strong><font class='negOutcome'>You LOST</font><p>You bet: 5</strong></font> &nbsp; &nbsp; &nbsp; &nbsp; &nbsp; &nbsp;<font class='negOutcome'>You receive: <strong>0</strong></font></div>","null","2","Cherry Chances","Fruit/cherrie.png","Lost","0.8,0.2","12","0.8","19","5","",""
"html-keyboard-response","25","397391","0.0-11.0-1.5","63ead6f452e11793b2f8dab8","bdp_rwlrn","Tue Mar 14 2023 18:10:26 GMT-0700 (Pacific Daylight Time)","828857","Trustworthy,Untrustworthy","","2567","","","","decision","","<div class='trialDiv'><img src='Fruit/apple.png'><br><font class='baseline'><strong>Awesome Apples</strong><p>Choose number of points to bet.</font><div class='respPicDiv'><img src='img/responseButtonOffersNo0L.png' class='respPic'></div></div>","4","2","Awesome Apples","Fruit/apple.png","Won","0.65,0.2","13","0.65","24","6","",""
"html-keyboard-response","26","397647","0.0-11.0-2.5","63ead6f452e11793b2f8dab8","bdp_rwlrn","Tue Mar 14 2023 18:10:26 GMT-0700 (Pacific Daylight Time)","828857","Trustworthy,Untrustworthy","","null","","","","decisionFB","","<div class='trialDiv'><img src='Fruit/apple.png'><br><font class='baseline'><strong>Awesome Apples</strong><p>Choose number of points to bet.</font><div class='respPicDiv'><img src='img/responseButtonOffersNo0L4.png' class='respPic'></div></div>","null","2","Awesome Apples","Fruit/apple.png","Won","0.65,0.2","13","0.65","20","6","",""
"html-keyboard-response","27","398651","0.0-11.0-3.5","63ead6f452e11793b2f8dab8","bdp_rwlrn","Tue Mar 14 2023 18:10:26 GMT-0700 (Pacific Daylight Time)","828857","Trustworthy,Untrustworthy","","null","","","","feedback","","<div class='respPicDiv'><img src='img/responseButtonOffersNo0_wht.png' class='respPic'></div><div class='trialDiv'><img src='Fruit/apple.png'><br><font class='baseline'><strong>Awesome Apples</strong><p><strong><font class='posOutcome'>You WON</font><p>You bet: 4</strong></font> &nbsp; &nbsp; &nbsp; &nbsp; &nbsp; &nbsp;<font class='posOutcome'>you receive: <strong>8</strong></font></div>","null","2","Awesome Apples","Fruit/apple.png","Won","0.65,0.2","13","0.65","28","6","",""
"html-keyboard-response","28","399595","0.0-11.0-1.6","63ead6f452e11793b2f8dab8","bdp_rwlrn","Tue Mar 14 2023 18:10:26 GMT-0700 (Pacific Daylight Time)","828857","Trustworthy,Untrustworthy","","941","","","","decision","","<div class='trialDiv'><img src='Fruit/grapes.png'><br><font class='baseline'><strong>Great Grapes</strong><p>Choose number of points to bet.</font><div class='respPicDiv'><img src='img/responseButtonOffersNo0L.png' class='respPic'></div></div>","4","3","Great Grapes","Fruit/grapes.png","Won","0.35,0.8","8","0.35","33","7","",""
"html-keyboard-response","29","399861","0.0-11.0-2.6","63ead6f452e11793b2f8dab8","bdp_rwlrn","Tue Mar 14 2023 18:10:26 GMT-0700 (Pacific Daylight Time)","828857","Trustworthy,Untrustworthy","","null","","","","decisionFB","","<div class='trialDiv'><img src='Fruit/grapes.png'><br><font class='baseline'><strong>Great Grapes</strong><p>Choose number of points to bet.</font><div class='respPicDiv'><img src='img/responseButtonOffersNo0L4.png' class='respPic'></div></div>","null","3","Great Grapes","Fruit/grapes.png","Won","0.35,0.8","8","0.35","29","7","",""
"html-keyboard-response","30","400880","0.0-11.0-3.6","63ead6f452e11793b2f8dab8","bdp_rwlrn","Tue Mar 14 2023 18:10:26 GMT-0700 (Pacific Daylight Time)","828857","Trustworthy,Untrustworthy","","null","","","","feedback","","<div class='respPicDiv'><img src='img/responseButtonOffersNo0_wht.png' class='respPic'></div><div class='trialDiv'><img src='Fruit/grapes.png'><br><font class='baseline'><strong>Great Grapes</strong><p><strong><font class='posOutcome'>You WON</font><p>You bet: 4</strong></font> &nbsp; &nbsp; &nbsp; &nbsp; &nbsp; &nbsp;<font class='posOutcome'>you receive: <strong>8</strong></font></div>","null","3","Great Grapes","Fruit/grapes.png","Won","0.35,0.8","8","0.35","37","7","",""
"html-keyboard-response","31","401364","0.0-11.0-1.7","63ead6f452e11793b2f8dab8","bdp_rwlrn","Tue Mar 14 2023 18:10:26 GMT-0700 (Pacific Daylight Time)","828857","Trustworthy,Untrustworthy","","482","","","","decision","","<div class='trialDiv'><img src='Fruit/cherrie.png'><br><font class='baseline'><strong>Cherry Chances</strong><p>Choose number of points to bet.</font><div class='respPicDiv'><img src='img/responseButtonOffersNo0L.png' class='respPic'></div></div>","4","3","Cherry Chances","Fruit/cherrie.png","Won","0.8,0.2","12","0.8","42","8","",""
"html-keyboard-response","32","401626","0.0-11.0-2.7","63ead6f452e11793b2f8dab8","bdp_rwlrn","Tue Mar 14 2023 18:10:26 GMT-0700 (Pacific Daylight Time)","828857","Trustworthy,Untrustworthy","","null","","","","decisionFB","","<div class='trialDiv'><img src='Fruit/cherrie.png'><br><font class='baseline'><strong>Cherry Chances</strong><p>Choose number of points to bet.</font><div class='respPicDiv'><img src='img/responseButtonOffersNo0L4.png' class='respPic'></div></div>","null","3","Cherry Chances","Fruit/cherrie.png","Won","0.8,0.2","12","0.8","38","8","",""
"html-keyboard-response","33","402646","0.0-11.0-3.7","63ead6f452e11793b2f8dab8","bdp_rwlrn","Tue Mar 14 2023 18:10:26 GMT-0700 (Pacific Daylight Time)","828857","Trustworthy,Untrustworthy","","null","","","","feedback","","<div class='respPicDiv'><img src='img/responseButtonOffersNo0_wht.png' class='respPic'></div><div class='trialDiv'><img src='Fruit/cherrie.png'><br><font class='baseline'><strong>Cherry Chances</strong><p><strong><font class='posOutcome'>You WON</font><p>You bet: 4</strong></font> &nbsp; &nbsp; &nbsp; &nbsp; &nbsp; &nbsp;<font class='posOutcome'>you receive: <strong>8</strong></font></div>","null","3","Cherry Chances","Fruit/cherrie.png","Won","0.8,0.2","12","0.8","46","8","",""
"html-keyboard-response","34","402732","0.0-11.0-1.8","63ead6f452e11793b2f8dab8","bdp_rwlrn","Tue Mar 14 2023 18:10:26 GMT-0700 (Pacific Daylight Time)","828857","Trustworthy,Untrustworthy","","83","","","","decision","","<div class='trialDiv'><img src='Fruit/apple.png'><br><font class='baseline'><strong>Awesome Apples</strong><p>Choose number of points to bet.</font><div class='respPicDiv'><img src='img/responseButtonOffersNo0L.png' class='respPic'></div></div>","4","3","Awesome Apples","Fruit/apple.png","Lost","0.65,0.2","13","0.65","51","9","",""
"html-keyboard-response","35","402990","0.0-11.0-2.8","63ead6f452e11793b2f8dab8","bdp_rwlrn","Tue Mar 14 2023 18:10:26 GMT-0700 (Pacific Daylight Time)","828857","Trustworthy,Untrustworthy","","null","","","","decisionFB","","<div class='trialDiv'><img src='Fruit/apple.png'><br><font class='baseline'><strong>Awesome Apples</strong><p>Choose number of points to bet.</font><div class='respPicDiv'><img src='img/responseButtonOffersNo0L4.png' class='respPic'></div></div>","null","3","Awesome Apples","Fruit/apple.png","Lost","0.65,0.2","13","0.65","47","9","",""
"html-keyboard-response","36","404008","0.0-11.0-3.8","63ead6f452e11793b2f8dab8","bdp_rwlrn","Tue Mar 14 2023 18:10:26 GMT-0700 (Pacific Daylight Time)","828857","Trustworthy,Untrustworthy","","null","","","","feedback","","<div class='respPicDiv'><img src='img/responseButtonOffersNo0_wht.png' class='respPic'></div><div class='trialDiv'><img src='Fruit/apple.png'><br><font class='baseline'><strong>Awesome Apples</strong><p><strong><font class='negOutcome'>You LOST</font><p>You bet: 4</strong></font> &nbsp; &nbsp; &nbsp; &nbsp; &nbsp; &nbsp;<font class='negOutcome'>You receive: <strong>0</strong></font></div>","null","3","Awesome Apples","Fruit/apple.png","Lost","0.65,0.2","13","0.65","47","9","",""
"html-keyboard-response","37","404469","0.0-11.0-1.9","63ead6f452e11793b2f8dab8","bdp_rwlrn","Tue Mar 14 2023 18:10:26 GMT-0700 (Pacific Daylight Time)","828857","Trustworthy,Untrustworthy","","458","","","","decision","","<div class='trialDiv'><img src='Fruit/grapes.png'><br><font class='baseline'><strong>Great Grapes</strong><p>Choose number of points to bet.</font><div class='respPicDiv'><img src='img/responseButtonOffersNo0L.png' class='respPic'></div></div>","5","4","Great Grapes","Fruit/grapes.png","Lost","0.35,0.8","8","0.35","52","10","",""
"html-keyboard-response","38","404722","0.0-11.0-2.9","63ead6f452e11793b2f8dab8","bdp_rwlrn","Tue Mar 14 2023 18:10:26 GMT-0700 (Pacific Daylight Time)","828857","Trustworthy,Untrustworthy","","null","","","","decisionFB","","<div class='trialDiv'><img src='Fruit/grapes.png'><br><font class='baseline'><strong>Great Grapes</strong><p>Choose number of points to bet.</font><div class='respPicDiv'><img src='img/responseButtonOffersNo0L5.png' class='respPic'></div></div>","null","4","Great Grapes","Fruit/grapes.png","Lost","0.35,0.8","8","0.35","47","10","",""
"html-keyboard-response","39","405734","0.0-11.0-3.9","63ead6f452e11793b2f8dab8","bdp_rwlrn","Tue Mar 14 2023 18:10:26 GMT-0700 (Pacific Daylight Time)","828857","Trustworthy,Untrustworthy","","null","","","","feedback","","<div class='respPicDiv'><img src='img/responseButtonOffersNo0_wht.png' class='respPic'></div><div class='trialDiv'><img src='Fruit/grapes.png'><br><font class='baseline'><strong>Great Grapes</strong><p><strong><font class='negOutcome'>You LOST</font><p>You bet: 5</strong></font> &nbsp; &nbsp; &nbsp; &nbsp; &nbsp; &nbsp;<font class='negOutcome'>You receive: <strong>0</strong></font></div>","null","4","Great Grapes","Fruit/grapes.png","Lost","0.35,0.8","8","0.35","47","10","",""
"html-keyboard-response","40","405946","0.0-11.0-1.10","63ead6f452e11793b2f8dab8","bdp_rwlrn","Tue Mar 14 2023 18:10:26 GMT-0700 (Pacific Daylight Time)","828857","Trustworthy,Untrustworthy","","210","","","","decision","","<div class='trialDiv'><img src='Fruit/apple.png'><br><font class='baseline'><strong>Awesome Apples</strong><p>Choose number of points to bet.</font><div class='respPicDiv'><img src='img/responseButtonOffersNo0L.png' class='respPic'></div></div>","5","4","Awesome Apples","Fruit/apple.png","Lost","0.65,0.2","13","0.65","52","11","",""
"html-keyboard-response","41","406202","0.0-11.0-2.10","63ead6f452e11793b2f8dab8","bdp_rwlrn","Tue Mar 14 2023 18:10:26 GMT-0700 (Pacific Daylight Time)","828857","Trustworthy,Untrustworthy","","null","","","","decisionFB","","<div class='trialDiv'><img src='Fruit/apple.png'><br><font class='baseline'><strong>Awesome Apples</strong><p>Choose number of points to bet.</font><div class='respPicDiv'><img src='img/responseButtonOffersNo0L5.png' class='respPic'></div></div>","null","4","Awesome Apples","Fruit/apple.png","Lost","0.65,0.2","13","0.65","47","11","",""
"html-keyboard-response","42","407220","0.0-11.0-3.10","63ead6f452e11793b2f8dab8","bdp_rwlrn","Tue Mar 14 2023 18:10:26 GMT-0700 (Pacific Daylight Time)","828857","Trustworthy,Untrustworthy","","null","","","","feedback","","<div class='respPicDiv'><img src='img/responseButtonOffersNo0_wht.png' class='respPic'></div><div class='trialDiv'><img src='Fruit/apple.png'><br><font class='baseline'><strong>Awesome Apples</strong><p><strong><font class='negOutcome'>You LOST</font><p>You bet: 5</strong></font> &nbsp; &nbsp; &nbsp; &nbsp; &nbsp; &nbsp;<font class='negOutcome'>You receive: <strong>0</strong></font></div>","null","4","Awesome Apples","Fruit/apple.png","Lost","0.65,0.2","13","0.65","47","11","",""
"html-keyboard-response","43","407237","0.0-11.0-1.11","63ead6f452e11793b2f8dab8","bdp_rwlrn","Tue Mar 14 2023 18:10:26 GMT-0700 (Pacific Daylight Time)","828857","Trustworthy,Untrustworthy","","16","","","","decision","","<div class='trialDiv'><img src='Fruit/cherrie.png'><br><font class='baseline'><strong>Cherry Chances</strong><p>Choose number of points to bet.</font><div class='respPicDiv'><img src='img/responseButtonOffersNo0L.png' class='respPic'></div></div>","5","4","Cherry Chances","Fruit/cherrie.png","Won","0.8,0.2","12","0.8","52","12","",""
"html-keyboard-response","44","407501","0.0-11.0-2.11","63ead6f452e11793b2f8dab8","bdp_rwlrn","Tue Mar 14 2023 18:10:26 GMT-0700 (Pacific Daylight Time)","828857","Trustworthy,Untrustworthy","","null","","","","decisionFB","","<div class='trialDiv'><img src='Fruit/cherrie.png'><br><font class='baseline'><strong>Cherry Chances</strong><p>Choose number of points to bet.</font><div class='respPicDiv'><img src='img/responseButtonOffersNo0L5.png' class='respPic'></div></div>","null","4","Cherry Chances","Fruit/cherrie.png","Won","0.8,0.2","12","0.8","47","12","",""
"html-keyboard-response","45","408518","0.0-11.0-3.11","63ead6f452e11793b2f8dab8","bdp_rwlrn","Tue Mar 14 2023 18:10:26 GMT-0700 (Pacific Daylight Time)","828857","Trustworthy,Untrustworthy","","null","","","","feedback","","<div class='respPicDiv'><img src='img/responseButtonOffersNo0_wht.png' class='respPic'></div><div class='trialDiv'><img src='Fruit/cherrie.png'><br><font class='baseline'><strong>Cherry Chances</strong><p><strong><font class='posOutcome'>You WON</font><p>You bet: 5</strong></font> &nbsp; &nbsp; &nbsp; &nbsp; &nbsp; &nbsp;<font class='posOutcome'>you receive: <strong>10</strong></font></div>","null","4","Cherry Chances","Fruit/cherrie.png","Won","0.8,0.2","12","0.8","57","12","",""
"html-keyboard-response","46","408745","0.0-11.0-1.12","63ead6f452e11793b2f8dab8","bdp_rwlrn","Tue Mar 14 2023 18:10:26 GMT-0700 (Pacific Daylight Time)","828857","Trustworthy,Untrustworthy","","225","","","","decision","","<div class='trialDiv'><img src='Fruit/grapes.png'><br><font class='baseline'><strong>Great Grapes</strong><p>Choose number of points to bet.</font><div class='respPicDiv'><img src='img/responseButtonOffersNo0L.png' class='respPic'></div></div>","5","5","Great Grapes","Fruit/grapes.png","Lost","0.35,0.8","8","0.35","62","13","",""
"html-keyboard-response","47","408999","0.0-11.0-2.12","63ead6f452e11793b2f8dab8","bdp_rwlrn","Tue Mar 14 2023 18:10:26 GMT-0700 (Pacific Daylight Time)","828857","Trustworthy,Untrustworthy","","null","","","","decisionFB","","<div class='trialDiv'><img src='Fruit/grapes.png'><br><font class='baseline'><strong>Great Grapes</strong><p>Choose number of points to bet.</font><div class='respPicDiv'><img src='img/responseButtonOffersNo0L5.png' class='respPic'></div></div>","null","5","Great Grapes","Fruit/grapes.png","Lost","0.35,0.8","8","0.35","57","13","",""
"html-keyboard-response","48","410003","0.0-11.0-3.12","63ead6f452e11793b2f8dab8","bdp_rwlrn","Tue Mar 14 2023 18:10:26 GMT-0700 (Pacific Daylight Time)","828857","Trustworthy,Untrustworthy","","null","","","","feedback","","<div class='respPicDiv'><img src='img/responseButtonOffersNo0_wht.png' class='respPic'></div><div class='trialDiv'><img src='Fruit/grapes.png'><br><font class='baseline'><strong>Great Grapes</strong><p><strong><font class='negOutcome'>You LOST</font><p>You bet: 5</strong></font> &nbsp; &nbsp; &nbsp; &nbsp; &nbsp; &nbsp;<font class='negOutcome'>You receive: <strong>0</strong></font></div>","null","5","Great Grapes","Fruit/grapes.png","Lost","0.35,0.8","8","0.35","57","13","",""
"html-keyboard-response","49","410282","0.0-11.0-1.13","63ead6f452e11793b2f8dab8","bdp_rwlrn","Tue Mar 14 2023 18:10:26 GMT-0700 (Pacific Daylight Time)","828857","Trustworthy,Untrustworthy","","276","","","","decision","","<div class='trialDiv'><img src='Fruit/apple.png'><br><font class='baseline'><strong>Awesome Apples</strong><p>Choose number of points to bet.</font><div class='respPicDiv'><img src='img/responseButtonOffersNo0L.png' class='respPic'></div></div>","5","5","Awesome Apples","Fruit/apple.png","Lost","0.65,0.2","13","0.65","62","14","",""
"html-keyboard-response","50","410534","0.0-11.0-2.13","63ead6f452e11793b2f8dab8","bdp_rwlrn","Tue Mar 14 2023 18:10:26 GMT-0700 (Pacific Daylight Time)","828857","Trustworthy,Untrustworthy","","null","","","","decisionFB","","<div class='trialDiv'><img src='Fruit/apple.png'><br><font class='baseline'><strong>Awesome Apples</strong><p>Choose number of points to bet.</font><div class='respPicDiv'><img src='img/responseButtonOffersNo0L5.png' class='respPic'></div></div>","null","5","Awesome Apples","Fruit/apple.png","Lost","0.65,0.2","13","0.65","57","14","",""
"html-keyboard-response","51","411537","0.0-11.0-3.13","63ead6f452e11793b2f8dab8","bdp_rwlrn","Tue Mar 14 2023 18:10:26 GMT-0700 (Pacific Daylight Time)","828857","Trustworthy,Untrustworthy","","null","","","","feedback","","<div class='respPicDiv'><img src='img/responseButtonOffersNo0_wht.png' class='respPic'></div><div class='trialDiv'><img src='Fruit/apple.png'><br><font class='baseline'><strong>Awesome Apples</strong><p><strong><font class='negOutcome'>You LOST</font><p>You bet: 5</strong></font> &nbsp; &nbsp; &nbsp; &nbsp; &nbsp; &nbsp;<font class='negOutcome'>You receive: <strong>0</strong></font></div>","null","5","Awesome Apples","Fruit/apple.png","Lost","0.65,0.2","13","0.65","57","14","",""
"html-keyboard-response","52","412034","0.0-11.0-1.14","63ead6f452e11793b2f8dab8","bdp_rwlrn","Tue Mar 14 2023 18:10:26 GMT-0700 (Pacific Daylight Time)","828857","Trustworthy,Untrustworthy","","495","","","","decision","","<div class='trialDiv'><img src='Fruit/cherrie.png'><br><font class='baseline'><strong>Cherry Chances</strong><p>Choose number of points to bet.</font><div class='respPicDiv'><img src='img/responseButtonOffersNo0L.png' class='respPic'></div></div>","5","5","Cherry Chances","Fruit/cherrie.png","Won","0.8,0.2","12","0.8","62","15","",""
"html-keyboard-response","53","412288","0.0-11.0-2.14","63ead6f452e11793b2f8dab8","bdp_rwlrn","Tue Mar 14 2023 18:10:26 GMT-0700 (Pacific Daylight Time)","828857","Trustworthy,Untrustworthy","","null","","","","decisionFB","","<div class='trialDiv'><img src='Fruit/cherrie.png'><br><font class='baseline'><strong>Cherry Chances</strong><p>Choose number of points to bet.</font><div class='respPicDiv'><img src='img/responseButtonOffersNo0L5.png' class='respPic'></div></div>","null","5","Cherry Chances","Fruit/cherrie.png","Won","0.8,0.2","12","0.8","57","15","",""
"html-keyboard-response","54","413291","0.0-11.0-3.14","63ead6f452e11793b2f8dab8","bdp_rwlrn","Tue Mar 14 2023 18:10:26 GMT-0700 (Pacific Daylight Time)","828857","Trustworthy,Untrustworthy","","null","","","","feedback","","<div class='respPicDiv'><img src='img/responseButtonOffersNo0_wht.png' class='respPic'></div><div class='trialDiv'><img src='Fruit/cherrie.png'><br><font class='baseline'><strong>Cherry Chances</strong><p><strong><font class='posOutcome'>You WON</font><p>You bet: 5</strong></font> &nbsp; &nbsp; &nbsp; &nbsp; &nbsp; &nbsp;<font class='posOutcome'>you receive: <strong>10</strong></font></div>","null","5","Cherry Chances","Fruit/cherrie.png","Won","0.8,0.2","12","0.8","67","15","",""
"html-keyboard-response","55","414337","0.0-11.0-1.15","63ead6f452e11793b2f8dab8","bdp_rwlrn","Tue Mar 14 2023 18:10:26 GMT-0700 (Pacific Daylight Time)","828857","Trustworthy,Untrustworthy","","1043","","","","decision","","<div class='trialDiv'><img src='Fruit/apple.png'><br><font class='baseline'><strong>Awesome Apples</strong><p>Choose number of points to bet.</font><div class='respPicDiv'><img src='img/responseButtonOffersNo0L.png' class='respPic'></div></div>","5","6","Awesome Apples","Fruit/apple.png","Lost","0.65,0.2","13","0.65","72","16","",""
"html-keyboard-response","56","414589","0.0-11.0-2.15","63ead6f452e11793b2f8dab8","bdp_rwlrn","Tue Mar 14 2023 18:10:26 GMT-0700 (Pacific Daylight Time)","828857","Trustworthy,Untrustworthy","","null","","","","decisionFB","","<div class='trialDiv'><img src='Fruit/apple.png'><br><font class='baseline'><strong>Awesome Apples</strong><p>Choose number of points to bet.</font><div class='respPicDiv'><img src='img/responseButtonOffersNo0L5.png' class='respPic'></div></div>","null","6","Awesome Apples","Fruit/apple.png","Lost","0.65,0.2","13","0.65","67","16","",""
"html-keyboard-response","57","415593","0.0-11.0-3.15","63ead6f452e11793b2f8dab8","bdp_rwlrn","Tue Mar 14 2023 18:10:26 GMT-0700 (Pacific Daylight Time)","828857","Trustworthy,Untrustworthy","","null","","","","feedback","","<div class='respPicDiv'><img src='img/responseButtonOffersNo0_wht.png' class='respPic'></div><div class='trialDiv'><img src='Fruit/apple.png'><br><font class='baseline'><strong>Awesome Apples</strong><p><strong><font class='negOutcome'>You LOST</font><p>You bet: 5</strong></font> &nbsp; &nbsp; &nbsp; &nbsp; &nbsp; &nbsp;<font class='negOutcome'>You receive: <strong>0</strong></font></div>","null","6","Awesome Apples","Fruit/apple.png","Lost","0.65,0.2","13","0.65","67","16","",""
"html-keyboard-response","58","416186","0.0-11.0-1.16","63ead6f452e11793b2f8dab8","bdp_rwlrn","Tue Mar 14 2023 18:10:26 GMT-0700 (Pacific Daylight Time)","828857","Trustworthy,Untrustworthy","","592","","","","decision","","<div class='trialDiv'><img src='Fruit/grapes.png'><br><font class='baseline'><strong>Great Grapes</strong><p>Choose number of points to bet.</font><div class='respPicDiv'><img src='img/responseButtonOffersNo0L.png' class='respPic'></div></div>","3","6","Great Grapes","Fruit/grapes.png","Lost","0.35,0.8","8","0.35","72","17","",""
"html-keyboard-response","59","416440","0.0-11.0-2.16","63ead6f452e11793b2f8dab8","bdp_rwlrn","Tue Mar 14 2023 18:10:26 GMT-0700 (Pacific Daylight Time)","828857","Trustworthy,Untrustworthy","","null","","","","decisionFB","","<div class='trialDiv'><img src='Fruit/grapes.png'><br><font class='baseline'><strong>Great Grapes</strong><p>Choose number of points to bet.</font><div class='respPicDiv'><img src='img/responseButtonOffersNo0L3.png' class='respPic'></div></div>","null","6","Great Grapes","Fruit/grapes.png","Lost","0.35,0.8","8","0.35","69","17","",""
"html-keyboard-response","60","417444","0.0-11.0-3.16","63ead6f452e11793b2f8dab8","bdp_rwlrn","Tue Mar 14 2023 18:10:26 GMT-0700 (Pacific Daylight Time)","828857","Trustworthy,Untrustworthy","","null","","","","feedback","","<div class='respPicDiv'><img src='img/responseButtonOffersNo0_wht.png' class='respPic'></div><div class='trialDiv'><img src='Fruit/grapes.png'><br><font class='baseline'><strong>Great Grapes</strong><p><strong><font class='negOutcome'>You LOST</font><p>You bet: 3</strong></font> &nbsp; &nbsp; &nbsp; &nbsp; &nbsp; &nbsp;<font class='negOutcome'>You receive: <strong>0</strong></font></div>","null","6","Great Grapes","Fruit/grapes.png","Lost","0.35,0.8","8","0.35","69","17","",""
"html-keyboard-response","61","418398","0.0-11.0-1.17","63ead6f452e11793b2f8dab8","bdp_rwlrn","Tue Mar 14 2023 18:10:26 GMT-0700 (Pacific Daylight Time)","828857","Trustworthy,Untrustworthy","","951","","","","decision","","<div class='trialDiv'><img src='Fruit/cherrie.png'><br><font class='baseline'><strong>Cherry Chances</strong><p>Choose number of points to bet.</font><div class='respPicDiv'><img src='img/responseButtonOffersNo0L.png' class='respPic'></div></div>","4","6","Cherry Chances","Fruit/cherrie.png","Won","0.8,0.2","12","0.8","74","18","",""
"html-keyboard-response","62","418652","0.0-11.0-2.17","63ead6f452e11793b2f8dab8","bdp_rwlrn","Tue Mar 14 2023 18:10:26 GMT-0700 (Pacific Daylight Time)","828857","Trustworthy,Untrustworthy","","null","","","","decisionFB","","<div class='trialDiv'><img src='Fruit/cherrie.png'><br><font class='baseline'><strong>Cherry Chances</strong><p>Choose number of points to bet.</font><div class='respPicDiv'><img src='img/responseButtonOffersNo0L4.png' class='respPic'></div></div>","null","6","Cherry Chances","Fruit/cherrie.png","Won","0.8,0.2","12","0.8","70","18","",""
"html-keyboard-response","63","419656","0.0-11.0-3.17","63ead6f452e11793b2f8dab8","bdp_rwlrn","Tue Mar 14 2023 18:10:26 GMT-0700 (Pacific Daylight Time)","828857","Trustworthy,Untrustworthy","","null","","","","feedback","","<div class='respPicDiv'><img src='img/responseButtonOffersNo0_wht.png' class='respPic'></div><div class='trialDiv'><img src='Fruit/cherrie.png'><br><font class='baseline'><strong>Cherry Chances</strong><p><strong><font class='posOutcome'>You WON</font><p>You bet: 4</strong></font> &nbsp; &nbsp; &nbsp; &nbsp; &nbsp; &nbsp;<font class='posOutcome'>you receive: <strong>8</strong></font></div>","null","6","Cherry Chances","Fruit/cherrie.png","Won","0.8,0.2","12","0.8","78","18","",""
"html-keyboard-response","64","419721","0.0-11.0-1.18","63ead6f452e11793b2f8dab8","bdp_rwlrn","Tue Mar 14 2023 18:10:26 GMT-0700 (Pacific Daylight Time)","828857","Trustworthy,Untrustworthy","","63","","","","decision","","<div class='trialDiv'><img src='Fruit/grapes.png'><br><font class='baseline'><strong>Great Grapes</strong><p>Choose number of points to bet.</font><div class='respPicDiv'><img src='img/responseButtonOffersNo0L.png' class='respPic'></div></div>","4","7","Great Grapes","Fruit/grapes.png","Lost","0.35,0.8","8","0.35","83","19","",""
"html-keyboard-response","65","419973","0.0-11.0-2.18","63ead6f452e11793b2f8dab8","bdp_rwlrn","Tue Mar 14 2023 18:10:26 GMT-0700 (Pacific Daylight Time)","828857","Trustworthy,Untrustworthy","","null","","","","decisionFB","","<div class='trialDiv'><img src='Fruit/grapes.png'><br><font class='baseline'><strong>Great Grapes</strong><p>Choose number of points to bet.</font><div class='respPicDiv'><img src='img/responseButtonOffersNo0L4.png' class='respPic'></div></div>","null","7","Great Grapes","Fruit/grapes.png","Lost","0.35,0.8","8","0.35","79","19","",""
"html-keyboard-response","66","420976","0.0-11.0-3.18","63ead6f452e11793b2f8dab8","bdp_rwlrn","Tue Mar 14 2023 18:10:26 GMT-0700 (Pacific Daylight Time)","828857","Trustworthy,Untrustworthy","","null","","","","feedback","","<div class='respPicDiv'><img src='img/responseButtonOffersNo0_wht.png' class='respPic'></div><div class='trialDiv'><img src='Fruit/grapes.png'><br><font class='baseline'><strong>Great Grapes</strong><p><strong><font class='negOutcome'>You LOST</font><p>You bet: 4</strong></font> &nbsp; &nbsp; &nbsp; &nbsp; &nbsp; &nbsp;<font class='negOutcome'>You receive: <strong>0</strong></font></div>","null","7","Great Grapes","Fruit/grapes.png","Lost","0.35,0.8","8","0.35","79","19","",""
"html-keyboard-response","67","420997","0.0-11.0-1.19","63ead6f452e11793b2f8dab8","bdp_rwlrn","Tue Mar 14 2023 18:10:26 GMT-0700 (Pacific Daylight Time)","828857","Trustworthy,Untrustworthy","","19","","","","decision","","<div class='trialDiv'><img src='Fruit/cherrie.png'><br><font class='baseline'><strong>Cherry Chances</strong><p>Choose number of points to bet.</font><div class='respPicDiv'><img src='img/responseButtonOffersNo0L.png' class='respPic'></div></div>","4","7","Cherry Chances","Fruit/cherrie.png","Won","0.8,0.2","12","0.8","84","20","",""
"html-keyboard-response","68","421250","0.0-11.0-2.19","63ead6f452e11793b2f8dab8","bdp_rwlrn","Tue Mar 14 2023 18:10:26 GMT-0700 (Pacific Daylight Time)","828857","Trustworthy,Untrustworthy","","null","","","","decisionFB","","<div class='trialDiv'><img src='Fruit/cherrie.png'><br><font class='baseline'><strong>Cherry Chances</strong><p>Choose number of points to bet.</font><div class='respPicDiv'><img src='img/responseButtonOffersNo0L4.png' class='respPic'></div></div>","null","7","Cherry Chances","Fruit/cherrie.png","Won","0.8,0.2","12","0.8","80","20","",""
"html-keyboard-response","69","422252","0.0-11.0-3.19","63ead6f452e11793b2f8dab8","bdp_rwlrn","Tue Mar 14 2023 18:10:26 GMT-0700 (Pacific Daylight Time)","828857","Trustworthy,Untrustworthy","","null","","","","feedback","","<div class='respPicDiv'><img src='img/responseButtonOffersNo0_wht.png' class='respPic'></div><div class='trialDiv'><img src='Fruit/cherrie.png'><br><font class='baseline'><strong>Cherry Chances</strong><p><strong><font class='posOutcome'>You WON</font><p>You bet: 4</strong></font> &nbsp; &nbsp; &nbsp; &nbsp; &nbsp; &nbsp;<font class='posOutcome'>you receive: <strong>8</strong></font></div>","null","7","Cherry Chances","Fruit/cherrie.png","Won","0.8,0.2","12","0.8","88","20","",""
"html-keyboard-response","70","422428","0.0-11.0-1.20","63ead6f452e11793b2f8dab8","bdp_rwlrn","Tue Mar 14 2023 18:10:26 GMT-0700 (Pacific Daylight Time)","828857","Trustworthy,Untrustworthy","","174","","","","decision","","<div class='trialDiv'><img src='Fruit/apple.png'><br><font class='baseline'><strong>Awesome Apples</strong><p>Choose number of points to bet.</font><div class='respPicDiv'><img src='img/responseButtonOffersNo0L.png' class='respPic'></div></div>","5","7","Awesome Apples","Fruit/apple.png","Won","0.65,0.2","13","0.65","93","21","",""
"html-keyboard-response","71","422680","0.0-11.0-2.20","63ead6f452e11793b2f8dab8","bdp_rwlrn","Tue Mar 14 2023 18:10:26 GMT-0700 (Pacific Daylight Time)","828857","Trustworthy,Untrustworthy","","null","","","","decisionFB","","<div class='trialDiv'><img src='Fruit/apple.png'><br><font class='baseline'><strong>Awesome Apples</strong><p>Choose number of points to bet.</font><div class='respPicDiv'><img src='img/responseButtonOffersNo0L5.png' class='respPic'></div></div>","null","7","Awesome Apples","Fruit/apple.png","Won","0.65,0.2","13","0.65","88","21","",""
"html-keyboard-response","72","423684","0.0-11.0-3.20","63ead6f452e11793b2f8dab8","bdp_rwlrn","Tue Mar 14 2023 18:10:26 GMT-0700 (Pacific Daylight Time)","828857","Trustworthy,Untrustworthy","","null","","","","feedback","","<div class='respPicDiv'><img src='img/responseButtonOffersNo0_wht.png' class='respPic'></div><div class='trialDiv'><img src='Fruit/apple.png'><br><font class='baseline'><strong>Awesome Apples</strong><p><strong><font class='posOutcome'>You WON</font><p>You bet: 5</strong></font> &nbsp; &nbsp; &nbsp; &nbsp; &nbsp; &nbsp;<font class='posOutcome'>you receive: <strong>10</strong></font></div>","null","7","Awesome Apples","Fruit/apple.png","Won","0.65,0.2","13","0.65","98","21","",""
"html-keyboard-response","73","423909","0.0-11.0-1.21","63ead6f452e11793b2f8dab8","bdp_rwlrn","Tue Mar 14 2023 18:10:26 GMT-0700 (Pacific Daylight Time)","828857","Trustworthy,Untrustworthy","","222","","","","decision","","<div class='trialDiv'><img src='Fruit/grapes.png'><br><font class='baseline'><strong>Great Grapes</strong><p>Choose number of points to bet.</font><div class='respPicDiv'><img src='img/responseButtonOffersNo0L.png' class='respPic'></div></div>","4","8","Great Grapes","Fruit/grapes.png","Won","0.35,0.8","8","0.35","103","22","",""
"html-keyboard-response","74","424162","0.0-11.0-2.21","63ead6f452e11793b2f8dab8","bdp_rwlrn","Tue Mar 14 2023 18:10:26 GMT-0700 (Pacific Daylight Time)","828857","Trustworthy,Untrustworthy","","null","","","","decisionFB","","<div class='trialDiv'><img src='Fruit/grapes.png'><br><font class='baseline'><strong>Great Grapes</strong><p>Choose number of points to bet.</font><div class='respPicDiv'><img src='img/responseButtonOffersNo0L4.png' class='respPic'></div></div>","null","8","Great Grapes","Fruit/grapes.png","Won","0.35,0.8","8","0.35","99","22","",""
"html-keyboard-response","75","425166","0.0-11.0-3.21","63ead6f452e11793b2f8dab8","bdp_rwlrn","Tue Mar 14 2023 18:10:26 GMT-0700 (Pacific Daylight Time)","828857","Trustworthy,Untrustworthy","","null","","","","feedback","","<div class='respPicDiv'><img src='img/responseButtonOffersNo0_wht.png' class='respPic'></div><div class='trialDiv'><img src='Fruit/grapes.png'><br><font class='baseline'><strong>Great Grapes</strong><p><strong><font class='posOutcome'>You WON</font><p>You bet: 4</strong></font> &nbsp; &nbsp; &nbsp; &nbsp; &nbsp; &nbsp;<font class='posOutcome'>you receive: <strong>8</strong></font></div>","null","8","Great Grapes","Fruit/grapes.png","Won","0.35,0.8","8","0.35","107","22","",""
"html-keyboard-response","76","425219","0.0-11.0-1.22","63ead6f452e11793b2f8dab8","bdp_rwlrn","Tue Mar 14 2023 18:10:26 GMT-0700 (Pacific Daylight Time)","828857","Trustworthy,Untrustworthy","","53","","","","decision","","<div class='trialDiv'><img src='Fruit/cherrie.png'><br><font class='baseline'><strong>Cherry Chances</strong><p>Choose number of points to bet.</font><div class='respPicDiv'><img src='img/responseButtonOffersNo0L.png' class='respPic'></div></div>","3","8","Cherry Chances","Fruit/cherrie.png","Lost","0.8,0.2","12","0.8","112","23","",""
"html-keyboard-response","77","425471","0.0-11.0-2.22","63ead6f452e11793b2f8dab8","bdp_rwlrn","Tue Mar 14 2023 18:10:26 GMT-0700 (Pacific Daylight Time)","828857","Trustworthy,Untrustworthy","","null","","","","decisionFB","","<div class='trialDiv'><img src='Fruit/cherrie.png'><br><font class='baseline'><strong>Cherry Chances</strong><p>Choose number of points to bet.</font><div class='respPicDiv'><img src='img/responseButtonOffersNo0L3.png' class='respPic'></div></div>","null","8","Cherry Chances","Fruit/cherrie.png","Lost","0.8,0.2","12","0.8","109","23","",""
"html-keyboard-response","78","426472","0.0-11.0-3.22","63ead6f452e11793b2f8dab8","bdp_rwlrn","Tue Mar 14 2023 18:10:26 GMT-0700 (Pacific Daylight Time)","828857","Trustworthy,Untrustworthy","","null","","","","feedback","","<div class='respPicDiv'><img src='img/responseButtonOffersNo0_wht.png' class='respPic'></div><div class='trialDiv'><img src='Fruit/cherrie.png'><br><font class='baseline'><strong>Cherry Chances</strong><p><strong><font class='negOutcome'>You LOST</font><p>You bet: 3</strong></font> &nbsp; &nbsp; &nbsp; &nbsp; &nbsp; &nbsp;<font class='negOutcome'>You receive: <strong>0</strong></font></div>","null","8","Cherry Chances","Fruit/cherrie.png","Lost","0.8,0.2","12","0.8","109","23","",""
"html-keyboard-response","79","426623","0.0-11.0-1.23","63ead6f452e11793b2f8dab8","bdp_rwlrn","Tue Mar 14 2023 18:10:26 GMT-0700 (Pacific Daylight Time)","828857","Trustworthy,Untrustworthy","","150","","","","decision","","<div class='trialDiv'><img src='Fruit/apple.png'><br><font class='baseline'><strong>Awesome Apples</strong><p>Choose number of points to bet.</font><div class='respPicDiv'><img src='img/responseButtonOffersNo0L.png' class='respPic'></div></div>","4","8","Awesome Apples","Fruit/apple.png","Lost","0.65,0.2","13","0.65","114","24","",""
"html-keyboard-response","80","426877","0.0-11.0-2.23","63ead6f452e11793b2f8dab8","bdp_rwlrn","Tue Mar 14 2023 18:10:26 GMT-0700 (Pacific Daylight Time)","828857","Trustworthy,Untrustworthy","","null","","","","decisionFB","","<div class='trialDiv'><img src='Fruit/apple.png'><br><font class='baseline'><strong>Awesome Apples</strong><p>Choose number of points to bet.</font><div class='respPicDiv'><img src='img/responseButtonOffersNo0L4.png' class='respPic'></div></div>","null","8","Awesome Apples","Fruit/apple.png","Lost","0.65,0.2","13","0.65","110","24","",""
"html-keyboard-response","81","427881","0.0-11.0-3.23","63ead6f452e11793b2f8dab8","bdp_rwlrn","Tue Mar 14 2023 18:10:26 GMT-0700 (Pacific Daylight Time)","828857","Trustworthy,Untrustworthy","","null","","","","feedback","","<div class='respPicDiv'><img src='img/responseButtonOffersNo0_wht.png' class='respPic'></div><div class='trialDiv'><img src='Fruit/apple.png'><br><font class='baseline'><strong>Awesome Apples</strong><p><strong><font class='negOutcome'>You LOST</font><p>You bet: 4</strong></font> &nbsp; &nbsp; &nbsp; &nbsp; &nbsp; &nbsp;<font class='negOutcome'>You receive: <strong>0</strong></font></div>","null","8","Awesome Apples","Fruit/apple.png","Lost","0.65,0.2","13","0.65","110","24","",""
"html-keyboard-response","82","428083","0.0-11.0-1.24","63ead6f452e11793b2f8dab8","bdp_rwlrn","Tue Mar 14 2023 18:10:26 GMT-0700 (Pacific Daylight Time)","828857","Trustworthy,Untrustworthy","","199","","","","decision","","<div class='trialDiv'><img src='Fruit/grapes.png'><br><font class='baseline'><strong>Great Grapes</strong><p>Choose number of points to bet.</font><div class='respPicDiv'><img src='img/responseButtonOffersNo0L.png' class='respPic'></div></div>","5","9","Great Grapes","Fruit/grapes.png","Won","0.35,0.8","8","0.35","115","25","",""
"html-keyboard-response","83","428338","0.0-11.0-2.24","63ead6f452e11793b2f8dab8","bdp_rwlrn","Tue Mar 14 2023 18:10:26 GMT-0700 (Pacific Daylight Time)","828857","Trustworthy,Untrustworthy","","null","","","","decisionFB","","<div class='trialDiv'><img src='Fruit/grapes.png'><br><font class='baseline'><strong>Great Grapes</strong><p>Choose number of points to bet.</font><div class='respPicDiv'><img src='img/responseButtonOffersNo0L5.png' class='respPic'></div></div>","null","9","Great Grapes","Fruit/grapes.png","Won","0.35,0.8","8","0.35","110","25","",""
"html-keyboard-response","84","429342","0.0-11.0-3.24","63ead6f452e11793b2f8dab8","bdp_rwlrn","Tue Mar 14 2023 18:10:26 GMT-0700 (Pacific Daylight Time)","828857","Trustworthy,Untrustworthy","","null","","","","feedback","","<div class='respPicDiv'><img src='img/responseButtonOffersNo0_wht.png' class='respPic'></div><div class='trialDiv'><img src='Fruit/grapes.png'><br><font class='baseline'><strong>Great Grapes</strong><p><strong><font class='posOutcome'>You WON</font><p>You bet: 5</strong></font> &nbsp; &nbsp; &nbsp; &nbsp; &nbsp; &nbsp;<font class='posOutcome'>you receive: <strong>10</strong></font></div>","null","9","Great Grapes","Fruit/grapes.png","Won","0.35,0.8","8","0.35","120","25","",""
"html-keyboard-response","85","429435","0.0-11.0-1.25","63ead6f452e11793b2f8dab8","bdp_rwlrn","Tue Mar 14 2023 18:10:26 GMT-0700 (Pacific Daylight Time)","828857","Trustworthy,Untrustworthy","","91","","","","decision","","<div class='trialDiv'><img src='Fruit/apple.png'><br><font class='baseline'><strong>Awesome Apples</strong><p>Choose number of points to bet.</font><div class='respPicDiv'><img src='img/responseButtonOffersNo0L.png' class='respPic'></div></div>","4","9","Awesome Apples","Fruit/apple.png","Lost","0.65,0.2","13","0.65","125","26","",""
"html-keyboard-response","86","429687","0.0-11.0-2.25","63ead6f452e11793b2f8dab8","bdp_rwlrn","Tue Mar 14 2023 18:10:26 GMT-0700 (Pacific Daylight Time)","828857","Trustworthy,Untrustworthy","","null","","","","decisionFB","","<div class='trialDiv'><img src='Fruit/apple.png'><br><font class='baseline'><strong>Awesome Apples</strong><p>Choose number of points to bet.</font><div class='respPicDiv'><img src='img/responseButtonOffersNo0L4.png' class='respPic'></div></div>","null","9","Awesome Apples","Fruit/apple.png","Lost","0.65,0.2","13","0.65","121","26","",""
"html-keyboard-response","87","430692","0.0-11.0-3.25","63ead6f452e11793b2f8dab8","bdp_rwlrn","Tue Mar 14 2023 18:10:26 GMT-0700 (Pacific Daylight Time)","828857","Trustworthy,Untrustworthy","","null","","","","feedback","","<div class='respPicDiv'><img src='img/responseButtonOffersNo0_wht.png' class='respPic'></div><div class='trialDiv'><img src='Fruit/apple.png'><br><font class='baseline'><strong>Awesome Apples</strong><p><strong><font class='negOutcome'>You LOST</font><p>You bet: 4</strong></font> &nbsp; &nbsp; &nbsp; &nbsp; &nbsp; &nbsp;<font class='negOutcome'>You receive: <strong>0</strong></font></div>","null","9","Awesome Apples","Fruit/apple.png","Lost","0.65,0.2","13","0.65","121","26","",""
"html-keyboard-response","88","431563","0.0-11.0-1.26","63ead6f452e11793b2f8dab8","bdp_rwlrn","Tue Mar 14 2023 18:10:26 GMT-0700 (Pacific Daylight Time)","828857","Trustworthy,Untrustworthy","","868","","","","decision","","<div class='trialDiv'><img src='Fruit/cherrie.png'><br><font class='baseline'><strong>Cherry Chances</strong><p>Choose number of points to bet.</font><div class='respPicDiv'><img src='img/responseButtonOffersNo0L.png' class='respPic'></div></div>","5","9","Cherry Chances","Fruit/cherrie.png","Won","0.8,0.2","12","0.8","126","27","",""
"html-keyboard-response","89","431816","0.0-11.0-2.26","63ead6f452e11793b2f8dab8","bdp_rwlrn","Tue Mar 14 2023 18:10:26 GMT-0700 (Pacific Daylight Time)","828857","Trustworthy,Untrustworthy","","null","","","","decisionFB","","<div class='trialDiv'><img src='Fruit/cherrie.png'><br><font class='baseline'><strong>Cherry Chances</strong><p>Choose number of points to bet.</font><div class='respPicDiv'><img src='img/responseButtonOffersNo0L5.png' class='respPic'></div></div>","null","9","Cherry Chances","Fruit/cherrie.png","Won","0.8,0.2","12","0.8","121","27","",""
"html-keyboard-response","90","432819","0.0-11.0-3.26","63ead6f452e11793b2f8dab8","bdp_rwlrn","Tue Mar 14 2023 18:10:26 GMT-0700 (Pacific Daylight Time)","828857","Trustworthy,Untrustworthy","","null","","","","feedback","","<div class='respPicDiv'><img src='img/responseButtonOffersNo0_wht.png' class='respPic'></div><div class='trialDiv'><img src='Fruit/cherrie.png'><br><font class='baseline'><strong>Cherry Chances</strong><p><strong><font class='posOutcome'>You WON</font><p>You bet: 5</strong></font> &nbsp; &nbsp; &nbsp; &nbsp; &nbsp; &nbsp;<font class='posOutcome'>you receive: <strong>10</strong></font></div>","null","9","Cherry Chances","Fruit/cherrie.png","Won","0.8,0.2","12","0.8","131","27","",""
"html-keyboard-response","91","433164","0.0-11.0-1.27","63ead6f452e11793b2f8dab8","bdp_rwlrn","Tue Mar 14 2023 18:10:26 GMT-0700 (Pacific Daylight Time)","828857","Trustworthy,Untrustworthy","","342","","","","decision","","<div class='trialDiv'><img src='Fruit/grapes.png'><br><font class='baseline'><strong>Great Grapes</strong><p>Choose number of points to bet.</font><div class='respPicDiv'><img src='img/responseButtonOffersNo0L.png' class='respPic'></div></div>","4","10","Great Grapes","Fruit/grapes.png","Won","0.35,0.8","8","0.35","136","28","",""
"html-keyboard-response","92","433417","0.0-11.0-2.27","63ead6f452e11793b2f8dab8","bdp_rwlrn","Tue Mar 14 2023 18:10:26 GMT-0700 (Pacific Daylight Time)","828857","Trustworthy,Untrustworthy","","null","","","","decisionFB","","<div class='trialDiv'><img src='Fruit/grapes.png'><br><font class='baseline'><strong>Great Grapes</strong><p>Choose number of points to bet.</font><div class='respPicDiv'><img src='img/responseButtonOffersNo0L4.png' class='respPic'></div></div>","null","10","Great Grapes","Fruit/grapes.png","Won","0.35,0.8","8","0.35","132","28","",""
"html-keyboard-response","93","434420","0.0-11.0-3.27","63ead6f452e11793b2f8dab8","bdp_rwlrn","Tue Mar 14 2023 18:10:26 GMT-0700 (Pacific Daylight Time)","828857","Trustworthy,Untrustworthy","","null","","","","feedback","","<div class='respPicDiv'><img src='img/responseButtonOffersNo0_wht.png' class='respPic'></div><div class='trialDiv'><img src='Fruit/grapes.png'><br><font class='baseline'><strong>Great Grapes</strong><p><strong><font class='posOutcome'>You WON</font><p>You bet: 4</strong></font> &nbsp; &nbsp; &nbsp; &nbsp; &nbsp; &nbsp;<font class='posOutcome'>you receive: <strong>8</strong></font></div>","null","10","Great Grapes","Fruit/grapes.png","Won","0.35,0.8","8","0.35","140","28","",""
"html-keyboard-response","94","434938","0.0-11.0-1.28","63ead6f452e11793b2f8dab8","bdp_rwlrn","Tue Mar 14 2023 18:10:26 GMT-0700 (Pacific Daylight Time)","828857","Trustworthy,Untrustworthy","","515","","","","decision","","<div class='trialDiv'><img src='Fruit/cherrie.png'><br><font class='baseline'><strong>Cherry Chances</strong><p>Choose number of points to bet.</font><div class='respPicDiv'><img src='img/responseButtonOffersNo0L.png' class='respPic'></div></div>","5","10","Cherry Chances","Fruit/cherrie.png","Won","0.8,0.2","12","0.8","145","29","",""
"html-keyboard-response","95","435190","0.0-11.0-2.28","63ead6f452e11793b2f8dab8","bdp_rwlrn","Tue Mar 14 2023 18:10:26 GMT-0700 (Pacific Daylight Time)","828857","Trustworthy,Untrustworthy","","null","","","","decisionFB","","<div class='trialDiv'><img src='Fruit/cherrie.png'><br><font class='baseline'><strong>Cherry Chances</strong><p>Choose number of points to bet.</font><div class='respPicDiv'><img src='img/responseButtonOffersNo0L5.png' class='respPic'></div></div>","null","10","Cherry Chances","Fruit/cherrie.png","Won","0.8,0.2","12","0.8","140","29","",""
"html-keyboard-response","96","436192","0.0-11.0-3.28","63ead6f452e11793b2f8dab8","bdp_rwlrn","Tue Mar 14 2023 18:10:26 GMT-0700 (Pacific Daylight Time)","828857","Trustworthy,Untrustworthy","","null","","","","feedback","","<div class='respPicDiv'><img src='img/responseButtonOffersNo0_wht.png' class='respPic'></div><div class='trialDiv'><img src='Fruit/cherrie.png'><br><font class='baseline'><strong>Cherry Chances</strong><p><strong><font class='posOutcome'>You WON</font><p>You bet: 5</strong></font> &nbsp; &nbsp; &nbsp; &nbsp; &nbsp; &nbsp;<font class='posOutcome'>you receive: <strong>10</strong></font></div>","null","10","Cherry Chances","Fruit/cherrie.png","Won","0.8,0.2","12","0.8","150","29","",""
"html-keyboard-response","97","436510","0.0-11.0-1.29","63ead6f452e11793b2f8dab8","bdp_rwlrn","Tue Mar 14 2023 18:10:26 GMT-0700 (Pacific Daylight Time)","828857","Trustworthy,Untrustworthy","","314","","","","decision","","<div class='trialDiv'><img src='Fruit/apple.png'><br><font class='baseline'><strong>Awesome Apples</strong><p>Choose number of points to bet.</font><div class='respPicDiv'><img src='img/responseButtonOffersNo0L.png' class='respPic'></div></div>","5","10","Awesome Apples","Fruit/apple.png","Lost","0.65,0.2","13","0.65","155","30","",""
"html-keyboard-response","98","436764","0.0-11.0-2.29","63ead6f452e11793b2f8dab8","bdp_rwlrn","Tue Mar 14 2023 18:10:26 GMT-0700 (Pacific Daylight Time)","828857","Trustworthy,Untrustworthy","","null","","","","decisionFB","","<div class='trialDiv'><img src='Fruit/apple.png'><br><font class='baseline'><strong>Awesome Apples</strong><p>Choose number of points to bet.</font><div class='respPicDiv'><img src='img/responseButtonOffersNo0L5.png' class='respPic'></div></div>","null","10","Awesome Apples","Fruit/apple.png","Lost","0.65,0.2","13","0.65","150","30","",""
"html-keyboard-response","99","437768","0.0-11.0-3.29","63ead6f452e11793b2f8dab8","bdp_rwlrn","Tue Mar 14 2023 18:10:26 GMT-0700 (Pacific Daylight Time)","828857","Trustworthy,Untrustworthy","","null","","","","feedback","","<div class='respPicDiv'><img src='img/responseButtonOffersNo0_wht.png' class='respPic'></div><div class='trialDiv'><img src='Fruit/apple.png'><br><font class='baseline'><strong>Awesome Apples</strong><p><strong><font class='negOutcome'>You LOST</font><p>You bet: 5</strong></font> &nbsp; &nbsp; &nbsp; &nbsp; &nbsp; &nbsp;<font class='negOutcome'>You receive: <strong>0</strong></font></div>","null","10","Awesome Apples","Fruit/apple.png","Lost","0.65,0.2","13","0.65","150","30","",""
"html-keyboard-response","100","437771","0.0-11.0-1.30","63ead6f452e11793b2f8dab8","bdp_rwlrn","Tue Mar 14 2023 18:10:26 GMT-0700 (Pacific Daylight Time)","828857","Trustworthy,Untrustworthy","","1","","","","decision","","<div class='trialDiv'><img src='Fruit/grapes.png'><br><font class='baseline'><strong>Great Grapes</strong><p>Choose number of points to bet.</font><div class='respPicDiv'><img src='img/responseButtonOffersNo0L.png' class='respPic'></div></div>","4","11","Great Grapes","Fruit/grapes.png","Lost","0.35,0.8","8","0.35","155","31","",""
"html-keyboard-response","101","438026","0.0-11.0-2.30","63ead6f452e11793b2f8dab8","bdp_rwlrn","Tue Mar 14 2023 18:10:26 GMT-0700 (Pacific Daylight Time)","828857","Trustworthy,Untrustworthy","","null","","","","decisionFB","","<div class='trialDiv'><img src='Fruit/grapes.png'><br><font class='baseline'><strong>Great Grapes</strong><p>Choose number of points to bet.</font><div class='respPicDiv'><img src='img/responseButtonOffersNo0L4.png' class='respPic'></div></div>","null","11","Great Grapes","Fruit/grapes.png","Lost","0.35,0.8","8","0.35","151","31","",""
"html-keyboard-response","102","439030","0.0-11.0-3.30","63ead6f452e11793b2f8dab8","bdp_rwlrn","Tue Mar 14 2023 18:10:26 GMT-0700 (Pacific Daylight Time)","828857","Trustworthy,Untrustworthy","","null","","","","feedback","","<div class='respPicDiv'><img src='img/responseButtonOffersNo0_wht.png' class='respPic'></div><div class='trialDiv'><img src='Fruit/grapes.png'><br><font class='baseline'><strong>Great Grapes</strong><p><strong><font class='negOutcome'>You LOST</font><p>You bet: 4</strong></font> &nbsp; &nbsp; &nbsp; &nbsp; &nbsp; &nbsp;<font class='negOutcome'>You receive: <strong>0</strong></font></div>","null","11","Great Grapes","Fruit/grapes.png","Lost","0.35,0.8","8","0.35","151","31","",""
"html-keyboard-response","103","439100","0.0-11.0-1.31","63ead6f452e11793b2f8dab8","bdp_rwlrn","Tue Mar 14 2023 18:10:26 GMT-0700 (Pacific Daylight Time)","828857","Trustworthy,Untrustworthy","","68","","","","decision","","<div class='trialDiv'><img src='Fruit/cherrie.png'><br><font class='baseline'><strong>Cherry Chances</strong><p>Choose number of points to bet.</font><div class='respPicDiv'><img src='img/responseButtonOffersNo0L.png' class='respPic'></div></div>","5","11","Cherry Chances","Fruit/cherrie.png","Won","0.8,0.2","12","0.8","156","32","",""
"html-keyboard-response","104","439361","0.0-11.0-2.31","63ead6f452e11793b2f8dab8","bdp_rwlrn","Tue Mar 14 2023 18:10:26 GMT-0700 (Pacific Daylight Time)","828857","Trustworthy,Untrustworthy","","null","","","","decisionFB","","<div class='trialDiv'><img src='Fruit/cherrie.png'><br><font class='baseline'><strong>Cherry Chances</strong><p>Choose number of points to bet.</font><div class='respPicDiv'><img src='img/responseButtonOffersNo0L5.png' class='respPic'></div></div>","null","11","Cherry Chances","Fruit/cherrie.png","Won","0.8,0.2","12","0.8","151","32","",""
"html-keyboard-response","105","440364","0.0-11.0-3.31","63ead6f452e11793b2f8dab8","bdp_rwlrn","Tue Mar 14 2023 18:10:26 GMT-0700 (Pacific Daylight Time)","828857","Trustworthy,Untrustworthy","","null","","","","feedback","","<div class='respPicDiv'><img src='img/responseButtonOffersNo0_wht.png' class='respPic'></div><div class='trialDiv'><img src='Fruit/cherrie.png'><br><font class='baseline'><strong>Cherry Chances</strong><p><strong><font class='posOutcome'>You WON</font><p>You bet: 5</strong></font> &nbsp; &nbsp; &nbsp; &nbsp; &nbsp; &nbsp;<font class='posOutcome'>you receive: <strong>10</strong></font></div>","null","11","Cherry Chances","Fruit/cherrie.png","Won","0.8,0.2","12","0.8","161","32","",""
"html-keyboard-response","106","440408","0.0-11.0-1.32","63ead6f452e11793b2f8dab8","bdp_rwlrn","Tue Mar 14 2023 18:10:26 GMT-0700 (Pacific Daylight Time)","828857","Trustworthy,Untrustworthy","","41","","","","decision","","<div class='trialDiv'><img src='Fruit/apple.png'><br><font class='baseline'><strong>Awesome Apples</strong><p>Choose number of points to bet.</font><div class='respPicDiv'><img src='img/responseButtonOffersNo0L.png' class='respPic'></div></div>","5","11","Awesome Apples","Fruit/apple.png","Won","0.65,0.2","13","0.65","166","33","",""
"html-keyboard-response","107","440660","0.0-11.0-2.32","63ead6f452e11793b2f8dab8","bdp_rwlrn","Tue Mar 14 2023 18:10:26 GMT-0700 (Pacific Daylight Time)","828857","Trustworthy,Untrustworthy","","null","","","","decisionFB","","<div class='trialDiv'><img src='Fruit/apple.png'><br><font class='baseline'><strong>Awesome Apples</strong><p>Choose number of points to bet.</font><div class='respPicDiv'><img src='img/responseButtonOffersNo0L5.png' class='respPic'></div></div>","null","11","Awesome Apples","Fruit/apple.png","Won","0.65,0.2","13","0.65","161","33","",""
"html-keyboard-response","108","441663","0.0-11.0-3.32","63ead6f452e11793b2f8dab8","bdp_rwlrn","Tue Mar 14 2023 18:10:26 GMT-0700 (Pacific Daylight Time)","828857","Trustworthy,Untrustworthy","","null","","","","feedback","","<div class='respPicDiv'><img src='img/responseButtonOffersNo0_wht.png' class='respPic'></div><div class='trialDiv'><img src='Fruit/apple.png'><br><font class='baseline'><strong>Awesome Apples</strong><p><strong><font class='posOutcome'>You WON</font><p>You bet: 5</strong></font> &nbsp; &nbsp; &nbsp; &nbsp; &nbsp; &nbsp;<font class='posOutcome'>you receive: <strong>10</strong></font></div>","null","11","Awesome Apples","Fruit/apple.png","Won","0.65,0.2","13","0.65","171","33","",""
"html-keyboard-response","109","441827","0.0-11.0-1.33","63ead6f452e11793b2f8dab8","bdp_rwlrn","Tue Mar 14 2023 18:10:26 GMT-0700 (Pacific Daylight Time)","828857","Trustworthy,Untrustworthy","","161","","","","decision","","<div class='trialDiv'><img src='Fruit/cherrie.png'><br><font class='baseline'><strong>Cherry Chances</strong><p>Choose number of points to bet.</font><div class='respPicDiv'><img src='img/responseButtonOffersNo0L.png' class='respPic'></div></div>","5","12","Cherry Chances","Fruit/cherrie.png","Lost","0.8,0.2","12","0.8","176","34","",""
"html-keyboard-response","110","442081","0.0-11.0-2.33","63ead6f452e11793b2f8dab8","bdp_rwlrn","Tue Mar 14 2023 18:10:26 GMT-0700 (Pacific Daylight Time)","828857","Trustworthy,Untrustworthy","","null","","","","decisionFB","","<div class='trialDiv'><img src='Fruit/cherrie.png'><br><font class='baseline'><strong>Cherry Chances</strong><p>Choose number of points to bet.</font><div class='respPicDiv'><img src='img/responseButtonOffersNo0L5.png' class='respPic'></div></div>","null","12","Cherry Chances","Fruit/cherrie.png","Lost","0.8,0.2","12","0.8","171","34","",""
"html-keyboard-response","111","443085","0.0-11.0-3.33","63ead6f452e11793b2f8dab8","bdp_rwlrn","Tue Mar 14 2023 18:10:26 GMT-0700 (Pacific Daylight Time)","828857","Trustworthy,Untrustworthy","","null","","","","feedback","","<div class='respPicDiv'><img src='img/responseButtonOffersNo0_wht.png' class='respPic'></div><div class='trialDiv'><img src='Fruit/cherrie.png'><br><font class='baseline'><strong>Cherry Chances</strong><p><strong><font class='negOutcome'>You LOST</font><p>You bet: 5</strong></font> &nbsp; &nbsp; &nbsp; &nbsp; &nbsp; &nbsp;<font class='negOutcome'>You receive: <strong>0</strong></font></div>","null","12","Cherry Chances","Fruit/cherrie.png","Lost","0.8,0.2","12","0.8","171","34","",""
"html-keyboard-response","112","443245","0.0-11.0-1.34","63ead6f452e11793b2f8dab8","bdp_rwlrn","Tue Mar 14 2023 18:10:26 GMT-0700 (Pacific Daylight Time)","828857","Trustworthy,Untrustworthy","","159","","","","decision","","<div class='trialDiv'><img src='Fruit/apple.png'><br><font class='baseline'><strong>Awesome Apples</strong><p>Choose number of points to bet.</font><div class='respPicDiv'><img src='img/responseButtonOffersNo0L.png' class='respPic'></div></div>","5","12","Awesome Apples","Fruit/apple.png","Lost","0.65,0.2","13","0.65","176","35","",""
"html-keyboard-response","113","443497","0.0-11.0-2.34","63ead6f452e11793b2f8dab8","bdp_rwlrn","Tue Mar 14 2023 18:10:26 GMT-0700 (Pacific Daylight Time)","828857","Trustworthy,Untrustworthy","","null","","","","decisionFB","","<div class='trialDiv'><img src='Fruit/apple.png'><br><font class='baseline'><strong>Awesome Apples</strong><p>Choose number of points to bet.</font><div class='respPicDiv'><img src='img/responseButtonOffersNo0L5.png' class='respPic'></div></div>","null","12","Awesome Apples","Fruit/apple.png","Lost","0.65,0.2","13","0.65","171","35","",""
"html-keyboard-response","114","444501","0.0-11.0-3.34","63ead6f452e11793b2f8dab8","bdp_rwlrn","Tue Mar 14 2023 18:10:26 GMT-0700 (Pacific Daylight Time)","828857","Trustworthy,Untrustworthy","","null","","","","feedback","","<div class='respPicDiv'><img src='img/responseButtonOffersNo0_wht.png' class='respPic'></div><div class='trialDiv'><img src='Fruit/apple.png'><br><font class='baseline'><strong>Awesome Apples</strong><p><strong><font class='negOutcome'>You LOST</font><p>You bet: 5</strong></font> &nbsp; &nbsp; &nbsp; &nbsp; &nbsp; &nbsp;<font class='negOutcome'>You receive: <strong>0</strong></font></div>","null","12","Awesome Apples","Fruit/apple.png","Lost","0.65,0.2","13","0.65","171","35","",""
"html-keyboard-response","115","446134","0.0-11.0-1.35","63ead6f452e11793b2f8dab8","bdp_rwlrn","Tue Mar 14 2023 18:10:26 GMT-0700 (Pacific Daylight Time)","828857","Trustworthy,Untrustworthy","","1631","","","","decision","","<div class='trialDiv'><img src='Fruit/grapes.png'><br><font class='baseline'><strong>Great Grapes</strong><p>Choose number of points to bet.</font><div class='respPicDiv'><img src='img/responseButtonOffersNo0L.png' class='respPic'></div></div>","5","12","Great Grapes","Fruit/grapes.png","Won","0.35,0.8","8","0.35","176","36","",""
"html-keyboard-response","116","446387","0.0-11.0-2.35","63ead6f452e11793b2f8dab8","bdp_rwlrn","Tue Mar 14 2023 18:10:26 GMT-0700 (Pacific Daylight Time)","828857","Trustworthy,Untrustworthy","","null","","","","decisionFB","","<div class='trialDiv'><img src='Fruit/grapes.png'><br><font class='baseline'><strong>Great Grapes</strong><p>Choose number of points to bet.</font><div class='respPicDiv'><img src='img/responseButtonOffersNo0L5.png' class='respPic'></div></div>","null","12","Great Grapes","Fruit/grapes.png","Won","0.35,0.8","8","0.35","171","36","",""
"html-keyboard-response","117","447390","0.0-11.0-3.35","63ead6f452e11793b2f8dab8","bdp_rwlrn","Tue Mar 14 2023 18:10:26 GMT-0700 (Pacific Daylight Time)","828857","Trustworthy,Untrustworthy","","null","","","","feedback","","<div class='respPicDiv'><img src='img/responseButtonOffersNo0_wht.png' class='respPic'></div><div class='trialDiv'><img src='Fruit/grapes.png'><br><font class='baseline'><strong>Great Grapes</strong><p><strong><font class='posOutcome'>You WON</font><p>You bet: 5</strong></font> &nbsp; &nbsp; &nbsp; &nbsp; &nbsp; &nbsp;<font class='posOutcome'>you receive: <strong>10</strong></font></div>","null","12","Great Grapes","Fruit/grapes.png","Won","0.35,0.8","8","0.35","181","36","",""
"html-keyboard-response","118","447917","0.0-11.0-1.36","63ead6f452e11793b2f8dab8","bdp_rwlrn","Tue Mar 14 2023 18:10:26 GMT-0700 (Pacific Daylight Time)","828857","Trustworthy,Untrustworthy","","525","","","","decision","","<div class='trialDiv'><img src='Fruit/apple.png'><br><font class='baseline'><strong>Awesome Apples</strong><p>Choose number of points to bet.</font><div class='respPicDiv'><img src='img/responseButtonOffersNo0L.png' class='respPic'></div></div>","5","13","Awesome Apples","Fruit/apple.png","Won","0.65,0.2","13","0.65","186","37","",""
"html-keyboard-response","119","448169","0.0-11.0-2.36","63ead6f452e11793b2f8dab8","bdp_rwlrn","Tue Mar 14 2023 18:10:26 GMT-0700 (Pacific Daylight Time)","828857","Trustworthy,Untrustworthy","","null","","","","decisionFB","","<div class='trialDiv'><img src='Fruit/apple.png'><br><font class='baseline'><strong>Awesome Apples</strong><p>Choose number of points to bet.</font><div class='respPicDiv'><img src='img/responseButtonOffersNo0L5.png' class='respPic'></div></div>","null","13","Awesome Apples","Fruit/apple.png","Won","0.65,0.2","13","0.65","181","37","",""
"html-keyboard-response","120","449172","0.0-11.0-3.36","63ead6f452e11793b2f8dab8","bdp_rwlrn","Tue Mar 14 2023 18:10:26 GMT-0700 (Pacific Daylight Time)","828857","Trustworthy,Untrustworthy","","null","","","","feedback","","<div class='respPicDiv'><img src='img/responseButtonOffersNo0_wht.png' class='respPic'></div><div class='trialDiv'><img src='Fruit/apple.png'><br><font class='baseline'><strong>Awesome Apples</strong><p><strong><font class='posOutcome'>You WON</font><p>You bet: 5</strong></font> &nbsp; &nbsp; &nbsp; &nbsp; &nbsp; &nbsp;<font class='posOutcome'>you receive: <strong>10</strong></font></div>","null","13","Awesome Apples","Fruit/apple.png","Won","0.65,0.2","13","0.65","191","37","",""
"html-keyboard-response","121","449383","0.0-11.0-1.37","63ead6f452e11793b2f8dab8","bdp_rwlrn","Tue Mar 14 2023 18:10:26 GMT-0700 (Pacific Daylight Time)","828857","Trustworthy,Untrustworthy","","210","","","","decision","","<div class='trialDiv'><img src='Fruit/grapes.png'><br><font class='baseline'><strong>Great Grapes</strong><p>Choose number of points to bet.</font><div class='respPicDiv'><img src='img/responseButtonOffersNo0L.png' class='respPic'></div></div>","5","13","Great Grapes","Fruit/grapes.png","Won","0.35,0.8","8","0.35","196","38","",""
"html-keyboard-response","122","449637","0.0-11.0-2.37","63ead6f452e11793b2f8dab8","bdp_rwlrn","Tue Mar 14 2023 18:10:26 GMT-0700 (Pacific Daylight Time)","828857","Trustworthy,Untrustworthy","","null","","","","decisionFB","","<div class='trialDiv'><img src='Fruit/grapes.png'><br><font class='baseline'><strong>Great Grapes</strong><p>Choose number of points to bet.</font><div class='respPicDiv'><img src='img/responseButtonOffersNo0L5.png' class='respPic'></div></div>","null","13","Great Grapes","Fruit/grapes.png","Won","0.35,0.8","8","0.35","191","38","",""
"html-keyboard-response","123","450640","0.0-11.0-3.37","63ead6f452e11793b2f8dab8","bdp_rwlrn","Tue Mar 14 2023 18:10:26 GMT-0700 (Pacific Daylight Time)","828857","Trustworthy,Untrustworthy","","null","","","","feedback","","<div class='respPicDiv'><img src='img/responseButtonOffersNo0_wht.png' class='respPic'></div><div class='trialDiv'><img src='Fruit/grapes.png'><br><font class='baseline'><strong>Great Grapes</strong><p><strong><font class='posOutcome'>You WON</font><p>You bet: 5</strong></font> &nbsp; &nbsp; &nbsp; &nbsp; &nbsp; &nbsp;<font class='posOutcome'>you receive: <strong>10</strong></font></div>","null","13","Great Grapes","Fruit/grapes.png","Won","0.35,0.8","8","0.35","201","38","",""
"html-keyboard-response","124","450698","0.0-11.0-1.38","63ead6f452e11793b2f8dab8","bdp_rwlrn","Tue Mar 14 2023 18:10:26 GMT-0700 (Pacific Daylight Time)","828857","Trustworthy,Untrustworthy","","56","","","","decision","","<div class='trialDiv'><img src='Fruit/cherrie.png'><br><font class='baseline'><strong>Cherry Chances</strong><p>Choose number of points to bet.</font><div class='respPicDiv'><img src='img/responseButtonOffersNo0L.png' class='respPic'></div></div>","5","13","Cherry Chances","Fruit/cherrie.png","Won","0.8,0.2","12","0.8","206","39","",""
"html-keyboard-response","125","450950","0.0-11.0-2.38","63ead6f452e11793b2f8dab8","bdp_rwlrn","Tue Mar 14 2023 18:10:26 GMT-0700 (Pacific Daylight Time)","828857","Trustworthy,Untrustworthy","","null","","","","decisionFB","","<div class='trialDiv'><img src='Fruit/cherrie.png'><br><font class='baseline'><strong>Cherry Chances</strong><p>Choose number of points to bet.</font><div class='respPicDiv'><img src='img/responseButtonOffersNo0L5.png' class='respPic'></div></div>","null","13","Cherry Chances","Fruit/cherrie.png","Won","0.8,0.2","12","0.8","201","39","",""
"html-keyboard-response","126","451952","0.0-11.0-3.38","63ead6f452e11793b2f8dab8","bdp_rwlrn","Tue Mar 14 2023 18:10:26 GMT-0700 (Pacific Daylight Time)","828857","Trustworthy,Untrustworthy","","null","","","","feedback","","<div class='respPicDiv'><img src='img/responseButtonOffersNo0_wht.png' class='respPic'></div><div class='trialDiv'><img src='Fruit/cherrie.png'><br><font class='baseline'><strong>Cherry Chances</strong><p><strong><font class='posOutcome'>You WON</font><p>You bet: 5</strong></font> &nbsp; &nbsp; &nbsp; &nbsp; &nbsp; &nbsp;<font class='posOutcome'>you receive: <strong>10</strong></font></div>","null","13","Cherry Chances","Fruit/cherrie.png","Won","0.8,0.2","12","0.8","211","39","",""
"html-keyboard-response","127","452499","0.0-11.0-1.39","63ead6f452e11793b2f8dab8","bdp_rwlrn","Tue Mar 14 2023 18:10:26 GMT-0700 (Pacific Daylight Time)","828857","Trustworthy,Untrustworthy","","545","","","","decision","","<div class='trialDiv'><img src='Fruit/grapes.png'><br><font class='baseline'><strong>Great Grapes</strong><p>Choose number of points to bet.</font><div class='respPicDiv'><img src='img/responseButtonOffersNo0L.png' class='respPic'></div></div>","5","14","Great Grapes","Fruit/grapes.png","Won","0.35,0.8","8","0.35","216","40","",""
"html-keyboard-response","128","452753","0.0-11.0-2.39","63ead6f452e11793b2f8dab8","bdp_rwlrn","Tue Mar 14 2023 18:10:26 GMT-0700 (Pacific Daylight Time)","828857","Trustworthy,Untrustworthy","","null","","","","decisionFB","","<div class='trialDiv'><img src='Fruit/grapes.png'><br><font class='baseline'><strong>Great Grapes</strong><p>Choose number of points to bet.</font><div class='respPicDiv'><img src='img/responseButtonOffersNo0L5.png' class='respPic'></div></div>","null","14","Great Grapes","Fruit/grapes.png","Won","0.35,0.8","8","0.35","211","40","",""
"html-keyboard-response","129","453756","0.0-11.0-3.39","63ead6f452e11793b2f8dab8","bdp_rwlrn","Tue Mar 14 2023 18:10:26 GMT-0700 (Pacific Daylight Time)","828857","Trustworthy,Untrustworthy","","null","","","","feedback","","<div class='respPicDiv'><img src='img/responseButtonOffersNo0_wht.png' class='respPic'></div><div class='trialDiv'><img src='Fruit/grapes.png'><br><font class='baseline'><strong>Great Grapes</strong><p><strong><font class='posOutcome'>You WON</font><p>You bet: 5</strong></font> &nbsp; &nbsp; &nbsp; &nbsp; &nbsp; &nbsp;<font class='posOutcome'>you receive: <strong>10</strong></font></div>","null","14","Great Grapes","Fruit/grapes.png","Won","0.35,0.8","8","0.35","221","40","",""
"html-keyboard-response","130","454224","0.0-11.0-1.40","63ead6f452e11793b2f8dab8","bdp_rwlrn","Tue Mar 14 2023 18:10:26 GMT-0700 (Pacific Daylight Time)","828857","Trustworthy,Untrustworthy","","466","","","","decision","","<div class='trialDiv'><img src='Fruit/cherrie.png'><br><font class='baseline'><strong>Cherry Chances</strong><p>Choose number of points to bet.</font><div class='respPicDiv'><img src='img/responseButtonOffersNo0L.png' class='respPic'></div></div>","5","14","Cherry Chances","Fruit/cherrie.png","Lost","0.8,0.2","12","0.8","226","41","",""
"html-keyboard-response","131","454476","0.0-11.0-2.40","63ead6f452e11793b2f8dab8","bdp_rwlrn","Tue Mar 14 2023 18:10:26 GMT-0700 (Pacific Daylight Time)","828857","Trustworthy,Untrustworthy","","null","","","","decisionFB","","<div class='trialDiv'><img src='Fruit/cherrie.png'><br><font class='baseline'><strong>Cherry Chances</strong><p>Choose number of points to bet.</font><div class='respPicDiv'><img src='img/responseButtonOffersNo0L5.png' class='respPic'></div></div>","null","14","Cherry Chances","Fruit/cherrie.png","Lost","0.8,0.2","12","0.8","221","41","",""
"html-keyboard-response","132","455478","0.0-11.0-3.40","63ead6f452e11793b2f8dab8","bdp_rwlrn","Tue Mar 14 2023 18:10:26 GMT-0700 (Pacific Daylight Time)","828857","Trustworthy,Untrustworthy","","null","","","","feedback","","<div class='respPicDiv'><img src='img/responseButtonOffersNo0_wht.png' class='respPic'></div><div class='trialDiv'><img src='Fruit/cherrie.png'><br><font class='baseline'><strong>Cherry Chances</strong><p><strong><font class='negOutcome'>You LOST</font><p>You bet: 5</strong></font> &nbsp; &nbsp; &nbsp; &nbsp; &nbsp; &nbsp;<font class='negOutcome'>You receive: <strong>0</strong></font></div>","null","14","Cherry Chances","Fruit/cherrie.png","Lost","0.8,0.2","12","0.8","221","41","",""
"html-keyboard-response","133","455598","0.0-11.0-1.41","63ead6f452e11793b2f8dab8","bdp_rwlrn","Tue Mar 14 2023 18:10:26 GMT-0700 (Pacific Daylight Time)","828857","Trustworthy,Untrustworthy","","118","","","","decision","","<div class='trialDiv'><img src='Fruit/apple.png'><br><font class='baseline'><strong>Awesome Apples</strong><p>Choose number of points to bet.</font><div class='respPicDiv'><img src='img/responseButtonOffersNo0L.png' class='respPic'></div></div>","5","14","Awesome Apples","Fruit/apple.png","Lost","0.65,0.2","13","0.65","226","42","",""
"html-keyboard-response","134","455850","0.0-11.0-2.41","63ead6f452e11793b2f8dab8","bdp_rwlrn","Tue Mar 14 2023 18:10:26 GMT-0700 (Pacific Daylight Time)","828857","Trustworthy,Untrustworthy","","null","","","","decisionFB","","<div class='trialDiv'><img src='Fruit/apple.png'><br><font class='baseline'><strong>Awesome Apples</strong><p>Choose number of points to bet.</font><div class='respPicDiv'><img src='img/responseButtonOffersNo0L5.png' class='respPic'></div></div>","null","14","Awesome Apples","Fruit/apple.png","Lost","0.65,0.2","13","0.65","221","42","",""
"html-keyboard-response","135","456854","0.0-11.0-3.41","63ead6f452e11793b2f8dab8","bdp_rwlrn","Tue Mar 14 2023 18:10:26 GMT-0700 (Pacific Daylight Time)","828857","Trustworthy,Untrustworthy","","null","","","","feedback","","<div class='respPicDiv'><img src='img/responseButtonOffersNo0_wht.png' class='respPic'></div><div class='trialDiv'><img src='Fruit/apple.png'><br><font class='baseline'><strong>Awesome Apples</strong><p><strong><font class='negOutcome'>You LOST</font><p>You bet: 5</strong></font> &nbsp; &nbsp; &nbsp; &nbsp; &nbsp; &nbsp;<font class='negOutcome'>You receive: <strong>0</strong></font></div>","null","14","Awesome Apples","Fruit/apple.png","Lost","0.65,0.2","13","0.65","221","42","",""
"html-keyboard-response","136","457080","0.0-11.0-1.42","63ead6f452e11793b2f8dab8","bdp_rwlrn","Tue Mar 14 2023 18:10:26 GMT-0700 (Pacific Daylight Time)","828857","Trustworthy,Untrustworthy","","223","","","","decision","","<div class='trialDiv'><img src='Fruit/grapes.png'><br><font class='baseline'><strong>Great Grapes</strong><p>Choose number of points to bet.</font><div class='respPicDiv'><img src='img/responseButtonOffersNo0L.png' class='respPic'></div></div>","5","15","Great Grapes","Fruit/grapes.png","Won","0.35,0.8","8","0.35","226","43","",""
"html-keyboard-response","137","457334","0.0-11.0-2.42","63ead6f452e11793b2f8dab8","bdp_rwlrn","Tue Mar 14 2023 18:10:26 GMT-0700 (Pacific Daylight Time)","828857","Trustworthy,Untrustworthy","","null","","","","decisionFB","","<div class='trialDiv'><img src='Fruit/grapes.png'><br><font class='baseline'><strong>Great Grapes</strong><p>Choose number of points to bet.</font><div class='respPicDiv'><img src='img/responseButtonOffersNo0L5.png' class='respPic'></div></div>","null","15","Great Grapes","Fruit/grapes.png","Won","0.35,0.8","8","0.35","221","43","",""
"html-keyboard-response","138","458337","0.0-11.0-3.42","63ead6f452e11793b2f8dab8","bdp_rwlrn","Tue Mar 14 2023 18:10:26 GMT-0700 (Pacific Daylight Time)","828857","Trustworthy,Untrustworthy","","null","","","","feedback","","<div class='respPicDiv'><img src='img/responseButtonOffersNo0_wht.png' class='respPic'></div><div class='trialDiv'><img src='Fruit/grapes.png'><br><font class='baseline'><strong>Great Grapes</strong><p><strong><font class='posOutcome'>You WON</font><p>You bet: 5</strong></font> &nbsp; &nbsp; &nbsp; &nbsp; &nbsp; &nbsp;<font class='posOutcome'>you receive: <strong>10</strong></font></div>","null","15","Great Grapes","Fruit/grapes.png","Won","0.35,0.8","8","0.35","231","43","",""
"html-keyboard-response","139","460705","0.0-11.0-1.43","63ead6f452e11793b2f8dab8","bdp_rwlrn","Tue Mar 14 2023 18:10:26 GMT-0700 (Pacific Daylight Time)","828857","Trustworthy,Untrustworthy","","2366","","","","decision","","<div class='trialDiv'><img src='Fruit/apple.png'><br><font class='baseline'><strong>Awesome Apples</strong><p>Choose number of points to bet.</font><div class='respPicDiv'><img src='img/responseButtonOffersNo0L.png' class='respPic'></div></div>","5","15","Awesome Apples","Fruit/apple.png","Lost","0.65,0.2","13","0.65","236","44","",""
"html-keyboard-response","140","460959","0.0-11.0-2.43","63ead6f452e11793b2f8dab8","bdp_rwlrn","Tue Mar 14 2023 18:10:26 GMT-0700 (Pacific Daylight Time)","828857","Trustworthy,Untrustworthy","","null","","","","decisionFB","","<div class='trialDiv'><img src='Fruit/apple.png'><br><font class='baseline'><strong>Awesome Apples</strong><p>Choose number of points to bet.</font><div class='respPicDiv'><img src='img/responseButtonOffersNo0L5.png' class='respPic'></div></div>","null","15","Awesome Apples","Fruit/apple.png","Lost","0.65,0.2","13","0.65","231","44","",""
"html-keyboard-response","141","461961","0.0-11.0-3.43","63ead6f452e11793b2f8dab8","bdp_rwlrn","Tue Mar 14 2023 18:10:26 GMT-0700 (Pacific Daylight Time)","828857","Trustworthy,Untrustworthy","","null","","","","feedback","","<div class='respPicDiv'><img src='img/responseButtonOffersNo0_wht.png' class='respPic'></div><div class='trialDiv'><img src='Fruit/apple.png'><br><font class='baseline'><strong>Awesome Apples</strong><p><strong><font class='negOutcome'>You LOST</font><p>You bet: 5</strong></font> &nbsp; &nbsp; &nbsp; &nbsp; &nbsp; &nbsp;<font class='negOutcome'>You receive: <strong>0</strong></font></div>","null","15","Awesome Apples","Fruit/apple.png","Lost","0.65,0.2","13","0.65","231","44","",""
"html-keyboard-response","142","462744","0.0-11.0-1.44","63ead6f452e11793b2f8dab8","bdp_rwlrn","Tue Mar 14 2023 18:10:26 GMT-0700 (Pacific Daylight Time)","828857","Trustworthy,Untrustworthy","","780","","","","decision","","<div class='trialDiv'><img src='Fruit/cherrie.png'><br><font class='baseline'><strong>Cherry Chances</strong><p>Choose number of points to bet.</font><div class='respPicDiv'><img src='img/responseButtonOffersNo0L.png' class='respPic'></div></div>","4","15","Cherry Chances","Fruit/cherrie.png","Lost","0.8,0.2","12","0.8","236","45","",""
"html-keyboard-response","143","462998","0.0-11.0-2.44","63ead6f452e11793b2f8dab8","bdp_rwlrn","Tue Mar 14 2023 18:10:26 GMT-0700 (Pacific Daylight Time)","828857","Trustworthy,Untrustworthy","","null","","","","decisionFB","","<div class='trialDiv'><img src='Fruit/cherrie.png'><br><font class='baseline'><strong>Cherry Chances</strong><p>Choose number of points to bet.</font><div class='respPicDiv'><img src='img/responseButtonOffersNo0L4.png' class='respPic'></div></div>","null","15","Cherry Chances","Fruit/cherrie.png","Lost","0.8,0.2","12","0.8","232","45","",""
"html-keyboard-response","144","464001","0.0-11.0-3.44","63ead6f452e11793b2f8dab8","bdp_rwlrn","Tue Mar 14 2023 18:10:26 GMT-0700 (Pacific Daylight Time)","828857","Trustworthy,Untrustworthy","","null","","","","feedback","","<div class='respPicDiv'><img src='img/responseButtonOffersNo0_wht.png' class='respPic'></div><div class='trialDiv'><img src='Fruit/cherrie.png'><br><font class='baseline'><strong>Cherry Chances</strong><p><strong><font class='negOutcome'>You LOST</font><p>You bet: 4</strong></font> &nbsp; &nbsp; &nbsp; &nbsp; &nbsp; &nbsp;<font class='negOutcome'>You receive: <strong>0</strong></font></div>","null","15","Cherry Chances","Fruit/cherrie.png","Lost","0.8,0.2","12","0.8","232","45","",""
"html-keyboard-response","145","464098","0.0-11.0-1.45","63ead6f452e11793b2f8dab8","bdp_rwlrn","Tue Mar 14 2023 18:10:26 GMT-0700 (Pacific Daylight Time)","828857","Trustworthy,Untrustworthy","","95","","","","decision","","<div class='trialDiv'><img src='Fruit/grapes.png'><br><font class='baseline'><strong>Great Grapes</strong><p>Choose number of points to bet.</font><div class='respPicDiv'><img src='img/responseButtonOffersNo0L.png' class='respPic'></div></div>","5","16","Great Grapes","Fruit/grapes.png","Won","0.35,0.8","8","0.35","237","46","",""
"html-keyboard-response","146","464350","0.0-11.0-2.45","63ead6f452e11793b2f8dab8","bdp_rwlrn","Tue Mar 14 2023 18:10:26 GMT-0700 (Pacific Daylight Time)","828857","Trustworthy,Untrustworthy","","null","","","","decisionFB","","<div class='trialDiv'><img src='Fruit/grapes.png'><br><font class='baseline'><strong>Great Grapes</strong><p>Choose number of points to bet.</font><div class='respPicDiv'><img src='img/responseButtonOffersNo0L5.png' class='respPic'></div></div>","null","16","Great Grapes","Fruit/grapes.png","Won","0.35,0.8","8","0.35","232","46","",""
"html-keyboard-response","147","465354","0.0-11.0-3.45","63ead6f452e11793b2f8dab8","bdp_rwlrn","Tue Mar 14 2023 18:10:26 GMT-0700 (Pacific Daylight Time)","828857","Trustworthy,Untrustworthy","","null","","","","feedback","","<div class='respPicDiv'><img src='img/responseButtonOffersNo0_wht.png' class='respPic'></div><div class='trialDiv'><img src='Fruit/grapes.png'><br><font class='baseline'><strong>Great Grapes</strong><p><strong><font class='posOutcome'>You WON</font><p>You bet: 5</strong></font> &nbsp; &nbsp; &nbsp; &nbsp; &nbsp; &nbsp;<font class='posOutcome'>you receive: <strong>10</strong></font></div>","null","16","Great Grapes","Fruit/grapes.png","Won","0.35,0.8","8","0.35","242","46","",""
"html-keyboard-response","148","465523","0.0-11.0-1.46","63ead6f452e11793b2f8dab8","bdp_rwlrn","Tue Mar 14 2023 18:10:26 GMT-0700 (Pacific Daylight Time)","828857","Trustworthy,Untrustworthy","","167","","","","decision","","<div class='trialDiv'><img src='Fruit/cherrie.png'><br><font class='baseline'><strong>Cherry Chances</strong><p>Choose number of points to bet.</font><div class='respPicDiv'><img src='img/responseButtonOffersNo0L.png' class='respPic'></div></div>","5","16","Cherry Chances","Fruit/cherrie.png","Lost","0.8,0.2","12","0.8","247","47","",""
"html-keyboard-response","149","465777","0.0-11.0-2.46","63ead6f452e11793b2f8dab8","bdp_rwlrn","Tue Mar 14 2023 18:10:26 GMT-0700 (Pacific Daylight Time)","828857","Trustworthy,Untrustworthy","","null","","","","decisionFB","","<div class='trialDiv'><img src='Fruit/cherrie.png'><br><font class='baseline'><strong>Cherry Chances</strong><p>Choose number of points to bet.</font><div class='respPicDiv'><img src='img/responseButtonOffersNo0L5.png' class='respPic'></div></div>","null","16","Cherry Chances","Fruit/cherrie.png","Lost","0.8,0.2","12","0.8","242","47","",""
"html-keyboard-response","150","466780","0.0-11.0-3.46","63ead6f452e11793b2f8dab8","bdp_rwlrn","Tue Mar 14 2023 18:10:26 GMT-0700 (Pacific Daylight Time)","828857","Trustworthy,Untrustworthy","","null","","","","feedback","","<div class='respPicDiv'><img src='img/responseButtonOffersNo0_wht.png' class='respPic'></div><div class='trialDiv'><img src='Fruit/cherrie.png'><br><font class='baseline'><strong>Cherry Chances</strong><p><strong><font class='negOutcome'>You LOST</font><p>You bet: 5</strong></font> &nbsp; &nbsp; &nbsp; &nbsp; &nbsp; &nbsp;<font class='negOutcome'>You receive: <strong>0</strong></font></div>","null","16","Cherry Chances","Fruit/cherrie.png","Lost","0.8,0.2","12","0.8","242","47","",""
"html-keyboard-response","151","466822","0.0-11.0-1.47","63ead6f452e11793b2f8dab8","bdp_rwlrn","Tue Mar 14 2023 18:10:26 GMT-0700 (Pacific Daylight Time)","828857","Trustworthy,Untrustworthy","","40","","","","decision","","<div class='trialDiv'><img src='Fruit/apple.png'><br><font class='baseline'><strong>Awesome Apples</strong><p>Choose number of points to bet.</font><div class='respPicDiv'><img src='img/responseButtonOffersNo0L.png' class='respPic'></div></div>","5","16","Awesome Apples","Fruit/apple.png","Lost","0.65,0.2","13","0.65","247","48","",""
"html-keyboard-response","152","467074","0.0-11.0-2.47","63ead6f452e11793b2f8dab8","bdp_rwlrn","Tue Mar 14 2023 18:10:26 GMT-0700 (Pacific Daylight Time)","828857","Trustworthy,Untrustworthy","","null","","","","decisionFB","","<div class='trialDiv'><img src='Fruit/apple.png'><br><font class='baseline'><strong>Awesome Apples</strong><p>Choose number of points to bet.</font><div class='respPicDiv'><img src='img/responseButtonOffersNo0L5.png' class='respPic'></div></div>","null","16","Awesome Apples","Fruit/apple.png","Lost","0.65,0.2","13","0.65","242","48","",""
"html-keyboard-response","153","468077","0.0-11.0-3.47","63ead6f452e11793b2f8dab8","bdp_rwlrn","Tue Mar 14 2023 18:10:26 GMT-0700 (Pacific Daylight Time)","828857","Trustworthy,Untrustworthy","","null","","","","feedback","","<div class='respPicDiv'><img src='img/responseButtonOffersNo0_wht.png' class='respPic'></div><div class='trialDiv'><img src='Fruit/apple.png'><br><font class='baseline'><strong>Awesome Apples</strong><p><strong><font class='negOutcome'>You LOST</font><p>You bet: 5</strong></font> &nbsp; &nbsp; &nbsp; &nbsp; &nbsp; &nbsp;<font class='negOutcome'>You receive: <strong>0</strong></font></div>","null","16","Awesome Apples","Fruit/apple.png","Lost","0.65,0.2","13","0.65","242","48","",""
"html-keyboard-response","154","468097","0.0-11.0-1.48","63ead6f452e11793b2f8dab8","bdp_rwlrn","Tue Mar 14 2023 18:10:26 GMT-0700 (Pacific Daylight Time)","828857","Trustworthy,Untrustworthy","","18","","","","decision","","<div class='trialDiv'><img src='Fruit/cherrie.png'><br><font class='baseline'><strong>Cherry Chances</strong><p>Choose number of points to bet.</font><div class='respPicDiv'><img src='img/responseButtonOffersNo0L.png' class='respPic'></div></div>","5","17","Cherry Chances","Fruit/cherrie.png","Won","0.8,0.2","12","0.8","247","49","",""
"html-keyboard-response","155","468349","0.0-11.0-2.48","63ead6f452e11793b2f8dab8","bdp_rwlrn","Tue Mar 14 2023 18:10:26 GMT-0700 (Pacific Daylight Time)","828857","Trustworthy,Untrustworthy","","null","","","","decisionFB","","<div class='trialDiv'><img src='Fruit/cherrie.png'><br><font class='baseline'><strong>Cherry Chances</strong><p>Choose number of points to bet.</font><div class='respPicDiv'><img src='img/responseButtonOffersNo0L5.png' class='respPic'></div></div>","null","17","Cherry Chances","Fruit/cherrie.png","Won","0.8,0.2","12","0.8","242","49","",""
"html-keyboard-response","156","469352","0.0-11.0-3.48","63ead6f452e11793b2f8dab8","bdp_rwlrn","Tue Mar 14 2023 18:10:26 GMT-0700 (Pacific Daylight Time)","828857","Trustworthy,Untrustworthy","","null","","","","feedback","","<div class='respPicDiv'><img src='img/responseButtonOffersNo0_wht.png' class='respPic'></div><div class='trialDiv'><img src='Fruit/cherrie.png'><br><font class='baseline'><strong>Cherry Chances</strong><p><strong><font class='posOutcome'>You WON</font><p>You bet: 5</strong></font> &nbsp; &nbsp; &nbsp; &nbsp; &nbsp; &nbsp;<font class='posOutcome'>you receive: <strong>10</strong></font></div>","null","17","Cherry Chances","Fruit/cherrie.png","Won","0.8,0.2","12","0.8","252","49","",""
"html-keyboard-response","157","469601","0.0-11.0-1.49","63ead6f452e11793b2f8dab8","bdp_rwlrn","Tue Mar 14 2023 18:10:26 GMT-0700 (Pacific Daylight Time)","828857","Trustworthy,Untrustworthy","","246","","","","decision","","<div class='trialDiv'><img src='Fruit/grapes.png'><br><font class='baseline'><strong>Great Grapes</strong><p>Choose number of points to bet.</font><div class='respPicDiv'><img src='img/responseButtonOffersNo0L.png' class='respPic'></div></div>","4","17","Great Grapes","Fruit/grapes.png","Lost","0.35,0.8","8","0.35","257","50","",""
"html-keyboard-response","158","469854","0.0-11.0-2.49","63ead6f452e11793b2f8dab8","bdp_rwlrn","Tue Mar 14 2023 18:10:26 GMT-0700 (Pacific Daylight Time)","828857","Trustworthy,Untrustworthy","","null","","","","decisionFB","","<div class='trialDiv'><img src='Fruit/grapes.png'><br><font class='baseline'><strong>Great Grapes</strong><p>Choose number of points to bet.</font><div class='respPicDiv'><img src='img/responseButtonOffersNo0L4.png' class='respPic'></div></div>","null","17","Great Grapes","Fruit/grapes.png","Lost","0.35,0.8","8","0.35","253","50","",""
"html-keyboard-response","159","470858","0.0-11.0-3.49","63ead6f452e11793b2f8dab8","bdp_rwlrn","Tue Mar 14 2023 18:10:26 GMT-0700 (Pacific Daylight Time)","828857","Trustworthy,Untrustworthy","","null","","","","feedback","","<div class='respPicDiv'><img src='img/responseButtonOffersNo0_wht.png' class='respPic'></div><div class='trialDiv'><img src='Fruit/grapes.png'><br><font class='baseline'><strong>Great Grapes</strong><p><strong><font class='negOutcome'>You LOST</font><p>You bet: 4</strong></font> &nbsp; &nbsp; &nbsp; &nbsp; &nbsp; &nbsp;<font class='negOutcome'>You receive: <strong>0</strong></font></div>","null","17","Great Grapes","Fruit/grapes.png","Lost","0.35,0.8","8","0.35","253","50","",""
"html-keyboard-response","160","471256","0.0-11.0-1.50","63ead6f452e11793b2f8dab8","bdp_rwlrn","Tue Mar 14 2023 18:10:26 GMT-0700 (Pacific Daylight Time)","828857","Trustworthy,Untrustworthy","","397","","","","decision","","<div class='trialDiv'><img src='Fruit/apple.png'><br><font class='baseline'><strong>Awesome Apples</strong><p>Choose number of points to bet.</font><div class='respPicDiv'><img src='img/responseButtonOffersNo0L.png' class='respPic'></div></div>","5","17","Awesome Apples","Fruit/apple.png","Lost","0.65,0.2","13","0.65","258","51","",""
"html-keyboard-response","161","471508","0.0-11.0-2.50","63ead6f452e11793b2f8dab8","bdp_rwlrn","Tue Mar 14 2023 18:10:26 GMT-0700 (Pacific Daylight Time)","828857","Trustworthy,Untrustworthy","","null","","","","decisionFB","","<div class='trialDiv'><img src='Fruit/apple.png'><br><font class='baseline'><strong>Awesome Apples</strong><p>Choose number of points to bet.</font><div class='respPicDiv'><img src='img/responseButtonOffersNo0L5.png' class='respPic'></div></div>","null","17","Awesome Apples","Fruit/apple.png","Lost","0.65,0.2","13","0.65","253","51","",""
"html-keyboard-response","162","472511","0.0-11.0-3.50","63ead6f452e11793b2f8dab8","bdp_rwlrn","Tue Mar 14 2023 18:10:26 GMT-0700 (Pacific Daylight Time)","828857","Trustworthy,Untrustworthy","","null","","","","feedback","","<div class='respPicDiv'><img src='img/responseButtonOffersNo0_wht.png' class='respPic'></div><div class='trialDiv'><img src='Fruit/apple.png'><br><font class='baseline'><strong>Awesome Apples</strong><p><strong><font class='negOutcome'>You LOST</font><p>You bet: 5</strong></font> &nbsp; &nbsp; &nbsp; &nbsp; &nbsp; &nbsp;<font class='negOutcome'>You receive: <strong>0</strong></font></div>","null","17","Awesome Apples","Fruit/apple.png","Lost","0.65,0.2","13","0.65","253","51","",""
