"trial_type","trial_index","time_elapsed","internal_node_id","subject_id","task","startTime","totalTime","labels","event","trial","time","trialtype","view_history","rt","success","stimulus","key_press","aground","name","faceID","outcome","agenttype","agentswpt","agentcurrpshare","face","avgRating","point_total","round"
"pavlovia","0","1","0.0-0.0","63d43dc4b4b7a0e426a381cd","bdp_trlrn","Fri Mar 10 2023 12:19:54 GMT-0800 (Pacific Standard Time)","718520","Untrustworthy,Trustworthy","","","","","","","","","","","","","","","","","","","",""
"","","","","63d43dc4b4b7a0e426a381cd","bdp_trlrn","Fri Mar 10 2023 12:19:54 GMT-0800 (Pacific Standard Time)","718520","Untrustworthy,Trustworthy","focus","1","6705","focusevent","","","","","","","","","","","","","","","",""
"instructions","1","7325","0.0-1.0","63d43dc4b4b7a0e426a381cd","bdp_trlrn","Fri Mar 10 2023 12:19:54 GMT-0800 (Pacific Standard Time)","718520","Untrustworthy,Trustworthy","","","","","[{""page_index"":0,""viewing_time"":7323}]","7323","","","","","","","","","","","","","",""
"","","","","63d43dc4b4b7a0e426a381cd","bdp_trlrn","Fri Mar 10 2023 12:19:54 GMT-0800 (Pacific Standard Time)","718520","Untrustworthy,Trustworthy","fullscreenexit","2","9364","fullscreenexit","","","","","","","","","","","","","","","",""
"fullscreen","2","10356","0.0-2.0","63d43dc4b4b7a0e426a381cd","bdp_trlrn","Fri Mar 10 2023 12:19:54 GMT-0800 (Pacific Standard Time)","718520","Untrustworthy,Trustworthy","","","","","","","true","","","","","","","","","","","","",""
"image-keyboard-response","3","12625","0.0-3.0-0.0","63d43dc4b4b7a0e426a381cd","bdp_trlrn","Fri Mar 10 2023 12:19:54 GMT-0800 (Pacific Standard Time)","718520","Untrustworthy,Trustworthy","","","","fullscreenfail","","2267","","","32","","","","","","","","","","",""
"instructions","4","21116","0.0-4.0","63d43dc4b4b7a0e426a381cd","bdp_trlrn","Fri Mar 10 2023 12:19:54 GMT-0800 (Pacific Standard Time)","718520","Untrustworthy,Trustworthy","","","","","[{""page_index"":0,""viewing_time"":5270},{""page_index"":1,""viewing_time"":2970}]","8241","","","","","","","","","","","","","",""
"instructions","5","22837","0.0-5.0","63d43dc4b4b7a0e426a381cd","bdp_trlrn","Fri Mar 10 2023 12:19:54 GMT-0800 (Pacific Standard Time)","718520","Untrustworthy,Trustworthy","","","","","[{""page_index"":0,""viewing_time"":1720}]","1720","","","","","","","","","","","","","",""
"image-keyboard-response","6","26508","0.0-6.0-1.0","63d43dc4b4b7a0e426a381cd","bdp_trlrn","Fri Mar 10 2023 12:19:54 GMT-0800 (Pacific Standard Time)","718520","Untrustworthy,Trustworthy","","","","rating","","3570","","trustrating_stim/white_mw056.bmp","3","","","","","","","","","","",""
"image-keyboard-response","7","26711","0.0-6.0-2.0","63d43dc4b4b7a0e426a381cd","bdp_trlrn","Fri Mar 10 2023 12:19:54 GMT-0800 (Pacific Standard Time)","718520","Untrustworthy,Trustworthy","","","","ratingFB","","null","","trustrating_stim/white_mw056.bmp","null","","","","","","","","","","",""
"image-keyboard-response","8","29512","0.0-6.0-1.1","63d43dc4b4b7a0e426a381cd","bdp_trlrn","Fri Mar 10 2023 12:19:54 GMT-0800 (Pacific Standard Time)","718520","Untrustworthy,Trustworthy","","","","rating","","2701","","trustrating_stim/white_mw089.bmp","5","","","","","","","","","","",""
"image-keyboard-response","9","29714","0.0-6.0-2.1","63d43dc4b4b7a0e426a381cd","bdp_trlrn","Fri Mar 10 2023 12:19:54 GMT-0800 (Pacific Standard Time)","718520","Untrustworthy,Trustworthy","","","","ratingFB","","null","","trustrating_stim/white_mw089.bmp","null","","","","","","","","","","",""
"image-keyboard-response","10","37687","0.0-6.0-1.2","63d43dc4b4b7a0e426a381cd","bdp_trlrn","Fri Mar 10 2023 12:19:54 GMT-0800 (Pacific Standard Time)","718520","Untrustworthy,Trustworthy","","","","rating","","7872","","trustrating_stim/white_mw060.bmp","5","","","","","","","","","","",""
"image-keyboard-response","11","37889","0.0-6.0-2.2","63d43dc4b4b7a0e426a381cd","bdp_trlrn","Fri Mar 10 2023 12:19:54 GMT-0800 (Pacific Standard Time)","718520","Untrustworthy,Trustworthy","","","","ratingFB","","null","","trustrating_stim/white_mw060.bmp","null","","","","","","","","","","",""
"image-keyboard-response","12","41421","0.0-6.0-1.3","63d43dc4b4b7a0e426a381cd","bdp_trlrn","Fri Mar 10 2023 12:19:54 GMT-0800 (Pacific Standard Time)","718520","Untrustworthy,Trustworthy","","","","rating","","3430","","trustrating_stim/white_00659_941121_fa_edt.bmp","4","","","","","","","","","","",""
"image-keyboard-response","13","41623","0.0-6.0-2.3","63d43dc4b4b7a0e426a381cd","bdp_trlrn","Fri Mar 10 2023 12:19:54 GMT-0800 (Pacific Standard Time)","718520","Untrustworthy,Trustworthy","","","","ratingFB","","null","","trustrating_stim/white_00659_941121_fa_edt.bmp","null","","","","","","","","","","",""
"image-keyboard-response","14","47163","0.0-6.0-1.4","63d43dc4b4b7a0e426a381cd","bdp_trlrn","Fri Mar 10 2023 12:19:54 GMT-0800 (Pacific Standard Time)","718520","Untrustworthy,Trustworthy","","","","rating","","5438","","trustrating_stim/white_mw033.bmp","4","","","","","","","","","","",""
"image-keyboard-response","15","47364","0.0-6.0-2.4","63d43dc4b4b7a0e426a381cd","bdp_trlrn","Fri Mar 10 2023 12:19:54 GMT-0800 (Pacific Standard Time)","718520","Untrustworthy,Trustworthy","","","","ratingFB","","null","","trustrating_stim/white_mw033.bmp","null","","","","","","","","","","",""
"image-keyboard-response","16","51448","0.0-6.0-1.5","63d43dc4b4b7a0e426a381cd","bdp_trlrn","Fri Mar 10 2023 12:19:54 GMT-0800 (Pacific Standard Time)","718520","Untrustworthy,Trustworthy","","","","rating","","3981","","trustrating_stim/white_mw097.bmp","3","","","","","","","","","","",""
"image-keyboard-response","17","51650","0.0-6.0-2.5","63d43dc4b4b7a0e426a381cd","bdp_trlrn","Fri Mar 10 2023 12:19:54 GMT-0800 (Pacific Standard Time)","718520","Untrustworthy,Trustworthy","","","","ratingFB","","null","","trustrating_stim/white_mw097.bmp","null","","","","","","","","","","",""
"image-keyboard-response","18","55274","0.0-6.0-1.6","63d43dc4b4b7a0e426a381cd","bdp_trlrn","Fri Mar 10 2023 12:19:54 GMT-0800 (Pacific Standard Time)","718520","Untrustworthy,Trustworthy","","","","rating","","3522","","trustrating_stim/white_mw035.bmp","5","","","","","","","","","","",""
"image-keyboard-response","19","55477","0.0-6.0-2.6","63d43dc4b4b7a0e426a381cd","bdp_trlrn","Fri Mar 10 2023 12:19:54 GMT-0800 (Pacific Standard Time)","718520","Untrustworthy,Trustworthy","","","","ratingFB","","null","","trustrating_stim/white_mw035.bmp","null","","","","","","","","","","",""
"image-keyboard-response","20","57757","0.0-6.0-1.7","63d43dc4b4b7a0e426a381cd","bdp_trlrn","Fri Mar 10 2023 12:19:54 GMT-0800 (Pacific Standard Time)","718520","Untrustworthy,Trustworthy","","","","rating","","2176","","trustrating_stim/white_mw066.bmp","6","","","","","","","","","","",""
"image-keyboard-response","21","57959","0.0-6.0-2.7","63d43dc4b4b7a0e426a381cd","bdp_trlrn","Fri Mar 10 2023 12:19:54 GMT-0800 (Pacific Standard Time)","718520","Untrustworthy,Trustworthy","","","","ratingFB","","null","","trustrating_stim/white_mw066.bmp","null","","","","","","","","","","",""
"image-keyboard-response","22","60574","0.0-6.0-1.8","63d43dc4b4b7a0e426a381cd","bdp_trlrn","Fri Mar 10 2023 12:19:54 GMT-0800 (Pacific Standard Time)","718520","Untrustworthy,Trustworthy","","","","rating","","2511","","trustrating_stim/white_00757_941201_fa_edt.bmp","5","","","","","","","","","","",""
"image-keyboard-response","23","60777","0.0-6.0-2.8","63d43dc4b4b7a0e426a381cd","bdp_trlrn","Fri Mar 10 2023 12:19:54 GMT-0800 (Pacific Standard Time)","718520","Untrustworthy,Trustworthy","","","","ratingFB","","null","","trustrating_stim/white_00757_941201_fa_edt.bmp","null","","","","","","","","","","",""
"image-keyboard-response","24","65944","0.0-6.0-1.9","63d43dc4b4b7a0e426a381cd","bdp_trlrn","Fri Mar 10 2023 12:19:54 GMT-0800 (Pacific Standard Time)","718520","Untrustworthy,Trustworthy","","","","rating","","5061","","trustrating_stim/white_mw071.bmp","5","","","","","","","","","","",""
"image-keyboard-response","25","66149","0.0-6.0-2.9","63d43dc4b4b7a0e426a381cd","bdp_trlrn","Fri Mar 10 2023 12:19:54 GMT-0800 (Pacific Standard Time)","718520","Untrustworthy,Trustworthy","","","","ratingFB","","null","","trustrating_stim/white_mw071.bmp","null","","","","","","","","","","",""
"image-keyboard-response","26","68573","0.0-6.0-1.10","63d43dc4b4b7a0e426a381cd","bdp_trlrn","Fri Mar 10 2023 12:19:54 GMT-0800 (Pacific Standard Time)","718520","Untrustworthy,Trustworthy","","","","rating","","2320","","trustrating_stim/white_mw046.bmp","5","","","","","","","","","","",""
"image-keyboard-response","27","68777","0.0-6.0-2.10","63d43dc4b4b7a0e426a381cd","bdp_trlrn","Fri Mar 10 2023 12:19:54 GMT-0800 (Pacific Standard Time)","718520","Untrustworthy,Trustworthy","","","","ratingFB","","null","","trustrating_stim/white_mw046.bmp","null","","","","","","","","","","",""
"image-keyboard-response","28","70402","0.0-6.0-1.11","63d43dc4b4b7a0e426a381cd","bdp_trlrn","Fri Mar 10 2023 12:19:54 GMT-0800 (Pacific Standard Time)","718520","Untrustworthy,Trustworthy","","","","rating","","1521","","trustrating_stim/white_00602_940928_fb_edt.bmp","8","","","","","","","","","","",""
"image-keyboard-response","29","70604","0.0-6.0-2.11","63d43dc4b4b7a0e426a381cd","bdp_trlrn","Fri Mar 10 2023 12:19:54 GMT-0800 (Pacific Standard Time)","718520","Untrustworthy,Trustworthy","","","","ratingFB","","null","","trustrating_stim/white_00602_940928_fb_edt.bmp","null","","","","","","","","","","",""
"image-keyboard-response","30","73156","0.0-6.0-1.12","63d43dc4b4b7a0e426a381cd","bdp_trlrn","Fri Mar 10 2023 12:19:54 GMT-0800 (Pacific Standard Time)","718520","Untrustworthy,Trustworthy","","","","rating","","2447","","trustrating_stim/white_mw053.bmp","8","","","","","","","","","","",""
"image-keyboard-response","31","73359","0.0-6.0-2.12","63d43dc4b4b7a0e426a381cd","bdp_trlrn","Fri Mar 10 2023 12:19:54 GMT-0800 (Pacific Standard Time)","718520","Untrustworthy,Trustworthy","","","","ratingFB","","null","","trustrating_stim/white_mw053.bmp","null","","","","","","","","","","",""
"image-keyboard-response","32","75706","0.0-6.0-1.13","63d43dc4b4b7a0e426a381cd","bdp_trlrn","Fri Mar 10 2023 12:19:54 GMT-0800 (Pacific Standard Time)","718520","Untrustworthy,Trustworthy","","","","rating","","2241","","trustrating_stim/white_00109_931230_fa_edt.bmp","7","","","","","","","","","","",""
"image-keyboard-response","33","75908","0.0-6.0-2.13","63d43dc4b4b7a0e426a381cd","bdp_trlrn","Fri Mar 10 2023 12:19:54 GMT-0800 (Pacific Standard Time)","718520","Untrustworthy,Trustworthy","","","","ratingFB","","null","","trustrating_stim/white_00109_931230_fa_edt.bmp","null","","","","","","","","","","",""
"image-keyboard-response","34","78172","0.0-6.0-1.14","63d43dc4b4b7a0e426a381cd","bdp_trlrn","Fri Mar 10 2023 12:19:54 GMT-0800 (Pacific Standard Time)","718520","Untrustworthy,Trustworthy","","","","rating","","2160","","trustrating_stim/white_00898_960530_fa_edt.bmp","7","","","","","","","","","","",""
"image-keyboard-response","35","78375","0.0-6.0-2.14","63d43dc4b4b7a0e426a381cd","bdp_trlrn","Fri Mar 10 2023 12:19:54 GMT-0800 (Pacific Standard Time)","718520","Untrustworthy,Trustworthy","","","","ratingFB","","null","","trustrating_stim/white_00898_960530_fa_edt.bmp","null","","","","","","","","","","",""
"image-keyboard-response","36","81839","0.0-6.0-1.15","63d43dc4b4b7a0e426a381cd","bdp_trlrn","Fri Mar 10 2023 12:19:54 GMT-0800 (Pacific Standard Time)","718520","Untrustworthy,Trustworthy","","","","rating","","3360","","trustrating_stim/white_mw063.bmp","6","","","","","","","","","","",""
"image-keyboard-response","37","82043","0.0-6.0-2.15","63d43dc4b4b7a0e426a381cd","bdp_trlrn","Fri Mar 10 2023 12:19:54 GMT-0800 (Pacific Standard Time)","718520","Untrustworthy,Trustworthy","","","","ratingFB","","null","","trustrating_stim/white_mw063.bmp","null","","","","","","","","","","",""
"image-keyboard-response","38","84202","0.0-6.0-1.16","63d43dc4b4b7a0e426a381cd","bdp_trlrn","Fri Mar 10 2023 12:19:54 GMT-0800 (Pacific Standard Time)","718520","Untrustworthy,Trustworthy","","","","rating","","2056","","trustrating_stim/white_mw099.bmp","5","","","","","","","","","","",""
"image-keyboard-response","39","84404","0.0-6.0-2.16","63d43dc4b4b7a0e426a381cd","bdp_trlrn","Fri Mar 10 2023 12:19:54 GMT-0800 (Pacific Standard Time)","718520","Untrustworthy,Trustworthy","","","","ratingFB","","null","","trustrating_stim/white_mw099.bmp","null","","","","","","","","","","",""
"image-keyboard-response","40","87723","0.0-6.0-1.17","63d43dc4b4b7a0e426a381cd","bdp_trlrn","Fri Mar 10 2023 12:19:54 GMT-0800 (Pacific Standard Time)","718520","Untrustworthy,Trustworthy","","","","rating","","3217","","trustrating_stim/white_00223_940128_fb_edt.bmp","4","","","","","","","","","","",""
"image-keyboard-response","41","87925","0.0-6.0-2.17","63d43dc4b4b7a0e426a381cd","bdp_trlrn","Fri Mar 10 2023 12:19:54 GMT-0800 (Pacific Standard Time)","718520","Untrustworthy,Trustworthy","","","","ratingFB","","null","","trustrating_stim/white_00223_940128_fb_edt.bmp","null","","","","","","","","","","",""
"image-keyboard-response","42","90598","0.0-6.0-1.18","63d43dc4b4b7a0e426a381cd","bdp_trlrn","Fri Mar 10 2023 12:19:54 GMT-0800 (Pacific Standard Time)","718520","Untrustworthy,Trustworthy","","","","rating","","2571","","trustrating_stim/white_00340_940422_fa_edt.bmp","4","","","","","","","","","","",""
"image-keyboard-response","43","90800","0.0-6.0-2.18","63d43dc4b4b7a0e426a381cd","bdp_trlrn","Fri Mar 10 2023 12:19:54 GMT-0800 (Pacific Standard Time)","718520","Untrustworthy,Trustworthy","","","","ratingFB","","null","","trustrating_stim/white_00340_940422_fa_edt.bmp","null","","","","","","","","","","",""
"image-keyboard-response","44","93188","0.0-6.0-1.19","63d43dc4b4b7a0e426a381cd","bdp_trlrn","Fri Mar 10 2023 12:19:54 GMT-0800 (Pacific Standard Time)","718520","Untrustworthy,Trustworthy","","","","rating","","2284","","trustrating_stim/white_00120_931230_fa_edt.bmp","6","","","","","","","","","","",""
"image-keyboard-response","45","93391","0.0-6.0-2.19","63d43dc4b4b7a0e426a381cd","bdp_trlrn","Fri Mar 10 2023 12:19:54 GMT-0800 (Pacific Standard Time)","718520","Untrustworthy,Trustworthy","","","","ratingFB","","null","","trustrating_stim/white_00120_931230_fa_edt.bmp","null","","","","","","","","","","",""
"image-keyboard-response","46","96769","0.0-6.0-1.20","63d43dc4b4b7a0e426a381cd","bdp_trlrn","Fri Mar 10 2023 12:19:54 GMT-0800 (Pacific Standard Time)","718520","Untrustworthy,Trustworthy","","","","rating","","3275","","trustrating_stim/white_mw084.bmp","6","","","","","","","","","","",""
"image-keyboard-response","47","96971","0.0-6.0-2.20","63d43dc4b4b7a0e426a381cd","bdp_trlrn","Fri Mar 10 2023 12:19:54 GMT-0800 (Pacific Standard Time)","718520","Untrustworthy,Trustworthy","","","","ratingFB","","null","","trustrating_stim/white_mw084.bmp","null","","","","","","","","","","",""
"image-keyboard-response","48","100272","0.0-6.0-1.21","63d43dc4b4b7a0e426a381cd","bdp_trlrn","Fri Mar 10 2023 12:19:54 GMT-0800 (Pacific Standard Time)","718520","Untrustworthy,Trustworthy","","","","rating","","3197","","trustrating_stim/white_mw048.bmp","4","","","","","","","","","","",""
"image-keyboard-response","49","100474","0.0-6.0-2.21","63d43dc4b4b7a0e426a381cd","bdp_trlrn","Fri Mar 10 2023 12:19:54 GMT-0800 (Pacific Standard Time)","718520","Untrustworthy,Trustworthy","","","","ratingFB","","null","","trustrating_stim/white_mw048.bmp","null","","","","","","","","","","",""
"image-keyboard-response","50","110331","0.0-6.0-1.22","63d43dc4b4b7a0e426a381cd","bdp_trlrn","Fri Mar 10 2023 12:19:54 GMT-0800 (Pacific Standard Time)","718520","Untrustworthy,Trustworthy","","","","rating","","9752","","trustrating_stim/white_00577_940928_fa_edt.bmp","4","","","","","","","","","","",""
"image-keyboard-response","51","110533","0.0-6.0-2.22","63d43dc4b4b7a0e426a381cd","bdp_trlrn","Fri Mar 10 2023 12:19:54 GMT-0800 (Pacific Standard Time)","718520","Untrustworthy,Trustworthy","","","","ratingFB","","null","","trustrating_stim/white_00577_940928_fa_edt.bmp","null","","","","","","","","","","",""
"image-keyboard-response","52","112611","0.0-6.0-1.23","63d43dc4b4b7a0e426a381cd","bdp_trlrn","Fri Mar 10 2023 12:19:54 GMT-0800 (Pacific Standard Time)","718520","Untrustworthy,Trustworthy","","","","rating","","1976","","trustrating_stim/white_00299_940422_fa_edt.bmp","6","","","","","","","","","","",""
"image-keyboard-response","53","112813","0.0-6.0-2.23","63d43dc4b4b7a0e426a381cd","bdp_trlrn","Fri Mar 10 2023 12:19:54 GMT-0800 (Pacific Standard Time)","718520","Untrustworthy,Trustworthy","","","","ratingFB","","null","","trustrating_stim/white_00299_940422_fa_edt.bmp","null","","","","","","","","","","",""
"image-keyboard-response","54","114538","0.0-6.0-1.24","63d43dc4b4b7a0e426a381cd","bdp_trlrn","Fri Mar 10 2023 12:19:54 GMT-0800 (Pacific Standard Time)","718520","Untrustworthy,Trustworthy","","","","rating","","1623","","trustrating_stim/white_mw049.bmp","7","","","","","","","","","","",""
"image-keyboard-response","55","114740","0.0-6.0-2.24","63d43dc4b4b7a0e426a381cd","bdp_trlrn","Fri Mar 10 2023 12:19:54 GMT-0800 (Pacific Standard Time)","718520","Untrustworthy,Trustworthy","","","","ratingFB","","null","","trustrating_stim/white_mw049.bmp","null","","","","","","","","","","",""
"image-keyboard-response","56","120726","0.0-6.0-1.25","63d43dc4b4b7a0e426a381cd","bdp_trlrn","Fri Mar 10 2023 12:19:54 GMT-0800 (Pacific Standard Time)","718520","Untrustworthy,Trustworthy","","","","rating","","5884","","trustrating_stim/white_00761_941201_fb_edt.bmp","5","","","","","","","","","","",""
"image-keyboard-response","57","120929","0.0-6.0-2.25","63d43dc4b4b7a0e426a381cd","bdp_trlrn","Fri Mar 10 2023 12:19:54 GMT-0800 (Pacific Standard Time)","718520","Untrustworthy,Trustworthy","","","","ratingFB","","null","","trustrating_stim/white_00761_941201_fb_edt.bmp","null","","","","","","","","","","",""
"image-keyboard-response","58","124633","0.0-6.0-1.26","63d43dc4b4b7a0e426a381cd","bdp_trlrn","Fri Mar 10 2023 12:19:54 GMT-0800 (Pacific Standard Time)","718520","Untrustworthy,Trustworthy","","","","rating","","3601","","trustrating_stim/white_00785_941205_fb_edt.bmp","5","","","","","","","","","","",""
"image-keyboard-response","59","124833","0.0-6.0-2.26","63d43dc4b4b7a0e426a381cd","bdp_trlrn","Fri Mar 10 2023 12:19:54 GMT-0800 (Pacific Standard Time)","718520","Untrustworthy,Trustworthy","","","","ratingFB","","null","","trustrating_stim/white_00785_941205_fb_edt.bmp","null","","","","","","","","","","",""
"image-keyboard-response","60","127075","0.0-6.0-1.27","63d43dc4b4b7a0e426a381cd","bdp_trlrn","Fri Mar 10 2023 12:19:54 GMT-0800 (Pacific Standard Time)","718520","Untrustworthy,Trustworthy","","","","rating","","2136","","trustrating_stim/white_00129_931230_fb_edt.bmp","7","","","","","","","","","","",""
"image-keyboard-response","61","127277","0.0-6.0-2.27","63d43dc4b4b7a0e426a381cd","bdp_trlrn","Fri Mar 10 2023 12:19:54 GMT-0800 (Pacific Standard Time)","718520","Untrustworthy,Trustworthy","","","","ratingFB","","null","","trustrating_stim/white_00129_931230_fb_edt.bmp","null","","","","","","","","","","",""
"image-keyboard-response","62","129586","0.0-6.0-1.28","63d43dc4b4b7a0e426a381cd","bdp_trlrn","Fri Mar 10 2023 12:19:54 GMT-0800 (Pacific Standard Time)","718520","Untrustworthy,Trustworthy","","","","rating","","2206","","trustrating_stim/white_00519_940519_fb_edt.bmp","8","","","","","","","","","","",""
"image-keyboard-response","63","129789","0.0-6.0-2.28","63d43dc4b4b7a0e426a381cd","bdp_trlrn","Fri Mar 10 2023 12:19:54 GMT-0800 (Pacific Standard Time)","718520","Untrustworthy,Trustworthy","","","","ratingFB","","null","","trustrating_stim/white_00519_940519_fb_edt.bmp","null","","","","","","","","","","",""
"image-keyboard-response","64","131579","0.0-6.0-1.29","63d43dc4b4b7a0e426a381cd","bdp_trlrn","Fri Mar 10 2023 12:19:54 GMT-0800 (Pacific Standard Time)","718520","Untrustworthy,Trustworthy","","","","rating","","1686","","trustrating_stim/white_00807_941205_fb_edt.bmp","7","","","","","","","","","","",""
"image-keyboard-response","65","131781","0.0-6.0-2.29","63d43dc4b4b7a0e426a381cd","bdp_trlrn","Fri Mar 10 2023 12:19:54 GMT-0800 (Pacific Standard Time)","718520","Untrustworthy,Trustworthy","","","","ratingFB","","null","","trustrating_stim/white_00807_941205_fb_edt.bmp","null","","","","","","","","","","",""
"image-keyboard-response","66","135070","0.0-6.0-1.30","63d43dc4b4b7a0e426a381cd","bdp_trlrn","Fri Mar 10 2023 12:19:54 GMT-0800 (Pacific Standard Time)","718520","Untrustworthy,Trustworthy","","","","rating","","3186","","trustrating_stim/white_mw035.bmp","5","","","","","","","","","","",""
"image-keyboard-response","67","135271","0.0-6.0-2.30","63d43dc4b4b7a0e426a381cd","bdp_trlrn","Fri Mar 10 2023 12:19:54 GMT-0800 (Pacific Standard Time)","718520","Untrustworthy,Trustworthy","","","","ratingFB","","null","","trustrating_stim/white_mw035.bmp","null","","","","","","","","","","",""
"image-keyboard-response","68","136989","0.0-6.0-1.31","63d43dc4b4b7a0e426a381cd","bdp_trlrn","Fri Mar 10 2023 12:19:54 GMT-0800 (Pacific Standard Time)","718520","Untrustworthy,Trustworthy","","","","rating","","1617","","trustrating_stim/white_00757_941201_fa_edt.bmp","4","","","","","","","","","","",""
"image-keyboard-response","69","137191","0.0-6.0-2.31","63d43dc4b4b7a0e426a381cd","bdp_trlrn","Fri Mar 10 2023 12:19:54 GMT-0800 (Pacific Standard Time)","718520","Untrustworthy,Trustworthy","","","","ratingFB","","null","","trustrating_stim/white_00757_941201_fa_edt.bmp","null","","","","","","","","","","",""
"image-keyboard-response","70","138495","0.0-6.0-1.32","63d43dc4b4b7a0e426a381cd","bdp_trlrn","Fri Mar 10 2023 12:19:54 GMT-0800 (Pacific Standard Time)","718520","Untrustworthy,Trustworthy","","","","rating","","1199","","trustrating_stim/white_00223_940128_fb_edt.bmp","4","","","","","","","","","","",""
"image-keyboard-response","71","138697","0.0-6.0-2.32","63d43dc4b4b7a0e426a381cd","bdp_trlrn","Fri Mar 10 2023 12:19:54 GMT-0800 (Pacific Standard Time)","718520","Untrustworthy,Trustworthy","","","","ratingFB","","null","","trustrating_stim/white_00223_940128_fb_edt.bmp","null","","","","","","","","","","",""
"image-keyboard-response","72","142090","0.0-6.0-1.33","63d43dc4b4b7a0e426a381cd","bdp_trlrn","Fri Mar 10 2023 12:19:54 GMT-0800 (Pacific Standard Time)","718520","Untrustworthy,Trustworthy","","","","rating","","3288","","trustrating_stim/white_mw071.bmp","4","","","","","","","","","","",""
"image-keyboard-response","73","142293","0.0-6.0-2.33","63d43dc4b4b7a0e426a381cd","bdp_trlrn","Fri Mar 10 2023 12:19:54 GMT-0800 (Pacific Standard Time)","718520","Untrustworthy,Trustworthy","","","","ratingFB","","null","","trustrating_stim/white_mw071.bmp","null","","","","","","","","","","",""
"image-keyboard-response","74","144075","0.0-6.0-1.34","63d43dc4b4b7a0e426a381cd","bdp_trlrn","Fri Mar 10 2023 12:19:54 GMT-0800 (Pacific Standard Time)","718520","Untrustworthy,Trustworthy","","","","rating","","1678","","trustrating_stim/white_00340_940422_fa_edt.bmp","5","","","","","","","","","","",""
"image-keyboard-response","75","144278","0.0-6.0-2.34","63d43dc4b4b7a0e426a381cd","bdp_trlrn","Fri Mar 10 2023 12:19:54 GMT-0800 (Pacific Standard Time)","718520","Untrustworthy,Trustworthy","","","","ratingFB","","null","","trustrating_stim/white_00340_940422_fa_edt.bmp","null","","","","","","","","","","",""
"image-keyboard-response","76","146168","0.0-6.0-1.35","63d43dc4b4b7a0e426a381cd","bdp_trlrn","Fri Mar 10 2023 12:19:54 GMT-0800 (Pacific Standard Time)","718520","Untrustworthy,Trustworthy","","","","rating","","1788","","trustrating_stim/white_00129_931230_fb_edt.bmp","8","","","","","","","","","","",""
"image-keyboard-response","77","146371","0.0-6.0-2.35","63d43dc4b4b7a0e426a381cd","bdp_trlrn","Fri Mar 10 2023 12:19:54 GMT-0800 (Pacific Standard Time)","718520","Untrustworthy,Trustworthy","","","","ratingFB","","null","","trustrating_stim/white_00129_931230_fb_edt.bmp","null","","","","","","","","","","",""
"image-keyboard-response","78","147808","0.0-6.0-1.36","63d43dc4b4b7a0e426a381cd","bdp_trlrn","Fri Mar 10 2023 12:19:54 GMT-0800 (Pacific Standard Time)","718520","Untrustworthy,Trustworthy","","","","rating","","1332","","trustrating_stim/white_00602_940928_fb_edt.bmp","8","","","","","","","","","","",""
"image-keyboard-response","79","148010","0.0-6.0-2.36","63d43dc4b4b7a0e426a381cd","bdp_trlrn","Fri Mar 10 2023 12:19:54 GMT-0800 (Pacific Standard Time)","718520","Untrustworthy,Trustworthy","","","","ratingFB","","null","","trustrating_stim/white_00602_940928_fb_edt.bmp","null","","","","","","","","","","",""
"image-keyboard-response","80","149247","0.0-6.0-1.37","63d43dc4b4b7a0e426a381cd","bdp_trlrn","Fri Mar 10 2023 12:19:54 GMT-0800 (Pacific Standard Time)","718520","Untrustworthy,Trustworthy","","","","rating","","1133","","trustrating_stim/white_mw048.bmp","5","","","","","","","","","","",""
"image-keyboard-response","81","149449","0.0-6.0-2.37","63d43dc4b4b7a0e426a381cd","bdp_trlrn","Fri Mar 10 2023 12:19:54 GMT-0800 (Pacific Standard Time)","718520","Untrustworthy,Trustworthy","","","","ratingFB","","null","","trustrating_stim/white_mw048.bmp","null","","","","","","","","","","",""
"image-keyboard-response","82","152323","0.0-6.0-1.38","63d43dc4b4b7a0e426a381cd","bdp_trlrn","Fri Mar 10 2023 12:19:54 GMT-0800 (Pacific Standard Time)","718520","Untrustworthy,Trustworthy","","","","rating","","2769","","trustrating_stim/white_mw033.bmp","5","","","","","","","","","","",""
"image-keyboard-response","83","152525","0.0-6.0-2.38","63d43dc4b4b7a0e426a381cd","bdp_trlrn","Fri Mar 10 2023 12:19:54 GMT-0800 (Pacific Standard Time)","718520","Untrustworthy,Trustworthy","","","","ratingFB","","null","","trustrating_stim/white_mw033.bmp","null","","","","","","","","","","",""
"image-keyboard-response","84","154626","0.0-6.0-1.39","63d43dc4b4b7a0e426a381cd","bdp_trlrn","Fri Mar 10 2023 12:19:54 GMT-0800 (Pacific Standard Time)","718520","Untrustworthy,Trustworthy","","","","rating","","1999","","trustrating_stim/white_mw084.bmp","5","","","","","","","","","","",""
"image-keyboard-response","85","154828","0.0-6.0-2.39","63d43dc4b4b7a0e426a381cd","bdp_trlrn","Fri Mar 10 2023 12:19:54 GMT-0800 (Pacific Standard Time)","718520","Untrustworthy,Trustworthy","","","","ratingFB","","null","","trustrating_stim/white_mw084.bmp","null","","","","","","","","","","",""
"image-keyboard-response","86","157125","0.0-6.0-1.40","63d43dc4b4b7a0e426a381cd","bdp_trlrn","Fri Mar 10 2023 12:19:54 GMT-0800 (Pacific Standard Time)","718520","Untrustworthy,Trustworthy","","","","rating","","2193","","trustrating_stim/white_mw063.bmp","3","","","","","","","","","","",""
"image-keyboard-response","87","157327","0.0-6.0-2.40","63d43dc4b4b7a0e426a381cd","bdp_trlrn","Fri Mar 10 2023 12:19:54 GMT-0800 (Pacific Standard Time)","718520","Untrustworthy,Trustworthy","","","","ratingFB","","null","","trustrating_stim/white_mw063.bmp","null","","","","","","","","","","",""
"image-keyboard-response","88","158715","0.0-6.0-1.41","63d43dc4b4b7a0e426a381cd","bdp_trlrn","Fri Mar 10 2023 12:19:54 GMT-0800 (Pacific Standard Time)","718520","Untrustworthy,Trustworthy","","","","rating","","1284","","trustrating_stim/white_mw049.bmp","8","","","","","","","","","","",""
"image-keyboard-response","89","158918","0.0-6.0-2.41","63d43dc4b4b7a0e426a381cd","bdp_trlrn","Fri Mar 10 2023 12:19:54 GMT-0800 (Pacific Standard Time)","718520","Untrustworthy,Trustworthy","","","","ratingFB","","null","","trustrating_stim/white_mw049.bmp","null","","","","","","","","","","",""
"image-keyboard-response","90","160306","0.0-6.0-1.42","63d43dc4b4b7a0e426a381cd","bdp_trlrn","Fri Mar 10 2023 12:19:54 GMT-0800 (Pacific Standard Time)","718520","Untrustworthy,Trustworthy","","","","rating","","1284","","trustrating_stim/white_00785_941205_fb_edt.bmp","7","","","","","","","","","","",""
"image-keyboard-response","91","160508","0.0-6.0-2.42","63d43dc4b4b7a0e426a381cd","bdp_trlrn","Fri Mar 10 2023 12:19:54 GMT-0800 (Pacific Standard Time)","718520","Untrustworthy,Trustworthy","","","","ratingFB","","null","","trustrating_stim/white_00785_941205_fb_edt.bmp","null","","","","","","","","","","",""
"image-keyboard-response","92","161886","0.0-6.0-1.43","63d43dc4b4b7a0e426a381cd","bdp_trlrn","Fri Mar 10 2023 12:19:54 GMT-0800 (Pacific Standard Time)","718520","Untrustworthy,Trustworthy","","","","rating","","1274","","trustrating_stim/white_00761_941201_fb_edt.bmp","7","","","","","","","","","","",""
"image-keyboard-response","93","162088","0.0-6.0-2.43","63d43dc4b4b7a0e426a381cd","bdp_trlrn","Fri Mar 10 2023 12:19:54 GMT-0800 (Pacific Standard Time)","718520","Untrustworthy,Trustworthy","","","","ratingFB","","null","","trustrating_stim/white_00761_941201_fb_edt.bmp","null","","","","","","","","","","",""
"image-keyboard-response","94","165001","0.0-6.0-1.44","63d43dc4b4b7a0e426a381cd","bdp_trlrn","Fri Mar 10 2023 12:19:54 GMT-0800 (Pacific Standard Time)","718520","Untrustworthy,Trustworthy","","","","rating","","2807","","trustrating_stim/white_00659_941121_fa_edt.bmp","6","","","","","","","","","","",""
"image-keyboard-response","95","165202","0.0-6.0-2.44","63d43dc4b4b7a0e426a381cd","bdp_trlrn","Fri Mar 10 2023 12:19:54 GMT-0800 (Pacific Standard Time)","718520","Untrustworthy,Trustworthy","","","","ratingFB","","null","","trustrating_stim/white_00659_941121_fa_edt.bmp","null","","","","","","","","","","",""
"image-keyboard-response","96","167030","0.0-6.0-1.45","63d43dc4b4b7a0e426a381cd","bdp_trlrn","Fri Mar 10 2023 12:19:54 GMT-0800 (Pacific Standard Time)","718520","Untrustworthy,Trustworthy","","","","rating","","1723","","trustrating_stim/white_00519_940519_fb_edt.bmp","8","","","","","","","","","","",""
"image-keyboard-response","97","167231","0.0-6.0-2.45","63d43dc4b4b7a0e426a381cd","bdp_trlrn","Fri Mar 10 2023 12:19:54 GMT-0800 (Pacific Standard Time)","718520","Untrustworthy,Trustworthy","","","","ratingFB","","null","","trustrating_stim/white_00519_940519_fb_edt.bmp","null","","","","","","","","","","",""
"image-keyboard-response","98","169032","0.0-6.0-1.46","63d43dc4b4b7a0e426a381cd","bdp_trlrn","Fri Mar 10 2023 12:19:54 GMT-0800 (Pacific Standard Time)","718520","Untrustworthy,Trustworthy","","","","rating","","1695","","trustrating_stim/white_mw060.bmp","5","","","","","","","","","","",""
"image-keyboard-response","99","169233","0.0-6.0-2.46","63d43dc4b4b7a0e426a381cd","bdp_trlrn","Fri Mar 10 2023 12:19:54 GMT-0800 (Pacific Standard Time)","718520","Untrustworthy,Trustworthy","","","","ratingFB","","null","","trustrating_stim/white_mw060.bmp","null","","","","","","","","","","",""
"image-keyboard-response","100","173131","0.0-6.0-1.47","63d43dc4b4b7a0e426a381cd","bdp_trlrn","Fri Mar 10 2023 12:19:54 GMT-0800 (Pacific Standard Time)","718520","Untrustworthy,Trustworthy","","","","rating","","3793","","trustrating_stim/white_00299_940422_fa_edt.bmp","7","","","","","","","","","","",""
"image-keyboard-response","101","173333","0.0-6.0-2.47","63d43dc4b4b7a0e426a381cd","bdp_trlrn","Fri Mar 10 2023 12:19:54 GMT-0800 (Pacific Standard Time)","718520","Untrustworthy,Trustworthy","","","","ratingFB","","null","","trustrating_stim/white_00299_940422_fa_edt.bmp","null","","","","","","","","","","",""
"image-keyboard-response","102","175469","0.0-6.0-1.48","63d43dc4b4b7a0e426a381cd","bdp_trlrn","Fri Mar 10 2023 12:19:54 GMT-0800 (Pacific Standard Time)","718520","Untrustworthy,Trustworthy","","","","rating","","2032","","trustrating_stim/white_mw056.bmp","4","","","","","","","","","","",""
"image-keyboard-response","103","175670","0.0-6.0-2.48","63d43dc4b4b7a0e426a381cd","bdp_trlrn","Fri Mar 10 2023 12:19:54 GMT-0800 (Pacific Standard Time)","718520","Untrustworthy,Trustworthy","","","","ratingFB","","null","","trustrating_stim/white_mw056.bmp","null","","","","","","","","","","",""
"image-keyboard-response","104","177838","0.0-6.0-1.49","63d43dc4b4b7a0e426a381cd","bdp_trlrn","Fri Mar 10 2023 12:19:54 GMT-0800 (Pacific Standard Time)","718520","Untrustworthy,Trustworthy","","","","rating","","2064","","trustrating_stim/white_mw046.bmp","7","","","","","","","","","","",""
"image-keyboard-response","105","178039","0.0-6.0-2.49","63d43dc4b4b7a0e426a381cd","bdp_trlrn","Fri Mar 10 2023 12:19:54 GMT-0800 (Pacific Standard Time)","718520","Untrustworthy,Trustworthy","","","","ratingFB","","null","","trustrating_stim/white_mw046.bmp","null","","","","","","","","","","",""
"image-keyboard-response","106","180210","0.0-6.0-1.50","63d43dc4b4b7a0e426a381cd","bdp_trlrn","Fri Mar 10 2023 12:19:54 GMT-0800 (Pacific Standard Time)","718520","Untrustworthy,Trustworthy","","","","rating","","2065","","trustrating_stim/white_00109_931230_fa_edt.bmp","7","","","","","","","","","","",""
"image-keyboard-response","107","180412","0.0-6.0-2.50","63d43dc4b4b7a0e426a381cd","bdp_trlrn","Fri Mar 10 2023 12:19:54 GMT-0800 (Pacific Standard Time)","718520","Untrustworthy,Trustworthy","","","","ratingFB","","null","","trustrating_stim/white_00109_931230_fa_edt.bmp","null","","","","","","","","","","",""
"image-keyboard-response","108","183501","0.0-6.0-1.51","63d43dc4b4b7a0e426a381cd","bdp_trlrn","Fri Mar 10 2023 12:19:54 GMT-0800 (Pacific Standard Time)","718520","Untrustworthy,Trustworthy","","","","rating","","2984","","trustrating_stim/white_mw066.bmp","7","","","","","","","","","","",""
"image-keyboard-response","109","183703","0.0-6.0-2.51","63d43dc4b4b7a0e426a381cd","bdp_trlrn","Fri Mar 10 2023 12:19:54 GMT-0800 (Pacific Standard Time)","718520","Untrustworthy,Trustworthy","","","","ratingFB","","null","","trustrating_stim/white_mw066.bmp","null","","","","","","","","","","",""
"image-keyboard-response","110","189636","0.0-6.0-1.52","63d43dc4b4b7a0e426a381cd","bdp_trlrn","Fri Mar 10 2023 12:19:54 GMT-0800 (Pacific Standard Time)","718520","Untrustworthy,Trustworthy","","","","rating","","5827","","trustrating_stim/white_00807_941205_fb_edt.bmp","5","","","","","","","","","","",""
"image-keyboard-response","111","189838","0.0-6.0-2.52","63d43dc4b4b7a0e426a381cd","bdp_trlrn","Fri Mar 10 2023 12:19:54 GMT-0800 (Pacific Standard Time)","718520","Untrustworthy,Trustworthy","","","","ratingFB","","null","","trustrating_stim/white_00807_941205_fb_edt.bmp","null","","","","","","","","","","",""
"image-keyboard-response","112","192918","0.0-6.0-1.53","63d43dc4b4b7a0e426a381cd","bdp_trlrn","Fri Mar 10 2023 12:19:54 GMT-0800 (Pacific Standard Time)","718520","Untrustworthy,Trustworthy","","","","rating","","2976","","trustrating_stim/white_00577_940928_fa_edt.bmp","3","","","","","","","","","","",""
"image-keyboard-response","113","193120","0.0-6.0-2.53","63d43dc4b4b7a0e426a381cd","bdp_trlrn","Fri Mar 10 2023 12:19:54 GMT-0800 (Pacific Standard Time)","718520","Untrustworthy,Trustworthy","","","","ratingFB","","null","","trustrating_stim/white_00577_940928_fa_edt.bmp","null","","","","","","","","","","",""
"image-keyboard-response","114","194787","0.0-6.0-1.54","63d43dc4b4b7a0e426a381cd","bdp_trlrn","Fri Mar 10 2023 12:19:54 GMT-0800 (Pacific Standard Time)","718520","Untrustworthy,Trustworthy","","","","rating","","1562","","trustrating_stim/white_mw099.bmp","3","","","","","","","","","","",""
"image-keyboard-response","115","194990","0.0-6.0-2.54","63d43dc4b4b7a0e426a381cd","bdp_trlrn","Fri Mar 10 2023 12:19:54 GMT-0800 (Pacific Standard Time)","718520","Untrustworthy,Trustworthy","","","","ratingFB","","null","","trustrating_stim/white_mw099.bmp","null","","","","","","","","","","",""
"image-keyboard-response","116","197475","0.0-6.0-1.55","63d43dc4b4b7a0e426a381cd","bdp_trlrn","Fri Mar 10 2023 12:19:54 GMT-0800 (Pacific Standard Time)","718520","Untrustworthy,Trustworthy","","","","rating","","2382","","trustrating_stim/white_00898_960530_fa_edt.bmp","6","","","","","","","","","","",""
"image-keyboard-response","117","197676","0.0-6.0-2.55","63d43dc4b4b7a0e426a381cd","bdp_trlrn","Fri Mar 10 2023 12:19:54 GMT-0800 (Pacific Standard Time)","718520","Untrustworthy,Trustworthy","","","","ratingFB","","null","","trustrating_stim/white_00898_960530_fa_edt.bmp","null","","","","","","","","","","",""
"image-keyboard-response","118","199990","0.0-6.0-1.56","63d43dc4b4b7a0e426a381cd","bdp_trlrn","Fri Mar 10 2023 12:19:54 GMT-0800 (Pacific Standard Time)","718520","Untrustworthy,Trustworthy","","","","rating","","2211","","trustrating_stim/white_mw097.bmp","6","","","","","","","","","","",""
"image-keyboard-response","119","200191","0.0-6.0-2.56","63d43dc4b4b7a0e426a381cd","bdp_trlrn","Fri Mar 10 2023 12:19:54 GMT-0800 (Pacific Standard Time)","718520","Untrustworthy,Trustworthy","","","","ratingFB","","null","","trustrating_stim/white_mw097.bmp","null","","","","","","","","","","",""
"image-keyboard-response","120","201518","0.0-6.0-1.57","63d43dc4b4b7a0e426a381cd","bdp_trlrn","Fri Mar 10 2023 12:19:54 GMT-0800 (Pacific Standard Time)","718520","Untrustworthy,Trustworthy","","","","rating","","1224","","trustrating_stim/white_mw053.bmp","8","","","","","","","","","","",""
"image-keyboard-response","121","201720","0.0-6.0-2.57","63d43dc4b4b7a0e426a381cd","bdp_trlrn","Fri Mar 10 2023 12:19:54 GMT-0800 (Pacific Standard Time)","718520","Untrustworthy,Trustworthy","","","","ratingFB","","null","","trustrating_stim/white_mw053.bmp","null","","","","","","","","","","",""
"image-keyboard-response","122","203701","0.0-6.0-1.58","63d43dc4b4b7a0e426a381cd","bdp_trlrn","Fri Mar 10 2023 12:19:54 GMT-0800 (Pacific Standard Time)","718520","Untrustworthy,Trustworthy","","","","rating","","1879","","trustrating_stim/white_mw089.bmp","7","","","","","","","","","","",""
"image-keyboard-response","123","203904","0.0-6.0-2.58","63d43dc4b4b7a0e426a381cd","bdp_trlrn","Fri Mar 10 2023 12:19:54 GMT-0800 (Pacific Standard Time)","718520","Untrustworthy,Trustworthy","","","","ratingFB","","null","","trustrating_stim/white_mw089.bmp","null","","","","","","","","","","",""
"image-keyboard-response","124","205731","0.0-6.0-1.59","63d43dc4b4b7a0e426a381cd","bdp_trlrn","Fri Mar 10 2023 12:19:54 GMT-0800 (Pacific Standard Time)","718520","Untrustworthy,Trustworthy","","","","rating","","1722","","trustrating_stim/white_00120_931230_fa_edt.bmp","7","","","","","","","","","","",""
"image-keyboard-response","125","205932","0.0-6.0-2.59","63d43dc4b4b7a0e426a381cd","bdp_trlrn","Fri Mar 10 2023 12:19:54 GMT-0800 (Pacific Standard Time)","718520","Untrustworthy,Trustworthy","","","","ratingFB","","null","","trustrating_stim/white_00120_931230_fa_edt.bmp","null","","","","","","","","","","",""
"instructions","126","206998","0.0-7.0","63d43dc4b4b7a0e426a381cd","bdp_trlrn","Fri Mar 10 2023 12:19:54 GMT-0800 (Pacific Standard Time)","718520","Untrustworthy,Trustworthy","","","","","[{""page_index"":0,""viewing_time"":960}]","961","","","","","","","","","","","","","",""
"instructions","127","304525","0.0-8.0","63d43dc4b4b7a0e426a381cd","bdp_trlrn","Fri Mar 10 2023 12:19:54 GMT-0800 (Pacific Standard Time)","718520","Untrustworthy,Trustworthy","","","","","[{""page_index"":0,""viewing_time"":25599},{""page_index"":1,""viewing_time"":15429},{""page_index"":2,""viewing_time"":4778},{""page_index"":3,""viewing_time"":15999},{""page_index"":4,""viewing_time"":9516},{""page_index"":5,""viewing_time"":7522},{""page_index"":6,""viewing_time"":16475},{""page_index"":7,""viewing_time"":2107}]","97425","","","","","","","","","","","","","",""
"html-keyboard-response","128","308074","0.0-9.0","63d43dc4b4b7a0e426a381cd","bdp_trlrn","Fri Mar 10 2023 12:19:54 GMT-0800 (Pacific Standard Time)","718520","Untrustworthy,Trustworthy","","","","","","3547","","<div class='header' style='text-align:left; position: absolute; top: 5%; left: 5%;'><small>Task 3 of 5</small></div><div class='instruxDiv'><p><strong>1) What is the minimum number of points you can choose to send to your partner?</strong></p><p>a) 0</p><p>b) 1</p><p>c) 5</p>","C","","","","","","","","","","",""
"html-keyboard-response","129","311238","0.0-10.0","63d43dc4b4b7a0e426a381cd","bdp_trlrn","Fri Mar 10 2023 12:19:54 GMT-0800 (Pacific Standard Time)","718520","Untrustworthy,Trustworthy","","","","","","3062","","<div class='header' style='text-align:left; position: absolute; top: 5%; left: 5%;'><small>Task 3 of 5</small></div><div class='instruxDiv'><p><strong>1) What is the minimum number of points you can choose to send to your partner?</strong></p><p>a) 1</p><p>b) 1</p><p style='color:#FF0000'>c) 5</p><h3 style='color:#FF0000'>Incorrect!</h3><h3 class='center-content'>The correct response is b).</h3><h3 class='center-content'>The minimum number of points you can choose to send to your partner is 1 point.</h3><p><em>Press SPACEBAR to continue</em></p></div>"," ","","","","","","","","","","",""
"html-keyboard-response","130","319344","0.0-11.0","63d43dc4b4b7a0e426a381cd","bdp_trlrn","Fri Mar 10 2023 12:19:54 GMT-0800 (Pacific Standard Time)","718520","Untrustworthy,Trustworthy","","","","","","8006","","<div class='header' style='text-align:left; position: absolute; top: 5%; left: 5%;'><small>Task 3 of 5</small></div><div class='instruxDiv'><p><strong>2) What is the maximum number of points you can choose to send to your partner?</strong></p><p>a) 8</p><p>b) 5</p><p>c) 3</p>","B","","","","","","","","","","",""
"html-keyboard-response","131","321008","0.0-12.0","63d43dc4b4b7a0e426a381cd","bdp_trlrn","Fri Mar 10 2023 12:19:54 GMT-0800 (Pacific Standard Time)","718520","Untrustworthy,Trustworthy","","","","","","1560","","<div class='header' style='text-align:left; position: absolute; top: 5%; left: 5%;'><small>Task 3 of 5</small></div><div class='instruxDiv'><p><strong>2) What is the maximum number of points you can choose to send to your partner?</strong></p><p>a) 8</p><p style='color:#00FF00'>b) 5</p><p>c) 3</p><h3 style='color:#00FF00'>Correct!</h3><h3 class='center-content'>The correct response is b).</h3><h3 class='center-content'>The maximum number of points you can choose to send to your partner is 5 points.</h3><p><em>Press SPACEBAR to continue</em></p></div>"," ","","","","","","","","","","",""
"html-keyboard-response","132","323853","0.0-13.0","63d43dc4b4b7a0e426a381cd","bdp_trlrn","Fri Mar 10 2023 12:19:54 GMT-0800 (Pacific Standard Time)","718520","Untrustworthy,Trustworthy","","","","","","2744","","<div class='header' style='text-align:left; position: absolute; top: 5%; left: 5%;'><small>Task 3 of 5</small></div><div class='instruxDiv'><p><strong>3) What happens to the amount of points you send to your partner?</strong></p><p>a) Nothing</p><p>b) It doubles</p><p>c) It quadruples</p>","C","","","","","","","","","","",""
"html-keyboard-response","133","325942","0.0-14.0","63d43dc4b4b7a0e426a381cd","bdp_trlrn","Fri Mar 10 2023 12:19:54 GMT-0800 (Pacific Standard Time)","718520","Untrustworthy,Trustworthy","","","","","","1988","","<div class='header' style='text-align:left; position: absolute; top: 5%; left: 5%;'><small>Task 3 of 5</small></div><div class='instruxDiv'><p><strong>3) What happens to the amount of points you send to your partner?</strong></p><p>a) Nothing</p><p>b) It doubles</p><p style='color:#00FF00'>c) It quadruples</p><h3 style='color:#00FF00'>Correct!</h3><h3 class='center-content'>The correct response is c).</h3><h3 class='center-content'>The amount of points you send to your partner quadruples.</h3><p><em>Press SPACEBAR to continue</em></p></div>"," ","","","","","","","","","","",""
"html-keyboard-response","134","333911","0.0-15.0","63d43dc4b4b7a0e426a381cd","bdp_trlrn","Fri Mar 10 2023 12:19:54 GMT-0800 (Pacific Standard Time)","718520","Untrustworthy,Trustworthy","","","","","","7868","","<div class='header' style='text-align:left; position: absolute; top: 5%; left: 5%;'><small>Task 3 of 5</small></div><div class='instruxDiv'><p><strong>4) If you decided to share 4 out of 5 points with your partner, and they decided to share half of the amount they received with you, how many points would you receive back from them on this round?</strong></p><p>a) 16</p><p>b) 0</p><p>c) 8</p>","C","","","","","","","","","","",""
"html-keyboard-response","135","334852","0.0-16.0","63d43dc4b4b7a0e426a381cd","bdp_trlrn","Fri Mar 10 2023 12:19:54 GMT-0800 (Pacific Standard Time)","718520","Untrustworthy,Trustworthy","","","","","","839","","<div class='header' style='text-align:left; position: absolute; top: 5%; left: 5%;'><small>Task 3 of 5</small></div><div class='instruxDiv'><p><strong>4) If you decided to share 4 out of 5 points with your partner, and they decided to share half of the amount they received with you, how many points would you receive back from them on this round?</strong></p><p>a) 16</p><p>b) 0</p><p style='color:#00FF00'>c) 8</p><h3 style='color:#00FF00'>Correct!</h3><h3 class='center-content'>The correct response is c).</h3><h3 class='center-content'>If you shared 4 out of 5 points with your partner and they decided to share half of the amount they received with you, you would receive 8 points back (i.e. (4 x 4)/2 = 8).</h3><p><em>Press SPACEBAR to continue</em></p></div>"," ","","","","","","","","","","",""
"html-keyboard-response","136","339954","0.0-17.0","63d43dc4b4b7a0e426a381cd","bdp_trlrn","Fri Mar 10 2023 12:19:54 GMT-0800 (Pacific Standard Time)","718520","Untrustworthy,Trustworthy","","","","","","null","","<div class='header' style='text-align:left; position: absolute; top: 5%; left: 5%;'><small>Task 3 of 5</small></div><div class='instruxDiv'><p>Thank you for completing the quiz<p>These are the actual partners you will be interacting with in the next block:<p><div class='tc' align='center'><img class='introPic' src='trustrating_stim/white_mw099.bmp'><br><strong>Evan</strong></div><div class='bl' align='center'><img class='introPic' src='trustrating_stim/white_mw060.bmp'><br><strong>Alex</strong></div><div class='br' align='center'><img class='introPic' src='trustrating_stim/white_00129_931230_fb_edt.bmp'><br><strong>Joseph</strong></div></div><p>Across <strong>66 rounds</strong> you will interact with each partner <strong>22 times</strong> (in random order).<p style='align:center; color:white'><font <em>Press SPACEBAR to continue</em></p>","null","","","","","","","","","","",""
"instructions","137","346476","0.0-18.0","63d43dc4b4b7a0e426a381cd","bdp_trlrn","Fri Mar 10 2023 12:19:54 GMT-0800 (Pacific Standard Time)","718520","Untrustworthy,Trustworthy","","","","","[{""page_index"":0,""viewing_time"":2363},{""page_index"":1,""viewing_time"":4158}]","6521","","","","","","","","","","","","","",""
"html-keyboard-response","138","348646","0.0-19.0-1.0","63d43dc4b4b7a0e426a381cd","bdp_trlrn","Fri Mar 10 2023 12:19:54 GMT-0800 (Pacific Standard Time)","718520","Untrustworthy,Trustworthy","","","","decision","","2066","","<div class='trialDiv'><img src='trustrating_stim/white_mw099.bmp'><br><font class='baseline'><strong>Evan</strong><p>Choose number of points to send.</font><div class='respPicDiv'><img src='img/responseButtonOffersNo0L.png' class='respPic'></div></div>","5","1","Evan","2","Shared","0.35,0.8","10","0.35","trustrating_stim/white_mw099.bmp","4","5","1"
"html-keyboard-response","139","348900","0.0-19.0-2.0","63d43dc4b4b7a0e426a381cd","bdp_trlrn","Fri Mar 10 2023 12:19:54 GMT-0800 (Pacific Standard Time)","718520","Untrustworthy,Trustworthy","","","","decisionFB","","null","","<div class='trialDiv'><img src='trustrating_stim/white_mw099.bmp'><br><font class='baseline'><strong>Evan</strong><p>Choose number of points to send.</font><div class='respPicDiv'><img src='img/responseButtonOffersNo0L5.png' class='respPic'></div></div>","null","1","Evan","2","Shared","0.35,0.8","10","0.35","trustrating_stim/white_mw099.bmp","4","0","1"
"html-keyboard-response","140","349903","0.0-19.0-3.0","63d43dc4b4b7a0e426a381cd","bdp_trlrn","Fri Mar 10 2023 12:19:54 GMT-0800 (Pacific Standard Time)","718520","Untrustworthy,Trustworthy","","","","feedback","","null","","<div class='trialDiv'><img src='trustrating_stim/white_mw099.bmp'><br><font class='baseline'><strong>Evan</strong><p>Received: <strong>20</strong></font> &nbsp; &nbsp; &nbsp; &nbsp; &nbsp; &nbsp;<font class='posOutcome'>Shared back: <strong>10</strong></font></font><div class='respPicDiv'><img src='img/responseButtonOffersNo0_wht.png' class='respPic'></div></div>","null","1","Evan","2","Shared","0.35,0.8","10","0.35","trustrating_stim/white_mw099.bmp","4","10","1"
"html-keyboard-response","141","352795","0.0-19.0-1.1","63d43dc4b4b7a0e426a381cd","bdp_trlrn","Fri Mar 10 2023 12:19:54 GMT-0800 (Pacific Standard Time)","718520","Untrustworthy,Trustworthy","","","","decision","","2890","","<div class='trialDiv'><img src='trustrating_stim/white_00129_931230_fb_edt.bmp'><br><font class='baseline'><strong>Joseph</strong><p>Choose number of points to send.</font><div class='respPicDiv'><img src='img/responseButtonOffersNo0L.png' class='respPic'></div></div>","5","1","Joseph","8","Shared","0.35,0.65","14","0.35","trustrating_stim/white_00129_931230_fb_edt.bmp","7.5","15","2"
"html-keyboard-response","142","353048","0.0-19.0-2.1","63d43dc4b4b7a0e426a381cd","bdp_trlrn","Fri Mar 10 2023 12:19:54 GMT-0800 (Pacific Standard Time)","718520","Untrustworthy,Trustworthy","","","","decisionFB","","null","","<div class='trialDiv'><img src='trustrating_stim/white_00129_931230_fb_edt.bmp'><br><font class='baseline'><strong>Joseph</strong><p>Choose number of points to send.</font><div class='respPicDiv'><img src='img/responseButtonOffersNo0L5.png' class='respPic'></div></div>","null","1","Joseph","8","Shared","0.35,0.65","14","0.35","trustrating_stim/white_00129_931230_fb_edt.bmp","7.5","10","2"
"html-keyboard-response","143","354050","0.0-19.0-3.1","63d43dc4b4b7a0e426a381cd","bdp_trlrn","Fri Mar 10 2023 12:19:54 GMT-0800 (Pacific Standard Time)","718520","Untrustworthy,Trustworthy","","","","feedback","","null","","<div class='trialDiv'><img src='trustrating_stim/white_00129_931230_fb_edt.bmp'><br><font class='baseline'><strong>Joseph</strong><p>Received: <strong>20</strong></font> &nbsp; &nbsp; &nbsp; &nbsp; &nbsp; &nbsp;<font class='posOutcome'>Shared back: <strong>10</strong></font></font><div class='respPicDiv'><img src='img/responseButtonOffersNo0_wht.png' class='respPic'></div></div>","null","1","Joseph","8","Shared","0.35,0.65","14","0.35","trustrating_stim/white_00129_931230_fb_edt.bmp","7.5","20","2"
"html-keyboard-response","144","355224","0.0-19.0-1.2","63d43dc4b4b7a0e426a381cd","bdp_trlrn","Fri Mar 10 2023 12:19:54 GMT-0800 (Pacific Standard Time)","718520","Untrustworthy,Trustworthy","","","","decision","","1172","","<div class='trialDiv'><img src='trustrating_stim/white_mw060.bmp'><br><font class='baseline'><strong>Alex</strong><p>Choose number of points to send.</font><div class='respPicDiv'><img src='img/responseButtonOffersNo0L.png' class='respPic'></div></div>","5","1","Alex","4","Kept","0.65,0.2","8","0.65","trustrating_stim/white_mw060.bmp","5","25","3"
"html-keyboard-response","145","355476","0.0-19.0-2.2","63d43dc4b4b7a0e426a381cd","bdp_trlrn","Fri Mar 10 2023 12:19:54 GMT-0800 (Pacific Standard Time)","718520","Untrustworthy,Trustworthy","","","","decisionFB","","null","","<div class='trialDiv'><img src='trustrating_stim/white_mw060.bmp'><br><font class='baseline'><strong>Alex</strong><p>Choose number of points to send.</font><div class='respPicDiv'><img src='img/responseButtonOffersNo0L5.png' class='respPic'></div></div>","null","1","Alex","4","Kept","0.65,0.2","8","0.65","trustrating_stim/white_mw060.bmp","5","20","3"
"html-keyboard-response","146","356478","0.0-19.0-3.2","63d43dc4b4b7a0e426a381cd","bdp_trlrn","Fri Mar 10 2023 12:19:54 GMT-0800 (Pacific Standard Time)","718520","Untrustworthy,Trustworthy","","","","feedback","","null","","<div class='trialDiv'><img src='trustrating_stim/white_mw060.bmp'><br><font class='baseline'><strong>Alex</strong><p>Received: <strong>20</strong></font> &nbsp; &nbsp; &nbsp; &nbsp; &nbsp; &nbsp;<font class='negOutcome'>Shared back: <strong>0</strong></font></font><div class='respPicDiv'><img src='img/responseButtonOffersNo0_wht.png' class='respPic'></div></div>","null","1","Alex","4","Kept","0.65,0.2","8","0.65","trustrating_stim/white_mw060.bmp","5","20","3"
"html-keyboard-response","147","357507","0.0-19.0-1.3","63d43dc4b4b7a0e426a381cd","bdp_trlrn","Fri Mar 10 2023 12:19:54 GMT-0800 (Pacific Standard Time)","718520","Untrustworthy,Trustworthy","","","","decision","","1028","","<div class='trialDiv'><img src='trustrating_stim/white_mw099.bmp'><br><font class='baseline'><strong>Evan</strong><p>Choose number of points to send.</font><div class='respPicDiv'><img src='img/responseButtonOffersNo0L.png' class='respPic'></div></div>","5","2","Evan","2","Kept","0.35,0.8","10","0.35","trustrating_stim/white_mw099.bmp","4","25","4"
"html-keyboard-response","148","357759","0.0-19.0-2.3","63d43dc4b4b7a0e426a381cd","bdp_trlrn","Fri Mar 10 2023 12:19:54 GMT-0800 (Pacific Standard Time)","718520","Untrustworthy,Trustworthy","","","","decisionFB","","null","","<div class='trialDiv'><img src='trustrating_stim/white_mw099.bmp'><br><font class='baseline'><strong>Evan</strong><p>Choose number of points to send.</font><div class='respPicDiv'><img src='img/responseButtonOffersNo0L5.png' class='respPic'></div></div>","null","2","Evan","2","Kept","0.35,0.8","10","0.35","trustrating_stim/white_mw099.bmp","4","20","4"
"html-keyboard-response","149","358761","0.0-19.0-3.3","63d43dc4b4b7a0e426a381cd","bdp_trlrn","Fri Mar 10 2023 12:19:54 GMT-0800 (Pacific Standard Time)","718520","Untrustworthy,Trustworthy","","","","feedback","","null","","<div class='trialDiv'><img src='trustrating_stim/white_mw099.bmp'><br><font class='baseline'><strong>Evan</strong><p>Received: <strong>20</strong></font> &nbsp; &nbsp; &nbsp; &nbsp; &nbsp; &nbsp;<font class='negOutcome'>Shared back: <strong>0</strong></font></font><div class='respPicDiv'><img src='img/responseButtonOffersNo0_wht.png' class='respPic'></div></div>","null","2","Evan","2","Kept","0.35,0.8","10","0.35","trustrating_stim/white_mw099.bmp","4","20","4"
"html-keyboard-response","150","361152","0.0-19.0-1.4","63d43dc4b4b7a0e426a381cd","bdp_trlrn","Fri Mar 10 2023 12:19:54 GMT-0800 (Pacific Standard Time)","718520","Untrustworthy,Trustworthy","","","","decision","","2389","","<div class='trialDiv'><img src='trustrating_stim/white_mw060.bmp'><br><font class='baseline'><strong>Alex</strong><p>Choose number of points to send.</font><div class='respPicDiv'><img src='img/responseButtonOffersNo0L.png' class='respPic'></div></div>","5","2","Alex","4","Shared","0.65,0.2","8","0.65","trustrating_stim/white_mw060.bmp","5","25","5"
"html-keyboard-response","151","361405","0.0-19.0-2.4","63d43dc4b4b7a0e426a381cd","bdp_trlrn","Fri Mar 10 2023 12:19:54 GMT-0800 (Pacific Standard Time)","718520","Untrustworthy,Trustworthy","","","","decisionFB","","null","","<div class='trialDiv'><img src='trustrating_stim/white_mw060.bmp'><br><font class='baseline'><strong>Alex</strong><p>Choose number of points to send.</font><div class='respPicDiv'><img src='img/responseButtonOffersNo0L5.png' class='respPic'></div></div>","null","2","Alex","4","Shared","0.65,0.2","8","0.65","trustrating_stim/white_mw060.bmp","5","20","5"
"html-keyboard-response","152","362407","0.0-19.0-3.4","63d43dc4b4b7a0e426a381cd","bdp_trlrn","Fri Mar 10 2023 12:19:54 GMT-0800 (Pacific Standard Time)","718520","Untrustworthy,Trustworthy","","","","feedback","","null","","<div class='trialDiv'><img src='trustrating_stim/white_mw060.bmp'><br><font class='baseline'><strong>Alex</strong><p>Received: <strong>20</strong></font> &nbsp; &nbsp; &nbsp; &nbsp; &nbsp; &nbsp;<font class='posOutcome'>Shared back: <strong>10</strong></font></font><div class='respPicDiv'><img src='img/responseButtonOffersNo0_wht.png' class='respPic'></div></div>","null","2","Alex","4","Shared","0.65,0.2","8","0.65","trustrating_stim/white_mw060.bmp","5","30","5"
"html-keyboard-response","153","363729","0.0-19.0-1.5","63d43dc4b4b7a0e426a381cd","bdp_trlrn","Fri Mar 10 2023 12:19:54 GMT-0800 (Pacific Standard Time)","718520","Untrustworthy,Trustworthy","","","","decision","","1319","","<div class='trialDiv'><img src='trustrating_stim/white_00129_931230_fb_edt.bmp'><br><font class='baseline'><strong>Joseph</strong><p>Choose number of points to send.</font><div class='respPicDiv'><img src='img/responseButtonOffersNo0L.png' class='respPic'></div></div>","5","2","Joseph","8","Kept","0.35,0.65","14","0.35","trustrating_stim/white_00129_931230_fb_edt.bmp","7.5","35","6"
"html-keyboard-response","154","363981","0.0-19.0-2.5","63d43dc4b4b7a0e426a381cd","bdp_trlrn","Fri Mar 10 2023 12:19:54 GMT-0800 (Pacific Standard Time)","718520","Untrustworthy,Trustworthy","","","","decisionFB","","null","","<div class='trialDiv'><img src='trustrating_stim/white_00129_931230_fb_edt.bmp'><br><font class='baseline'><strong>Joseph</strong><p>Choose number of points to send.</font><div class='respPicDiv'><img src='img/responseButtonOffersNo0L5.png' class='respPic'></div></div>","null","2","Joseph","8","Kept","0.35,0.65","14","0.35","trustrating_stim/white_00129_931230_fb_edt.bmp","7.5","30","6"
"html-keyboard-response","155","364984","0.0-19.0-3.5","63d43dc4b4b7a0e426a381cd","bdp_trlrn","Fri Mar 10 2023 12:19:54 GMT-0800 (Pacific Standard Time)","718520","Untrustworthy,Trustworthy","","","","feedback","","null","","<div class='trialDiv'><img src='trustrating_stim/white_00129_931230_fb_edt.bmp'><br><font class='baseline'><strong>Joseph</strong><p>Received: <strong>20</strong></font> &nbsp; &nbsp; &nbsp; &nbsp; &nbsp; &nbsp;<font class='negOutcome'>Shared back: <strong>0</strong></font></font><div class='respPicDiv'><img src='img/responseButtonOffersNo0_wht.png' class='respPic'></div></div>","null","2","Joseph","8","Kept","0.35,0.65","14","0.35","trustrating_stim/white_00129_931230_fb_edt.bmp","7.5","30","6"
"html-keyboard-response","156","366114","0.0-19.0-1.6","63d43dc4b4b7a0e426a381cd","bdp_trlrn","Fri Mar 10 2023 12:19:54 GMT-0800 (Pacific Standard Time)","718520","Untrustworthy,Trustworthy","","","","decision","","1129","","<div class='trialDiv'><img src='trustrating_stim/white_mw099.bmp'><br><font class='baseline'><strong>Evan</strong><p>Choose number of points to send.</font><div class='respPicDiv'><img src='img/responseButtonOffersNo0L.png' class='respPic'></div></div>","5","3","Evan","2","Kept","0.35,0.8","10","0.35","trustrating_stim/white_mw099.bmp","4","35","7"
"html-keyboard-response","157","366368","0.0-19.0-2.6","63d43dc4b4b7a0e426a381cd","bdp_trlrn","Fri Mar 10 2023 12:19:54 GMT-0800 (Pacific Standard Time)","718520","Untrustworthy,Trustworthy","","","","decisionFB","","null","","<div class='trialDiv'><img src='trustrating_stim/white_mw099.bmp'><br><font class='baseline'><strong>Evan</strong><p>Choose number of points to send.</font><div class='respPicDiv'><img src='img/responseButtonOffersNo0L5.png' class='respPic'></div></div>","null","3","Evan","2","Kept","0.35,0.8","10","0.35","trustrating_stim/white_mw099.bmp","4","30","7"
"html-keyboard-response","158","367370","0.0-19.0-3.6","63d43dc4b4b7a0e426a381cd","bdp_trlrn","Fri Mar 10 2023 12:19:54 GMT-0800 (Pacific Standard Time)","718520","Untrustworthy,Trustworthy","","","","feedback","","null","","<div class='trialDiv'><img src='trustrating_stim/white_mw099.bmp'><br><font class='baseline'><strong>Evan</strong><p>Received: <strong>20</strong></font> &nbsp; &nbsp; &nbsp; &nbsp; &nbsp; &nbsp;<font class='negOutcome'>Shared back: <strong>0</strong></font></font><div class='respPicDiv'><img src='img/responseButtonOffersNo0_wht.png' class='respPic'></div></div>","null","3","Evan","2","Kept","0.35,0.8","10","0.35","trustrating_stim/white_mw099.bmp","4","30","7"
"html-keyboard-response","159","368585","0.0-19.0-1.7","63d43dc4b4b7a0e426a381cd","bdp_trlrn","Fri Mar 10 2023 12:19:54 GMT-0800 (Pacific Standard Time)","718520","Untrustworthy,Trustworthy","","","","decision","","1214","","<div class='trialDiv'><img src='trustrating_stim/white_mw060.bmp'><br><font class='baseline'><strong>Alex</strong><p>Choose number of points to send.</font><div class='respPicDiv'><img src='img/responseButtonOffersNo0L.png' class='respPic'></div></div>","5","3","Alex","4","Shared","0.65,0.2","8","0.65","trustrating_stim/white_mw060.bmp","5","35","8"
"html-keyboard-response","160","368837","0.0-19.0-2.7","63d43dc4b4b7a0e426a381cd","bdp_trlrn","Fri Mar 10 2023 12:19:54 GMT-0800 (Pacific Standard Time)","718520","Untrustworthy,Trustworthy","","","","decisionFB","","null","","<div class='trialDiv'><img src='trustrating_stim/white_mw060.bmp'><br><font class='baseline'><strong>Alex</strong><p>Choose number of points to send.</font><div class='respPicDiv'><img src='img/responseButtonOffersNo0L5.png' class='respPic'></div></div>","null","3","Alex","4","Shared","0.65,0.2","8","0.65","trustrating_stim/white_mw060.bmp","5","30","8"
"html-keyboard-response","161","369840","0.0-19.0-3.7","63d43dc4b4b7a0e426a381cd","bdp_trlrn","Fri Mar 10 2023 12:19:54 GMT-0800 (Pacific Standard Time)","718520","Untrustworthy,Trustworthy","","","","feedback","","null","","<div class='trialDiv'><img src='trustrating_stim/white_mw060.bmp'><br><font class='baseline'><strong>Alex</strong><p>Received: <strong>20</strong></font> &nbsp; &nbsp; &nbsp; &nbsp; &nbsp; &nbsp;<font class='posOutcome'>Shared back: <strong>10</strong></font></font><div class='respPicDiv'><img src='img/responseButtonOffersNo0_wht.png' class='respPic'></div></div>","null","3","Alex","4","Shared","0.65,0.2","8","0.65","trustrating_stim/white_mw060.bmp","5","40","8"
"html-keyboard-response","162","371664","0.0-19.0-1.8","63d43dc4b4b7a0e426a381cd","bdp_trlrn","Fri Mar 10 2023 12:19:54 GMT-0800 (Pacific Standard Time)","718520","Untrustworthy,Trustworthy","","","","decision","","1822","","<div class='trialDiv'><img src='trustrating_stim/white_00129_931230_fb_edt.bmp'><br><font class='baseline'><strong>Joseph</strong><p>Choose number of points to send.</font><div class='respPicDiv'><img src='img/responseButtonOffersNo0L.png' class='respPic'></div></div>","5","3","Joseph","8","Shared","0.35,0.65","14","0.35","trustrating_stim/white_00129_931230_fb_edt.bmp","7.5","45","9"
"html-keyboard-response","163","371916","0.0-19.0-2.8","63d43dc4b4b7a0e426a381cd","bdp_trlrn","Fri Mar 10 2023 12:19:54 GMT-0800 (Pacific Standard Time)","718520","Untrustworthy,Trustworthy","","","","decisionFB","","null","","<div class='trialDiv'><img src='trustrating_stim/white_00129_931230_fb_edt.bmp'><br><font class='baseline'><strong>Joseph</strong><p>Choose number of points to send.</font><div class='respPicDiv'><img src='img/responseButtonOffersNo0L5.png' class='respPic'></div></div>","null","3","Joseph","8","Shared","0.35,0.65","14","0.35","trustrating_stim/white_00129_931230_fb_edt.bmp","7.5","40","9"
"html-keyboard-response","164","372918","0.0-19.0-3.8","63d43dc4b4b7a0e426a381cd","bdp_trlrn","Fri Mar 10 2023 12:19:54 GMT-0800 (Pacific Standard Time)","718520","Untrustworthy,Trustworthy","","","","feedback","","null","","<div class='trialDiv'><img src='trustrating_stim/white_00129_931230_fb_edt.bmp'><br><font class='baseline'><strong>Joseph</strong><p>Received: <strong>20</strong></font> &nbsp; &nbsp; &nbsp; &nbsp; &nbsp; &nbsp;<font class='posOutcome'>Shared back: <strong>10</strong></font></font><div class='respPicDiv'><img src='img/responseButtonOffersNo0_wht.png' class='respPic'></div></div>","null","3","Joseph","8","Shared","0.35,0.65","14","0.35","trustrating_stim/white_00129_931230_fb_edt.bmp","7.5","50","9"
"html-keyboard-response","165","375711","0.0-19.0-1.9","63d43dc4b4b7a0e426a381cd","bdp_trlrn","Fri Mar 10 2023 12:19:54 GMT-0800 (Pacific Standard Time)","718520","Untrustworthy,Trustworthy","","","","decision","","2792","","<div class='trialDiv'><img src='trustrating_stim/white_mw099.bmp'><br><font class='baseline'><strong>Evan</strong><p>Choose number of points to send.</font><div class='respPicDiv'><img src='img/responseButtonOffersNo0L.png' class='respPic'></div></div>","5","4","Evan","2","Shared","0.35,0.8","10","0.35","trustrating_stim/white_mw099.bmp","4","55","10"
"html-keyboard-response","166","375962","0.0-19.0-2.9","63d43dc4b4b7a0e426a381cd","bdp_trlrn","Fri Mar 10 2023 12:19:54 GMT-0800 (Pacific Standard Time)","718520","Untrustworthy,Trustworthy","","","","decisionFB","","null","","<div class='trialDiv'><img src='trustrating_stim/white_mw099.bmp'><br><font class='baseline'><strong>Evan</strong><p>Choose number of points to send.</font><div class='respPicDiv'><img src='img/responseButtonOffersNo0L5.png' class='respPic'></div></div>","null","4","Evan","2","Shared","0.35,0.8","10","0.35","trustrating_stim/white_mw099.bmp","4","50","10"
"html-keyboard-response","167","376964","0.0-19.0-3.9","63d43dc4b4b7a0e426a381cd","bdp_trlrn","Fri Mar 10 2023 12:19:54 GMT-0800 (Pacific Standard Time)","718520","Untrustworthy,Trustworthy","","","","feedback","","null","","<div class='trialDiv'><img src='trustrating_stim/white_mw099.bmp'><br><font class='baseline'><strong>Evan</strong><p>Received: <strong>20</strong></font> &nbsp; &nbsp; &nbsp; &nbsp; &nbsp; &nbsp;<font class='posOutcome'>Shared back: <strong>10</strong></font></font><div class='respPicDiv'><img src='img/responseButtonOffersNo0_wht.png' class='respPic'></div></div>","null","4","Evan","2","Shared","0.35,0.8","10","0.35","trustrating_stim/white_mw099.bmp","4","60","10"
"html-keyboard-response","168","379341","0.0-19.0-1.10","63d43dc4b4b7a0e426a381cd","bdp_trlrn","Fri Mar 10 2023 12:19:54 GMT-0800 (Pacific Standard Time)","718520","Untrustworthy,Trustworthy","","","","decision","","2376","","<div class='trialDiv'><img src='trustrating_stim/white_00129_931230_fb_edt.bmp'><br><font class='baseline'><strong>Joseph</strong><p>Choose number of points to send.</font><div class='respPicDiv'><img src='img/responseButtonOffersNo0L.png' class='respPic'></div></div>","5","4","Joseph","8","Kept","0.35,0.65","14","0.35","trustrating_stim/white_00129_931230_fb_edt.bmp","7.5","65","11"
"html-keyboard-response","169","379594","0.0-19.0-2.10","63d43dc4b4b7a0e426a381cd","bdp_trlrn","Fri Mar 10 2023 12:19:54 GMT-0800 (Pacific Standard Time)","718520","Untrustworthy,Trustworthy","","","","decisionFB","","null","","<div class='trialDiv'><img src='trustrating_stim/white_00129_931230_fb_edt.bmp'><br><font class='baseline'><strong>Joseph</strong><p>Choose number of points to send.</font><div class='respPicDiv'><img src='img/responseButtonOffersNo0L5.png' class='respPic'></div></div>","null","4","Joseph","8","Kept","0.35,0.65","14","0.35","trustrating_stim/white_00129_931230_fb_edt.bmp","7.5","60","11"
"html-keyboard-response","170","380597","0.0-19.0-3.10","63d43dc4b4b7a0e426a381cd","bdp_trlrn","Fri Mar 10 2023 12:19:54 GMT-0800 (Pacific Standard Time)","718520","Untrustworthy,Trustworthy","","","","feedback","","null","","<div class='trialDiv'><img src='trustrating_stim/white_00129_931230_fb_edt.bmp'><br><font class='baseline'><strong>Joseph</strong><p>Received: <strong>20</strong></font> &nbsp; &nbsp; &nbsp; &nbsp; &nbsp; &nbsp;<font class='negOutcome'>Shared back: <strong>0</strong></font></font><div class='respPicDiv'><img src='img/responseButtonOffersNo0_wht.png' class='respPic'></div></div>","null","4","Joseph","8","Kept","0.35,0.65","14","0.35","trustrating_stim/white_00129_931230_fb_edt.bmp","7.5","60","11"
"html-keyboard-response","171","386867","0.0-19.0-1.11","63d43dc4b4b7a0e426a381cd","bdp_trlrn","Fri Mar 10 2023 12:19:54 GMT-0800 (Pacific Standard Time)","718520","Untrustworthy,Trustworthy","","","","decision","","6268","","<div class='trialDiv'><img src='trustrating_stim/white_mw060.bmp'><br><font class='baseline'><strong>Alex</strong><p>Choose number of points to send.</font><div class='respPicDiv'><img src='img/responseButtonOffersNo0L.png' class='respPic'></div></div>","3","4","Alex","4","Shared","0.65,0.2","8","0.65","trustrating_stim/white_mw060.bmp","5","65","12"
"html-keyboard-response","172","387119","0.0-19.0-2.11","63d43dc4b4b7a0e426a381cd","bdp_trlrn","Fri Mar 10 2023 12:19:54 GMT-0800 (Pacific Standard Time)","718520","Untrustworthy,Trustworthy","","","","decisionFB","","null","","<div class='trialDiv'><img src='trustrating_stim/white_mw060.bmp'><br><font class='baseline'><strong>Alex</strong><p>Choose number of points to send.</font><div class='respPicDiv'><img src='img/responseButtonOffersNo0L3.png' class='respPic'></div></div>","null","4","Alex","4","Shared","0.65,0.2","8","0.65","trustrating_stim/white_mw060.bmp","5","62","12"
"html-keyboard-response","173","388122","0.0-19.0-3.11","63d43dc4b4b7a0e426a381cd","bdp_trlrn","Fri Mar 10 2023 12:19:54 GMT-0800 (Pacific Standard Time)","718520","Untrustworthy,Trustworthy","","","","feedback","","null","","<div class='trialDiv'><img src='trustrating_stim/white_mw060.bmp'><br><font class='baseline'><strong>Alex</strong><p>Received: <strong>12</strong></font> &nbsp; &nbsp; &nbsp; &nbsp; &nbsp; &nbsp;<font class='posOutcome'>Shared back: <strong>6</strong></font></font><div class='respPicDiv'><img src='img/responseButtonOffersNo0_wht.png' class='respPic'></div></div>","null","4","Alex","4","Shared","0.65,0.2","8","0.65","trustrating_stim/white_mw060.bmp","5","68","12"
"html-keyboard-response","174","391196","0.0-19.0-1.12","63d43dc4b4b7a0e426a381cd","bdp_trlrn","Fri Mar 10 2023 12:19:54 GMT-0800 (Pacific Standard Time)","718520","Untrustworthy,Trustworthy","","","","decision","","3073","","<div class='trialDiv'><img src='trustrating_stim/white_00129_931230_fb_edt.bmp'><br><font class='baseline'><strong>Joseph</strong><p>Choose number of points to send.</font><div class='respPicDiv'><img src='img/responseButtonOffersNo0L.png' class='respPic'></div></div>","5","5","Joseph","8","Kept","0.35,0.65","14","0.35","trustrating_stim/white_00129_931230_fb_edt.bmp","7.5","73","13"
"html-keyboard-response","175","391449","0.0-19.0-2.12","63d43dc4b4b7a0e426a381cd","bdp_trlrn","Fri Mar 10 2023 12:19:54 GMT-0800 (Pacific Standard Time)","718520","Untrustworthy,Trustworthy","","","","decisionFB","","null","","<div class='trialDiv'><img src='trustrating_stim/white_00129_931230_fb_edt.bmp'><br><font class='baseline'><strong>Joseph</strong><p>Choose number of points to send.</font><div class='respPicDiv'><img src='img/responseButtonOffersNo0L5.png' class='respPic'></div></div>","null","5","Joseph","8","Kept","0.35,0.65","14","0.35","trustrating_stim/white_00129_931230_fb_edt.bmp","7.5","68","13"
"html-keyboard-response","176","392453","0.0-19.0-3.12","63d43dc4b4b7a0e426a381cd","bdp_trlrn","Fri Mar 10 2023 12:19:54 GMT-0800 (Pacific Standard Time)","718520","Untrustworthy,Trustworthy","","","","feedback","","null","","<div class='trialDiv'><img src='trustrating_stim/white_00129_931230_fb_edt.bmp'><br><font class='baseline'><strong>Joseph</strong><p>Received: <strong>20</strong></font> &nbsp; &nbsp; &nbsp; &nbsp; &nbsp; &nbsp;<font class='negOutcome'>Shared back: <strong>0</strong></font></font><div class='respPicDiv'><img src='img/responseButtonOffersNo0_wht.png' class='respPic'></div></div>","null","5","Joseph","8","Kept","0.35,0.65","14","0.35","trustrating_stim/white_00129_931230_fb_edt.bmp","7.5","68","13"
"html-keyboard-response","177","394026","0.0-19.0-1.13","63d43dc4b4b7a0e426a381cd","bdp_trlrn","Fri Mar 10 2023 12:19:54 GMT-0800 (Pacific Standard Time)","718520","Untrustworthy,Trustworthy","","","","decision","","1571","","<div class='trialDiv'><img src='trustrating_stim/white_mw099.bmp'><br><font class='baseline'><strong>Evan</strong><p>Choose number of points to send.</font><div class='respPicDiv'><img src='img/responseButtonOffersNo0L.png' class='respPic'></div></div>","3","5","Evan","2","Kept","0.35,0.8","10","0.35","trustrating_stim/white_mw099.bmp","4","73","14"
"html-keyboard-response","178","394280","0.0-19.0-2.13","63d43dc4b4b7a0e426a381cd","bdp_trlrn","Fri Mar 10 2023 12:19:54 GMT-0800 (Pacific Standard Time)","718520","Untrustworthy,Trustworthy","","","","decisionFB","","null","","<div class='trialDiv'><img src='trustrating_stim/white_mw099.bmp'><br><font class='baseline'><strong>Evan</strong><p>Choose number of points to send.</font><div class='respPicDiv'><img src='img/responseButtonOffersNo0L3.png' class='respPic'></div></div>","null","5","Evan","2","Kept","0.35,0.8","10","0.35","trustrating_stim/white_mw099.bmp","4","70","14"
"html-keyboard-response","179","395282","0.0-19.0-3.13","63d43dc4b4b7a0e426a381cd","bdp_trlrn","Fri Mar 10 2023 12:19:54 GMT-0800 (Pacific Standard Time)","718520","Untrustworthy,Trustworthy","","","","feedback","","null","","<div class='trialDiv'><img src='trustrating_stim/white_mw099.bmp'><br><font class='baseline'><strong>Evan</strong><p>Received: <strong>12</strong></font> &nbsp; &nbsp; &nbsp; &nbsp; &nbsp; &nbsp;<font class='negOutcome'>Shared back: <strong>0</strong></font></font><div class='respPicDiv'><img src='img/responseButtonOffersNo0_wht.png' class='respPic'></div></div>","null","5","Evan","2","Kept","0.35,0.8","10","0.35","trustrating_stim/white_mw099.bmp","4","70","14"
"html-keyboard-response","180","397280","0.0-19.0-1.14","63d43dc4b4b7a0e426a381cd","bdp_trlrn","Fri Mar 10 2023 12:19:54 GMT-0800 (Pacific Standard Time)","718520","Untrustworthy,Trustworthy","","","","decision","","1997","","<div class='trialDiv'><img src='trustrating_stim/white_mw060.bmp'><br><font class='baseline'><strong>Alex</strong><p>Choose number of points to send.</font><div class='respPicDiv'><img src='img/responseButtonOffersNo0L.png' class='respPic'></div></div>","4","5","Alex","4","Shared","0.65,0.2","8","0.65","trustrating_stim/white_mw060.bmp","5","75","15"
"html-keyboard-response","181","397532","0.0-19.0-2.14","63d43dc4b4b7a0e426a381cd","bdp_trlrn","Fri Mar 10 2023 12:19:54 GMT-0800 (Pacific Standard Time)","718520","Untrustworthy,Trustworthy","","","","decisionFB","","null","","<div class='trialDiv'><img src='trustrating_stim/white_mw060.bmp'><br><font class='baseline'><strong>Alex</strong><p>Choose number of points to send.</font><div class='respPicDiv'><img src='img/responseButtonOffersNo0L4.png' class='respPic'></div></div>","null","5","Alex","4","Shared","0.65,0.2","8","0.65","trustrating_stim/white_mw060.bmp","5","71","15"
"html-keyboard-response","182","398535","0.0-19.0-3.14","63d43dc4b4b7a0e426a381cd","bdp_trlrn","Fri Mar 10 2023 12:19:54 GMT-0800 (Pacific Standard Time)","718520","Untrustworthy,Trustworthy","","","","feedback","","null","","<div class='trialDiv'><img src='trustrating_stim/white_mw060.bmp'><br><font class='baseline'><strong>Alex</strong><p>Received: <strong>16</strong></font> &nbsp; &nbsp; &nbsp; &nbsp; &nbsp; &nbsp;<font class='posOutcome'>Shared back: <strong>8</strong></font></font><div class='respPicDiv'><img src='img/responseButtonOffersNo0_wht.png' class='respPic'></div></div>","null","5","Alex","4","Shared","0.65,0.2","8","0.65","trustrating_stim/white_mw060.bmp","5","79","15"
"html-keyboard-response","183","399741","0.0-19.0-1.15","63d43dc4b4b7a0e426a381cd","bdp_trlrn","Fri Mar 10 2023 12:19:54 GMT-0800 (Pacific Standard Time)","718520","Untrustworthy,Trustworthy","","","","decision","","1205","","<div class='trialDiv'><img src='trustrating_stim/white_00129_931230_fb_edt.bmp'><br><font class='baseline'><strong>Joseph</strong><p>Choose number of points to send.</font><div class='respPicDiv'><img src='img/responseButtonOffersNo0L.png' class='respPic'></div></div>","4","6","Joseph","8","Shared","0.35,0.65","14","0.35","trustrating_stim/white_00129_931230_fb_edt.bmp","7.5","84","16"
"html-keyboard-response","184","399993","0.0-19.0-2.15","63d43dc4b4b7a0e426a381cd","bdp_trlrn","Fri Mar 10 2023 12:19:54 GMT-0800 (Pacific Standard Time)","718520","Untrustworthy,Trustworthy","","","","decisionFB","","null","","<div class='trialDiv'><img src='trustrating_stim/white_00129_931230_fb_edt.bmp'><br><font class='baseline'><strong>Joseph</strong><p>Choose number of points to send.</font><div class='respPicDiv'><img src='img/responseButtonOffersNo0L4.png' class='respPic'></div></div>","null","6","Joseph","8","Shared","0.35,0.65","14","0.35","trustrating_stim/white_00129_931230_fb_edt.bmp","7.5","80","16"
"html-keyboard-response","185","400995","0.0-19.0-3.15","63d43dc4b4b7a0e426a381cd","bdp_trlrn","Fri Mar 10 2023 12:19:54 GMT-0800 (Pacific Standard Time)","718520","Untrustworthy,Trustworthy","","","","feedback","","null","","<div class='trialDiv'><img src='trustrating_stim/white_00129_931230_fb_edt.bmp'><br><font class='baseline'><strong>Joseph</strong><p>Received: <strong>16</strong></font> &nbsp; &nbsp; &nbsp; &nbsp; &nbsp; &nbsp;<font class='posOutcome'>Shared back: <strong>8</strong></font></font><div class='respPicDiv'><img src='img/responseButtonOffersNo0_wht.png' class='respPic'></div></div>","null","6","Joseph","8","Shared","0.35,0.65","14","0.35","trustrating_stim/white_00129_931230_fb_edt.bmp","7.5","88","16"
"html-keyboard-response","186","402011","0.0-19.0-1.16","63d43dc4b4b7a0e426a381cd","bdp_trlrn","Fri Mar 10 2023 12:19:54 GMT-0800 (Pacific Standard Time)","718520","Untrustworthy,Trustworthy","","","","decision","","1015","","<div class='trialDiv'><img src='trustrating_stim/white_mw060.bmp'><br><font class='baseline'><strong>Alex</strong><p>Choose number of points to send.</font><div class='respPicDiv'><img src='img/responseButtonOffersNo0L.png' class='respPic'></div></div>","4","6","Alex","4","Shared","0.65,0.2","8","0.65","trustrating_stim/white_mw060.bmp","5","93","17"
"html-keyboard-response","187","402261","0.0-19.0-2.16","63d43dc4b4b7a0e426a381cd","bdp_trlrn","Fri Mar 10 2023 12:19:54 GMT-0800 (Pacific Standard Time)","718520","Untrustworthy,Trustworthy","","","","decisionFB","","null","","<div class='trialDiv'><img src='trustrating_stim/white_mw060.bmp'><br><font class='baseline'><strong>Alex</strong><p>Choose number of points to send.</font><div class='respPicDiv'><img src='img/responseButtonOffersNo0L4.png' class='respPic'></div></div>","null","6","Alex","4","Shared","0.65,0.2","8","0.65","trustrating_stim/white_mw060.bmp","5","89","17"
"html-keyboard-response","188","403264","0.0-19.0-3.16","63d43dc4b4b7a0e426a381cd","bdp_trlrn","Fri Mar 10 2023 12:19:54 GMT-0800 (Pacific Standard Time)","718520","Untrustworthy,Trustworthy","","","","feedback","","null","","<div class='trialDiv'><img src='trustrating_stim/white_mw060.bmp'><br><font class='baseline'><strong>Alex</strong><p>Received: <strong>16</strong></font> &nbsp; &nbsp; &nbsp; &nbsp; &nbsp; &nbsp;<font class='posOutcome'>Shared back: <strong>8</strong></font></font><div class='respPicDiv'><img src='img/responseButtonOffersNo0_wht.png' class='respPic'></div></div>","null","6","Alex","4","Shared","0.65,0.2","8","0.65","trustrating_stim/white_mw060.bmp","5","97","17"
"html-keyboard-response","189","404042","0.0-19.0-1.17","63d43dc4b4b7a0e426a381cd","bdp_trlrn","Fri Mar 10 2023 12:19:54 GMT-0800 (Pacific Standard Time)","718520","Untrustworthy,Trustworthy","","","","decision","","776","","<div class='trialDiv'><img src='trustrating_stim/white_mw099.bmp'><br><font class='baseline'><strong>Evan</strong><p>Choose number of points to send.</font><div class='respPicDiv'><img src='img/responseButtonOffersNo0L.png' class='respPic'></div></div>","4","6","Evan","2","Kept","0.35,0.8","10","0.35","trustrating_stim/white_mw099.bmp","4","102","18"
"html-keyboard-response","190","404295","0.0-19.0-2.17","63d43dc4b4b7a0e426a381cd","bdp_trlrn","Fri Mar 10 2023 12:19:54 GMT-0800 (Pacific Standard Time)","718520","Untrustworthy,Trustworthy","","","","decisionFB","","null","","<div class='trialDiv'><img src='trustrating_stim/white_mw099.bmp'><br><font class='baseline'><strong>Evan</strong><p>Choose number of points to send.</font><div class='respPicDiv'><img src='img/responseButtonOffersNo0L4.png' class='respPic'></div></div>","null","6","Evan","2","Kept","0.35,0.8","10","0.35","trustrating_stim/white_mw099.bmp","4","98","18"
"html-keyboard-response","191","405297","0.0-19.0-3.17","63d43dc4b4b7a0e426a381cd","bdp_trlrn","Fri Mar 10 2023 12:19:54 GMT-0800 (Pacific Standard Time)","718520","Untrustworthy,Trustworthy","","","","feedback","","null","","<div class='trialDiv'><img src='trustrating_stim/white_mw099.bmp'><br><font class='baseline'><strong>Evan</strong><p>Received: <strong>16</strong></font> &nbsp; &nbsp; &nbsp; &nbsp; &nbsp; &nbsp;<font class='negOutcome'>Shared back: <strong>0</strong></font></font><div class='respPicDiv'><img src='img/responseButtonOffersNo0_wht.png' class='respPic'></div></div>","null","6","Evan","2","Kept","0.35,0.8","10","0.35","trustrating_stim/white_mw099.bmp","4","98","18"
"html-keyboard-response","192","405967","0.0-19.0-1.18","63d43dc4b4b7a0e426a381cd","bdp_trlrn","Fri Mar 10 2023 12:19:54 GMT-0800 (Pacific Standard Time)","718520","Untrustworthy,Trustworthy","","","","decision","","668","","<div class='trialDiv'><img src='trustrating_stim/white_00129_931230_fb_edt.bmp'><br><font class='baseline'><strong>Joseph</strong><p>Choose number of points to send.</font><div class='respPicDiv'><img src='img/responseButtonOffersNo0L.png' class='respPic'></div></div>","4","7","Joseph","8","Kept","0.35,0.65","14","0.35","trustrating_stim/white_00129_931230_fb_edt.bmp","7.5","103","19"
"html-keyboard-response","193","406219","0.0-19.0-2.18","63d43dc4b4b7a0e426a381cd","bdp_trlrn","Fri Mar 10 2023 12:19:54 GMT-0800 (Pacific Standard Time)","718520","Untrustworthy,Trustworthy","","","","decisionFB","","null","","<div class='trialDiv'><img src='trustrating_stim/white_00129_931230_fb_edt.bmp'><br><font class='baseline'><strong>Joseph</strong><p>Choose number of points to send.</font><div class='respPicDiv'><img src='img/responseButtonOffersNo0L4.png' class='respPic'></div></div>","null","7","Joseph","8","Kept","0.35,0.65","14","0.35","trustrating_stim/white_00129_931230_fb_edt.bmp","7.5","99","19"
"html-keyboard-response","194","407221","0.0-19.0-3.18","63d43dc4b4b7a0e426a381cd","bdp_trlrn","Fri Mar 10 2023 12:19:54 GMT-0800 (Pacific Standard Time)","718520","Untrustworthy,Trustworthy","","","","feedback","","null","","<div class='trialDiv'><img src='trustrating_stim/white_00129_931230_fb_edt.bmp'><br><font class='baseline'><strong>Joseph</strong><p>Received: <strong>16</strong></font> &nbsp; &nbsp; &nbsp; &nbsp; &nbsp; &nbsp;<font class='negOutcome'>Shared back: <strong>0</strong></font></font><div class='respPicDiv'><img src='img/responseButtonOffersNo0_wht.png' class='respPic'></div></div>","null","7","Joseph","8","Kept","0.35,0.65","14","0.35","trustrating_stim/white_00129_931230_fb_edt.bmp","7.5","99","19"
"html-keyboard-response","195","407879","0.0-19.0-1.19","63d43dc4b4b7a0e426a381cd","bdp_trlrn","Fri Mar 10 2023 12:19:54 GMT-0800 (Pacific Standard Time)","718520","Untrustworthy,Trustworthy","","","","decision","","655","","<div class='trialDiv'><img src='trustrating_stim/white_mw099.bmp'><br><font class='baseline'><strong>Evan</strong><p>Choose number of points to send.</font><div class='respPicDiv'><img src='img/responseButtonOffersNo0L.png' class='respPic'></div></div>","4","7","Evan","2","Shared","0.35,0.8","10","0.35","trustrating_stim/white_mw099.bmp","4","104","20"
"html-keyboard-response","196","408131","0.0-19.0-2.19","63d43dc4b4b7a0e426a381cd","bdp_trlrn","Fri Mar 10 2023 12:19:54 GMT-0800 (Pacific Standard Time)","718520","Untrustworthy,Trustworthy","","","","decisionFB","","null","","<div class='trialDiv'><img src='trustrating_stim/white_mw099.bmp'><br><font class='baseline'><strong>Evan</strong><p>Choose number of points to send.</font><div class='respPicDiv'><img src='img/responseButtonOffersNo0L4.png' class='respPic'></div></div>","null","7","Evan","2","Shared","0.35,0.8","10","0.35","trustrating_stim/white_mw099.bmp","4","100","20"
"html-keyboard-response","197","409133","0.0-19.0-3.19","63d43dc4b4b7a0e426a381cd","bdp_trlrn","Fri Mar 10 2023 12:19:54 GMT-0800 (Pacific Standard Time)","718520","Untrustworthy,Trustworthy","","","","feedback","","null","","<div class='trialDiv'><img src='trustrating_stim/white_mw099.bmp'><br><font class='baseline'><strong>Evan</strong><p>Received: <strong>16</strong></font> &nbsp; &nbsp; &nbsp; &nbsp; &nbsp; &nbsp;<font class='posOutcome'>Shared back: <strong>8</strong></font></font><div class='respPicDiv'><img src='img/responseButtonOffersNo0_wht.png' class='respPic'></div></div>","null","7","Evan","2","Shared","0.35,0.8","10","0.35","trustrating_stim/white_mw099.bmp","4","108","20"
"html-keyboard-response","198","410208","0.0-19.0-1.20","63d43dc4b4b7a0e426a381cd","bdp_trlrn","Fri Mar 10 2023 12:19:54 GMT-0800 (Pacific Standard Time)","718520","Untrustworthy,Trustworthy","","","","decision","","1073","","<div class='trialDiv'><img src='trustrating_stim/white_mw060.bmp'><br><font class='baseline'><strong>Alex</strong><p>Choose number of points to send.</font><div class='respPicDiv'><img src='img/responseButtonOffersNo0L.png' class='respPic'></div></div>","5","7","Alex","4","Shared","0.65,0.2","8","0.65","trustrating_stim/white_mw060.bmp","5","113","21"
"html-keyboard-response","199","410462","0.0-19.0-2.20","63d43dc4b4b7a0e426a381cd","bdp_trlrn","Fri Mar 10 2023 12:19:54 GMT-0800 (Pacific Standard Time)","718520","Untrustworthy,Trustworthy","","","","decisionFB","","null","","<div class='trialDiv'><img src='trustrating_stim/white_mw060.bmp'><br><font class='baseline'><strong>Alex</strong><p>Choose number of points to send.</font><div class='respPicDiv'><img src='img/responseButtonOffersNo0L5.png' class='respPic'></div></div>","null","7","Alex","4","Shared","0.65,0.2","8","0.65","trustrating_stim/white_mw060.bmp","5","108","21"
"html-keyboard-response","200","411464","0.0-19.0-3.20","63d43dc4b4b7a0e426a381cd","bdp_trlrn","Fri Mar 10 2023 12:19:54 GMT-0800 (Pacific Standard Time)","718520","Untrustworthy,Trustworthy","","","","feedback","","null","","<div class='trialDiv'><img src='trustrating_stim/white_mw060.bmp'><br><font class='baseline'><strong>Alex</strong><p>Received: <strong>20</strong></font> &nbsp; &nbsp; &nbsp; &nbsp; &nbsp; &nbsp;<font class='posOutcome'>Shared back: <strong>10</strong></font></font><div class='respPicDiv'><img src='img/responseButtonOffersNo0_wht.png' class='respPic'></div></div>","null","7","Alex","4","Shared","0.65,0.2","8","0.65","trustrating_stim/white_mw060.bmp","5","118","21"
"html-keyboard-response","201","412534","0.0-19.0-1.21","63d43dc4b4b7a0e426a381cd","bdp_trlrn","Fri Mar 10 2023 12:19:54 GMT-0800 (Pacific Standard Time)","718520","Untrustworthy,Trustworthy","","","","decision","","1068","","<div class='trialDiv'><img src='trustrating_stim/white_00129_931230_fb_edt.bmp'><br><font class='baseline'><strong>Joseph</strong><p>Choose number of points to send.</font><div class='respPicDiv'><img src='img/responseButtonOffersNo0L.png' class='respPic'></div></div>","5","8","Joseph","8","Kept","0.35,0.65","14","0.35","trustrating_stim/white_00129_931230_fb_edt.bmp","7.5","123","22"
"html-keyboard-response","202","412786","0.0-19.0-2.21","63d43dc4b4b7a0e426a381cd","bdp_trlrn","Fri Mar 10 2023 12:19:54 GMT-0800 (Pacific Standard Time)","718520","Untrustworthy,Trustworthy","","","","decisionFB","","null","","<div class='trialDiv'><img src='trustrating_stim/white_00129_931230_fb_edt.bmp'><br><font class='baseline'><strong>Joseph</strong><p>Choose number of points to send.</font><div class='respPicDiv'><img src='img/responseButtonOffersNo0L5.png' class='respPic'></div></div>","null","8","Joseph","8","Kept","0.35,0.65","14","0.35","trustrating_stim/white_00129_931230_fb_edt.bmp","7.5","118","22"
"html-keyboard-response","203","413788","0.0-19.0-3.21","63d43dc4b4b7a0e426a381cd","bdp_trlrn","Fri Mar 10 2023 12:19:54 GMT-0800 (Pacific Standard Time)","718520","Untrustworthy,Trustworthy","","","","feedback","","null","","<div class='trialDiv'><img src='trustrating_stim/white_00129_931230_fb_edt.bmp'><br><font class='baseline'><strong>Joseph</strong><p>Received: <strong>20</strong></font> &nbsp; &nbsp; &nbsp; &nbsp; &nbsp; &nbsp;<font class='negOutcome'>Shared back: <strong>0</strong></font></font><div class='respPicDiv'><img src='img/responseButtonOffersNo0_wht.png' class='respPic'></div></div>","null","8","Joseph","8","Kept","0.35,0.65","14","0.35","trustrating_stim/white_00129_931230_fb_edt.bmp","7.5","118","22"
"html-keyboard-response","204","415439","0.0-19.0-1.22","63d43dc4b4b7a0e426a381cd","bdp_trlrn","Fri Mar 10 2023 12:19:54 GMT-0800 (Pacific Standard Time)","718520","Untrustworthy,Trustworthy","","","","decision","","1649","","<div class='trialDiv'><img src='trustrating_stim/white_mw099.bmp'><br><font class='baseline'><strong>Evan</strong><p>Choose number of points to send.</font><div class='respPicDiv'><img src='img/responseButtonOffersNo0L.png' class='respPic'></div></div>","5","8","Evan","2","Kept","0.35,0.8","10","0.35","trustrating_stim/white_mw099.bmp","4","123","23"
"html-keyboard-response","205","415693","0.0-19.0-2.22","63d43dc4b4b7a0e426a381cd","bdp_trlrn","Fri Mar 10 2023 12:19:54 GMT-0800 (Pacific Standard Time)","718520","Untrustworthy,Trustworthy","","","","decisionFB","","null","","<div class='trialDiv'><img src='trustrating_stim/white_mw099.bmp'><br><font class='baseline'><strong>Evan</strong><p>Choose number of points to send.</font><div class='respPicDiv'><img src='img/responseButtonOffersNo0L5.png' class='respPic'></div></div>","null","8","Evan","2","Kept","0.35,0.8","10","0.35","trustrating_stim/white_mw099.bmp","4","118","23"
"html-keyboard-response","206","416695","0.0-19.0-3.22","63d43dc4b4b7a0e426a381cd","bdp_trlrn","Fri Mar 10 2023 12:19:54 GMT-0800 (Pacific Standard Time)","718520","Untrustworthy,Trustworthy","","","","feedback","","null","","<div class='trialDiv'><img src='trustrating_stim/white_mw099.bmp'><br><font class='baseline'><strong>Evan</strong><p>Received: <strong>20</strong></font> &nbsp; &nbsp; &nbsp; &nbsp; &nbsp; &nbsp;<font class='negOutcome'>Shared back: <strong>0</strong></font></font><div class='respPicDiv'><img src='img/responseButtonOffersNo0_wht.png' class='respPic'></div></div>","null","8","Evan","2","Kept","0.35,0.8","10","0.35","trustrating_stim/white_mw099.bmp","4","118","23"
"html-keyboard-response","207","417196","0.0-19.0-1.23","63d43dc4b4b7a0e426a381cd","bdp_trlrn","Fri Mar 10 2023 12:19:54 GMT-0800 (Pacific Standard Time)","718520","Untrustworthy,Trustworthy","","","","decision","","499","","<div class='trialDiv'><img src='trustrating_stim/white_mw060.bmp'><br><font class='baseline'><strong>Alex</strong><p>Choose number of points to send.</font><div class='respPicDiv'><img src='img/responseButtonOffersNo0L.png' class='respPic'></div></div>","4","8","Alex","4","Shared","0.65,0.2","8","0.65","trustrating_stim/white_mw060.bmp","5","123","24"
"html-keyboard-response","208","417449","0.0-19.0-2.23","63d43dc4b4b7a0e426a381cd","bdp_trlrn","Fri Mar 10 2023 12:19:54 GMT-0800 (Pacific Standard Time)","718520","Untrustworthy,Trustworthy","","","","decisionFB","","null","","<div class='trialDiv'><img src='trustrating_stim/white_mw060.bmp'><br><font class='baseline'><strong>Alex</strong><p>Choose number of points to send.</font><div class='respPicDiv'><img src='img/responseButtonOffersNo0L4.png' class='respPic'></div></div>","null","8","Alex","4","Shared","0.65,0.2","8","0.65","trustrating_stim/white_mw060.bmp","5","119","24"
"html-keyboard-response","209","418451","0.0-19.0-3.23","63d43dc4b4b7a0e426a381cd","bdp_trlrn","Fri Mar 10 2023 12:19:54 GMT-0800 (Pacific Standard Time)","718520","Untrustworthy,Trustworthy","","","","feedback","","null","","<div class='trialDiv'><img src='trustrating_stim/white_mw060.bmp'><br><font class='baseline'><strong>Alex</strong><p>Received: <strong>16</strong></font> &nbsp; &nbsp; &nbsp; &nbsp; &nbsp; &nbsp;<font class='posOutcome'>Shared back: <strong>8</strong></font></font><div class='respPicDiv'><img src='img/responseButtonOffersNo0_wht.png' class='respPic'></div></div>","null","8","Alex","4","Shared","0.65,0.2","8","0.65","trustrating_stim/white_mw060.bmp","5","127","24"
"html-keyboard-response","210","419236","0.0-19.0-1.24","63d43dc4b4b7a0e426a381cd","bdp_trlrn","Fri Mar 10 2023 12:19:54 GMT-0800 (Pacific Standard Time)","718520","Untrustworthy,Trustworthy","","","","decision","","783","","<div class='trialDiv'><img src='trustrating_stim/white_mw099.bmp'><br><font class='baseline'><strong>Evan</strong><p>Choose number of points to send.</font><div class='respPicDiv'><img src='img/responseButtonOffersNo0L.png' class='respPic'></div></div>","4","9","Evan","2","Kept","0.35,0.8","10","0.35","trustrating_stim/white_mw099.bmp","4","132","25"
"html-keyboard-response","211","419487","0.0-19.0-2.24","63d43dc4b4b7a0e426a381cd","bdp_trlrn","Fri Mar 10 2023 12:19:54 GMT-0800 (Pacific Standard Time)","718520","Untrustworthy,Trustworthy","","","","decisionFB","","null","","<div class='trialDiv'><img src='trustrating_stim/white_mw099.bmp'><br><font class='baseline'><strong>Evan</strong><p>Choose number of points to send.</font><div class='respPicDiv'><img src='img/responseButtonOffersNo0L4.png' class='respPic'></div></div>","null","9","Evan","2","Kept","0.35,0.8","10","0.35","trustrating_stim/white_mw099.bmp","4","128","25"
"html-keyboard-response","212","420489","0.0-19.0-3.24","63d43dc4b4b7a0e426a381cd","bdp_trlrn","Fri Mar 10 2023 12:19:54 GMT-0800 (Pacific Standard Time)","718520","Untrustworthy,Trustworthy","","","","feedback","","null","","<div class='trialDiv'><img src='trustrating_stim/white_mw099.bmp'><br><font class='baseline'><strong>Evan</strong><p>Received: <strong>16</strong></font> &nbsp; &nbsp; &nbsp; &nbsp; &nbsp; &nbsp;<font class='negOutcome'>Shared back: <strong>0</strong></font></font><div class='respPicDiv'><img src='img/responseButtonOffersNo0_wht.png' class='respPic'></div></div>","null","9","Evan","2","Kept","0.35,0.8","10","0.35","trustrating_stim/white_mw099.bmp","4","128","25"
"html-keyboard-response","213","421284","0.0-19.0-1.25","63d43dc4b4b7a0e426a381cd","bdp_trlrn","Fri Mar 10 2023 12:19:54 GMT-0800 (Pacific Standard Time)","718520","Untrustworthy,Trustworthy","","","","decision","","792","","<div class='trialDiv'><img src='trustrating_stim/white_00129_931230_fb_edt.bmp'><br><font class='baseline'><strong>Joseph</strong><p>Choose number of points to send.</font><div class='respPicDiv'><img src='img/responseButtonOffersNo0L.png' class='respPic'></div></div>","4","9","Joseph","8","Kept","0.35,0.65","14","0.35","trustrating_stim/white_00129_931230_fb_edt.bmp","7.5","133","26"
"html-keyboard-response","214","421535","0.0-19.0-2.25","63d43dc4b4b7a0e426a381cd","bdp_trlrn","Fri Mar 10 2023 12:19:54 GMT-0800 (Pacific Standard Time)","718520","Untrustworthy,Trustworthy","","","","decisionFB","","null","","<div class='trialDiv'><img src='trustrating_stim/white_00129_931230_fb_edt.bmp'><br><font class='baseline'><strong>Joseph</strong><p>Choose number of points to send.</font><div class='respPicDiv'><img src='img/responseButtonOffersNo0L4.png' class='respPic'></div></div>","null","9","Joseph","8","Kept","0.35,0.65","14","0.35","trustrating_stim/white_00129_931230_fb_edt.bmp","7.5","129","26"
"html-keyboard-response","215","422537","0.0-19.0-3.25","63d43dc4b4b7a0e426a381cd","bdp_trlrn","Fri Mar 10 2023 12:19:54 GMT-0800 (Pacific Standard Time)","718520","Untrustworthy,Trustworthy","","","","feedback","","null","","<div class='trialDiv'><img src='trustrating_stim/white_00129_931230_fb_edt.bmp'><br><font class='baseline'><strong>Joseph</strong><p>Received: <strong>16</strong></font> &nbsp; &nbsp; &nbsp; &nbsp; &nbsp; &nbsp;<font class='negOutcome'>Shared back: <strong>0</strong></font></font><div class='respPicDiv'><img src='img/responseButtonOffersNo0_wht.png' class='respPic'></div></div>","null","9","Joseph","8","Kept","0.35,0.65","14","0.35","trustrating_stim/white_00129_931230_fb_edt.bmp","7.5","129","26"
"html-keyboard-response","216","423701","0.0-19.0-1.26","63d43dc4b4b7a0e426a381cd","bdp_trlrn","Fri Mar 10 2023 12:19:54 GMT-0800 (Pacific Standard Time)","718520","Untrustworthy,Trustworthy","","","","decision","","1163","","<div class='trialDiv'><img src='trustrating_stim/white_mw060.bmp'><br><font class='baseline'><strong>Alex</strong><p>Choose number of points to send.</font><div class='respPicDiv'><img src='img/responseButtonOffersNo0L.png' class='respPic'></div></div>","5","9","Alex","4","Kept","0.65,0.2","8","0.65","trustrating_stim/white_mw060.bmp","5","134","27"
"html-keyboard-response","217","423952","0.0-19.0-2.26","63d43dc4b4b7a0e426a381cd","bdp_trlrn","Fri Mar 10 2023 12:19:54 GMT-0800 (Pacific Standard Time)","718520","Untrustworthy,Trustworthy","","","","decisionFB","","null","","<div class='trialDiv'><img src='trustrating_stim/white_mw060.bmp'><br><font class='baseline'><strong>Alex</strong><p>Choose number of points to send.</font><div class='respPicDiv'><img src='img/responseButtonOffersNo0L5.png' class='respPic'></div></div>","null","9","Alex","4","Kept","0.65,0.2","8","0.65","trustrating_stim/white_mw060.bmp","5","129","27"
"html-keyboard-response","218","424956","0.0-19.0-3.26","63d43dc4b4b7a0e426a381cd","bdp_trlrn","Fri Mar 10 2023 12:19:54 GMT-0800 (Pacific Standard Time)","718520","Untrustworthy,Trustworthy","","","","feedback","","null","","<div class='trialDiv'><img src='trustrating_stim/white_mw060.bmp'><br><font class='baseline'><strong>Alex</strong><p>Received: <strong>20</strong></font> &nbsp; &nbsp; &nbsp; &nbsp; &nbsp; &nbsp;<font class='negOutcome'>Shared back: <strong>0</strong></font></font><div class='respPicDiv'><img src='img/responseButtonOffersNo0_wht.png' class='respPic'></div></div>","null","9","Alex","4","Kept","0.65,0.2","8","0.65","trustrating_stim/white_mw060.bmp","5","129","27"
"html-keyboard-response","219","425676","0.0-19.0-1.27","63d43dc4b4b7a0e426a381cd","bdp_trlrn","Fri Mar 10 2023 12:19:54 GMT-0800 (Pacific Standard Time)","718520","Untrustworthy,Trustworthy","","","","decision","","719","","<div class='trialDiv'><img src='trustrating_stim/white_00129_931230_fb_edt.bmp'><br><font class='baseline'><strong>Joseph</strong><p>Choose number of points to send.</font><div class='respPicDiv'><img src='img/responseButtonOffersNo0L.png' class='respPic'></div></div>","5","10","Joseph","8","Kept","0.35,0.65","14","0.35","trustrating_stim/white_00129_931230_fb_edt.bmp","7.5","134","28"
"html-keyboard-response","220","425930","0.0-19.0-2.27","63d43dc4b4b7a0e426a381cd","bdp_trlrn","Fri Mar 10 2023 12:19:54 GMT-0800 (Pacific Standard Time)","718520","Untrustworthy,Trustworthy","","","","decisionFB","","null","","<div class='trialDiv'><img src='trustrating_stim/white_00129_931230_fb_edt.bmp'><br><font class='baseline'><strong>Joseph</strong><p>Choose number of points to send.</font><div class='respPicDiv'><img src='img/responseButtonOffersNo0L5.png' class='respPic'></div></div>","null","10","Joseph","8","Kept","0.35,0.65","14","0.35","trustrating_stim/white_00129_931230_fb_edt.bmp","7.5","129","28"
"html-keyboard-response","221","426933","0.0-19.0-3.27","63d43dc4b4b7a0e426a381cd","bdp_trlrn","Fri Mar 10 2023 12:19:54 GMT-0800 (Pacific Standard Time)","718520","Untrustworthy,Trustworthy","","","","feedback","","null","","<div class='trialDiv'><img src='trustrating_stim/white_00129_931230_fb_edt.bmp'><br><font class='baseline'><strong>Joseph</strong><p>Received: <strong>20</strong></font> &nbsp; &nbsp; &nbsp; &nbsp; &nbsp; &nbsp;<font class='negOutcome'>Shared back: <strong>0</strong></font></font><div class='respPicDiv'><img src='img/responseButtonOffersNo0_wht.png' class='respPic'></div></div>","null","10","Joseph","8","Kept","0.35,0.65","14","0.35","trustrating_stim/white_00129_931230_fb_edt.bmp","7.5","129","28"
