"event","trial","time","trialtype","subject_id","task","startTime","totalTime","labels","trial_type","trial_index","time_elapsed","internal_node_id","view_history","rt","success","stimulus","key_press","aground","name","faceID","outcome","agenttype","agentswpt","agentcurrpshare","face","avgRating","point_total","round"
"focus","0","0","focusevent","613107a0c7fc3a96a54c7693","bdp_trlrn","Tue Mar 14 2023 11:57:49 GMT-0500 (Central Daylight Time)","789517","Trustworthy,Untrustworthy","","","","","","","","","","","","","","","","","","","",""
"","","","","613107a0c7fc3a96a54c7693","bdp_trlrn","Tue Mar 14 2023 11:57:49 GMT-0500 (Central Daylight Time)","789517","Trustworthy,Untrustworthy","pavlovia","0","13","0.0-0.0","","","","","","","","","","","","","","","",""
"","","","","613107a0c7fc3a96a54c7693","bdp_trlrn","Tue Mar 14 2023 11:57:49 GMT-0500 (Central Daylight Time)","789517","Trustworthy,Untrustworthy","instructions","1","7652","0.0-1.0","[{""page_index"":0,""viewing_time"":7639}]","7639","","","","","","","","","","","","","",""
"fullscreenexit","2","12593","fullscreenexit","613107a0c7fc3a96a54c7693","bdp_trlrn","Tue Mar 14 2023 11:57:49 GMT-0500 (Central Daylight Time)","789517","Trustworthy,Untrustworthy","","","","","","","","","","","","","","","","","","","",""
"","","","","613107a0c7fc3a96a54c7693","bdp_trlrn","Tue Mar 14 2023 11:57:49 GMT-0500 (Central Daylight Time)","789517","Trustworthy,Untrustworthy","fullscreen","2","13385","0.0-2.0","","","true","","","","","","","","","","","","",""
"","","","fullscreenfail","613107a0c7fc3a96a54c7693","bdp_trlrn","Tue Mar 14 2023 11:57:49 GMT-0500 (Central Daylight Time)","789517","Trustworthy,Untrustworthy","image-keyboard-response","3","19116","0.0-3.0-0.0","","5730","","","32","","","","","","","","","","",""
"","","","","613107a0c7fc3a96a54c7693","bdp_trlrn","Tue Mar 14 2023 11:57:49 GMT-0500 (Central Daylight Time)","789517","Trustworthy,Untrustworthy","instructions","4","39640","0.0-4.0","[{""page_index"":0,""viewing_time"":7778},{""page_index"":1,""viewing_time"":12484}]","20262","","","","","","","","","","","","","",""
"","","","","613107a0c7fc3a96a54c7693","bdp_trlrn","Tue Mar 14 2023 11:57:49 GMT-0500 (Central Daylight Time)","789517","Trustworthy,Untrustworthy","instructions","5","40991","0.0-5.0","[{""page_index"":0,""viewing_time"":1351}]","1351","","","","","","","","","","","","","",""
"","","","rating","613107a0c7fc3a96a54c7693","bdp_trlrn","Tue Mar 14 2023 11:57:49 GMT-0500 (Central Daylight Time)","789517","Trustworthy,Untrustworthy","image-keyboard-response","6","47616","0.0-6.0-1.0","","6524","","trustrating_stim/white_00120_931230_fa_edt.bmp","7","","","","","","","","","","",""
"","","","ratingFB","613107a0c7fc3a96a54c7693","bdp_trlrn","Tue Mar 14 2023 11:57:49 GMT-0500 (Central Daylight Time)","789517","Trustworthy,Untrustworthy","image-keyboard-response","7","47833","0.0-6.0-2.0","","null","","trustrating_stim/white_00120_931230_fa_edt.bmp","null","","","","","","","","","","",""
"","","","rating","613107a0c7fc3a96a54c7693","bdp_trlrn","Tue Mar 14 2023 11:57:49 GMT-0500 (Central Daylight Time)","789517","Trustworthy,Untrustworthy","image-keyboard-response","8","50588","0.0-6.0-1.1","","2646","","trustrating_stim/white_00299_940422_fa_edt.bmp","5","","","","","","","","","","",""
"","","","ratingFB","613107a0c7fc3a96a54c7693","bdp_trlrn","Tue Mar 14 2023 11:57:49 GMT-0500 (Central Daylight Time)","789517","Trustworthy,Untrustworthy","image-keyboard-response","9","50800","0.0-6.0-2.1","","null","","trustrating_stim/white_00299_940422_fa_edt.bmp","null","","","","","","","","","","",""
"","","","rating","613107a0c7fc3a96a54c7693","bdp_trlrn","Tue Mar 14 2023 11:57:49 GMT-0500 (Central Daylight Time)","789517","Trustworthy,Untrustworthy","image-keyboard-response","10","52492","0.0-6.0-1.2","","1582","","trustrating_stim/white_00223_940128_fb_edt.bmp","4","","","","","","","","","","",""
"","","","ratingFB","613107a0c7fc3a96a54c7693","bdp_trlrn","Tue Mar 14 2023 11:57:49 GMT-0500 (Central Daylight Time)","789517","Trustworthy,Untrustworthy","image-keyboard-response","11","52697","0.0-6.0-2.2","","null","","trustrating_stim/white_00223_940128_fb_edt.bmp","null","","","","","","","","","","",""
"","","","rating","613107a0c7fc3a96a54c7693","bdp_trlrn","Tue Mar 14 2023 11:57:49 GMT-0500 (Central Daylight Time)","789517","Trustworthy,Untrustworthy","image-keyboard-response","12","54588","0.0-6.0-1.3","","1782","","trustrating_stim/white_mw033.bmp","5","","","","","","","","","","",""
"","","","ratingFB","613107a0c7fc3a96a54c7693","bdp_trlrn","Tue Mar 14 2023 11:57:49 GMT-0500 (Central Daylight Time)","789517","Trustworthy,Untrustworthy","image-keyboard-response","13","54794","0.0-6.0-2.3","","null","","trustrating_stim/white_mw033.bmp","null","","","","","","","","","","",""
"","","","rating","613107a0c7fc3a96a54c7693","bdp_trlrn","Tue Mar 14 2023 11:57:49 GMT-0500 (Central Daylight Time)","789517","Trustworthy,Untrustworthy","image-keyboard-response","14","57887","0.0-6.0-1.4","","2985","","trustrating_stim/white_mw063.bmp","6","","","","","","","","","","",""
"","","","ratingFB","613107a0c7fc3a96a54c7693","bdp_trlrn","Tue Mar 14 2023 11:57:49 GMT-0500 (Central Daylight Time)","789517","Trustworthy,Untrustworthy","image-keyboard-response","15","58087","0.0-6.0-2.4","","null","","trustrating_stim/white_mw063.bmp","null","","","","","","","","","","",""
"","","","rating","613107a0c7fc3a96a54c7693","bdp_trlrn","Tue Mar 14 2023 11:57:49 GMT-0500 (Central Daylight Time)","789517","Trustworthy,Untrustworthy","image-keyboard-response","16","61020","0.0-6.0-1.5","","2824","","trustrating_stim/white_00340_940422_fa_edt.bmp","7","","","","","","","","","","",""
"","","","ratingFB","613107a0c7fc3a96a54c7693","bdp_trlrn","Tue Mar 14 2023 11:57:49 GMT-0500 (Central Daylight Time)","789517","Trustworthy,Untrustworthy","image-keyboard-response","17","61225","0.0-6.0-2.5","","null","","trustrating_stim/white_00340_940422_fa_edt.bmp","null","","","","","","","","","","",""
"","","","rating","613107a0c7fc3a96a54c7693","bdp_trlrn","Tue Mar 14 2023 11:57:49 GMT-0500 (Central Daylight Time)","789517","Trustworthy,Untrustworthy","image-keyboard-response","18","62807","0.0-6.0-1.6","","1473","","trustrating_stim/white_00659_941121_fa_edt.bmp","4","","","","","","","","","","",""
"","","","ratingFB","613107a0c7fc3a96a54c7693","bdp_trlrn","Tue Mar 14 2023 11:57:49 GMT-0500 (Central Daylight Time)","789517","Trustworthy,Untrustworthy","image-keyboard-response","19","63014","0.0-6.0-2.6","","null","","trustrating_stim/white_00659_941121_fa_edt.bmp","null","","","","","","","","","","",""
"","","","rating","613107a0c7fc3a96a54c7693","bdp_trlrn","Tue Mar 14 2023 11:57:49 GMT-0500 (Central Daylight Time)","789517","Trustworthy,Untrustworthy","image-keyboard-response","20","65006","0.0-6.0-1.7","","1883","","trustrating_stim/white_mw099.bmp","7","","","","","","","","","","",""
"","","","ratingFB","613107a0c7fc3a96a54c7693","bdp_trlrn","Tue Mar 14 2023 11:57:49 GMT-0500 (Central Daylight Time)","789517","Trustworthy,Untrustworthy","image-keyboard-response","21","65221","0.0-6.0-2.7","","null","","trustrating_stim/white_mw099.bmp","null","","","","","","","","","","",""
"","","","rating","613107a0c7fc3a96a54c7693","bdp_trlrn","Tue Mar 14 2023 11:57:49 GMT-0500 (Central Daylight Time)","789517","Trustworthy,Untrustworthy","image-keyboard-response","22","66650","0.0-6.0-1.8","","1320","","trustrating_stim/white_00898_960530_fa_edt.bmp","9","","","","","","","","","","",""
"","","","ratingFB","613107a0c7fc3a96a54c7693","bdp_trlrn","Tue Mar 14 2023 11:57:49 GMT-0500 (Central Daylight Time)","789517","Trustworthy,Untrustworthy","image-keyboard-response","23","66863","0.0-6.0-2.8","","null","","trustrating_stim/white_00898_960530_fa_edt.bmp","null","","","","","","","","","","",""
"","","","rating","613107a0c7fc3a96a54c7693","bdp_trlrn","Tue Mar 14 2023 11:57:49 GMT-0500 (Central Daylight Time)","789517","Trustworthy,Untrustworthy","image-keyboard-response","24","68672","0.0-6.0-1.9","","1699","","trustrating_stim/white_mw066.bmp","7","","","","","","","","","","",""
"","","","ratingFB","613107a0c7fc3a96a54c7693","bdp_trlrn","Tue Mar 14 2023 11:57:49 GMT-0500 (Central Daylight Time)","789517","Trustworthy,Untrustworthy","image-keyboard-response","25","68879","0.0-6.0-2.9","","null","","trustrating_stim/white_mw066.bmp","null","","","","","","","","","","",""
"","","","rating","613107a0c7fc3a96a54c7693","bdp_trlrn","Tue Mar 14 2023 11:57:49 GMT-0500 (Central Daylight Time)","789517","Trustworthy,Untrustworthy","image-keyboard-response","26","70398","0.0-6.0-1.10","","1409","","trustrating_stim/white_mw056.bmp","5","","","","","","","","","","",""
"","","","ratingFB","613107a0c7fc3a96a54c7693","bdp_trlrn","Tue Mar 14 2023 11:57:49 GMT-0500 (Central Daylight Time)","789517","Trustworthy,Untrustworthy","image-keyboard-response","27","70600","0.0-6.0-2.10","","null","","trustrating_stim/white_mw056.bmp","null","","","","","","","","","","",""
"","","","rating","613107a0c7fc3a96a54c7693","bdp_trlrn","Tue Mar 14 2023 11:57:49 GMT-0500 (Central Daylight Time)","789517","Trustworthy,Untrustworthy","image-keyboard-response","28","72710","0.0-6.0-1.11","","2002","","trustrating_stim/white_00602_940928_fb_edt.bmp","8","","","","","","","","","","",""
"","","","ratingFB","613107a0c7fc3a96a54c7693","bdp_trlrn","Tue Mar 14 2023 11:57:49 GMT-0500 (Central Daylight Time)","789517","Trustworthy,Untrustworthy","image-keyboard-response","29","72911","0.0-6.0-2.11","","null","","trustrating_stim/white_00602_940928_fb_edt.bmp","null","","","","","","","","","","",""
"","","","rating","613107a0c7fc3a96a54c7693","bdp_trlrn","Tue Mar 14 2023 11:57:49 GMT-0500 (Central Daylight Time)","789517","Trustworthy,Untrustworthy","image-keyboard-response","30","74791","0.0-6.0-1.12","","1771","","trustrating_stim/white_mw060.bmp","6","","","","","","","","","","",""
"","","","ratingFB","613107a0c7fc3a96a54c7693","bdp_trlrn","Tue Mar 14 2023 11:57:49 GMT-0500 (Central Daylight Time)","789517","Trustworthy,Untrustworthy","image-keyboard-response","31","74993","0.0-6.0-2.12","","null","","trustrating_stim/white_mw060.bmp","null","","","","","","","","","","",""
"","","","rating","613107a0c7fc3a96a54c7693","bdp_trlrn","Tue Mar 14 2023 11:57:49 GMT-0500 (Central Daylight Time)","789517","Trustworthy,Untrustworthy","image-keyboard-response","32","76946","0.0-6.0-1.13","","1842","","trustrating_stim/white_mw089.bmp","8","","","","","","","","","","",""
"","","","ratingFB","613107a0c7fc3a96a54c7693","bdp_trlrn","Tue Mar 14 2023 11:57:49 GMT-0500 (Central Daylight Time)","789517","Trustworthy,Untrustworthy","image-keyboard-response","33","77150","0.0-6.0-2.13","","null","","trustrating_stim/white_mw089.bmp","null","","","","","","","","","","",""
"","","","rating","613107a0c7fc3a96a54c7693","bdp_trlrn","Tue Mar 14 2023 11:57:49 GMT-0500 (Central Daylight Time)","789517","Trustworthy,Untrustworthy","image-keyboard-response","34","79787","0.0-6.0-1.14","","2529","","trustrating_stim/white_mw049.bmp","7","","","","","","","","","","",""
"","","","ratingFB","613107a0c7fc3a96a54c7693","bdp_trlrn","Tue Mar 14 2023 11:57:49 GMT-0500 (Central Daylight Time)","789517","Trustworthy,Untrustworthy","image-keyboard-response","35","79989","0.0-6.0-2.14","","null","","trustrating_stim/white_mw049.bmp","null","","","","","","","","","","",""
"","","","rating","613107a0c7fc3a96a54c7693","bdp_trlrn","Tue Mar 14 2023 11:57:49 GMT-0500 (Central Daylight Time)","789517","Trustworthy,Untrustworthy","image-keyboard-response","36","81419","0.0-6.0-1.15","","1321","","trustrating_stim/white_00519_940519_fb_edt.bmp","8","","","","","","","","","","",""
"","","","ratingFB","613107a0c7fc3a96a54c7693","bdp_trlrn","Tue Mar 14 2023 11:57:49 GMT-0500 (Central Daylight Time)","789517","Trustworthy,Untrustworthy","image-keyboard-response","37","81621","0.0-6.0-2.15","","null","","trustrating_stim/white_00519_940519_fb_edt.bmp","null","","","","","","","","","","",""
"","","","rating","613107a0c7fc3a96a54c7693","bdp_trlrn","Tue Mar 14 2023 11:57:49 GMT-0500 (Central Daylight Time)","789517","Trustworthy,Untrustworthy","image-keyboard-response","38","83574","0.0-6.0-1.16","","1843","","trustrating_stim/white_mw035.bmp","7","","","","","","","","","","",""
"","","","ratingFB","613107a0c7fc3a96a54c7693","bdp_trlrn","Tue Mar 14 2023 11:57:49 GMT-0500 (Central Daylight Time)","789517","Trustworthy,Untrustworthy","image-keyboard-response","39","83782","0.0-6.0-2.16","","null","","trustrating_stim/white_mw035.bmp","null","","","","","","","","","","",""
"","","","rating","613107a0c7fc3a96a54c7693","bdp_trlrn","Tue Mar 14 2023 11:57:49 GMT-0500 (Central Daylight Time)","789517","Trustworthy,Untrustworthy","image-keyboard-response","40","85700","0.0-6.0-1.17","","1809","","trustrating_stim/white_mw046.bmp","4","","","","","","","","","","",""
"","","","ratingFB","613107a0c7fc3a96a54c7693","bdp_trlrn","Tue Mar 14 2023 11:57:49 GMT-0500 (Central Daylight Time)","789517","Trustworthy,Untrustworthy","image-keyboard-response","41","85909","0.0-6.0-2.17","","null","","trustrating_stim/white_mw046.bmp","null","","","","","","","","","","",""
"","","","rating","613107a0c7fc3a96a54c7693","bdp_trlrn","Tue Mar 14 2023 11:57:49 GMT-0500 (Central Daylight Time)","789517","Trustworthy,Untrustworthy","image-keyboard-response","42","88142","0.0-6.0-1.18","","2125","","trustrating_stim/white_mw084.bmp","6","","","","","","","","","","",""
"","","","ratingFB","613107a0c7fc3a96a54c7693","bdp_trlrn","Tue Mar 14 2023 11:57:49 GMT-0500 (Central Daylight Time)","789517","Trustworthy,Untrustworthy","image-keyboard-response","43","88344","0.0-6.0-2.18","","null","","trustrating_stim/white_mw084.bmp","null","","","","","","","","","","",""
"","","","rating","613107a0c7fc3a96a54c7693","bdp_trlrn","Tue Mar 14 2023 11:57:49 GMT-0500 (Central Daylight Time)","789517","Trustworthy,Untrustworthy","image-keyboard-response","44","90144","0.0-6.0-1.19","","1693","","trustrating_stim/white_00785_941205_fb_edt.bmp","6","","","","","","","","","","",""
"","","","ratingFB","613107a0c7fc3a96a54c7693","bdp_trlrn","Tue Mar 14 2023 11:57:49 GMT-0500 (Central Daylight Time)","789517","Trustworthy,Untrustworthy","image-keyboard-response","45","90360","0.0-6.0-2.19","","null","","trustrating_stim/white_00785_941205_fb_edt.bmp","null","","","","","","","","","","",""
"","","","rating","613107a0c7fc3a96a54c7693","bdp_trlrn","Tue Mar 14 2023 11:57:49 GMT-0500 (Central Daylight Time)","789517","Trustworthy,Untrustworthy","image-keyboard-response","46","92369","0.0-6.0-1.20","","1899","","trustrating_stim/white_00109_931230_fa_edt.bmp","5","","","","","","","","","","",""
"","","","ratingFB","613107a0c7fc3a96a54c7693","bdp_trlrn","Tue Mar 14 2023 11:57:49 GMT-0500 (Central Daylight Time)","789517","Trustworthy,Untrustworthy","image-keyboard-response","47","92570","0.0-6.0-2.20","","null","","trustrating_stim/white_00109_931230_fa_edt.bmp","null","","","","","","","","","","",""
"","","","rating","613107a0c7fc3a96a54c7693","bdp_trlrn","Tue Mar 14 2023 11:57:49 GMT-0500 (Central Daylight Time)","789517","Trustworthy,Untrustworthy","image-keyboard-response","48","94894","0.0-6.0-1.21","","2217","","trustrating_stim/white_00807_941205_fb_edt.bmp","6","","","","","","","","","","",""
"","","","ratingFB","613107a0c7fc3a96a54c7693","bdp_trlrn","Tue Mar 14 2023 11:57:49 GMT-0500 (Central Daylight Time)","789517","Trustworthy,Untrustworthy","image-keyboard-response","49","95101","0.0-6.0-2.21","","null","","trustrating_stim/white_00807_941205_fb_edt.bmp","null","","","","","","","","","","",""
"","","","rating","613107a0c7fc3a96a54c7693","bdp_trlrn","Tue Mar 14 2023 11:57:49 GMT-0500 (Central Daylight Time)","789517","Trustworthy,Untrustworthy","image-keyboard-response","50","99021","0.0-6.0-1.22","","3811","","trustrating_stim/white_mw053.bmp","5","","","","","","","","","","",""
"","","","ratingFB","613107a0c7fc3a96a54c7693","bdp_trlrn","Tue Mar 14 2023 11:57:49 GMT-0500 (Central Daylight Time)","789517","Trustworthy,Untrustworthy","image-keyboard-response","51","99225","0.0-6.0-2.22","","null","","trustrating_stim/white_mw053.bmp","null","","","","","","","","","","",""
"","","","rating","613107a0c7fc3a96a54c7693","bdp_trlrn","Tue Mar 14 2023 11:57:49 GMT-0500 (Central Daylight Time)","789517","Trustworthy,Untrustworthy","image-keyboard-response","52","102032","0.0-6.0-1.23","","2700","","trustrating_stim/white_00577_940928_fa_edt.bmp","4","","","","","","","","","","",""
"","","","ratingFB","613107a0c7fc3a96a54c7693","bdp_trlrn","Tue Mar 14 2023 11:57:49 GMT-0500 (Central Daylight Time)","789517","Trustworthy,Untrustworthy","image-keyboard-response","53","102238","0.0-6.0-2.23","","null","","trustrating_stim/white_00577_940928_fa_edt.bmp","null","","","","","","","","","","",""
"","","","rating","613107a0c7fc3a96a54c7693","bdp_trlrn","Tue Mar 14 2023 11:57:49 GMT-0500 (Central Daylight Time)","789517","Trustworthy,Untrustworthy","image-keyboard-response","54","104246","0.0-6.0-1.24","","1900","","trustrating_stim/white_mw097.bmp","5","","","","","","","","","","",""
"","","","ratingFB","613107a0c7fc3a96a54c7693","bdp_trlrn","Tue Mar 14 2023 11:57:49 GMT-0500 (Central Daylight Time)","789517","Trustworthy,Untrustworthy","image-keyboard-response","55","104460","0.0-6.0-2.24","","null","","trustrating_stim/white_mw097.bmp","null","","","","","","","","","","",""
"","","","rating","613107a0c7fc3a96a54c7693","bdp_trlrn","Tue Mar 14 2023 11:57:49 GMT-0500 (Central Daylight Time)","789517","Trustworthy,Untrustworthy","image-keyboard-response","56","106776","0.0-6.0-1.25","","2207","","trustrating_stim/white_00761_941201_fb_edt.bmp","4","","","","","","","","","","",""
"","","","ratingFB","613107a0c7fc3a96a54c7693","bdp_trlrn","Tue Mar 14 2023 11:57:49 GMT-0500 (Central Daylight Time)","789517","Trustworthy,Untrustworthy","image-keyboard-response","57","106989","0.0-6.0-2.25","","null","","trustrating_stim/white_00761_941201_fb_edt.bmp","null","","","","","","","","","","",""
"","","","rating","613107a0c7fc3a96a54c7693","bdp_trlrn","Tue Mar 14 2023 11:57:49 GMT-0500 (Central Daylight Time)","789517","Trustworthy,Untrustworthy","image-keyboard-response","58","109194","0.0-6.0-1.26","","2096","","trustrating_stim/white_00129_931230_fb_edt.bmp","6","","","","","","","","","","",""
"","","","ratingFB","613107a0c7fc3a96a54c7693","bdp_trlrn","Tue Mar 14 2023 11:57:49 GMT-0500 (Central Daylight Time)","789517","Trustworthy,Untrustworthy","image-keyboard-response","59","109398","0.0-6.0-2.26","","null","","trustrating_stim/white_00129_931230_fb_edt.bmp","null","","","","","","","","","","",""
"","","","rating","613107a0c7fc3a96a54c7693","bdp_trlrn","Tue Mar 14 2023 11:57:49 GMT-0500 (Central Daylight Time)","789517","Trustworthy,Untrustworthy","image-keyboard-response","60","110876","0.0-6.0-1.27","","1368","","trustrating_stim/white_00757_941201_fa_edt.bmp","5","","","","","","","","","","",""
"","","","ratingFB","613107a0c7fc3a96a54c7693","bdp_trlrn","Tue Mar 14 2023 11:57:49 GMT-0500 (Central Daylight Time)","789517","Trustworthy,Untrustworthy","image-keyboard-response","61","111086","0.0-6.0-2.27","","null","","trustrating_stim/white_00757_941201_fa_edt.bmp","null","","","","","","","","","","",""
"","","","rating","613107a0c7fc3a96a54c7693","bdp_trlrn","Tue Mar 14 2023 11:57:49 GMT-0500 (Central Daylight Time)","789517","Trustworthy,Untrustworthy","image-keyboard-response","62","113511","0.0-6.0-1.28","","2316","","trustrating_stim/white_mw071.bmp","6","","","","","","","","","","",""
"","","","ratingFB","613107a0c7fc3a96a54c7693","bdp_trlrn","Tue Mar 14 2023 11:57:49 GMT-0500 (Central Daylight Time)","789517","Trustworthy,Untrustworthy","image-keyboard-response","63","113723","0.0-6.0-2.28","","null","","trustrating_stim/white_mw071.bmp","null","","","","","","","","","","",""
"","","","rating","613107a0c7fc3a96a54c7693","bdp_trlrn","Tue Mar 14 2023 11:57:49 GMT-0500 (Central Daylight Time)","789517","Trustworthy,Untrustworthy","image-keyboard-response","64","116075","0.0-6.0-1.29","","2244","","trustrating_stim/white_mw048.bmp","4","","","","","","","","","","",""
"","","","ratingFB","613107a0c7fc3a96a54c7693","bdp_trlrn","Tue Mar 14 2023 11:57:49 GMT-0500 (Central Daylight Time)","789517","Trustworthy,Untrustworthy","image-keyboard-response","65","116284","0.0-6.0-2.29","","null","","trustrating_stim/white_mw048.bmp","null","","","","","","","","","","",""
"","","","rating","613107a0c7fc3a96a54c7693","bdp_trlrn","Tue Mar 14 2023 11:57:49 GMT-0500 (Central Daylight Time)","789517","Trustworthy,Untrustworthy","image-keyboard-response","66","118256","0.0-6.0-1.30","","1861","","trustrating_stim/white_mw035.bmp","6","","","","","","","","","","",""
"","","","ratingFB","613107a0c7fc3a96a54c7693","bdp_trlrn","Tue Mar 14 2023 11:57:49 GMT-0500 (Central Daylight Time)","789517","Trustworthy,Untrustworthy","image-keyboard-response","67","118470","0.0-6.0-2.30","","null","","trustrating_stim/white_mw035.bmp","null","","","","","","","","","","",""
"","","","rating","613107a0c7fc3a96a54c7693","bdp_trlrn","Tue Mar 14 2023 11:57:49 GMT-0500 (Central Daylight Time)","789517","Trustworthy,Untrustworthy","image-keyboard-response","68","121358","0.0-6.0-1.31","","2779","","trustrating_stim/white_mw099.bmp","4","","","","","","","","","","",""
"","","","ratingFB","613107a0c7fc3a96a54c7693","bdp_trlrn","Tue Mar 14 2023 11:57:49 GMT-0500 (Central Daylight Time)","789517","Trustworthy,Untrustworthy","image-keyboard-response","69","121572","0.0-6.0-2.31","","null","","trustrating_stim/white_mw099.bmp","null","","","","","","","","","","",""
"","","","rating","613107a0c7fc3a96a54c7693","bdp_trlrn","Tue Mar 14 2023 11:57:49 GMT-0500 (Central Daylight Time)","789517","Trustworthy,Untrustworthy","image-keyboard-response","70","124277","0.0-6.0-1.32","","2598","","trustrating_stim/white_00807_941205_fb_edt.bmp","6","","","","","","","","","","",""
"","","","ratingFB","613107a0c7fc3a96a54c7693","bdp_trlrn","Tue Mar 14 2023 11:57:49 GMT-0500 (Central Daylight Time)","789517","Trustworthy,Untrustworthy","image-keyboard-response","71","124479","0.0-6.0-2.32","","null","","trustrating_stim/white_00807_941205_fb_edt.bmp","null","","","","","","","","","","",""
"","","","rating","613107a0c7fc3a96a54c7693","bdp_trlrn","Tue Mar 14 2023 11:57:49 GMT-0500 (Central Daylight Time)","789517","Trustworthy,Untrustworthy","image-keyboard-response","72","125876","0.0-6.0-1.33","","1287","","trustrating_stim/white_00519_940519_fb_edt.bmp","7","","","","","","","","","","",""
"","","","ratingFB","613107a0c7fc3a96a54c7693","bdp_trlrn","Tue Mar 14 2023 11:57:49 GMT-0500 (Central Daylight Time)","789517","Trustworthy,Untrustworthy","image-keyboard-response","73","126076","0.0-6.0-2.33","","null","","trustrating_stim/white_00519_940519_fb_edt.bmp","null","","","","","","","","","","",""
"","","","rating","613107a0c7fc3a96a54c7693","bdp_trlrn","Tue Mar 14 2023 11:57:49 GMT-0500 (Central Daylight Time)","789517","Trustworthy,Untrustworthy","image-keyboard-response","74","128491","0.0-6.0-1.34","","2306","","trustrating_stim/white_00761_941201_fb_edt.bmp","4","","","","","","","","","","",""
"","","","ratingFB","613107a0c7fc3a96a54c7693","bdp_trlrn","Tue Mar 14 2023 11:57:49 GMT-0500 (Central Daylight Time)","789517","Trustworthy,Untrustworthy","image-keyboard-response","75","128700","0.0-6.0-2.34","","null","","trustrating_stim/white_00761_941201_fb_edt.bmp","null","","","","","","","","","","",""
"","","","rating","613107a0c7fc3a96a54c7693","bdp_trlrn","Tue Mar 14 2023 11:57:49 GMT-0500 (Central Daylight Time)","789517","Trustworthy,Untrustworthy","image-keyboard-response","76","134074","0.0-6.0-1.35","","5264","","trustrating_stim/white_00785_941205_fb_edt.bmp","6","","","","","","","","","","",""
"","","","ratingFB","613107a0c7fc3a96a54c7693","bdp_trlrn","Tue Mar 14 2023 11:57:49 GMT-0500 (Central Daylight Time)","789517","Trustworthy,Untrustworthy","image-keyboard-response","77","134276","0.0-6.0-2.35","","null","","trustrating_stim/white_00785_941205_fb_edt.bmp","null","","","","","","","","","","",""
"","","","rating","613107a0c7fc3a96a54c7693","bdp_trlrn","Tue Mar 14 2023 11:57:49 GMT-0500 (Central Daylight Time)","789517","Trustworthy,Untrustworthy","image-keyboard-response","78","135835","0.0-6.0-1.36","","1449","","trustrating_stim/white_mw046.bmp","4","","","","","","","","","","",""
"","","","ratingFB","613107a0c7fc3a96a54c7693","bdp_trlrn","Tue Mar 14 2023 11:57:49 GMT-0500 (Central Daylight Time)","789517","Trustworthy,Untrustworthy","image-keyboard-response","79","136048","0.0-6.0-2.36","","null","","trustrating_stim/white_mw046.bmp","null","","","","","","","","","","",""
"","","","rating","613107a0c7fc3a96a54c7693","bdp_trlrn","Tue Mar 14 2023 11:57:49 GMT-0500 (Central Daylight Time)","789517","Trustworthy,Untrustworthy","image-keyboard-response","80","137629","0.0-6.0-1.37","","1473","","trustrating_stim/white_00659_941121_fa_edt.bmp","4","","","","","","","","","","",""
"","","","ratingFB","613107a0c7fc3a96a54c7693","bdp_trlrn","Tue Mar 14 2023 11:57:49 GMT-0500 (Central Daylight Time)","789517","Trustworthy,Untrustworthy","image-keyboard-response","81","137834","0.0-6.0-2.37","","null","","trustrating_stim/white_00659_941121_fa_edt.bmp","null","","","","","","","","","","",""
"","","","rating","613107a0c7fc3a96a54c7693","bdp_trlrn","Tue Mar 14 2023 11:57:49 GMT-0500 (Central Daylight Time)","789517","Trustworthy,Untrustworthy","image-keyboard-response","82","139571","0.0-6.0-1.38","","1628","","trustrating_stim/white_00129_931230_fb_edt.bmp","5","","","","","","","","","","",""
"","","","ratingFB","613107a0c7fc3a96a54c7693","bdp_trlrn","Tue Mar 14 2023 11:57:49 GMT-0500 (Central Daylight Time)","789517","Trustworthy,Untrustworthy","image-keyboard-response","83","139774","0.0-6.0-2.38","","null","","trustrating_stim/white_00129_931230_fb_edt.bmp","null","","","","","","","","","","",""
"","","","rating","613107a0c7fc3a96a54c7693","bdp_trlrn","Tue Mar 14 2023 11:57:49 GMT-0500 (Central Daylight Time)","789517","Trustworthy,Untrustworthy","image-keyboard-response","84","141352","0.0-6.0-1.39","","1470","","trustrating_stim/white_mw066.bmp","5","","","","","","","","","","",""
"","","","ratingFB","613107a0c7fc3a96a54c7693","bdp_trlrn","Tue Mar 14 2023 11:57:49 GMT-0500 (Central Daylight Time)","789517","Trustworthy,Untrustworthy","image-keyboard-response","85","141561","0.0-6.0-2.39","","null","","trustrating_stim/white_mw066.bmp","null","","","","","","","","","","",""
"","","","rating","613107a0c7fc3a96a54c7693","bdp_trlrn","Tue Mar 14 2023 11:57:49 GMT-0500 (Central Daylight Time)","789517","Trustworthy,Untrustworthy","image-keyboard-response","86","143526","0.0-6.0-1.40","","1856","","trustrating_stim/white_mw084.bmp","6","","","","","","","","","","",""
"","","","ratingFB","613107a0c7fc3a96a54c7693","bdp_trlrn","Tue Mar 14 2023 11:57:49 GMT-0500 (Central Daylight Time)","789517","Trustworthy,Untrustworthy","image-keyboard-response","87","143736","0.0-6.0-2.40","","null","","trustrating_stim/white_mw084.bmp","null","","","","","","","","","","",""
"","","","rating","613107a0c7fc3a96a54c7693","bdp_trlrn","Tue Mar 14 2023 11:57:49 GMT-0500 (Central Daylight Time)","789517","Trustworthy,Untrustworthy","image-keyboard-response","88","145472","0.0-6.0-1.41","","1626","","trustrating_stim/white_00577_940928_fa_edt.bmp","6","","","","","","","","","","",""
"","","","ratingFB","613107a0c7fc3a96a54c7693","bdp_trlrn","Tue Mar 14 2023 11:57:49 GMT-0500 (Central Daylight Time)","789517","Trustworthy,Untrustworthy","image-keyboard-response","89","145678","0.0-6.0-2.41","","null","","trustrating_stim/white_00577_940928_fa_edt.bmp","null","","","","","","","","","","",""
"","","","rating","613107a0c7fc3a96a54c7693","bdp_trlrn","Tue Mar 14 2023 11:57:49 GMT-0500 (Central Daylight Time)","789517","Trustworthy,Untrustworthy","image-keyboard-response","90","147185","0.0-6.0-1.42","","1398","","trustrating_stim/white_mw048.bmp","4","","","","","","","","","","",""
"","","","ratingFB","613107a0c7fc3a96a54c7693","bdp_trlrn","Tue Mar 14 2023 11:57:49 GMT-0500 (Central Daylight Time)","789517","Trustworthy,Untrustworthy","image-keyboard-response","91","147400","0.0-6.0-2.42","","null","","trustrating_stim/white_mw048.bmp","null","","","","","","","","","","",""
"","","","rating","613107a0c7fc3a96a54c7693","bdp_trlrn","Tue Mar 14 2023 11:57:49 GMT-0500 (Central Daylight Time)","789517","Trustworthy,Untrustworthy","image-keyboard-response","92","149697","0.0-6.0-1.43","","2189","","trustrating_stim/white_00898_960530_fa_edt.bmp","8","","","","","","","","","","",""
"","","","ratingFB","613107a0c7fc3a96a54c7693","bdp_trlrn","Tue Mar 14 2023 11:57:49 GMT-0500 (Central Daylight Time)","789517","Trustworthy,Untrustworthy","image-keyboard-response","93","149902","0.0-6.0-2.43","","null","","trustrating_stim/white_00898_960530_fa_edt.bmp","null","","","","","","","","","","",""
"","","","rating","613107a0c7fc3a96a54c7693","bdp_trlrn","Tue Mar 14 2023 11:57:49 GMT-0500 (Central Daylight Time)","789517","Trustworthy,Untrustworthy","image-keyboard-response","94","152977","0.0-6.0-1.44","","2966","","trustrating_stim/white_mw056.bmp","4","","","","","","","","","","",""
"","","","ratingFB","613107a0c7fc3a96a54c7693","bdp_trlrn","Tue Mar 14 2023 11:57:49 GMT-0500 (Central Daylight Time)","789517","Trustworthy,Untrustworthy","image-keyboard-response","95","153193","0.0-6.0-2.44","","null","","trustrating_stim/white_mw056.bmp","null","","","","","","","","","","",""
"","","","rating","613107a0c7fc3a96a54c7693","bdp_trlrn","Tue Mar 14 2023 11:57:49 GMT-0500 (Central Daylight Time)","789517","Trustworthy,Untrustworthy","image-keyboard-response","96","154973","0.0-6.0-1.45","","1670","","trustrating_stim/white_mw089.bmp","5","","","","","","","","","","",""
"","","","ratingFB","613107a0c7fc3a96a54c7693","bdp_trlrn","Tue Mar 14 2023 11:57:49 GMT-0500 (Central Daylight Time)","789517","Trustworthy,Untrustworthy","image-keyboard-response","97","155184","0.0-6.0-2.45","","null","","trustrating_stim/white_mw089.bmp","null","","","","","","","","","","",""
"","","","rating","613107a0c7fc3a96a54c7693","bdp_trlrn","Tue Mar 14 2023 11:57:49 GMT-0500 (Central Daylight Time)","789517","Trustworthy,Untrustworthy","image-keyboard-response","98","156775","0.0-6.0-1.46","","1482","","trustrating_stim/white_mw071.bmp","4","","","","","","","","","","",""
"","","","ratingFB","613107a0c7fc3a96a54c7693","bdp_trlrn","Tue Mar 14 2023 11:57:49 GMT-0500 (Central Daylight Time)","789517","Trustworthy,Untrustworthy","image-keyboard-response","99","156985","0.0-6.0-2.46","","null","","trustrating_stim/white_mw071.bmp","null","","","","","","","","","","",""
"","","","rating","613107a0c7fc3a96a54c7693","bdp_trlrn","Tue Mar 14 2023 11:57:49 GMT-0500 (Central Daylight Time)","789517","Trustworthy,Untrustworthy","image-keyboard-response","100","159990","0.0-6.0-1.47","","2894","","trustrating_stim/white_mw063.bmp","4","","","","","","","","","","",""
"","","","ratingFB","613107a0c7fc3a96a54c7693","bdp_trlrn","Tue Mar 14 2023 11:57:49 GMT-0500 (Central Daylight Time)","789517","Trustworthy,Untrustworthy","image-keyboard-response","101","160203","0.0-6.0-2.47","","null","","trustrating_stim/white_mw063.bmp","null","","","","","","","","","","",""
"","","","rating","613107a0c7fc3a96a54c7693","bdp_trlrn","Tue Mar 14 2023 11:57:49 GMT-0500 (Central Daylight Time)","789517","Trustworthy,Untrustworthy","image-keyboard-response","102","161774","0.0-6.0-1.48","","1461","","trustrating_stim/white_mw097.bmp","4","","","","","","","","","","",""
"","","","ratingFB","613107a0c7fc3a96a54c7693","bdp_trlrn","Tue Mar 14 2023 11:57:49 GMT-0500 (Central Daylight Time)","789517","Trustworthy,Untrustworthy","image-keyboard-response","103","161990","0.0-6.0-2.48","","null","","trustrating_stim/white_mw097.bmp","null","","","","","","","","","","",""
"","","","rating","613107a0c7fc3a96a54c7693","bdp_trlrn","Tue Mar 14 2023 11:57:49 GMT-0500 (Central Daylight Time)","789517","Trustworthy,Untrustworthy","image-keyboard-response","104","163945","0.0-6.0-1.49","","1846","","trustrating_stim/white_00109_931230_fa_edt.bmp","6","","","","","","","","","","",""
"","","","ratingFB","613107a0c7fc3a96a54c7693","bdp_trlrn","Tue Mar 14 2023 11:57:49 GMT-0500 (Central Daylight Time)","789517","Trustworthy,Untrustworthy","image-keyboard-response","105","164151","0.0-6.0-2.49","","null","","trustrating_stim/white_00109_931230_fa_edt.bmp","null","","","","","","","","","","",""
"","","","rating","613107a0c7fc3a96a54c7693","bdp_trlrn","Tue Mar 14 2023 11:57:49 GMT-0500 (Central Daylight Time)","789517","Trustworthy,Untrustworthy","image-keyboard-response","106","165881","0.0-6.0-1.50","","1622","","trustrating_stim/white_00223_940128_fb_edt.bmp","5","","","","","","","","","","",""
"","","","ratingFB","613107a0c7fc3a96a54c7693","bdp_trlrn","Tue Mar 14 2023 11:57:49 GMT-0500 (Central Daylight Time)","789517","Trustworthy,Untrustworthy","image-keyboard-response","107","166089","0.0-6.0-2.50","","null","","trustrating_stim/white_00223_940128_fb_edt.bmp","null","","","","","","","","","","",""
"","","","rating","613107a0c7fc3a96a54c7693","bdp_trlrn","Tue Mar 14 2023 11:57:49 GMT-0500 (Central Daylight Time)","789517","Trustworthy,Untrustworthy","image-keyboard-response","108","170163","0.0-6.0-1.51","","3963","","trustrating_stim/white_00299_940422_fa_edt.bmp","4","","","","","","","","","","",""
"","","","ratingFB","613107a0c7fc3a96a54c7693","bdp_trlrn","Tue Mar 14 2023 11:57:49 GMT-0500 (Central Daylight Time)","789517","Trustworthy,Untrustworthy","image-keyboard-response","109","170364","0.0-6.0-2.51","","null","","trustrating_stim/white_00299_940422_fa_edt.bmp","null","","","","","","","","","","",""
"","","","rating","613107a0c7fc3a96a54c7693","bdp_trlrn","Tue Mar 14 2023 11:57:49 GMT-0500 (Central Daylight Time)","789517","Trustworthy,Untrustworthy","image-keyboard-response","110","171758","0.0-6.0-1.52","","1285","","trustrating_stim/white_00340_940422_fa_edt.bmp","5","","","","","","","","","","",""
"","","","ratingFB","613107a0c7fc3a96a54c7693","bdp_trlrn","Tue Mar 14 2023 11:57:49 GMT-0500 (Central Daylight Time)","789517","Trustworthy,Untrustworthy","image-keyboard-response","111","171962","0.0-6.0-2.52","","null","","trustrating_stim/white_00340_940422_fa_edt.bmp","null","","","","","","","","","","",""
"","","","rating","613107a0c7fc3a96a54c7693","bdp_trlrn","Tue Mar 14 2023 11:57:49 GMT-0500 (Central Daylight Time)","789517","Trustworthy,Untrustworthy","image-keyboard-response","112","173991","0.0-6.0-1.53","","1919","","trustrating_stim/white_mw049.bmp","5","","","","","","","","","","",""
"","","","ratingFB","613107a0c7fc3a96a54c7693","bdp_trlrn","Tue Mar 14 2023 11:57:49 GMT-0500 (Central Daylight Time)","789517","Trustworthy,Untrustworthy","image-keyboard-response","113","174197","0.0-6.0-2.53","","null","","trustrating_stim/white_mw049.bmp","null","","","","","","","","","","",""
"","","","rating","613107a0c7fc3a96a54c7693","bdp_trlrn","Tue Mar 14 2023 11:57:49 GMT-0500 (Central Daylight Time)","789517","Trustworthy,Untrustworthy","image-keyboard-response","114","175462","0.0-6.0-1.54","","1156","","trustrating_stim/white_mw033.bmp","6","","","","","","","","","","",""
"","","","ratingFB","613107a0c7fc3a96a54c7693","bdp_trlrn","Tue Mar 14 2023 11:57:49 GMT-0500 (Central Daylight Time)","789517","Trustworthy,Untrustworthy","image-keyboard-response","115","175673","0.0-6.0-2.54","","null","","trustrating_stim/white_mw033.bmp","null","","","","","","","","","","",""
"","","","rating","613107a0c7fc3a96a54c7693","bdp_trlrn","Tue Mar 14 2023 11:57:49 GMT-0500 (Central Daylight Time)","789517","Trustworthy,Untrustworthy","image-keyboard-response","116","177089","0.0-6.0-1.55","","1307","","trustrating_stim/white_mw053.bmp","6","","","","","","","","","","",""
"","","","ratingFB","613107a0c7fc3a96a54c7693","bdp_trlrn","Tue Mar 14 2023 11:57:49 GMT-0500 (Central Daylight Time)","789517","Trustworthy,Untrustworthy","image-keyboard-response","117","177297","0.0-6.0-2.55","","null","","trustrating_stim/white_mw053.bmp","null","","","","","","","","","","",""
"","","","rating","613107a0c7fc3a96a54c7693","bdp_trlrn","Tue Mar 14 2023 11:57:49 GMT-0500 (Central Daylight Time)","789517","Trustworthy,Untrustworthy","image-keyboard-response","118","179377","0.0-6.0-1.56","","1971","","trustrating_stim/white_00602_940928_fb_edt.bmp","6","","","","","","","","","","",""
"","","","ratingFB","613107a0c7fc3a96a54c7693","bdp_trlrn","Tue Mar 14 2023 11:57:49 GMT-0500 (Central Daylight Time)","789517","Trustworthy,Untrustworthy","image-keyboard-response","119","179581","0.0-6.0-2.56","","null","","trustrating_stim/white_00602_940928_fb_edt.bmp","null","","","","","","","","","","",""
"","","","rating","613107a0c7fc3a96a54c7693","bdp_trlrn","Tue Mar 14 2023 11:57:49 GMT-0500 (Central Daylight Time)","789517","Trustworthy,Untrustworthy","image-keyboard-response","120","181977","0.0-6.0-1.57","","2286","","trustrating_stim/white_00757_941201_fa_edt.bmp","5","","","","","","","","","","",""
"","","","ratingFB","613107a0c7fc3a96a54c7693","bdp_trlrn","Tue Mar 14 2023 11:57:49 GMT-0500 (Central Daylight Time)","789517","Trustworthy,Untrustworthy","image-keyboard-response","121","182178","0.0-6.0-2.57","","null","","trustrating_stim/white_00757_941201_fa_edt.bmp","null","","","","","","","","","","",""
"","","","rating","613107a0c7fc3a96a54c7693","bdp_trlrn","Tue Mar 14 2023 11:57:49 GMT-0500 (Central Daylight Time)","789517","Trustworthy,Untrustworthy","image-keyboard-response","122","184066","0.0-6.0-1.58","","1780","","trustrating_stim/white_00120_931230_fa_edt.bmp","7","","","","","","","","","","",""
"","","","ratingFB","613107a0c7fc3a96a54c7693","bdp_trlrn","Tue Mar 14 2023 11:57:49 GMT-0500 (Central Daylight Time)","789517","Trustworthy,Untrustworthy","image-keyboard-response","123","184266","0.0-6.0-2.58","","null","","trustrating_stim/white_00120_931230_fa_edt.bmp","null","","","","","","","","","","",""
"","","","rating","613107a0c7fc3a96a54c7693","bdp_trlrn","Tue Mar 14 2023 11:57:49 GMT-0500 (Central Daylight Time)","789517","Trustworthy,Untrustworthy","image-keyboard-response","124","186552","0.0-6.0-1.59","","2176","","trustrating_stim/white_mw060.bmp","6","","","","","","","","","","",""
"","","","ratingFB","613107a0c7fc3a96a54c7693","bdp_trlrn","Tue Mar 14 2023 11:57:49 GMT-0500 (Central Daylight Time)","789517","Trustworthy,Untrustworthy","image-keyboard-response","125","186765","0.0-6.0-2.59","","null","","trustrating_stim/white_mw060.bmp","null","","","","","","","","","","",""
"","","","","613107a0c7fc3a96a54c7693","bdp_trlrn","Tue Mar 14 2023 11:57:49 GMT-0500 (Central Daylight Time)","789517","Trustworthy,Untrustworthy","instructions","126","191552","0.0-7.0","[{""page_index"":0,""viewing_time"":4678}]","4678","","","","","","","","","","","","","",""
"","","","","613107a0c7fc3a96a54c7693","bdp_trlrn","Tue Mar 14 2023 11:57:49 GMT-0500 (Central Daylight Time)","789517","Trustworthy,Untrustworthy","instructions","127","325649","0.0-8.0","[{""page_index"":0,""viewing_time"":7012},{""page_index"":1,""viewing_time"":35548},{""page_index"":2,""viewing_time"":10990},{""page_index"":3,""viewing_time"":11637},{""page_index"":4,""viewing_time"":14549},{""page_index"":5,""viewing_time"":11472},{""page_index"":6,""viewing_time"":25032},{""page_index"":7,""viewing_time"":14443},{""page_index"":6,""viewing_time"":2410},{""page_index"":7,""viewing_time"":890}]","133983","","","","","","","","","","","","","",""
"","","","","613107a0c7fc3a96a54c7693","bdp_trlrn","Tue Mar 14 2023 11:57:49 GMT-0500 (Central Daylight Time)","789517","Trustworthy,Untrustworthy","html-keyboard-response","128","332952","0.0-9.0","","7302","","<div class='header' style='text-align:left; position: absolute; top: 5%; left: 5%;'><small>Task 2 of 5</small></div><div class='instruxDiv'><p><strong>1) What is the minimum number of points you can choose to send to your partner?</strong></p><p>a) 0</p><p>b) 1</p><p>c) 5</p>","B","","","","","","","","","","",""
"","","","","613107a0c7fc3a96a54c7693","bdp_trlrn","Tue Mar 14 2023 11:57:49 GMT-0500 (Central Daylight Time)","789517","Trustworthy,Untrustworthy","html-keyboard-response","129","336904","0.0-10.0","","3848","","<div class='header' style='text-align:left; position: absolute; top: 5%; left: 5%;'><small>Task 2 of 5</small></div><div class='instruxDiv'><p><strong>1) What is the minimum number of points you can choose to send to your partner?</strong></p><p>a) 0</p><p style='color:#00FF00'>b) 1</p><p>c) 5</p><h3 style='color:#00FF00'>Correct!</h3><h3 class='center-content'>The correct response is b).</h3><h3 class='center-content'>The minimum number of points you can choose to send to your partner is 1 point.</h3><p><em>Press SPACEBAR to continue</em></p></div>"," ","","","","","","","","","","",""
"","","","","613107a0c7fc3a96a54c7693","bdp_trlrn","Tue Mar 14 2023 11:57:49 GMT-0500 (Central Daylight Time)","789517","Trustworthy,Untrustworthy","html-keyboard-response","130","340406","0.0-11.0","","3386","","<div class='header' style='text-align:left; position: absolute; top: 5%; left: 5%;'><small>Task 2 of 5</small></div><div class='instruxDiv'><p><strong>2) What is the maximum number of points you can choose to send to your partner?</strong></p><p>a) 8</p><p>b) 5</p><p>c) 3</p>","B","","","","","","","","","","",""
"","","","","613107a0c7fc3a96a54c7693","bdp_trlrn","Tue Mar 14 2023 11:57:49 GMT-0500 (Central Daylight Time)","789517","Trustworthy,Untrustworthy","html-keyboard-response","131","341738","0.0-12.0","","1225","","<div class='header' style='text-align:left; position: absolute; top: 5%; left: 5%;'><small>Task 2 of 5</small></div><div class='instruxDiv'><p><strong>2) What is the maximum number of points you can choose to send to your partner?</strong></p><p>a) 8</p><p style='color:#00FF00'>b) 5</p><p>c) 3</p><h3 style='color:#00FF00'>Correct!</h3><h3 class='center-content'>The correct response is b).</h3><h3 class='center-content'>The maximum number of points you can choose to send to your partner is 5 points.</h3><p><em>Press SPACEBAR to continue</em></p></div>"," ","","","","","","","","","","",""
"","","","","613107a0c7fc3a96a54c7693","bdp_trlrn","Tue Mar 14 2023 11:57:49 GMT-0500 (Central Daylight Time)","789517","Trustworthy,Untrustworthy","html-keyboard-response","132","345284","0.0-13.0","","3434","","<div class='header' style='text-align:left; position: absolute; top: 5%; left: 5%;'><small>Task 2 of 5</small></div><div class='instruxDiv'><p><strong>3) What happens to the amount of points you send to your partner?</strong></p><p>a) Nothing</p><p>b) It doubles</p><p>c) It quadruples</p>","C","","","","","","","","","","",""
"","","","","613107a0c7fc3a96a54c7693","bdp_trlrn","Tue Mar 14 2023 11:57:49 GMT-0500 (Central Daylight Time)","789517","Trustworthy,Untrustworthy","html-keyboard-response","133","346629","0.0-14.0","","1241","","<div class='header' style='text-align:left; position: absolute; top: 5%; left: 5%;'><small>Task 2 of 5</small></div><div class='instruxDiv'><p><strong>3) What happens to the amount of points you send to your partner?</strong></p><p>a) Nothing</p><p>b) It doubles</p><p style='color:#00FF00'>c) It quadruples</p><h3 style='color:#00FF00'>Correct!</h3><h3 class='center-content'>The correct response is c).</h3><h3 class='center-content'>The amount of points you send to your partner quadruples.</h3><p><em>Press SPACEBAR to continue</em></p></div>"," ","","","","","","","","","","",""
"","","","","613107a0c7fc3a96a54c7693","bdp_trlrn","Tue Mar 14 2023 11:57:49 GMT-0500 (Central Daylight Time)","789517","Trustworthy,Untrustworthy","html-keyboard-response","134","357755","0.0-15.0","","11020","","<div class='header' style='text-align:left; position: absolute; top: 5%; left: 5%;'><small>Task 2 of 5</small></div><div class='instruxDiv'><p><strong>4) If you decided to share 4 out of 5 points with your partner, and they decided to share half of the amount they received with you, how many points would you receive back from them on this round?</strong></p><p>a) 16</p><p>b) 0</p><p>c) 8</p>","C","","","","","","","","","","",""
"","","","","613107a0c7fc3a96a54c7693","bdp_trlrn","Tue Mar 14 2023 11:57:49 GMT-0500 (Central Daylight Time)","789517","Trustworthy,Untrustworthy","html-keyboard-response","135","359519","0.0-16.0","","1650","","<div class='header' style='text-align:left; position: absolute; top: 5%; left: 5%;'><small>Task 2 of 5</small></div><div class='instruxDiv'><p><strong>4) If you decided to share 4 out of 5 points with your partner, and they decided to share half of the amount they received with you, how many points would you receive back from them on this round?</strong></p><p>a) 16</p><p>b) 0</p><p style='color:#00FF00'>c) 8</p><h3 style='color:#00FF00'>Correct!</h3><h3 class='center-content'>The correct response is c).</h3><h3 class='center-content'>If you shared 4 out of 5 points with your partner and they decided to share half of the amount they received with you, you would receive 8 points back (i.e. (4 x 4)/2 = 8).</h3><p><em>Press SPACEBAR to continue</em></p></div>"," ","","","","","","","","","","",""
"","","","","613107a0c7fc3a96a54c7693","bdp_trlrn","Tue Mar 14 2023 11:57:49 GMT-0500 (Central Daylight Time)","789517","Trustworthy,Untrustworthy","html-keyboard-response","136","364634","0.0-17.0","","null","","<div class='header' style='text-align:left; position: absolute; top: 5%; left: 5%;'><small>Task 2 of 5</small></div><div class='instruxDiv'><p>Thank you for completing the quiz<p>These are the actual partners you will be interacting with in the next block:<p><div class='tc' align='center'><img class='introPic' src='trustrating_stim/white_mw048.bmp'><br><strong>Daniel</strong></div><div class='bl' align='center'><img class='introPic' src='trustrating_stim/white_mw099.bmp'><br><strong>Tyler</strong></div><div class='br' align='center'><img class='introPic' src='trustrating_stim/white_00120_931230_fa_edt.bmp'><br><strong>Lucas</strong></div></div><p>Across <strong>66 rounds</strong> you will interact with each partner <strong>22 times</strong> (in random order).<p style='align:center; color:white'><font <em>Press SPACEBAR to continue</em></p>","null","","","","","","","","","","",""
"","","","","613107a0c7fc3a96a54c7693","bdp_trlrn","Tue Mar 14 2023 11:57:49 GMT-0500 (Central Daylight Time)","789517","Trustworthy,Untrustworthy","instructions","137","378686","0.0-18.0","[{""page_index"":0,""viewing_time"":6790},{""page_index"":1,""viewing_time"":7262}]","14052","","","","","","","","","","","","","",""
"","","","decision","613107a0c7fc3a96a54c7693","bdp_trlrn","Tue Mar 14 2023 11:57:49 GMT-0500 (Central Daylight Time)","789517","Trustworthy,Untrustworthy","html-keyboard-response","138","382843","0.0-19.0-1.0","","4043","","<div class='trialDiv'><img src='trustrating_stim/white_00120_931230_fa_edt.bmp'><br><font class='baseline'><strong>Lucas</strong><p>Choose number of points to send.</font><div class='respPicDiv'><img src='img/responseButtonOffersNo0L.png' class='respPic'></div></div>","3","1","Lucas","9","Kept","0.35,0.8","11","0.35","trustrating_stim/white_00120_931230_fa_edt.bmp","7","5","1"
"","","","decisionFB","613107a0c7fc3a96a54c7693","bdp_trlrn","Tue Mar 14 2023 11:57:49 GMT-0500 (Central Daylight Time)","789517","Trustworthy,Untrustworthy","html-keyboard-response","139","383097","0.0-19.0-2.0","","null","","<div class='trialDiv'><img src='trustrating_stim/white_00120_931230_fa_edt.bmp'><br><font class='baseline'><strong>Lucas</strong><p>Choose number of points to send.</font><div class='respPicDiv'><img src='img/responseButtonOffersNo0L3.png' class='respPic'></div></div>","null","1","Lucas","9","Kept","0.35,0.8","11","0.35","trustrating_stim/white_00120_931230_fa_edt.bmp","7","2","1"
"","","","feedback","613107a0c7fc3a96a54c7693","bdp_trlrn","Tue Mar 14 2023 11:57:49 GMT-0500 (Central Daylight Time)","789517","Trustworthy,Untrustworthy","html-keyboard-response","140","384104","0.0-19.0-3.0","","null","","<div class='trialDiv'><img src='trustrating_stim/white_00120_931230_fa_edt.bmp'><br><font class='baseline'><strong>Lucas</strong><p>Received: <strong>12</strong></font> &nbsp; &nbsp; &nbsp; &nbsp; &nbsp; &nbsp;<font class='negOutcome'>Shared back: <strong>0</strong></font></font><div class='respPicDiv'><img src='img/responseButtonOffersNo0_wht.png' class='respPic'></div></div>","null","1","Lucas","9","Kept","0.35,0.8","11","0.35","trustrating_stim/white_00120_931230_fa_edt.bmp","7","2","1"
"","","","decision","613107a0c7fc3a96a54c7693","bdp_trlrn","Tue Mar 14 2023 11:57:49 GMT-0500 (Central Daylight Time)","789517","Trustworthy,Untrustworthy","html-keyboard-response","141","387657","0.0-19.0-1.1","","3552","","<div class='trialDiv'><img src='trustrating_stim/white_mw048.bmp'><br><font class='baseline'><strong>Daniel</strong><p>Choose number of points to send.</font><div class='respPicDiv'><img src='img/responseButtonOffersNo0L.png' class='respPic'></div></div>","3","1","Daniel","0","Shared","0.8,0.35","10","0.8","trustrating_stim/white_mw048.bmp","4","7","2"
"","","","decisionFB","613107a0c7fc3a96a54c7693","bdp_trlrn","Tue Mar 14 2023 11:57:49 GMT-0500 (Central Daylight Time)","789517","Trustworthy,Untrustworthy","html-keyboard-response","142","387919","0.0-19.0-2.1","","null","","<div class='trialDiv'><img src='trustrating_stim/white_mw048.bmp'><br><font class='baseline'><strong>Daniel</strong><p>Choose number of points to send.</font><div class='respPicDiv'><img src='img/responseButtonOffersNo0L3.png' class='respPic'></div></div>","null","1","Daniel","0","Shared","0.8,0.35","10","0.8","trustrating_stim/white_mw048.bmp","4","4","2"
"","","","feedback","613107a0c7fc3a96a54c7693","bdp_trlrn","Tue Mar 14 2023 11:57:49 GMT-0500 (Central Daylight Time)","789517","Trustworthy,Untrustworthy","html-keyboard-response","143","388926","0.0-19.0-3.1","","null","","<div class='trialDiv'><img src='trustrating_stim/white_mw048.bmp'><br><font class='baseline'><strong>Daniel</strong><p>Received: <strong>12</strong></font> &nbsp; &nbsp; &nbsp; &nbsp; &nbsp; &nbsp;<font class='posOutcome'>Shared back: <strong>6</strong></font></font><div class='respPicDiv'><img src='img/responseButtonOffersNo0_wht.png' class='respPic'></div></div>","null","1","Daniel","0","Shared","0.8,0.35","10","0.8","trustrating_stim/white_mw048.bmp","4","10","2"
"","","","decision","613107a0c7fc3a96a54c7693","bdp_trlrn","Tue Mar 14 2023 11:57:49 GMT-0500 (Central Daylight Time)","789517","Trustworthy,Untrustworthy","html-keyboard-response","144","392512","0.0-19.0-1.2","","3585","","<div class='trialDiv'><img src='trustrating_stim/white_mw099.bmp'><br><font class='baseline'><strong>Tyler</strong><p>Choose number of points to send.</font><div class='respPicDiv'><img src='img/responseButtonOffersNo0L.png' class='respPic'></div></div>","3","1","Tyler","6","Shared","0.8,0.2","13","0.8","trustrating_stim/white_mw099.bmp","5.5","15","3"
"","","","decisionFB","613107a0c7fc3a96a54c7693","bdp_trlrn","Tue Mar 14 2023 11:57:49 GMT-0500 (Central Daylight Time)","789517","Trustworthy,Untrustworthy","html-keyboard-response","145","392774","0.0-19.0-2.2","","null","","<div class='trialDiv'><img src='trustrating_stim/white_mw099.bmp'><br><font class='baseline'><strong>Tyler</strong><p>Choose number of points to send.</font><div class='respPicDiv'><img src='img/responseButtonOffersNo0L3.png' class='respPic'></div></div>","null","1","Tyler","6","Shared","0.8,0.2","13","0.8","trustrating_stim/white_mw099.bmp","5.5","12","3"
"","","","feedback","613107a0c7fc3a96a54c7693","bdp_trlrn","Tue Mar 14 2023 11:57:49 GMT-0500 (Central Daylight Time)","789517","Trustworthy,Untrustworthy","html-keyboard-response","146","393783","0.0-19.0-3.2","","null","","<div class='trialDiv'><img src='trustrating_stim/white_mw099.bmp'><br><font class='baseline'><strong>Tyler</strong><p>Received: <strong>12</strong></font> &nbsp; &nbsp; &nbsp; &nbsp; &nbsp; &nbsp;<font class='posOutcome'>Shared back: <strong>6</strong></font></font><div class='respPicDiv'><img src='img/responseButtonOffersNo0_wht.png' class='respPic'></div></div>","null","1","Tyler","6","Shared","0.8,0.2","13","0.8","trustrating_stim/white_mw099.bmp","5.5","18","3"
"","","","decision","613107a0c7fc3a96a54c7693","bdp_trlrn","Tue Mar 14 2023 11:57:49 GMT-0500 (Central Daylight Time)","789517","Trustworthy,Untrustworthy","html-keyboard-response","147","395761","0.0-19.0-1.3","","1978","","<div class='trialDiv'><img src='trustrating_stim/white_mw048.bmp'><br><font class='baseline'><strong>Daniel</strong><p>Choose number of points to send.</font><div class='respPicDiv'><img src='img/responseButtonOffersNo0L.png' class='respPic'></div></div>","4","2","Daniel","0","Shared","0.8,0.35","10","0.8","trustrating_stim/white_mw048.bmp","4","23","4"
"","","","decisionFB","613107a0c7fc3a96a54c7693","bdp_trlrn","Tue Mar 14 2023 11:57:49 GMT-0500 (Central Daylight Time)","789517","Trustworthy,Untrustworthy","html-keyboard-response","148","396016","0.0-19.0-2.3","","null","","<div class='trialDiv'><img src='trustrating_stim/white_mw048.bmp'><br><font class='baseline'><strong>Daniel</strong><p>Choose number of points to send.</font><div class='respPicDiv'><img src='img/responseButtonOffersNo0L4.png' class='respPic'></div></div>","null","2","Daniel","0","Shared","0.8,0.35","10","0.8","trustrating_stim/white_mw048.bmp","4","19","4"
"","","","feedback","613107a0c7fc3a96a54c7693","bdp_trlrn","Tue Mar 14 2023 11:57:49 GMT-0500 (Central Daylight Time)","789517","Trustworthy,Untrustworthy","html-keyboard-response","149","397023","0.0-19.0-3.3","","null","","<div class='trialDiv'><img src='trustrating_stim/white_mw048.bmp'><br><font class='baseline'><strong>Daniel</strong><p>Received: <strong>16</strong></font> &nbsp; &nbsp; &nbsp; &nbsp; &nbsp; &nbsp;<font class='posOutcome'>Shared back: <strong>8</strong></font></font><div class='respPicDiv'><img src='img/responseButtonOffersNo0_wht.png' class='respPic'></div></div>","null","2","Daniel","0","Shared","0.8,0.35","10","0.8","trustrating_stim/white_mw048.bmp","4","27","4"
"","","","decision","613107a0c7fc3a96a54c7693","bdp_trlrn","Tue Mar 14 2023 11:57:49 GMT-0500 (Central Daylight Time)","789517","Trustworthy,Untrustworthy","html-keyboard-response","150","398147","0.0-19.0-1.4","","1123","","<div class='trialDiv'><img src='trustrating_stim/white_mw099.bmp'><br><font class='baseline'><strong>Tyler</strong><p>Choose number of points to send.</font><div class='respPicDiv'><img src='img/responseButtonOffersNo0L.png' class='respPic'></div></div>","4","2","Tyler","6","Shared","0.8,0.2","13","0.8","trustrating_stim/white_mw099.bmp","5.5","32","5"
"","","","decisionFB","613107a0c7fc3a96a54c7693","bdp_trlrn","Tue Mar 14 2023 11:57:49 GMT-0500 (Central Daylight Time)","789517","Trustworthy,Untrustworthy","html-keyboard-response","151","398402","0.0-19.0-2.4","","null","","<div class='trialDiv'><img src='trustrating_stim/white_mw099.bmp'><br><font class='baseline'><strong>Tyler</strong><p>Choose number of points to send.</font><div class='respPicDiv'><img src='img/responseButtonOffersNo0L4.png' class='respPic'></div></div>","null","2","Tyler","6","Shared","0.8,0.2","13","0.8","trustrating_stim/white_mw099.bmp","5.5","28","5"
"","","","feedback","613107a0c7fc3a96a54c7693","bdp_trlrn","Tue Mar 14 2023 11:57:49 GMT-0500 (Central Daylight Time)","789517","Trustworthy,Untrustworthy","html-keyboard-response","152","399412","0.0-19.0-3.4","","null","","<div class='trialDiv'><img src='trustrating_stim/white_mw099.bmp'><br><font class='baseline'><strong>Tyler</strong><p>Received: <strong>16</strong></font> &nbsp; &nbsp; &nbsp; &nbsp; &nbsp; &nbsp;<font class='posOutcome'>Shared back: <strong>8</strong></font></font><div class='respPicDiv'><img src='img/responseButtonOffersNo0_wht.png' class='respPic'></div></div>","null","2","Tyler","6","Shared","0.8,0.2","13","0.8","trustrating_stim/white_mw099.bmp","5.5","36","5"
"","","","decision","613107a0c7fc3a96a54c7693","bdp_trlrn","Tue Mar 14 2023 11:57:49 GMT-0500 (Central Daylight Time)","789517","Trustworthy,Untrustworthy","html-keyboard-response","153","400867","0.0-19.0-1.5","","1455","","<div class='trialDiv'><img src='trustrating_stim/white_00120_931230_fa_edt.bmp'><br><font class='baseline'><strong>Lucas</strong><p>Choose number of points to send.</font><div class='respPicDiv'><img src='img/responseButtonOffersNo0L.png' class='respPic'></div></div>","1","2","Lucas","9","Kept","0.35,0.8","11","0.35","trustrating_stim/white_00120_931230_fa_edt.bmp","7","41","6"
"","","","decisionFB","613107a0c7fc3a96a54c7693","bdp_trlrn","Tue Mar 14 2023 11:57:49 GMT-0500 (Central Daylight Time)","789517","Trustworthy,Untrustworthy","html-keyboard-response","154","401124","0.0-19.0-2.5","","null","","<div class='trialDiv'><img src='trustrating_stim/white_00120_931230_fa_edt.bmp'><br><font class='baseline'><strong>Lucas</strong><p>Choose number of points to send.</font><div class='respPicDiv'><img src='img/responseButtonOffersNo0L1.png' class='respPic'></div></div>","null","2","Lucas","9","Kept","0.35,0.8","11","0.35","trustrating_stim/white_00120_931230_fa_edt.bmp","7","40","6"
"","","","feedback","613107a0c7fc3a96a54c7693","bdp_trlrn","Tue Mar 14 2023 11:57:49 GMT-0500 (Central Daylight Time)","789517","Trustworthy,Untrustworthy","html-keyboard-response","155","402132","0.0-19.0-3.5","","null","","<div class='trialDiv'><img src='trustrating_stim/white_00120_931230_fa_edt.bmp'><br><font class='baseline'><strong>Lucas</strong><p>Received: <strong>4</strong></font> &nbsp; &nbsp; &nbsp; &nbsp; &nbsp; &nbsp;<font class='negOutcome'>Shared back: <strong>0</strong></font></font><div class='respPicDiv'><img src='img/responseButtonOffersNo0_wht.png' class='respPic'></div></div>","null","2","Lucas","9","Kept","0.35,0.8","11","0.35","trustrating_stim/white_00120_931230_fa_edt.bmp","7","40","6"
"","","","decision","613107a0c7fc3a96a54c7693","bdp_trlrn","Tue Mar 14 2023 11:57:49 GMT-0500 (Central Daylight Time)","789517","Trustworthy,Untrustworthy","html-keyboard-response","156","405384","0.0-19.0-1.6","","3251","","<div class='trialDiv'><img src='trustrating_stim/white_mw048.bmp'><br><font class='baseline'><strong>Daniel</strong><p>Choose number of points to send.</font><div class='respPicDiv'><img src='img/responseButtonOffersNo0L.png' class='respPic'></div></div>","4","3","Daniel","0","Shared","0.8,0.35","10","0.8","trustrating_stim/white_mw048.bmp","4","45","7"
"","","","decisionFB","613107a0c7fc3a96a54c7693","bdp_trlrn","Tue Mar 14 2023 11:57:49 GMT-0500 (Central Daylight Time)","789517","Trustworthy,Untrustworthy","html-keyboard-response","157","405640","0.0-19.0-2.6","","null","","<div class='trialDiv'><img src='trustrating_stim/white_mw048.bmp'><br><font class='baseline'><strong>Daniel</strong><p>Choose number of points to send.</font><div class='respPicDiv'><img src='img/responseButtonOffersNo0L4.png' class='respPic'></div></div>","null","3","Daniel","0","Shared","0.8,0.35","10","0.8","trustrating_stim/white_mw048.bmp","4","41","7"
"","","","feedback","613107a0c7fc3a96a54c7693","bdp_trlrn","Tue Mar 14 2023 11:57:49 GMT-0500 (Central Daylight Time)","789517","Trustworthy,Untrustworthy","html-keyboard-response","158","406648","0.0-19.0-3.6","","null","","<div class='trialDiv'><img src='trustrating_stim/white_mw048.bmp'><br><font class='baseline'><strong>Daniel</strong><p>Received: <strong>16</strong></font> &nbsp; &nbsp; &nbsp; &nbsp; &nbsp; &nbsp;<font class='posOutcome'>Shared back: <strong>8</strong></font></font><div class='respPicDiv'><img src='img/responseButtonOffersNo0_wht.png' class='respPic'></div></div>","null","3","Daniel","0","Shared","0.8,0.35","10","0.8","trustrating_stim/white_mw048.bmp","4","49","7"
"","","","decision","613107a0c7fc3a96a54c7693","bdp_trlrn","Tue Mar 14 2023 11:57:49 GMT-0500 (Central Daylight Time)","789517","Trustworthy,Untrustworthy","html-keyboard-response","159","408110","0.0-19.0-1.7","","1461","","<div class='trialDiv'><img src='trustrating_stim/white_00120_931230_fa_edt.bmp'><br><font class='baseline'><strong>Lucas</strong><p>Choose number of points to send.</font><div class='respPicDiv'><img src='img/responseButtonOffersNo0L.png' class='respPic'></div></div>","1","3","Lucas","9","Kept","0.35,0.8","11","0.35","trustrating_stim/white_00120_931230_fa_edt.bmp","7","54","8"
"","","","decisionFB","613107a0c7fc3a96a54c7693","bdp_trlrn","Tue Mar 14 2023 11:57:49 GMT-0500 (Central Daylight Time)","789517","Trustworthy,Untrustworthy","html-keyboard-response","160","408368","0.0-19.0-2.7","","null","","<div class='trialDiv'><img src='trustrating_stim/white_00120_931230_fa_edt.bmp'><br><font class='baseline'><strong>Lucas</strong><p>Choose number of points to send.</font><div class='respPicDiv'><img src='img/responseButtonOffersNo0L1.png' class='respPic'></div></div>","null","3","Lucas","9","Kept","0.35,0.8","11","0.35","trustrating_stim/white_00120_931230_fa_edt.bmp","7","53","8"
"","","","feedback","613107a0c7fc3a96a54c7693","bdp_trlrn","Tue Mar 14 2023 11:57:49 GMT-0500 (Central Daylight Time)","789517","Trustworthy,Untrustworthy","html-keyboard-response","161","409377","0.0-19.0-3.7","","null","","<div class='trialDiv'><img src='trustrating_stim/white_00120_931230_fa_edt.bmp'><br><font class='baseline'><strong>Lucas</strong><p>Received: <strong>4</strong></font> &nbsp; &nbsp; &nbsp; &nbsp; &nbsp; &nbsp;<font class='negOutcome'>Shared back: <strong>0</strong></font></font><div class='respPicDiv'><img src='img/responseButtonOffersNo0_wht.png' class='respPic'></div></div>","null","3","Lucas","9","Kept","0.35,0.8","11","0.35","trustrating_stim/white_00120_931230_fa_edt.bmp","7","53","8"
"","","","decision","613107a0c7fc3a96a54c7693","bdp_trlrn","Tue Mar 14 2023 11:57:49 GMT-0500 (Central Daylight Time)","789517","Trustworthy,Untrustworthy","html-keyboard-response","162","410342","0.0-19.0-1.8","","965","","<div class='trialDiv'><img src='trustrating_stim/white_mw099.bmp'><br><font class='baseline'><strong>Tyler</strong><p>Choose number of points to send.</font><div class='respPicDiv'><img src='img/responseButtonOffersNo0L.png' class='respPic'></div></div>","4","3","Tyler","6","Kept","0.8,0.2","13","0.8","trustrating_stim/white_mw099.bmp","5.5","58","9"
"","","","decisionFB","613107a0c7fc3a96a54c7693","bdp_trlrn","Tue Mar 14 2023 11:57:49 GMT-0500 (Central Daylight Time)","789517","Trustworthy,Untrustworthy","html-keyboard-response","163","410602","0.0-19.0-2.8","","null","","<div class='trialDiv'><img src='trustrating_stim/white_mw099.bmp'><br><font class='baseline'><strong>Tyler</strong><p>Choose number of points to send.</font><div class='respPicDiv'><img src='img/responseButtonOffersNo0L4.png' class='respPic'></div></div>","null","3","Tyler","6","Kept","0.8,0.2","13","0.8","trustrating_stim/white_mw099.bmp","5.5","54","9"
"","","","feedback","613107a0c7fc3a96a54c7693","bdp_trlrn","Tue Mar 14 2023 11:57:49 GMT-0500 (Central Daylight Time)","789517","Trustworthy,Untrustworthy","html-keyboard-response","164","411610","0.0-19.0-3.8","","null","","<div class='trialDiv'><img src='trustrating_stim/white_mw099.bmp'><br><font class='baseline'><strong>Tyler</strong><p>Received: <strong>16</strong></font> &nbsp; &nbsp; &nbsp; &nbsp; &nbsp; &nbsp;<font class='negOutcome'>Shared back: <strong>0</strong></font></font><div class='respPicDiv'><img src='img/responseButtonOffersNo0_wht.png' class='respPic'></div></div>","null","3","Tyler","6","Kept","0.8,0.2","13","0.8","trustrating_stim/white_mw099.bmp","5.5","54","9"
"","","","decision","613107a0c7fc3a96a54c7693","bdp_trlrn","Tue Mar 14 2023 11:57:49 GMT-0500 (Central Daylight Time)","789517","Trustworthy,Untrustworthy","html-keyboard-response","165","412983","0.0-19.0-1.9","","1372","","<div class='trialDiv'><img src='trustrating_stim/white_00120_931230_fa_edt.bmp'><br><font class='baseline'><strong>Lucas</strong><p>Choose number of points to send.</font><div class='respPicDiv'><img src='img/responseButtonOffersNo0L.png' class='respPic'></div></div>","1","4","Lucas","9","Shared","0.35,0.8","11","0.35","trustrating_stim/white_00120_931230_fa_edt.bmp","7","59","10"
"","","","decisionFB","613107a0c7fc3a96a54c7693","bdp_trlrn","Tue Mar 14 2023 11:57:49 GMT-0500 (Central Daylight Time)","789517","Trustworthy,Untrustworthy","html-keyboard-response","166","413241","0.0-19.0-2.9","","null","","<div class='trialDiv'><img src='trustrating_stim/white_00120_931230_fa_edt.bmp'><br><font class='baseline'><strong>Lucas</strong><p>Choose number of points to send.</font><div class='respPicDiv'><img src='img/responseButtonOffersNo0L1.png' class='respPic'></div></div>","null","4","Lucas","9","Shared","0.35,0.8","11","0.35","trustrating_stim/white_00120_931230_fa_edt.bmp","7","58","10"
"","","","feedback","613107a0c7fc3a96a54c7693","bdp_trlrn","Tue Mar 14 2023 11:57:49 GMT-0500 (Central Daylight Time)","789517","Trustworthy,Untrustworthy","html-keyboard-response","167","414251","0.0-19.0-3.9","","null","","<div class='trialDiv'><img src='trustrating_stim/white_00120_931230_fa_edt.bmp'><br><font class='baseline'><strong>Lucas</strong><p>Received: <strong>4</strong></font> &nbsp; &nbsp; &nbsp; &nbsp; &nbsp; &nbsp;<font class='posOutcome'>Shared back: <strong>2</strong></font></font><div class='respPicDiv'><img src='img/responseButtonOffersNo0_wht.png' class='respPic'></div></div>","null","4","Lucas","9","Shared","0.35,0.8","11","0.35","trustrating_stim/white_00120_931230_fa_edt.bmp","7","60","10"
"","","","decision","613107a0c7fc3a96a54c7693","bdp_trlrn","Tue Mar 14 2023 11:57:49 GMT-0500 (Central Daylight Time)","789517","Trustworthy,Untrustworthy","html-keyboard-response","168","415713","0.0-19.0-1.10","","1462","","<div class='trialDiv'><img src='trustrating_stim/white_mw048.bmp'><br><font class='baseline'><strong>Daniel</strong><p>Choose number of points to send.</font><div class='respPicDiv'><img src='img/responseButtonOffersNo0L.png' class='respPic'></div></div>","4","4","Daniel","0","Shared","0.8,0.35","10","0.8","trustrating_stim/white_mw048.bmp","4","65","11"
"","","","decisionFB","613107a0c7fc3a96a54c7693","bdp_trlrn","Tue Mar 14 2023 11:57:49 GMT-0500 (Central Daylight Time)","789517","Trustworthy,Untrustworthy","html-keyboard-response","169","415975","0.0-19.0-2.10","","null","","<div class='trialDiv'><img src='trustrating_stim/white_mw048.bmp'><br><font class='baseline'><strong>Daniel</strong><p>Choose number of points to send.</font><div class='respPicDiv'><img src='img/responseButtonOffersNo0L4.png' class='respPic'></div></div>","null","4","Daniel","0","Shared","0.8,0.35","10","0.8","trustrating_stim/white_mw048.bmp","4","61","11"
"","","","feedback","613107a0c7fc3a96a54c7693","bdp_trlrn","Tue Mar 14 2023 11:57:49 GMT-0500 (Central Daylight Time)","789517","Trustworthy,Untrustworthy","html-keyboard-response","170","416987","0.0-19.0-3.10","","null","","<div class='trialDiv'><img src='trustrating_stim/white_mw048.bmp'><br><font class='baseline'><strong>Daniel</strong><p>Received: <strong>16</strong></font> &nbsp; &nbsp; &nbsp; &nbsp; &nbsp; &nbsp;<font class='posOutcome'>Shared back: <strong>8</strong></font></font><div class='respPicDiv'><img src='img/responseButtonOffersNo0_wht.png' class='respPic'></div></div>","null","4","Daniel","0","Shared","0.8,0.35","10","0.8","trustrating_stim/white_mw048.bmp","4","69","11"
"","","","decision","613107a0c7fc3a96a54c7693","bdp_trlrn","Tue Mar 14 2023 11:57:49 GMT-0500 (Central Daylight Time)","789517","Trustworthy,Untrustworthy","html-keyboard-response","171","418598","0.0-19.0-1.11","","1609","","<div class='trialDiv'><img src='trustrating_stim/white_mw099.bmp'><br><font class='baseline'><strong>Tyler</strong><p>Choose number of points to send.</font><div class='respPicDiv'><img src='img/responseButtonOffersNo0L.png' class='respPic'></div></div>","3","4","Tyler","6","Shared","0.8,0.2","13","0.8","trustrating_stim/white_mw099.bmp","5.5","74","12"
"","","","decisionFB","613107a0c7fc3a96a54c7693","bdp_trlrn","Tue Mar 14 2023 11:57:49 GMT-0500 (Central Daylight Time)","789517","Trustworthy,Untrustworthy","html-keyboard-response","172","418854","0.0-19.0-2.11","","null","","<div class='trialDiv'><img src='trustrating_stim/white_mw099.bmp'><br><font class='baseline'><strong>Tyler</strong><p>Choose number of points to send.</font><div class='respPicDiv'><img src='img/responseButtonOffersNo0L3.png' class='respPic'></div></div>","null","4","Tyler","6","Shared","0.8,0.2","13","0.8","trustrating_stim/white_mw099.bmp","5.5","71","12"
"","","","feedback","613107a0c7fc3a96a54c7693","bdp_trlrn","Tue Mar 14 2023 11:57:49 GMT-0500 (Central Daylight Time)","789517","Trustworthy,Untrustworthy","html-keyboard-response","173","419864","0.0-19.0-3.11","","null","","<div class='trialDiv'><img src='trustrating_stim/white_mw099.bmp'><br><font class='baseline'><strong>Tyler</strong><p>Received: <strong>12</strong></font> &nbsp; &nbsp; &nbsp; &nbsp; &nbsp; &nbsp;<font class='posOutcome'>Shared back: <strong>6</strong></font></font><div class='respPicDiv'><img src='img/responseButtonOffersNo0_wht.png' class='respPic'></div></div>","null","4","Tyler","6","Shared","0.8,0.2","13","0.8","trustrating_stim/white_mw099.bmp","5.5","77","12"
"","","","decision","613107a0c7fc3a96a54c7693","bdp_trlrn","Tue Mar 14 2023 11:57:49 GMT-0500 (Central Daylight Time)","789517","Trustworthy,Untrustworthy","html-keyboard-response","174","420991","0.0-19.0-1.12","","1126","","<div class='trialDiv'><img src='trustrating_stim/white_mw048.bmp'><br><font class='baseline'><strong>Daniel</strong><p>Choose number of points to send.</font><div class='respPicDiv'><img src='img/responseButtonOffersNo0L.png' class='respPic'></div></div>","4","5","Daniel","0","Shared","0.8,0.35","10","0.8","trustrating_stim/white_mw048.bmp","4","82","13"
"","","","decisionFB","613107a0c7fc3a96a54c7693","bdp_trlrn","Tue Mar 14 2023 11:57:49 GMT-0500 (Central Daylight Time)","789517","Trustworthy,Untrustworthy","html-keyboard-response","175","421245","0.0-19.0-2.12","","null","","<div class='trialDiv'><img src='trustrating_stim/white_mw048.bmp'><br><font class='baseline'><strong>Daniel</strong><p>Choose number of points to send.</font><div class='respPicDiv'><img src='img/responseButtonOffersNo0L4.png' class='respPic'></div></div>","null","5","Daniel","0","Shared","0.8,0.35","10","0.8","trustrating_stim/white_mw048.bmp","4","78","13"
"","","","feedback","613107a0c7fc3a96a54c7693","bdp_trlrn","Tue Mar 14 2023 11:57:49 GMT-0500 (Central Daylight Time)","789517","Trustworthy,Untrustworthy","html-keyboard-response","176","422257","0.0-19.0-3.12","","null","","<div class='trialDiv'><img src='trustrating_stim/white_mw048.bmp'><br><font class='baseline'><strong>Daniel</strong><p>Received: <strong>16</strong></font> &nbsp; &nbsp; &nbsp; &nbsp; &nbsp; &nbsp;<font class='posOutcome'>Shared back: <strong>8</strong></font></font><div class='respPicDiv'><img src='img/responseButtonOffersNo0_wht.png' class='respPic'></div></div>","null","5","Daniel","0","Shared","0.8,0.35","10","0.8","trustrating_stim/white_mw048.bmp","4","86","13"
"","","","decision","613107a0c7fc3a96a54c7693","bdp_trlrn","Tue Mar 14 2023 11:57:49 GMT-0500 (Central Daylight Time)","789517","Trustworthy,Untrustworthy","html-keyboard-response","177","423164","0.0-19.0-1.13","","907","","<div class='trialDiv'><img src='trustrating_stim/white_00120_931230_fa_edt.bmp'><br><font class='baseline'><strong>Lucas</strong><p>Choose number of points to send.</font><div class='respPicDiv'><img src='img/responseButtonOffersNo0L.png' class='respPic'></div></div>","1","5","Lucas","9","Shared","0.35,0.8","11","0.35","trustrating_stim/white_00120_931230_fa_edt.bmp","7","91","14"
"","","","decisionFB","613107a0c7fc3a96a54c7693","bdp_trlrn","Tue Mar 14 2023 11:57:49 GMT-0500 (Central Daylight Time)","789517","Trustworthy,Untrustworthy","html-keyboard-response","178","423422","0.0-19.0-2.13","","null","","<div class='trialDiv'><img src='trustrating_stim/white_00120_931230_fa_edt.bmp'><br><font class='baseline'><strong>Lucas</strong><p>Choose number of points to send.</font><div class='respPicDiv'><img src='img/responseButtonOffersNo0L1.png' class='respPic'></div></div>","null","5","Lucas","9","Shared","0.35,0.8","11","0.35","trustrating_stim/white_00120_931230_fa_edt.bmp","7","90","14"
"","","","feedback","613107a0c7fc3a96a54c7693","bdp_trlrn","Tue Mar 14 2023 11:57:49 GMT-0500 (Central Daylight Time)","789517","Trustworthy,Untrustworthy","html-keyboard-response","179","424426","0.0-19.0-3.13","","null","","<div class='trialDiv'><img src='trustrating_stim/white_00120_931230_fa_edt.bmp'><br><font class='baseline'><strong>Lucas</strong><p>Received: <strong>4</strong></font> &nbsp; &nbsp; &nbsp; &nbsp; &nbsp; &nbsp;<font class='posOutcome'>Shared back: <strong>2</strong></font></font><div class='respPicDiv'><img src='img/responseButtonOffersNo0_wht.png' class='respPic'></div></div>","null","5","Lucas","9","Shared","0.35,0.8","11","0.35","trustrating_stim/white_00120_931230_fa_edt.bmp","7","92","14"
"","","","decision","613107a0c7fc3a96a54c7693","bdp_trlrn","Tue Mar 14 2023 11:57:49 GMT-0500 (Central Daylight Time)","789517","Trustworthy,Untrustworthy","html-keyboard-response","180","427803","0.0-19.0-1.14","","3376","","<div class='trialDiv'><img src='trustrating_stim/white_mw099.bmp'><br><font class='baseline'><strong>Tyler</strong><p>Choose number of points to send.</font><div class='respPicDiv'><img src='img/responseButtonOffersNo0L.png' class='respPic'></div></div>","3","5","Tyler","6","Kept","0.8,0.2","13","0.8","trustrating_stim/white_mw099.bmp","5.5","97","15"
"","","","decisionFB","613107a0c7fc3a96a54c7693","bdp_trlrn","Tue Mar 14 2023 11:57:49 GMT-0500 (Central Daylight Time)","789517","Trustworthy,Untrustworthy","html-keyboard-response","181","428067","0.0-19.0-2.14","","null","","<div class='trialDiv'><img src='trustrating_stim/white_mw099.bmp'><br><font class='baseline'><strong>Tyler</strong><p>Choose number of points to send.</font><div class='respPicDiv'><img src='img/responseButtonOffersNo0L3.png' class='respPic'></div></div>","null","5","Tyler","6","Kept","0.8,0.2","13","0.8","trustrating_stim/white_mw099.bmp","5.5","94","15"
"","","","feedback","613107a0c7fc3a96a54c7693","bdp_trlrn","Tue Mar 14 2023 11:57:49 GMT-0500 (Central Daylight Time)","789517","Trustworthy,Untrustworthy","html-keyboard-response","182","429071","0.0-19.0-3.14","","null","","<div class='trialDiv'><img src='trustrating_stim/white_mw099.bmp'><br><font class='baseline'><strong>Tyler</strong><p>Received: <strong>12</strong></font> &nbsp; &nbsp; &nbsp; &nbsp; &nbsp; &nbsp;<font class='negOutcome'>Shared back: <strong>0</strong></font></font><div class='respPicDiv'><img src='img/responseButtonOffersNo0_wht.png' class='respPic'></div></div>","null","5","Tyler","6","Kept","0.8,0.2","13","0.8","trustrating_stim/white_mw099.bmp","5.5","94","15"
"","","","decision","613107a0c7fc3a96a54c7693","bdp_trlrn","Tue Mar 14 2023 11:57:49 GMT-0500 (Central Daylight Time)","789517","Trustworthy,Untrustworthy","html-keyboard-response","183","430802","0.0-19.0-1.15","","1729","","<div class='trialDiv'><img src='trustrating_stim/white_00120_931230_fa_edt.bmp'><br><font class='baseline'><strong>Lucas</strong><p>Choose number of points to send.</font><div class='respPicDiv'><img src='img/responseButtonOffersNo0L.png' class='respPic'></div></div>","2","6","Lucas","9","Kept","0.35,0.8","11","0.35","trustrating_stim/white_00120_931230_fa_edt.bmp","7","99","16"
"","","","decisionFB","613107a0c7fc3a96a54c7693","bdp_trlrn","Tue Mar 14 2023 11:57:49 GMT-0500 (Central Daylight Time)","789517","Trustworthy,Untrustworthy","html-keyboard-response","184","431058","0.0-19.0-2.15","","null","","<div class='trialDiv'><img src='trustrating_stim/white_00120_931230_fa_edt.bmp'><br><font class='baseline'><strong>Lucas</strong><p>Choose number of points to send.</font><div class='respPicDiv'><img src='img/responseButtonOffersNo0L2.png' class='respPic'></div></div>","null","6","Lucas","9","Kept","0.35,0.8","11","0.35","trustrating_stim/white_00120_931230_fa_edt.bmp","7","97","16"
"","","","feedback","613107a0c7fc3a96a54c7693","bdp_trlrn","Tue Mar 14 2023 11:57:49 GMT-0500 (Central Daylight Time)","789517","Trustworthy,Untrustworthy","html-keyboard-response","185","432064","0.0-19.0-3.15","","null","","<div class='trialDiv'><img src='trustrating_stim/white_00120_931230_fa_edt.bmp'><br><font class='baseline'><strong>Lucas</strong><p>Received: <strong>8</strong></font> &nbsp; &nbsp; &nbsp; &nbsp; &nbsp; &nbsp;<font class='negOutcome'>Shared back: <strong>0</strong></font></font><div class='respPicDiv'><img src='img/responseButtonOffersNo0_wht.png' class='respPic'></div></div>","null","6","Lucas","9","Kept","0.35,0.8","11","0.35","trustrating_stim/white_00120_931230_fa_edt.bmp","7","97","16"
"","","","decision","613107a0c7fc3a96a54c7693","bdp_trlrn","Tue Mar 14 2023 11:57:49 GMT-0500 (Central Daylight Time)","789517","Trustworthy,Untrustworthy","html-keyboard-response","186","432881","0.0-19.0-1.16","","816","","<div class='trialDiv'><img src='trustrating_stim/white_mw048.bmp'><br><font class='baseline'><strong>Daniel</strong><p>Choose number of points to send.</font><div class='respPicDiv'><img src='img/responseButtonOffersNo0L.png' class='respPic'></div></div>","4","6","Daniel","0","Shared","0.8,0.35","10","0.8","trustrating_stim/white_mw048.bmp","4","102","17"
"","","","decisionFB","613107a0c7fc3a96a54c7693","bdp_trlrn","Tue Mar 14 2023 11:57:49 GMT-0500 (Central Daylight Time)","789517","Trustworthy,Untrustworthy","html-keyboard-response","187","433138","0.0-19.0-2.16","","null","","<div class='trialDiv'><img src='trustrating_stim/white_mw048.bmp'><br><font class='baseline'><strong>Daniel</strong><p>Choose number of points to send.</font><div class='respPicDiv'><img src='img/responseButtonOffersNo0L4.png' class='respPic'></div></div>","null","6","Daniel","0","Shared","0.8,0.35","10","0.8","trustrating_stim/white_mw048.bmp","4","98","17"
"","","","feedback","613107a0c7fc3a96a54c7693","bdp_trlrn","Tue Mar 14 2023 11:57:49 GMT-0500 (Central Daylight Time)","789517","Trustworthy,Untrustworthy","html-keyboard-response","188","434149","0.0-19.0-3.16","","null","","<div class='trialDiv'><img src='trustrating_stim/white_mw048.bmp'><br><font class='baseline'><strong>Daniel</strong><p>Received: <strong>16</strong></font> &nbsp; &nbsp; &nbsp; &nbsp; &nbsp; &nbsp;<font class='posOutcome'>Shared back: <strong>8</strong></font></font><div class='respPicDiv'><img src='img/responseButtonOffersNo0_wht.png' class='respPic'></div></div>","null","6","Daniel","0","Shared","0.8,0.35","10","0.8","trustrating_stim/white_mw048.bmp","4","106","17"
"","","","decision","613107a0c7fc3a96a54c7693","bdp_trlrn","Tue Mar 14 2023 11:57:49 GMT-0500 (Central Daylight Time)","789517","Trustworthy,Untrustworthy","html-keyboard-response","189","435431","0.0-19.0-1.17","","1281","","<div class='trialDiv'><img src='trustrating_stim/white_mw099.bmp'><br><font class='baseline'><strong>Tyler</strong><p>Choose number of points to send.</font><div class='respPicDiv'><img src='img/responseButtonOffersNo0L.png' class='respPic'></div></div>","2","6","Tyler","6","Shared","0.8,0.2","13","0.8","trustrating_stim/white_mw099.bmp","5.5","111","18"
"","","","decisionFB","613107a0c7fc3a96a54c7693","bdp_trlrn","Tue Mar 14 2023 11:57:49 GMT-0500 (Central Daylight Time)","789517","Trustworthy,Untrustworthy","html-keyboard-response","190","435692","0.0-19.0-2.17","","null","","<div class='trialDiv'><img src='trustrating_stim/white_mw099.bmp'><br><font class='baseline'><strong>Tyler</strong><p>Choose number of points to send.</font><div class='respPicDiv'><img src='img/responseButtonOffersNo0L2.png' class='respPic'></div></div>","null","6","Tyler","6","Shared","0.8,0.2","13","0.8","trustrating_stim/white_mw099.bmp","5.5","109","18"
"","","","feedback","613107a0c7fc3a96a54c7693","bdp_trlrn","Tue Mar 14 2023 11:57:49 GMT-0500 (Central Daylight Time)","789517","Trustworthy,Untrustworthy","html-keyboard-response","191","436700","0.0-19.0-3.17","","null","","<div class='trialDiv'><img src='trustrating_stim/white_mw099.bmp'><br><font class='baseline'><strong>Tyler</strong><p>Received: <strong>8</strong></font> &nbsp; &nbsp; &nbsp; &nbsp; &nbsp; &nbsp;<font class='posOutcome'>Shared back: <strong>4</strong></font></font><div class='respPicDiv'><img src='img/responseButtonOffersNo0_wht.png' class='respPic'></div></div>","null","6","Tyler","6","Shared","0.8,0.2","13","0.8","trustrating_stim/white_mw099.bmp","5.5","113","18"
"","","","decision","613107a0c7fc3a96a54c7693","bdp_trlrn","Tue Mar 14 2023 11:57:49 GMT-0500 (Central Daylight Time)","789517","Trustworthy,Untrustworthy","html-keyboard-response","192","437723","0.0-19.0-1.18","","1022","","<div class='trialDiv'><img src='trustrating_stim/white_00120_931230_fa_edt.bmp'><br><font class='baseline'><strong>Lucas</strong><p>Choose number of points to send.</font><div class='respPicDiv'><img src='img/responseButtonOffersNo0L.png' class='respPic'></div></div>","1","7","Lucas","9","Kept","0.35,0.8","11","0.35","trustrating_stim/white_00120_931230_fa_edt.bmp","7","118","19"
"","","","decisionFB","613107a0c7fc3a96a54c7693","bdp_trlrn","Tue Mar 14 2023 11:57:49 GMT-0500 (Central Daylight Time)","789517","Trustworthy,Untrustworthy","html-keyboard-response","193","437987","0.0-19.0-2.18","","null","","<div class='trialDiv'><img src='trustrating_stim/white_00120_931230_fa_edt.bmp'><br><font class='baseline'><strong>Lucas</strong><p>Choose number of points to send.</font><div class='respPicDiv'><img src='img/responseButtonOffersNo0L1.png' class='respPic'></div></div>","null","7","Lucas","9","Kept","0.35,0.8","11","0.35","trustrating_stim/white_00120_931230_fa_edt.bmp","7","117","19"
"","","","feedback","613107a0c7fc3a96a54c7693","bdp_trlrn","Tue Mar 14 2023 11:57:49 GMT-0500 (Central Daylight Time)","789517","Trustworthy,Untrustworthy","html-keyboard-response","194","438998","0.0-19.0-3.18","","null","","<div class='trialDiv'><img src='trustrating_stim/white_00120_931230_fa_edt.bmp'><br><font class='baseline'><strong>Lucas</strong><p>Received: <strong>4</strong></font> &nbsp; &nbsp; &nbsp; &nbsp; &nbsp; &nbsp;<font class='negOutcome'>Shared back: <strong>0</strong></font></font><div class='respPicDiv'><img src='img/responseButtonOffersNo0_wht.png' class='respPic'></div></div>","null","7","Lucas","9","Kept","0.35,0.8","11","0.35","trustrating_stim/white_00120_931230_fa_edt.bmp","7","117","19"
"","","","decision","613107a0c7fc3a96a54c7693","bdp_trlrn","Tue Mar 14 2023 11:57:49 GMT-0500 (Central Daylight Time)","789517","Trustworthy,Untrustworthy","html-keyboard-response","195","441943","0.0-19.0-1.19","","2945","","<div class='trialDiv'><img src='trustrating_stim/white_mw099.bmp'><br><font class='baseline'><strong>Tyler</strong><p>Choose number of points to send.</font><div class='respPicDiv'><img src='img/responseButtonOffersNo0L.png' class='respPic'></div></div>","3","7","Tyler","6","Kept","0.8,0.2","13","0.8","trustrating_stim/white_mw099.bmp","5.5","122","20"
"","","","decisionFB","613107a0c7fc3a96a54c7693","bdp_trlrn","Tue Mar 14 2023 11:57:49 GMT-0500 (Central Daylight Time)","789517","Trustworthy,Untrustworthy","html-keyboard-response","196","442196","0.0-19.0-2.19","","null","","<div class='trialDiv'><img src='trustrating_stim/white_mw099.bmp'><br><font class='baseline'><strong>Tyler</strong><p>Choose number of points to send.</font><div class='respPicDiv'><img src='img/responseButtonOffersNo0L3.png' class='respPic'></div></div>","null","7","Tyler","6","Kept","0.8,0.2","13","0.8","trustrating_stim/white_mw099.bmp","5.5","119","20"
"","","","feedback","613107a0c7fc3a96a54c7693","bdp_trlrn","Tue Mar 14 2023 11:57:49 GMT-0500 (Central Daylight Time)","789517","Trustworthy,Untrustworthy","html-keyboard-response","197","443208","0.0-19.0-3.19","","null","","<div class='trialDiv'><img src='trustrating_stim/white_mw099.bmp'><br><font class='baseline'><strong>Tyler</strong><p>Received: <strong>12</strong></font> &nbsp; &nbsp; &nbsp; &nbsp; &nbsp; &nbsp;<font class='negOutcome'>Shared back: <strong>0</strong></font></font><div class='respPicDiv'><img src='img/responseButtonOffersNo0_wht.png' class='respPic'></div></div>","null","7","Tyler","6","Kept","0.8,0.2","13","0.8","trustrating_stim/white_mw099.bmp","5.5","119","20"
"","","","decision","613107a0c7fc3a96a54c7693","bdp_trlrn","Tue Mar 14 2023 11:57:49 GMT-0500 (Central Daylight Time)","789517","Trustworthy,Untrustworthy","html-keyboard-response","198","444035","0.0-19.0-1.20","","826","","<div class='trialDiv'><img src='trustrating_stim/white_mw048.bmp'><br><font class='baseline'><strong>Daniel</strong><p>Choose number of points to send.</font><div class='respPicDiv'><img src='img/responseButtonOffersNo0L.png' class='respPic'></div></div>","4","7","Daniel","0","Shared","0.8,0.35","10","0.8","trustrating_stim/white_mw048.bmp","4","124","21"
"","","","decisionFB","613107a0c7fc3a96a54c7693","bdp_trlrn","Tue Mar 14 2023 11:57:49 GMT-0500 (Central Daylight Time)","789517","Trustworthy,Untrustworthy","html-keyboard-response","199","444292","0.0-19.0-2.20","","null","","<div class='trialDiv'><img src='trustrating_stim/white_mw048.bmp'><br><font class='baseline'><strong>Daniel</strong><p>Choose number of points to send.</font><div class='respPicDiv'><img src='img/responseButtonOffersNo0L4.png' class='respPic'></div></div>","null","7","Daniel","0","Shared","0.8,0.35","10","0.8","trustrating_stim/white_mw048.bmp","4","120","21"
"","","","feedback","613107a0c7fc3a96a54c7693","bdp_trlrn","Tue Mar 14 2023 11:57:49 GMT-0500 (Central Daylight Time)","789517","Trustworthy,Untrustworthy","html-keyboard-response","200","445301","0.0-19.0-3.20","","null","","<div class='trialDiv'><img src='trustrating_stim/white_mw048.bmp'><br><font class='baseline'><strong>Daniel</strong><p>Received: <strong>16</strong></font> &nbsp; &nbsp; &nbsp; &nbsp; &nbsp; &nbsp;<font class='posOutcome'>Shared back: <strong>8</strong></font></font><div class='respPicDiv'><img src='img/responseButtonOffersNo0_wht.png' class='respPic'></div></div>","null","7","Daniel","0","Shared","0.8,0.35","10","0.8","trustrating_stim/white_mw048.bmp","4","128","21"
"","","","decision","613107a0c7fc3a96a54c7693","bdp_trlrn","Tue Mar 14 2023 11:57:49 GMT-0500 (Central Daylight Time)","789517","Trustworthy,Untrustworthy","html-keyboard-response","201","446642","0.0-19.0-1.21","","1340","","<div class='trialDiv'><img src='trustrating_stim/white_mw099.bmp'><br><font class='baseline'><strong>Tyler</strong><p>Choose number of points to send.</font><div class='respPicDiv'><img src='img/responseButtonOffersNo0L.png' class='respPic'></div></div>","2","8","Tyler","6","Shared","0.8,0.2","13","0.8","trustrating_stim/white_mw099.bmp","5.5","133","22"
"","","","decisionFB","613107a0c7fc3a96a54c7693","bdp_trlrn","Tue Mar 14 2023 11:57:49 GMT-0500 (Central Daylight Time)","789517","Trustworthy,Untrustworthy","html-keyboard-response","202","446898","0.0-19.0-2.21","","null","","<div class='trialDiv'><img src='trustrating_stim/white_mw099.bmp'><br><font class='baseline'><strong>Tyler</strong><p>Choose number of points to send.</font><div class='respPicDiv'><img src='img/responseButtonOffersNo0L2.png' class='respPic'></div></div>","null","8","Tyler","6","Shared","0.8,0.2","13","0.8","trustrating_stim/white_mw099.bmp","5.5","131","22"
"","","","feedback","613107a0c7fc3a96a54c7693","bdp_trlrn","Tue Mar 14 2023 11:57:49 GMT-0500 (Central Daylight Time)","789517","Trustworthy,Untrustworthy","html-keyboard-response","203","447910","0.0-19.0-3.21","","null","","<div class='trialDiv'><img src='trustrating_stim/white_mw099.bmp'><br><font class='baseline'><strong>Tyler</strong><p>Received: <strong>8</strong></font> &nbsp; &nbsp; &nbsp; &nbsp; &nbsp; &nbsp;<font class='posOutcome'>Shared back: <strong>4</strong></font></font><div class='respPicDiv'><img src='img/responseButtonOffersNo0_wht.png' class='respPic'></div></div>","null","8","Tyler","6","Shared","0.8,0.2","13","0.8","trustrating_stim/white_mw099.bmp","5.5","135","22"
"","","","decision","613107a0c7fc3a96a54c7693","bdp_trlrn","Tue Mar 14 2023 11:57:49 GMT-0500 (Central Daylight Time)","789517","Trustworthy,Untrustworthy","html-keyboard-response","204","448929","0.0-19.0-1.22","","1017","","<div class='trialDiv'><img src='trustrating_stim/white_mw048.bmp'><br><font class='baseline'><strong>Daniel</strong><p>Choose number of points to send.</font><div class='respPicDiv'><img src='img/responseButtonOffersNo0L.png' class='respPic'></div></div>","4","8","Daniel","0","Kept","0.8,0.35","10","0.8","trustrating_stim/white_mw048.bmp","4","140","23"
"","","","decisionFB","613107a0c7fc3a96a54c7693","bdp_trlrn","Tue Mar 14 2023 11:57:49 GMT-0500 (Central Daylight Time)","789517","Trustworthy,Untrustworthy","html-keyboard-response","205","449182","0.0-19.0-2.22","","null","","<div class='trialDiv'><img src='trustrating_stim/white_mw048.bmp'><br><font class='baseline'><strong>Daniel</strong><p>Choose number of points to send.</font><div class='respPicDiv'><img src='img/responseButtonOffersNo0L4.png' class='respPic'></div></div>","null","8","Daniel","0","Kept","0.8,0.35","10","0.8","trustrating_stim/white_mw048.bmp","4","136","23"
"","","","feedback","613107a0c7fc3a96a54c7693","bdp_trlrn","Tue Mar 14 2023 11:57:49 GMT-0500 (Central Daylight Time)","789517","Trustworthy,Untrustworthy","html-keyboard-response","206","450192","0.0-19.0-3.22","","null","","<div class='trialDiv'><img src='trustrating_stim/white_mw048.bmp'><br><font class='baseline'><strong>Daniel</strong><p>Received: <strong>16</strong></font> &nbsp; &nbsp; &nbsp; &nbsp; &nbsp; &nbsp;<font class='negOutcome'>Shared back: <strong>0</strong></font></font><div class='respPicDiv'><img src='img/responseButtonOffersNo0_wht.png' class='respPic'></div></div>","null","8","Daniel","0","Kept","0.8,0.35","10","0.8","trustrating_stim/white_mw048.bmp","4","136","23"
"","","","decision","613107a0c7fc3a96a54c7693","bdp_trlrn","Tue Mar 14 2023 11:57:49 GMT-0500 (Central Daylight Time)","789517","Trustworthy,Untrustworthy","html-keyboard-response","207","451505","0.0-19.0-1.23","","1313","","<div class='trialDiv'><img src='trustrating_stim/white_00120_931230_fa_edt.bmp'><br><font class='baseline'><strong>Lucas</strong><p>Choose number of points to send.</font><div class='respPicDiv'><img src='img/responseButtonOffersNo0L.png' class='respPic'></div></div>","1","8","Lucas","9","Kept","0.35,0.8","11","0.35","trustrating_stim/white_00120_931230_fa_edt.bmp","7","141","24"
"","","","decisionFB","613107a0c7fc3a96a54c7693","bdp_trlrn","Tue Mar 14 2023 11:57:49 GMT-0500 (Central Daylight Time)","789517","Trustworthy,Untrustworthy","html-keyboard-response","208","451761","0.0-19.0-2.23","","null","","<div class='trialDiv'><img src='trustrating_stim/white_00120_931230_fa_edt.bmp'><br><font class='baseline'><strong>Lucas</strong><p>Choose number of points to send.</font><div class='respPicDiv'><img src='img/responseButtonOffersNo0L1.png' class='respPic'></div></div>","null","8","Lucas","9","Kept","0.35,0.8","11","0.35","trustrating_stim/white_00120_931230_fa_edt.bmp","7","140","24"
"","","","feedback","613107a0c7fc3a96a54c7693","bdp_trlrn","Tue Mar 14 2023 11:57:49 GMT-0500 (Central Daylight Time)","789517","Trustworthy,Untrustworthy","html-keyboard-response","209","452772","0.0-19.0-3.23","","null","","<div class='trialDiv'><img src='trustrating_stim/white_00120_931230_fa_edt.bmp'><br><font class='baseline'><strong>Lucas</strong><p>Received: <strong>4</strong></font> &nbsp; &nbsp; &nbsp; &nbsp; &nbsp; &nbsp;<font class='negOutcome'>Shared back: <strong>0</strong></font></font><div class='respPicDiv'><img src='img/responseButtonOffersNo0_wht.png' class='respPic'></div></div>","null","8","Lucas","9","Kept","0.35,0.8","11","0.35","trustrating_stim/white_00120_931230_fa_edt.bmp","7","140","24"
"","","","decision","613107a0c7fc3a96a54c7693","bdp_trlrn","Tue Mar 14 2023 11:57:49 GMT-0500 (Central Daylight Time)","789517","Trustworthy,Untrustworthy","html-keyboard-response","210","455174","0.0-19.0-1.24","","2402","","<div class='trialDiv'><img src='trustrating_stim/white_mw099.bmp'><br><font class='baseline'><strong>Tyler</strong><p>Choose number of points to send.</font><div class='respPicDiv'><img src='img/responseButtonOffersNo0L.png' class='respPic'></div></div>","2","9","Tyler","6","Shared","0.8,0.2","13","0.8","trustrating_stim/white_mw099.bmp","5.5","145","25"
"","","","decisionFB","613107a0c7fc3a96a54c7693","bdp_trlrn","Tue Mar 14 2023 11:57:49 GMT-0500 (Central Daylight Time)","789517","Trustworthy,Untrustworthy","html-keyboard-response","211","455431","0.0-19.0-2.24","","null","","<div class='trialDiv'><img src='trustrating_stim/white_mw099.bmp'><br><font class='baseline'><strong>Tyler</strong><p>Choose number of points to send.</font><div class='respPicDiv'><img src='img/responseButtonOffersNo0L2.png' class='respPic'></div></div>","null","9","Tyler","6","Shared","0.8,0.2","13","0.8","trustrating_stim/white_mw099.bmp","5.5","143","25"
"","","","feedback","613107a0c7fc3a96a54c7693","bdp_trlrn","Tue Mar 14 2023 11:57:49 GMT-0500 (Central Daylight Time)","789517","Trustworthy,Untrustworthy","html-keyboard-response","212","456442","0.0-19.0-3.24","","null","","<div class='trialDiv'><img src='trustrating_stim/white_mw099.bmp'><br><font class='baseline'><strong>Tyler</strong><p>Received: <strong>8</strong></font> &nbsp; &nbsp; &nbsp; &nbsp; &nbsp; &nbsp;<font class='posOutcome'>Shared back: <strong>4</strong></font></font><div class='respPicDiv'><img src='img/responseButtonOffersNo0_wht.png' class='respPic'></div></div>","null","9","Tyler","6","Shared","0.8,0.2","13","0.8","trustrating_stim/white_mw099.bmp","5.5","147","25"
"","","","decision","613107a0c7fc3a96a54c7693","bdp_trlrn","Tue Mar 14 2023 11:57:49 GMT-0500 (Central Daylight Time)","789517","Trustworthy,Untrustworthy","html-keyboard-response","213","457286","0.0-19.0-1.25","","843","","<div class='trialDiv'><img src='trustrating_stim/white_00120_931230_fa_edt.bmp'><br><font class='baseline'><strong>Lucas</strong><p>Choose number of points to send.</font><div class='respPicDiv'><img src='img/responseButtonOffersNo0L.png' class='respPic'></div></div>","1","9","Lucas","9","Kept","0.35,0.8","11","0.35","trustrating_stim/white_00120_931230_fa_edt.bmp","7","152","26"
"","","","decisionFB","613107a0c7fc3a96a54c7693","bdp_trlrn","Tue Mar 14 2023 11:57:49 GMT-0500 (Central Daylight Time)","789517","Trustworthy,Untrustworthy","html-keyboard-response","214","457544","0.0-19.0-2.25","","null","","<div class='trialDiv'><img src='trustrating_stim/white_00120_931230_fa_edt.bmp'><br><font class='baseline'><strong>Lucas</strong><p>Choose number of points to send.</font><div class='respPicDiv'><img src='img/responseButtonOffersNo0L1.png' class='respPic'></div></div>","null","9","Lucas","9","Kept","0.35,0.8","11","0.35","trustrating_stim/white_00120_931230_fa_edt.bmp","7","151","26"
"","","","feedback","613107a0c7fc3a96a54c7693","bdp_trlrn","Tue Mar 14 2023 11:57:49 GMT-0500 (Central Daylight Time)","789517","Trustworthy,Untrustworthy","html-keyboard-response","215","458550","0.0-19.0-3.25","","null","","<div class='trialDiv'><img src='trustrating_stim/white_00120_931230_fa_edt.bmp'><br><font class='baseline'><strong>Lucas</strong><p>Received: <strong>4</strong></font> &nbsp; &nbsp; &nbsp; &nbsp; &nbsp; &nbsp;<font class='negOutcome'>Shared back: <strong>0</strong></font></font><div class='respPicDiv'><img src='img/responseButtonOffersNo0_wht.png' class='respPic'></div></div>","null","9","Lucas","9","Kept","0.35,0.8","11","0.35","trustrating_stim/white_00120_931230_fa_edt.bmp","7","151","26"
"","","","decision","613107a0c7fc3a96a54c7693","bdp_trlrn","Tue Mar 14 2023 11:57:49 GMT-0500 (Central Daylight Time)","789517","Trustworthy,Untrustworthy","html-keyboard-response","216","459253","0.0-19.0-1.26","","702","","<div class='trialDiv'><img src='trustrating_stim/white_mw048.bmp'><br><font class='baseline'><strong>Daniel</strong><p>Choose number of points to send.</font><div class='respPicDiv'><img src='img/responseButtonOffersNo0L.png' class='respPic'></div></div>","4","9","Daniel","0","Kept","0.8,0.35","10","0.8","trustrating_stim/white_mw048.bmp","4","156","27"
"","","","decisionFB","613107a0c7fc3a96a54c7693","bdp_trlrn","Tue Mar 14 2023 11:57:49 GMT-0500 (Central Daylight Time)","789517","Trustworthy,Untrustworthy","html-keyboard-response","217","459515","0.0-19.0-2.26","","null","","<div class='trialDiv'><img src='trustrating_stim/white_mw048.bmp'><br><font class='baseline'><strong>Daniel</strong><p>Choose number of points to send.</font><div class='respPicDiv'><img src='img/responseButtonOffersNo0L4.png' class='respPic'></div></div>","null","9","Daniel","0","Kept","0.8,0.35","10","0.8","trustrating_stim/white_mw048.bmp","4","152","27"
"","","","feedback","613107a0c7fc3a96a54c7693","bdp_trlrn","Tue Mar 14 2023 11:57:49 GMT-0500 (Central Daylight Time)","789517","Trustworthy,Untrustworthy","html-keyboard-response","218","460522","0.0-19.0-3.26","","null","","<div class='trialDiv'><img src='trustrating_stim/white_mw048.bmp'><br><font class='baseline'><strong>Daniel</strong><p>Received: <strong>16</strong></font> &nbsp; &nbsp; &nbsp; &nbsp; &nbsp; &nbsp;<font class='negOutcome'>Shared back: <strong>0</strong></font></font><div class='respPicDiv'><img src='img/responseButtonOffersNo0_wht.png' class='respPic'></div></div>","null","9","Daniel","0","Kept","0.8,0.35","10","0.8","trustrating_stim/white_mw048.bmp","4","152","27"
"","","","decision","613107a0c7fc3a96a54c7693","bdp_trlrn","Tue Mar 14 2023 11:57:49 GMT-0500 (Central Daylight Time)","789517","Trustworthy,Untrustworthy","html-keyboard-response","219","461690","0.0-19.0-1.27","","1168","","<div class='trialDiv'><img src='trustrating_stim/white_00120_931230_fa_edt.bmp'><br><font class='baseline'><strong>Lucas</strong><p>Choose number of points to send.</font><div class='respPicDiv'><img src='img/responseButtonOffersNo0L.png' class='respPic'></div></div>","1","10","Lucas","9","Shared","0.35,0.8","11","0.35","trustrating_stim/white_00120_931230_fa_edt.bmp","7","157","28"
"","","","decisionFB","613107a0c7fc3a96a54c7693","bdp_trlrn","Tue Mar 14 2023 11:57:49 GMT-0500 (Central Daylight Time)","789517","Trustworthy,Untrustworthy","html-keyboard-response","220","461949","0.0-19.0-2.27","","null","","<div class='trialDiv'><img src='trustrating_stim/white_00120_931230_fa_edt.bmp'><br><font class='baseline'><strong>Lucas</strong><p>Choose number of points to send.</font><div class='respPicDiv'><img src='img/responseButtonOffersNo0L1.png' class='respPic'></div></div>","null","10","Lucas","9","Shared","0.35,0.8","11","0.35","trustrating_stim/white_00120_931230_fa_edt.bmp","7","156","28"
"","","","feedback","613107a0c7fc3a96a54c7693","bdp_trlrn","Tue Mar 14 2023 11:57:49 GMT-0500 (Central Daylight Time)","789517","Trustworthy,Untrustworthy","html-keyboard-response","221","462957","0.0-19.0-3.27","","null","","<div class='trialDiv'><img src='trustrating_stim/white_00120_931230_fa_edt.bmp'><br><font class='baseline'><strong>Lucas</strong><p>Received: <strong>4</strong></font> &nbsp; &nbsp; &nbsp; &nbsp; &nbsp; &nbsp;<font class='posOutcome'>Shared back: <strong>2</strong></font></font><div class='respPicDiv'><img src='img/responseButtonOffersNo0_wht.png' class='respPic'></div></div>","null","10","Lucas","9","Shared","0.35,0.8","11","0.35","trustrating_stim/white_00120_931230_fa_edt.bmp","7","158","28"
