"trial_type","trial_index","time_elapsed","internal_node_id","subject_id","task","startTime","totalTime","labels","view_history","rt","event","trial","time","trialtype","success","stimulus","key_press","aground","name","faceID","outcome","agenttype","agentswpt","agentcurrpshare","face","avgRating","point_total","round"
"pavlovia","0","2","0.0-0.0","631381096e95278a3f97fed4","bdp_trlrn","Wed Mar 15 2023 13:40:42 GMT-0500 (Central Daylight Time)","927754","Untrustworthy,Trustworthy","","","","","","","","","","","","","","","","","","","",""
"instructions","1","8593","0.0-1.0","631381096e95278a3f97fed4","bdp_trlrn","Wed Mar 15 2023 13:40:42 GMT-0500 (Central Daylight Time)","927754","Untrustworthy,Trustworthy","[{""page_index"":0,""viewing_time"":8591}]","8591","","","","","","","","","","","","","","","","","",""
"","","","","631381096e95278a3f97fed4","bdp_trlrn","Wed Mar 15 2023 13:40:42 GMT-0500 (Central Daylight Time)","927754","Untrustworthy,Trustworthy","","","fullscreenenter","2","16558","fullscreenenter","","","","","","","","","","","","","",""
"fullscreen","2","17548","0.0-2.0","631381096e95278a3f97fed4","bdp_trlrn","Wed Mar 15 2023 13:40:42 GMT-0500 (Central Daylight Time)","927754","Untrustworthy,Trustworthy","","","","","","","true","","","","","","","","","","","","",""
"instructions","3","54912","0.0-4.0","631381096e95278a3f97fed4","bdp_trlrn","Wed Mar 15 2023 13:40:42 GMT-0500 (Central Daylight Time)","927754","Untrustworthy,Trustworthy","[{""page_index"":0,""viewing_time"":23584},{""page_index"":1,""viewing_time"":13779}]","37363","","","","","","","","","","","","","","","","","",""
"instructions","4","58722","0.0-5.0","631381096e95278a3f97fed4","bdp_trlrn","Wed Mar 15 2023 13:40:42 GMT-0500 (Central Daylight Time)","927754","Untrustworthy,Trustworthy","[{""page_index"":0,""viewing_time"":3810}]","3810","","","","","","","","","","","","","","","","","",""
"image-keyboard-response","5","61630","0.0-6.0-1.0","631381096e95278a3f97fed4","bdp_trlrn","Wed Mar 15 2023 13:40:42 GMT-0500 (Central Daylight Time)","927754","Untrustworthy,Trustworthy","","2806","","","","rating","","trustrating_stim/white_00109_931230_fa_edt.bmp","5","","","","","","","","","","",""
"image-keyboard-response","6","61832","0.0-6.0-2.0","631381096e95278a3f97fed4","bdp_trlrn","Wed Mar 15 2023 13:40:42 GMT-0500 (Central Daylight Time)","927754","Untrustworthy,Trustworthy","","null","","","","ratingFB","","trustrating_stim/white_00109_931230_fa_edt.bmp","null","","","","","","","","","","",""
"image-keyboard-response","7","65227","0.0-6.0-1.1","631381096e95278a3f97fed4","bdp_trlrn","Wed Mar 15 2023 13:40:42 GMT-0500 (Central Daylight Time)","927754","Untrustworthy,Trustworthy","","3292","","","","rating","","trustrating_stim/white_00223_940128_fb_edt.bmp","5","","","","","","","","","","",""
"image-keyboard-response","8","65428","0.0-6.0-2.1","631381096e95278a3f97fed4","bdp_trlrn","Wed Mar 15 2023 13:40:42 GMT-0500 (Central Daylight Time)","927754","Untrustworthy,Trustworthy","","null","","","","ratingFB","","trustrating_stim/white_00223_940128_fb_edt.bmp","null","","","","","","","","","","",""
"image-keyboard-response","9","68340","0.0-6.0-1.2","631381096e95278a3f97fed4","bdp_trlrn","Wed Mar 15 2023 13:40:42 GMT-0500 (Central Daylight Time)","927754","Untrustworthy,Trustworthy","","2810","","","","rating","","trustrating_stim/white_mw053.bmp","4","","","","","","","","","","",""
"image-keyboard-response","10","68542","0.0-6.0-2.2","631381096e95278a3f97fed4","bdp_trlrn","Wed Mar 15 2023 13:40:42 GMT-0500 (Central Daylight Time)","927754","Untrustworthy,Trustworthy","","null","","","","ratingFB","","trustrating_stim/white_mw053.bmp","null","","","","","","","","","","",""
"image-keyboard-response","11","71649","0.0-6.0-1.3","631381096e95278a3f97fed4","bdp_trlrn","Wed Mar 15 2023 13:40:42 GMT-0500 (Central Daylight Time)","927754","Untrustworthy,Trustworthy","","3006","","","","rating","","trustrating_stim/white_00129_931230_fb_edt.bmp","6","","","","","","","","","","",""
"image-keyboard-response","12","71851","0.0-6.0-2.3","631381096e95278a3f97fed4","bdp_trlrn","Wed Mar 15 2023 13:40:42 GMT-0500 (Central Daylight Time)","927754","Untrustworthy,Trustworthy","","null","","","","ratingFB","","trustrating_stim/white_00129_931230_fb_edt.bmp","null","","","","","","","","","","",""
"image-keyboard-response","13","75880","0.0-6.0-1.4","631381096e95278a3f97fed4","bdp_trlrn","Wed Mar 15 2023 13:40:42 GMT-0500 (Central Daylight Time)","927754","Untrustworthy,Trustworthy","","3927","","","","rating","","trustrating_stim/white_00757_941201_fa_edt.bmp","5","","","","","","","","","","",""
"image-keyboard-response","14","76082","0.0-6.0-2.4","631381096e95278a3f97fed4","bdp_trlrn","Wed Mar 15 2023 13:40:42 GMT-0500 (Central Daylight Time)","927754","Untrustworthy,Trustworthy","","null","","","","ratingFB","","trustrating_stim/white_00757_941201_fa_edt.bmp","null","","","","","","","","","","",""
"image-keyboard-response","15","78336","0.0-6.0-1.5","631381096e95278a3f97fed4","bdp_trlrn","Wed Mar 15 2023 13:40:42 GMT-0500 (Central Daylight Time)","927754","Untrustworthy,Trustworthy","","2154","","","","rating","","trustrating_stim/white_mw049.bmp","4","","","","","","","","","","",""
"image-keyboard-response","16","78538","0.0-6.0-2.5","631381096e95278a3f97fed4","bdp_trlrn","Wed Mar 15 2023 13:40:42 GMT-0500 (Central Daylight Time)","927754","Untrustworthy,Trustworthy","","null","","","","ratingFB","","trustrating_stim/white_mw049.bmp","null","","","","","","","","","","",""
"image-keyboard-response","17","80427","0.0-6.0-1.6","631381096e95278a3f97fed4","bdp_trlrn","Wed Mar 15 2023 13:40:42 GMT-0500 (Central Daylight Time)","927754","Untrustworthy,Trustworthy","","1788","","","","rating","","trustrating_stim/white_00120_931230_fa_edt.bmp","5","","","","","","","","","","",""
"image-keyboard-response","18","80629","0.0-6.0-2.6","631381096e95278a3f97fed4","bdp_trlrn","Wed Mar 15 2023 13:40:42 GMT-0500 (Central Daylight Time)","927754","Untrustworthy,Trustworthy","","null","","","","ratingFB","","trustrating_stim/white_00120_931230_fa_edt.bmp","null","","","","","","","","","","",""
"image-keyboard-response","19","84112","0.0-6.0-1.7","631381096e95278a3f97fed4","bdp_trlrn","Wed Mar 15 2023 13:40:42 GMT-0500 (Central Daylight Time)","927754","Untrustworthy,Trustworthy","","3381","","","","rating","","trustrating_stim/white_00659_941121_fa_edt.bmp","5","","","","","","","","","","",""
"image-keyboard-response","20","84314","0.0-6.0-2.7","631381096e95278a3f97fed4","bdp_trlrn","Wed Mar 15 2023 13:40:42 GMT-0500 (Central Daylight Time)","927754","Untrustworthy,Trustworthy","","null","","","","ratingFB","","trustrating_stim/white_00659_941121_fa_edt.bmp","null","","","","","","","","","","",""
"image-keyboard-response","21","87083","0.0-6.0-1.8","631381096e95278a3f97fed4","bdp_trlrn","Wed Mar 15 2023 13:40:42 GMT-0500 (Central Daylight Time)","927754","Untrustworthy,Trustworthy","","2667","","","","rating","","trustrating_stim/white_mw060.bmp","3","","","","","","","","","","",""
"image-keyboard-response","22","87286","0.0-6.0-2.8","631381096e95278a3f97fed4","bdp_trlrn","Wed Mar 15 2023 13:40:42 GMT-0500 (Central Daylight Time)","927754","Untrustworthy,Trustworthy","","null","","","","ratingFB","","trustrating_stim/white_mw060.bmp","null","","","","","","","","","","",""
"image-keyboard-response","23","89047","0.0-6.0-1.9","631381096e95278a3f97fed4","bdp_trlrn","Wed Mar 15 2023 13:40:42 GMT-0500 (Central Daylight Time)","927754","Untrustworthy,Trustworthy","","1659","","","","rating","","trustrating_stim/white_mw033.bmp","3","","","","","","","","","","",""
"image-keyboard-response","24","89248","0.0-6.0-2.9","631381096e95278a3f97fed4","bdp_trlrn","Wed Mar 15 2023 13:40:42 GMT-0500 (Central Daylight Time)","927754","Untrustworthy,Trustworthy","","null","","","","ratingFB","","trustrating_stim/white_mw033.bmp","null","","","","","","","","","","",""
"image-keyboard-response","25","91407","0.0-6.0-1.10","631381096e95278a3f97fed4","bdp_trlrn","Wed Mar 15 2023 13:40:42 GMT-0500 (Central Daylight Time)","927754","Untrustworthy,Trustworthy","","2058","","","","rating","","trustrating_stim/white_mw063.bmp","3","","","","","","","","","","",""
"image-keyboard-response","26","91608","0.0-6.0-2.10","631381096e95278a3f97fed4","bdp_trlrn","Wed Mar 15 2023 13:40:42 GMT-0500 (Central Daylight Time)","927754","Untrustworthy,Trustworthy","","null","","","","ratingFB","","trustrating_stim/white_mw063.bmp","null","","","","","","","","","","",""
"image-keyboard-response","27","94246","0.0-6.0-1.11","631381096e95278a3f97fed4","bdp_trlrn","Wed Mar 15 2023 13:40:42 GMT-0500 (Central Daylight Time)","927754","Untrustworthy,Trustworthy","","2536","","","","rating","","trustrating_stim/white_00761_941201_fb_edt.bmp","6","","","","","","","","","","",""
"image-keyboard-response","28","94447","0.0-6.0-2.11","631381096e95278a3f97fed4","bdp_trlrn","Wed Mar 15 2023 13:40:42 GMT-0500 (Central Daylight Time)","927754","Untrustworthy,Trustworthy","","null","","","","ratingFB","","trustrating_stim/white_00761_941201_fb_edt.bmp","null","","","","","","","","","","",""
"image-keyboard-response","29","96633","0.0-6.0-1.12","631381096e95278a3f97fed4","bdp_trlrn","Wed Mar 15 2023 13:40:42 GMT-0500 (Central Daylight Time)","927754","Untrustworthy,Trustworthy","","2084","","","","rating","","trustrating_stim/white_mw048.bmp","3","","","","","","","","","","",""
"image-keyboard-response","30","96834","0.0-6.0-2.12","631381096e95278a3f97fed4","bdp_trlrn","Wed Mar 15 2023 13:40:42 GMT-0500 (Central Daylight Time)","927754","Untrustworthy,Trustworthy","","null","","","","ratingFB","","trustrating_stim/white_mw048.bmp","null","","","","","","","","","","",""
"image-keyboard-response","31","99478","0.0-6.0-1.13","631381096e95278a3f97fed4","bdp_trlrn","Wed Mar 15 2023 13:40:42 GMT-0500 (Central Daylight Time)","927754","Untrustworthy,Trustworthy","","2543","","","","rating","","trustrating_stim/white_mw035.bmp","4","","","","","","","","","","",""
"image-keyboard-response","32","99679","0.0-6.0-2.13","631381096e95278a3f97fed4","bdp_trlrn","Wed Mar 15 2023 13:40:42 GMT-0500 (Central Daylight Time)","927754","Untrustworthy,Trustworthy","","null","","","","ratingFB","","trustrating_stim/white_mw035.bmp","null","","","","","","","","","","",""
"image-keyboard-response","33","102583","0.0-6.0-1.14","631381096e95278a3f97fed4","bdp_trlrn","Wed Mar 15 2023 13:40:42 GMT-0500 (Central Daylight Time)","927754","Untrustworthy,Trustworthy","","2801","","","","rating","","trustrating_stim/white_mw099.bmp","4","","","","","","","","","","",""
"image-keyboard-response","34","102784","0.0-6.0-2.14","631381096e95278a3f97fed4","bdp_trlrn","Wed Mar 15 2023 13:40:42 GMT-0500 (Central Daylight Time)","927754","Untrustworthy,Trustworthy","","null","","","","ratingFB","","trustrating_stim/white_mw099.bmp","null","","","","","","","","","","",""
"image-keyboard-response","35","104956","0.0-6.0-1.15","631381096e95278a3f97fed4","bdp_trlrn","Wed Mar 15 2023 13:40:42 GMT-0500 (Central Daylight Time)","927754","Untrustworthy,Trustworthy","","2070","","","","rating","","trustrating_stim/white_00519_940519_fb_edt.bmp","5","","","","","","","","","","",""
"image-keyboard-response","36","105158","0.0-6.0-2.15","631381096e95278a3f97fed4","bdp_trlrn","Wed Mar 15 2023 13:40:42 GMT-0500 (Central Daylight Time)","927754","Untrustworthy,Trustworthy","","null","","","","ratingFB","","trustrating_stim/white_00519_940519_fb_edt.bmp","null","","","","","","","","","","",""
"image-keyboard-response","37","107541","0.0-6.0-1.16","631381096e95278a3f97fed4","bdp_trlrn","Wed Mar 15 2023 13:40:42 GMT-0500 (Central Daylight Time)","927754","Untrustworthy,Trustworthy","","2282","","","","rating","","trustrating_stim/white_00299_940422_fa_edt.bmp","5","","","","","","","","","","",""
"image-keyboard-response","38","107742","0.0-6.0-2.16","631381096e95278a3f97fed4","bdp_trlrn","Wed Mar 15 2023 13:40:42 GMT-0500 (Central Daylight Time)","927754","Untrustworthy,Trustworthy","","null","","","","ratingFB","","trustrating_stim/white_00299_940422_fa_edt.bmp","null","","","","","","","","","","",""
"image-keyboard-response","39","109277","0.0-6.0-1.17","631381096e95278a3f97fed4","bdp_trlrn","Wed Mar 15 2023 13:40:42 GMT-0500 (Central Daylight Time)","927754","Untrustworthy,Trustworthy","","1433","","","","rating","","trustrating_stim/white_mw084.bmp","4","","","","","","","","","","",""
"image-keyboard-response","40","109479","0.0-6.0-2.17","631381096e95278a3f97fed4","bdp_trlrn","Wed Mar 15 2023 13:40:42 GMT-0500 (Central Daylight Time)","927754","Untrustworthy,Trustworthy","","null","","","","ratingFB","","trustrating_stim/white_mw084.bmp","null","","","","","","","","","","",""
"image-keyboard-response","41","111396","0.0-6.0-1.18","631381096e95278a3f97fed4","bdp_trlrn","Wed Mar 15 2023 13:40:42 GMT-0500 (Central Daylight Time)","927754","Untrustworthy,Trustworthy","","1816","","","","rating","","trustrating_stim/white_mw046.bmp","4","","","","","","","","","","",""
"image-keyboard-response","42","111598","0.0-6.0-2.18","631381096e95278a3f97fed4","bdp_trlrn","Wed Mar 15 2023 13:40:42 GMT-0500 (Central Daylight Time)","927754","Untrustworthy,Trustworthy","","null","","","","ratingFB","","trustrating_stim/white_mw046.bmp","null","","","","","","","","","","",""
"image-keyboard-response","43","113403","0.0-6.0-1.19","631381096e95278a3f97fed4","bdp_trlrn","Wed Mar 15 2023 13:40:42 GMT-0500 (Central Daylight Time)","927754","Untrustworthy,Trustworthy","","1702","","","","rating","","trustrating_stim/white_mw089.bmp","4","","","","","","","","","","",""
"image-keyboard-response","44","113605","0.0-6.0-2.19","631381096e95278a3f97fed4","bdp_trlrn","Wed Mar 15 2023 13:40:42 GMT-0500 (Central Daylight Time)","927754","Untrustworthy,Trustworthy","","null","","","","ratingFB","","trustrating_stim/white_mw089.bmp","null","","","","","","","","","","",""
"image-keyboard-response","45","115075","0.0-6.0-1.20","631381096e95278a3f97fed4","bdp_trlrn","Wed Mar 15 2023 13:40:42 GMT-0500 (Central Daylight Time)","927754","Untrustworthy,Trustworthy","","1368","","","","rating","","trustrating_stim/white_00602_940928_fb_edt.bmp","5","","","","","","","","","","",""
"image-keyboard-response","46","115277","0.0-6.0-2.20","631381096e95278a3f97fed4","bdp_trlrn","Wed Mar 15 2023 13:40:42 GMT-0500 (Central Daylight Time)","927754","Untrustworthy,Trustworthy","","null","","","","ratingFB","","trustrating_stim/white_00602_940928_fb_edt.bmp","null","","","","","","","","","","",""
"image-keyboard-response","47","117313","0.0-6.0-1.21","631381096e95278a3f97fed4","bdp_trlrn","Wed Mar 15 2023 13:40:42 GMT-0500 (Central Daylight Time)","927754","Untrustworthy,Trustworthy","","1935","","","","rating","","trustrating_stim/white_mw071.bmp","4","","","","","","","","","","",""
"image-keyboard-response","48","117515","0.0-6.0-2.21","631381096e95278a3f97fed4","bdp_trlrn","Wed Mar 15 2023 13:40:42 GMT-0500 (Central Daylight Time)","927754","Untrustworthy,Trustworthy","","null","","","","ratingFB","","trustrating_stim/white_mw071.bmp","null","","","","","","","","","","",""
"image-keyboard-response","49","119213","0.0-6.0-1.22","631381096e95278a3f97fed4","bdp_trlrn","Wed Mar 15 2023 13:40:42 GMT-0500 (Central Daylight Time)","927754","Untrustworthy,Trustworthy","","1597","","","","rating","","trustrating_stim/white_00807_941205_fb_edt.bmp","5","","","","","","","","","","",""
"image-keyboard-response","50","119415","0.0-6.0-2.22","631381096e95278a3f97fed4","bdp_trlrn","Wed Mar 15 2023 13:40:42 GMT-0500 (Central Daylight Time)","927754","Untrustworthy,Trustworthy","","null","","","","ratingFB","","trustrating_stim/white_00807_941205_fb_edt.bmp","null","","","","","","","","","","",""
"image-keyboard-response","51","120995","0.0-6.0-1.23","631381096e95278a3f97fed4","bdp_trlrn","Wed Mar 15 2023 13:40:42 GMT-0500 (Central Daylight Time)","927754","Untrustworthy,Trustworthy","","1479","","","","rating","","trustrating_stim/white_mw066.bmp","4","","","","","","","","","","",""
"image-keyboard-response","52","121197","0.0-6.0-2.23","631381096e95278a3f97fed4","bdp_trlrn","Wed Mar 15 2023 13:40:42 GMT-0500 (Central Daylight Time)","927754","Untrustworthy,Trustworthy","","null","","","","ratingFB","","trustrating_stim/white_mw066.bmp","null","","","","","","","","","","",""
"image-keyboard-response","53","123552","0.0-6.0-1.24","631381096e95278a3f97fed4","bdp_trlrn","Wed Mar 15 2023 13:40:42 GMT-0500 (Central Daylight Time)","927754","Untrustworthy,Trustworthy","","2252","","","","rating","","trustrating_stim/white_00785_941205_fb_edt.bmp","5","","","","","","","","","","",""
"image-keyboard-response","54","123752","0.0-6.0-2.24","631381096e95278a3f97fed4","bdp_trlrn","Wed Mar 15 2023 13:40:42 GMT-0500 (Central Daylight Time)","927754","Untrustworthy,Trustworthy","","null","","","","ratingFB","","trustrating_stim/white_00785_941205_fb_edt.bmp","null","","","","","","","","","","",""
"image-keyboard-response","55","126250","0.0-6.0-1.25","631381096e95278a3f97fed4","bdp_trlrn","Wed Mar 15 2023 13:40:42 GMT-0500 (Central Daylight Time)","927754","Untrustworthy,Trustworthy","","2396","","","","rating","","trustrating_stim/white_00340_940422_fa_edt.bmp","5","","","","","","","","","","",""
"image-keyboard-response","56","126451","0.0-6.0-2.25","631381096e95278a3f97fed4","bdp_trlrn","Wed Mar 15 2023 13:40:42 GMT-0500 (Central Daylight Time)","927754","Untrustworthy,Trustworthy","","null","","","","ratingFB","","trustrating_stim/white_00340_940422_fa_edt.bmp","null","","","","","","","","","","",""
"image-keyboard-response","57","129049","0.0-6.0-1.26","631381096e95278a3f97fed4","bdp_trlrn","Wed Mar 15 2023 13:40:42 GMT-0500 (Central Daylight Time)","927754","Untrustworthy,Trustworthy","","2497","","","","rating","","trustrating_stim/white_00898_960530_fa_edt.bmp","6","","","","","","","","","","",""
"image-keyboard-response","58","129251","0.0-6.0-2.26","631381096e95278a3f97fed4","bdp_trlrn","Wed Mar 15 2023 13:40:42 GMT-0500 (Central Daylight Time)","927754","Untrustworthy,Trustworthy","","null","","","","ratingFB","","trustrating_stim/white_00898_960530_fa_edt.bmp","null","","","","","","","","","","",""
"image-keyboard-response","59","131456","0.0-6.0-1.27","631381096e95278a3f97fed4","bdp_trlrn","Wed Mar 15 2023 13:40:42 GMT-0500 (Central Daylight Time)","927754","Untrustworthy,Trustworthy","","2104","","","","rating","","trustrating_stim/white_mw097.bmp","3","","","","","","","","","","",""
"image-keyboard-response","60","131657","0.0-6.0-2.27","631381096e95278a3f97fed4","bdp_trlrn","Wed Mar 15 2023 13:40:42 GMT-0500 (Central Daylight Time)","927754","Untrustworthy,Trustworthy","","null","","","","ratingFB","","trustrating_stim/white_mw097.bmp","null","","","","","","","","","","",""
"image-keyboard-response","61","133147","0.0-6.0-1.28","631381096e95278a3f97fed4","bdp_trlrn","Wed Mar 15 2023 13:40:42 GMT-0500 (Central Daylight Time)","927754","Untrustworthy,Trustworthy","","1389","","","","rating","","trustrating_stim/white_mw056.bmp","4","","","","","","","","","","",""
"image-keyboard-response","62","133349","0.0-6.0-2.28","631381096e95278a3f97fed4","bdp_trlrn","Wed Mar 15 2023 13:40:42 GMT-0500 (Central Daylight Time)","927754","Untrustworthy,Trustworthy","","null","","","","ratingFB","","trustrating_stim/white_mw056.bmp","null","","","","","","","","","","",""
"image-keyboard-response","63","136936","0.0-6.0-1.29","631381096e95278a3f97fed4","bdp_trlrn","Wed Mar 15 2023 13:40:42 GMT-0500 (Central Daylight Time)","927754","Untrustworthy,Trustworthy","","3485","","","","rating","","trustrating_stim/white_00577_940928_fa_edt.bmp","5","","","","","","","","","","",""
"image-keyboard-response","64","137137","0.0-6.0-2.29","631381096e95278a3f97fed4","bdp_trlrn","Wed Mar 15 2023 13:40:42 GMT-0500 (Central Daylight Time)","927754","Untrustworthy,Trustworthy","","null","","","","ratingFB","","trustrating_stim/white_00577_940928_fa_edt.bmp","null","","","","","","","","","","",""
"image-keyboard-response","65","141699","0.0-6.0-1.30","631381096e95278a3f97fed4","bdp_trlrn","Wed Mar 15 2023 13:40:42 GMT-0500 (Central Daylight Time)","927754","Untrustworthy,Trustworthy","","4460","","","","rating","","trustrating_stim/white_00519_940519_fb_edt.bmp","5","","","","","","","","","","",""
"image-keyboard-response","66","141901","0.0-6.0-2.30","631381096e95278a3f97fed4","bdp_trlrn","Wed Mar 15 2023 13:40:42 GMT-0500 (Central Daylight Time)","927754","Untrustworthy,Trustworthy","","null","","","","ratingFB","","trustrating_stim/white_00519_940519_fb_edt.bmp","null","","","","","","","","","","",""
"image-keyboard-response","67","145150","0.0-6.0-1.31","631381096e95278a3f97fed4","bdp_trlrn","Wed Mar 15 2023 13:40:42 GMT-0500 (Central Daylight Time)","927754","Untrustworthy,Trustworthy","","3148","","","","rating","","trustrating_stim/white_00761_941201_fb_edt.bmp","5","","","","","","","","","","",""
"image-keyboard-response","68","145352","0.0-6.0-2.31","631381096e95278a3f97fed4","bdp_trlrn","Wed Mar 15 2023 13:40:42 GMT-0500 (Central Daylight Time)","927754","Untrustworthy,Trustworthy","","null","","","","ratingFB","","trustrating_stim/white_00761_941201_fb_edt.bmp","null","","","","","","","","","","",""
"image-keyboard-response","69","147525","0.0-6.0-1.32","631381096e95278a3f97fed4","bdp_trlrn","Wed Mar 15 2023 13:40:42 GMT-0500 (Central Daylight Time)","927754","Untrustworthy,Trustworthy","","2072","","","","rating","","trustrating_stim/white_mw048.bmp","3","","","","","","","","","","",""
"image-keyboard-response","70","147726","0.0-6.0-2.32","631381096e95278a3f97fed4","bdp_trlrn","Wed Mar 15 2023 13:40:42 GMT-0500 (Central Daylight Time)","927754","Untrustworthy,Trustworthy","","null","","","","ratingFB","","trustrating_stim/white_mw048.bmp","null","","","","","","","","","","",""
"image-keyboard-response","71","149928","0.0-6.0-1.33","631381096e95278a3f97fed4","bdp_trlrn","Wed Mar 15 2023 13:40:42 GMT-0500 (Central Daylight Time)","927754","Untrustworthy,Trustworthy","","2099","","","","rating","","trustrating_stim/white_00340_940422_fa_edt.bmp","4","","","","","","","","","","",""
"image-keyboard-response","72","150129","0.0-6.0-2.33","631381096e95278a3f97fed4","bdp_trlrn","Wed Mar 15 2023 13:40:42 GMT-0500 (Central Daylight Time)","927754","Untrustworthy,Trustworthy","","null","","","","ratingFB","","trustrating_stim/white_00340_940422_fa_edt.bmp","null","","","","","","","","","","",""
"image-keyboard-response","73","151573","0.0-6.0-1.34","631381096e95278a3f97fed4","bdp_trlrn","Wed Mar 15 2023 13:40:42 GMT-0500 (Central Daylight Time)","927754","Untrustworthy,Trustworthy","","1342","","","","rating","","trustrating_stim/white_mw097.bmp","3","","","","","","","","","","",""
"image-keyboard-response","74","151776","0.0-6.0-2.34","631381096e95278a3f97fed4","bdp_trlrn","Wed Mar 15 2023 13:40:42 GMT-0500 (Central Daylight Time)","927754","Untrustworthy,Trustworthy","","null","","","","ratingFB","","trustrating_stim/white_mw097.bmp","null","","","","","","","","","","",""
"image-keyboard-response","75","152977","0.0-6.0-1.35","631381096e95278a3f97fed4","bdp_trlrn","Wed Mar 15 2023 13:40:42 GMT-0500 (Central Daylight Time)","927754","Untrustworthy,Trustworthy","","1100","","","","rating","","trustrating_stim/white_mw033.bmp","3","","","","","","","","","","",""
"image-keyboard-response","76","153178","0.0-6.0-2.35","631381096e95278a3f97fed4","bdp_trlrn","Wed Mar 15 2023 13:40:42 GMT-0500 (Central Daylight Time)","927754","Untrustworthy,Trustworthy","","null","","","","ratingFB","","trustrating_stim/white_mw033.bmp","null","","","","","","","","","","",""
"image-keyboard-response","77","155207","0.0-6.0-1.36","631381096e95278a3f97fed4","bdp_trlrn","Wed Mar 15 2023 13:40:42 GMT-0500 (Central Daylight Time)","927754","Untrustworthy,Trustworthy","","1927","","","","rating","","trustrating_stim/white_mw084.bmp","3","","","","","","","","","","",""
"image-keyboard-response","78","155408","0.0-6.0-2.36","631381096e95278a3f97fed4","bdp_trlrn","Wed Mar 15 2023 13:40:42 GMT-0500 (Central Daylight Time)","927754","Untrustworthy,Trustworthy","","null","","","","ratingFB","","trustrating_stim/white_mw084.bmp","null","","","","","","","","","","",""
"image-keyboard-response","79","157865","0.0-6.0-1.37","631381096e95278a3f97fed4","bdp_trlrn","Wed Mar 15 2023 13:40:42 GMT-0500 (Central Daylight Time)","927754","Untrustworthy,Trustworthy","","2354","","","","rating","","trustrating_stim/white_00757_941201_fa_edt.bmp","5","","","","","","","","","","",""
"image-keyboard-response","80","158066","0.0-6.0-2.37","631381096e95278a3f97fed4","bdp_trlrn","Wed Mar 15 2023 13:40:42 GMT-0500 (Central Daylight Time)","927754","Untrustworthy,Trustworthy","","null","","","","ratingFB","","trustrating_stim/white_00757_941201_fa_edt.bmp","null","","","","","","","","","","",""
"image-keyboard-response","81","161055","0.0-6.0-1.38","631381096e95278a3f97fed4","bdp_trlrn","Wed Mar 15 2023 13:40:42 GMT-0500 (Central Daylight Time)","927754","Untrustworthy,Trustworthy","","2888","","","","rating","","trustrating_stim/white_mw046.bmp","4","","","","","","","","","","",""
"image-keyboard-response","82","161257","0.0-6.0-2.38","631381096e95278a3f97fed4","bdp_trlrn","Wed Mar 15 2023 13:40:42 GMT-0500 (Central Daylight Time)","927754","Untrustworthy,Trustworthy","","null","","","","ratingFB","","trustrating_stim/white_mw046.bmp","null","","","","","","","","","","",""
"image-keyboard-response","83","164533","0.0-6.0-1.39","631381096e95278a3f97fed4","bdp_trlrn","Wed Mar 15 2023 13:40:42 GMT-0500 (Central Daylight Time)","927754","Untrustworthy,Trustworthy","","3175","","","","rating","","trustrating_stim/white_mw089.bmp","4","","","","","","","","","","",""
"image-keyboard-response","84","164735","0.0-6.0-2.39","631381096e95278a3f97fed4","bdp_trlrn","Wed Mar 15 2023 13:40:42 GMT-0500 (Central Daylight Time)","927754","Untrustworthy,Trustworthy","","null","","","","ratingFB","","trustrating_stim/white_mw089.bmp","null","","","","","","","","","","",""
"image-keyboard-response","85","166033","0.0-6.0-1.40","631381096e95278a3f97fed4","bdp_trlrn","Wed Mar 15 2023 13:40:42 GMT-0500 (Central Daylight Time)","927754","Untrustworthy,Trustworthy","","1196","","","","rating","","trustrating_stim/white_00577_940928_fa_edt.bmp","4","","","","","","","","","","",""
"image-keyboard-response","86","166234","0.0-6.0-2.40","631381096e95278a3f97fed4","bdp_trlrn","Wed Mar 15 2023 13:40:42 GMT-0500 (Central Daylight Time)","927754","Untrustworthy,Trustworthy","","null","","","","ratingFB","","trustrating_stim/white_00577_940928_fa_edt.bmp","null","","","","","","","","","","",""
"image-keyboard-response","87","167415","0.0-6.0-1.41","631381096e95278a3f97fed4","bdp_trlrn","Wed Mar 15 2023 13:40:42 GMT-0500 (Central Daylight Time)","927754","Untrustworthy,Trustworthy","","1079","","","","rating","","trustrating_stim/white_00223_940128_fb_edt.bmp","5","","","","","","","","","","",""
"image-keyboard-response","88","167616","0.0-6.0-2.41","631381096e95278a3f97fed4","bdp_trlrn","Wed Mar 15 2023 13:40:42 GMT-0500 (Central Daylight Time)","927754","Untrustworthy,Trustworthy","","null","","","","ratingFB","","trustrating_stim/white_00223_940128_fb_edt.bmp","null","","","","","","","","","","",""
"image-keyboard-response","89","168905","0.0-6.0-1.42","631381096e95278a3f97fed4","bdp_trlrn","Wed Mar 15 2023 13:40:42 GMT-0500 (Central Daylight Time)","927754","Untrustworthy,Trustworthy","","1187","","","","rating","","trustrating_stim/white_mw099.bmp","4","","","","","","","","","","",""
"image-keyboard-response","90","169106","0.0-6.0-2.42","631381096e95278a3f97fed4","bdp_trlrn","Wed Mar 15 2023 13:40:42 GMT-0500 (Central Daylight Time)","927754","Untrustworthy,Trustworthy","","null","","","","ratingFB","","trustrating_stim/white_mw099.bmp","null","","","","","","","","","","",""
"image-keyboard-response","91","170436","0.0-6.0-1.43","631381096e95278a3f97fed4","bdp_trlrn","Wed Mar 15 2023 13:40:42 GMT-0500 (Central Daylight Time)","927754","Untrustworthy,Trustworthy","","1227","","","","rating","","trustrating_stim/white_00129_931230_fb_edt.bmp","4","","","","","","","","","","",""
"image-keyboard-response","92","170637","0.0-6.0-2.43","631381096e95278a3f97fed4","bdp_trlrn","Wed Mar 15 2023 13:40:42 GMT-0500 (Central Daylight Time)","927754","Untrustworthy,Trustworthy","","null","","","","ratingFB","","trustrating_stim/white_00129_931230_fb_edt.bmp","null","","","","","","","","","","",""
"image-keyboard-response","93","172144","0.0-6.0-1.44","631381096e95278a3f97fed4","bdp_trlrn","Wed Mar 15 2023 13:40:42 GMT-0500 (Central Daylight Time)","927754","Untrustworthy,Trustworthy","","1405","","","","rating","","trustrating_stim/white_mw049.bmp","4","","","","","","","","","","",""
"image-keyboard-response","94","172346","0.0-6.0-2.44","631381096e95278a3f97fed4","bdp_trlrn","Wed Mar 15 2023 13:40:42 GMT-0500 (Central Daylight Time)","927754","Untrustworthy,Trustworthy","","null","","","","ratingFB","","trustrating_stim/white_mw049.bmp","null","","","","","","","","","","",""
"image-keyboard-response","95","173502","0.0-6.0-1.45","631381096e95278a3f97fed4","bdp_trlrn","Wed Mar 15 2023 13:40:42 GMT-0500 (Central Daylight Time)","927754","Untrustworthy,Trustworthy","","1054","","","","rating","","trustrating_stim/white_00299_940422_fa_edt.bmp","5","","","","","","","","","","",""
"image-keyboard-response","96","173703","0.0-6.0-2.45","631381096e95278a3f97fed4","bdp_trlrn","Wed Mar 15 2023 13:40:42 GMT-0500 (Central Daylight Time)","927754","Untrustworthy,Trustworthy","","null","","","","ratingFB","","trustrating_stim/white_00299_940422_fa_edt.bmp","null","","","","","","","","","","",""
"image-keyboard-response","97","174906","0.0-6.0-1.46","631381096e95278a3f97fed4","bdp_trlrn","Wed Mar 15 2023 13:40:42 GMT-0500 (Central Daylight Time)","927754","Untrustworthy,Trustworthy","","1100","","","","rating","","trustrating_stim/white_mw056.bmp","5","","","","","","","","","","",""
"image-keyboard-response","98","175107","0.0-6.0-2.46","631381096e95278a3f97fed4","bdp_trlrn","Wed Mar 15 2023 13:40:42 GMT-0500 (Central Daylight Time)","927754","Untrustworthy,Trustworthy","","null","","","","ratingFB","","trustrating_stim/white_mw056.bmp","null","","","","","","","","","","",""
"image-keyboard-response","99","177407","0.0-6.0-1.47","631381096e95278a3f97fed4","bdp_trlrn","Wed Mar 15 2023 13:40:42 GMT-0500 (Central Daylight Time)","927754","Untrustworthy,Trustworthy","","2198","","","","rating","","trustrating_stim/white_00120_931230_fa_edt.bmp","5","","","","","","","","","","",""
"image-keyboard-response","100","177609","0.0-6.0-2.47","631381096e95278a3f97fed4","bdp_trlrn","Wed Mar 15 2023 13:40:42 GMT-0500 (Central Daylight Time)","927754","Untrustworthy,Trustworthy","","null","","","","ratingFB","","trustrating_stim/white_00120_931230_fa_edt.bmp","null","","","","","","","","","","",""
"image-keyboard-response","101","180169","0.0-6.0-1.48","631381096e95278a3f97fed4","bdp_trlrn","Wed Mar 15 2023 13:40:42 GMT-0500 (Central Daylight Time)","927754","Untrustworthy,Trustworthy","","2458","","","","rating","","trustrating_stim/white_00109_931230_fa_edt.bmp","4","","","","","","","","","","",""
"image-keyboard-response","102","180370","0.0-6.0-2.48","631381096e95278a3f97fed4","bdp_trlrn","Wed Mar 15 2023 13:40:42 GMT-0500 (Central Daylight Time)","927754","Untrustworthy,Trustworthy","","null","","","","ratingFB","","trustrating_stim/white_00109_931230_fa_edt.bmp","null","","","","","","","","","","",""
"image-keyboard-response","103","182069","0.0-6.0-1.49","631381096e95278a3f97fed4","bdp_trlrn","Wed Mar 15 2023 13:40:42 GMT-0500 (Central Daylight Time)","927754","Untrustworthy,Trustworthy","","1597","","","","rating","","trustrating_stim/white_mw060.bmp","3","","","","","","","","","","",""
"image-keyboard-response","104","182270","0.0-6.0-2.49","631381096e95278a3f97fed4","bdp_trlrn","Wed Mar 15 2023 13:40:42 GMT-0500 (Central Daylight Time)","927754","Untrustworthy,Trustworthy","","null","","","","ratingFB","","trustrating_stim/white_mw060.bmp","null","","","","","","","","","","",""
"image-keyboard-response","105","184279","0.0-6.0-1.50","631381096e95278a3f97fed4","bdp_trlrn","Wed Mar 15 2023 13:40:42 GMT-0500 (Central Daylight Time)","927754","Untrustworthy,Trustworthy","","1907","","","","rating","","trustrating_stim/white_mw063.bmp","3","","","","","","","","","","",""
"image-keyboard-response","106","184480","0.0-6.0-2.50","631381096e95278a3f97fed4","bdp_trlrn","Wed Mar 15 2023 13:40:42 GMT-0500 (Central Daylight Time)","927754","Untrustworthy,Trustworthy","","null","","","","ratingFB","","trustrating_stim/white_mw063.bmp","null","","","","","","","","","","",""
"image-keyboard-response","107","186800","0.0-6.0-1.51","631381096e95278a3f97fed4","bdp_trlrn","Wed Mar 15 2023 13:40:42 GMT-0500 (Central Daylight Time)","927754","Untrustworthy,Trustworthy","","2218","","","","rating","","trustrating_stim/white_00602_940928_fb_edt.bmp","5","","","","","","","","","","",""
"image-keyboard-response","108","187001","0.0-6.0-2.51","631381096e95278a3f97fed4","bdp_trlrn","Wed Mar 15 2023 13:40:42 GMT-0500 (Central Daylight Time)","927754","Untrustworthy,Trustworthy","","null","","","","ratingFB","","trustrating_stim/white_00602_940928_fb_edt.bmp","null","","","","","","","","","","",""
"image-keyboard-response","109","189448","0.0-6.0-1.52","631381096e95278a3f97fed4","bdp_trlrn","Wed Mar 15 2023 13:40:42 GMT-0500 (Central Daylight Time)","927754","Untrustworthy,Trustworthy","","2345","","","","rating","","trustrating_stim/white_00807_941205_fb_edt.bmp","5","","","","","","","","","","",""
"image-keyboard-response","110","189650","0.0-6.0-2.52","631381096e95278a3f97fed4","bdp_trlrn","Wed Mar 15 2023 13:40:42 GMT-0500 (Central Daylight Time)","927754","Untrustworthy,Trustworthy","","null","","","","ratingFB","","trustrating_stim/white_00807_941205_fb_edt.bmp","null","","","","","","","","","","",""
"image-keyboard-response","111","192744","0.0-6.0-1.53","631381096e95278a3f97fed4","bdp_trlrn","Wed Mar 15 2023 13:40:42 GMT-0500 (Central Daylight Time)","927754","Untrustworthy,Trustworthy","","2992","","","","rating","","trustrating_stim/white_mw071.bmp","4","","","","","","","","","","",""
"image-keyboard-response","112","192946","0.0-6.0-2.53","631381096e95278a3f97fed4","bdp_trlrn","Wed Mar 15 2023 13:40:42 GMT-0500 (Central Daylight Time)","927754","Untrustworthy,Trustworthy","","null","","","","ratingFB","","trustrating_stim/white_mw071.bmp","null","","","","","","","","","","",""
"image-keyboard-response","113","194540","0.0-6.0-1.54","631381096e95278a3f97fed4","bdp_trlrn","Wed Mar 15 2023 13:40:42 GMT-0500 (Central Daylight Time)","927754","Untrustworthy,Trustworthy","","1492","","","","rating","","trustrating_stim/white_00785_941205_fb_edt.bmp","4","","","","","","","","","","",""
"image-keyboard-response","114","194742","0.0-6.0-2.54","631381096e95278a3f97fed4","bdp_trlrn","Wed Mar 15 2023 13:40:42 GMT-0500 (Central Daylight Time)","927754","Untrustworthy,Trustworthy","","null","","","","ratingFB","","trustrating_stim/white_00785_941205_fb_edt.bmp","null","","","","","","","","","","",""
"image-keyboard-response","115","196478","0.0-6.0-1.55","631381096e95278a3f97fed4","bdp_trlrn","Wed Mar 15 2023 13:40:42 GMT-0500 (Central Daylight Time)","927754","Untrustworthy,Trustworthy","","1633","","","","rating","","trustrating_stim/white_mw035.bmp","4","","","","","","","","","","",""
"image-keyboard-response","116","196679","0.0-6.0-2.55","631381096e95278a3f97fed4","bdp_trlrn","Wed Mar 15 2023 13:40:42 GMT-0500 (Central Daylight Time)","927754","Untrustworthy,Trustworthy","","null","","","","ratingFB","","trustrating_stim/white_mw035.bmp","null","","","","","","","","","","",""
"image-keyboard-response","117","197986","0.0-6.0-1.56","631381096e95278a3f97fed4","bdp_trlrn","Wed Mar 15 2023 13:40:42 GMT-0500 (Central Daylight Time)","927754","Untrustworthy,Trustworthy","","1203","","","","rating","","trustrating_stim/white_mw066.bmp","4","","","","","","","","","","",""
"image-keyboard-response","118","198187","0.0-6.0-2.56","631381096e95278a3f97fed4","bdp_trlrn","Wed Mar 15 2023 13:40:42 GMT-0500 (Central Daylight Time)","927754","Untrustworthy,Trustworthy","","null","","","","ratingFB","","trustrating_stim/white_mw066.bmp","null","","","","","","","","","","",""
"image-keyboard-response","119","200466","0.0-6.0-1.57","631381096e95278a3f97fed4","bdp_trlrn","Wed Mar 15 2023 13:40:42 GMT-0500 (Central Daylight Time)","927754","Untrustworthy,Trustworthy","","2178","","","","rating","","trustrating_stim/white_mw053.bmp","5","","","","","","","","","","",""
"image-keyboard-response","120","200667","0.0-6.0-2.57","631381096e95278a3f97fed4","bdp_trlrn","Wed Mar 15 2023 13:40:42 GMT-0500 (Central Daylight Time)","927754","Untrustworthy,Trustworthy","","null","","","","ratingFB","","trustrating_stim/white_mw053.bmp","null","","","","","","","","","","",""
"image-keyboard-response","121","202048","0.0-6.0-1.58","631381096e95278a3f97fed4","bdp_trlrn","Wed Mar 15 2023 13:40:42 GMT-0500 (Central Daylight Time)","927754","Untrustworthy,Trustworthy","","1279","","","","rating","","trustrating_stim/white_00659_941121_fa_edt.bmp","5","","","","","","","","","","",""
"image-keyboard-response","122","202249","0.0-6.0-2.58","631381096e95278a3f97fed4","bdp_trlrn","Wed Mar 15 2023 13:40:42 GMT-0500 (Central Daylight Time)","927754","Untrustworthy,Trustworthy","","null","","","","ratingFB","","trustrating_stim/white_00659_941121_fa_edt.bmp","null","","","","","","","","","","",""
"image-keyboard-response","123","204999","0.0-6.0-1.59","631381096e95278a3f97fed4","bdp_trlrn","Wed Mar 15 2023 13:40:42 GMT-0500 (Central Daylight Time)","927754","Untrustworthy,Trustworthy","","2648","","","","rating","","trustrating_stim/white_00898_960530_fa_edt.bmp","7","","","","","","","","","","",""
"image-keyboard-response","124","205200","0.0-6.0-2.59","631381096e95278a3f97fed4","bdp_trlrn","Wed Mar 15 2023 13:40:42 GMT-0500 (Central Daylight Time)","927754","Untrustworthy,Trustworthy","","null","","","","ratingFB","","trustrating_stim/white_00898_960530_fa_edt.bmp","null","","","","","","","","","","",""
"instructions","125","212638","0.0-7.0","631381096e95278a3f97fed4","bdp_trlrn","Wed Mar 15 2023 13:40:42 GMT-0500 (Central Daylight Time)","927754","Untrustworthy,Trustworthy","[{""page_index"":0,""viewing_time"":7336}]","7336","","","","","","","","","","","","","","","","","",""
"instructions","126","421516","0.0-8.0","631381096e95278a3f97fed4","bdp_trlrn","Wed Mar 15 2023 13:40:42 GMT-0500 (Central Daylight Time)","927754","Untrustworthy,Trustworthy","[{""page_index"":0,""viewing_time"":39501},{""page_index"":1,""viewing_time"":23581},{""page_index"":2,""viewing_time"":26560},{""page_index"":3,""viewing_time"":24852},{""page_index"":4,""viewing_time"":10682},{""page_index"":5,""viewing_time"":35620},{""page_index"":6,""viewing_time"":41858},{""page_index"":7,""viewing_time"":6123}]","208777","","","","","","","","","","","","","","","","","",""
"html-keyboard-response","127","432098","0.0-9.0","631381096e95278a3f97fed4","bdp_trlrn","Wed Mar 15 2023 13:40:42 GMT-0500 (Central Daylight Time)","927754","Untrustworthy,Trustworthy","","10581","","","","","","<div class='header' style='text-align:left; position: absolute; top: 5%; left: 5%;'><small>Task 3 of 5</small></div><div class='instruxDiv'><p><strong>1) What is the minimum number of points you can choose to send to your partner?</strong></p><p>a) 0</p><p>b) 1</p><p>c) 5</p>","B","","","","","","","","","","",""
"html-keyboard-response","128","439133","0.0-10.0","631381096e95278a3f97fed4","bdp_trlrn","Wed Mar 15 2023 13:40:42 GMT-0500 (Central Daylight Time)","927754","Untrustworthy,Trustworthy","","6933","","","","","","<div class='header' style='text-align:left; position: absolute; top: 5%; left: 5%;'><small>Task 3 of 5</small></div><div class='instruxDiv'><p><strong>1) What is the minimum number of points you can choose to send to your partner?</strong></p><p>a) 0</p><p style='color:#00FF00'>b) 1</p><p>c) 5</p><h3 style='color:#00FF00'>Correct!</h3><h3 class='center-content'>The correct response is b).</h3><h3 class='center-content'>The minimum number of points you can choose to send to your partner is 1 point.</h3><p><em>Press SPACEBAR to continue</em></p></div>"," ","","","","","","","","","","",""
"html-keyboard-response","129","445217","0.0-11.0","631381096e95278a3f97fed4","bdp_trlrn","Wed Mar 15 2023 13:40:42 GMT-0500 (Central Daylight Time)","927754","Untrustworthy,Trustworthy","","5984","","","","","","<div class='header' style='text-align:left; position: absolute; top: 5%; left: 5%;'><small>Task 3 of 5</small></div><div class='instruxDiv'><p><strong>2) What is the maximum number of points you can choose to send to your partner?</strong></p><p>a) 8</p><p>b) 5</p><p>c) 3</p>","B","","","","","","","","","","",""
"html-keyboard-response","130","450305","0.0-12.0","631381096e95278a3f97fed4","bdp_trlrn","Wed Mar 15 2023 13:40:42 GMT-0500 (Central Daylight Time)","927754","Untrustworthy,Trustworthy","","4986","","","","","","<div class='header' style='text-align:left; position: absolute; top: 5%; left: 5%;'><small>Task 3 of 5</small></div><div class='instruxDiv'><p><strong>2) What is the maximum number of points you can choose to send to your partner?</strong></p><p>a) 8</p><p style='color:#00FF00'>b) 5</p><p>c) 3</p><h3 style='color:#00FF00'>Correct!</h3><h3 class='center-content'>The correct response is b).</h3><h3 class='center-content'>The maximum number of points you can choose to send to your partner is 5 points.</h3><p><em>Press SPACEBAR to continue</em></p></div>"," ","","","","","","","","","","",""
"html-keyboard-response","131","454694","0.0-13.0","631381096e95278a3f97fed4","bdp_trlrn","Wed Mar 15 2023 13:40:42 GMT-0500 (Central Daylight Time)","927754","Untrustworthy,Trustworthy","","4289","","","","","","<div class='header' style='text-align:left; position: absolute; top: 5%; left: 5%;'><small>Task 3 of 5</small></div><div class='instruxDiv'><p><strong>3) What happens to the amount of points you send to your partner?</strong></p><p>a) Nothing</p><p>b) It doubles</p><p>c) It quadruples</p>","C","","","","","","","","","","",""
"html-keyboard-response","132","458163","0.0-14.0","631381096e95278a3f97fed4","bdp_trlrn","Wed Mar 15 2023 13:40:42 GMT-0500 (Central Daylight Time)","927754","Untrustworthy,Trustworthy","","3368","","","","","","<div class='header' style='text-align:left; position: absolute; top: 5%; left: 5%;'><small>Task 3 of 5</small></div><div class='instruxDiv'><p><strong>3) What happens to the amount of points you send to your partner?</strong></p><p>a) Nothing</p><p>b) It doubles</p><p style='color:#00FF00'>c) It quadruples</p><h3 style='color:#00FF00'>Correct!</h3><h3 class='center-content'>The correct response is c).</h3><h3 class='center-content'>The amount of points you send to your partner quadruples.</h3><p><em>Press SPACEBAR to continue</em></p></div>"," ","","","","","","","","","","",""
"html-keyboard-response","133","478344","0.0-15.0","631381096e95278a3f97fed4","bdp_trlrn","Wed Mar 15 2023 13:40:42 GMT-0500 (Central Daylight Time)","927754","Untrustworthy,Trustworthy","","20080","","","","","","<div class='header' style='text-align:left; position: absolute; top: 5%; left: 5%;'><small>Task 3 of 5</small></div><div class='instruxDiv'><p><strong>4) If you decided to share 4 out of 5 points with your partner, and they decided to share half of the amount they received with you, how many points would you receive back from them on this round?</strong></p><p>a) 16</p><p>b) 0</p><p>c) 8</p>","C","","","","","","","","","","",""
"html-keyboard-response","134","484948","0.0-16.0","631381096e95278a3f97fed4","bdp_trlrn","Wed Mar 15 2023 13:40:42 GMT-0500 (Central Daylight Time)","927754","Untrustworthy,Trustworthy","","6503","","","","","","<div class='header' style='text-align:left; position: absolute; top: 5%; left: 5%;'><small>Task 3 of 5</small></div><div class='instruxDiv'><p><strong>4) If you decided to share 4 out of 5 points with your partner, and they decided to share half of the amount they received with you, how many points would you receive back from them on this round?</strong></p><p>a) 16</p><p>b) 0</p><p style='color:#00FF00'>c) 8</p><h3 style='color:#00FF00'>Correct!</h3><h3 class='center-content'>The correct response is c).</h3><h3 class='center-content'>If you shared 4 out of 5 points with your partner and they decided to share half of the amount they received with you, you would receive 8 points back (i.e. (4 x 4)/2 = 8).</h3><p><em>Press SPACEBAR to continue</em></p></div>"," ","","","","","","","","","","",""
"html-keyboard-response","135","490050","0.0-17.0","631381096e95278a3f97fed4","bdp_trlrn","Wed Mar 15 2023 13:40:42 GMT-0500 (Central Daylight Time)","927754","Untrustworthy,Trustworthy","","null","","","","","","<div class='header' style='text-align:left; position: absolute; top: 5%; left: 5%;'><small>Task 3 of 5</small></div><div class='instruxDiv'><p>Thank you for completing the quiz<p>These are the actual partners you will be interacting with in the next block:<p><div class='tc' align='center'><img class='introPic' src='trustrating_stim/white_mw060.bmp'><br><strong>Gavin</strong></div><div class='bl' align='center'><img class='introPic' src='trustrating_stim/white_00109_931230_fa_edt.bmp'><br><strong>Ethan</strong></div><div class='br' align='center'><img class='introPic' src='trustrating_stim/white_00898_960530_fa_edt.bmp'><br><strong>Daniel</strong></div></div><p>Across <strong>66 rounds</strong> you will interact with each partner <strong>22 times</strong> (in random order).<p style='align:center; color:white'><font <em>Press SPACEBAR to continue</em></p>","null","","","","","","","","","","",""
"instructions","136","521847","0.0-18.0","631381096e95278a3f97fed4","bdp_trlrn","Wed Mar 15 2023 13:40:42 GMT-0500 (Central Daylight Time)","927754","Untrustworthy,Trustworthy","[{""page_index"":0,""viewing_time"":20801},{""page_index"":1,""viewing_time"":10994}]","31796","","","","","","","","","","","","","","","","","",""
"html-keyboard-response","137","524851","0.0-19.0-1.0","631381096e95278a3f97fed4","bdp_trlrn","Wed Mar 15 2023 13:40:42 GMT-0500 (Central Daylight Time)","927754","Untrustworthy,Trustworthy","","2902","","","","decision","","<div class='trialDiv'><img src='trustrating_stim/white_mw060.bmp'><br><font class='baseline'><strong>Gavin</strong><p>Choose number of points to send.</font><div class='respPicDiv'><img src='img/responseButtonOffersNo0L.png' class='respPic'></div></div>","5","1","Gavin","0","Shared","0.65,0.2","13","0.65","trustrating_stim/white_mw060.bmp","3","5","1"
"html-keyboard-response","138","525102","0.0-19.0-2.0","631381096e95278a3f97fed4","bdp_trlrn","Wed Mar 15 2023 13:40:42 GMT-0500 (Central Daylight Time)","927754","Untrustworthy,Trustworthy","","null","","","","decisionFB","","<div class='trialDiv'><img src='trustrating_stim/white_mw060.bmp'><br><font class='baseline'><strong>Gavin</strong><p>Choose number of points to send.</font><div class='respPicDiv'><img src='img/responseButtonOffersNo0L5.png' class='respPic'></div></div>","null","1","Gavin","0","Shared","0.65,0.2","13","0.65","trustrating_stim/white_mw060.bmp","3","0","1"
"html-keyboard-response","139","526104","0.0-19.0-3.0","631381096e95278a3f97fed4","bdp_trlrn","Wed Mar 15 2023 13:40:42 GMT-0500 (Central Daylight Time)","927754","Untrustworthy,Trustworthy","","null","","","","feedback","","<div class='trialDiv'><img src='trustrating_stim/white_mw060.bmp'><br><font class='baseline'><strong>Gavin</strong><p>Received: <strong>20</strong></font> &nbsp; &nbsp; &nbsp; &nbsp; &nbsp; &nbsp;<font class='posOutcome'>Shared back: <strong>10</strong></font></font><div class='respPicDiv'><img src='img/responseButtonOffersNo0_wht.png' class='respPic'></div></div>","null","1","Gavin","0","Shared","0.65,0.2","13","0.65","trustrating_stim/white_mw060.bmp","3","10","1"
"html-keyboard-response","140","527654","0.0-19.0-1.1","631381096e95278a3f97fed4","bdp_trlrn","Wed Mar 15 2023 13:40:42 GMT-0500 (Central Daylight Time)","927754","Untrustworthy,Trustworthy","","1548","","","","decision","","<div class='trialDiv'><img src='trustrating_stim/white_00898_960530_fa_edt.bmp'><br><font class='baseline'><strong>Daniel</strong><p>Choose number of points to send.</font><div class='respPicDiv'><img src='img/responseButtonOffersNo0L.png' class='respPic'></div></div>","5","1","Daniel","11","Shared","0.8,0.2","13","0.8","trustrating_stim/white_00898_960530_fa_edt.bmp","6.5","15","2"
"html-keyboard-response","141","527906","0.0-19.0-2.1","631381096e95278a3f97fed4","bdp_trlrn","Wed Mar 15 2023 13:40:42 GMT-0500 (Central Daylight Time)","927754","Untrustworthy,Trustworthy","","null","","","","decisionFB","","<div class='trialDiv'><img src='trustrating_stim/white_00898_960530_fa_edt.bmp'><br><font class='baseline'><strong>Daniel</strong><p>Choose number of points to send.</font><div class='respPicDiv'><img src='img/responseButtonOffersNo0L5.png' class='respPic'></div></div>","null","1","Daniel","11","Shared","0.8,0.2","13","0.8","trustrating_stim/white_00898_960530_fa_edt.bmp","6.5","10","2"
"html-keyboard-response","142","528908","0.0-19.0-3.1","631381096e95278a3f97fed4","bdp_trlrn","Wed Mar 15 2023 13:40:42 GMT-0500 (Central Daylight Time)","927754","Untrustworthy,Trustworthy","","null","","","","feedback","","<div class='trialDiv'><img src='trustrating_stim/white_00898_960530_fa_edt.bmp'><br><font class='baseline'><strong>Daniel</strong><p>Received: <strong>20</strong></font> &nbsp; &nbsp; &nbsp; &nbsp; &nbsp; &nbsp;<font class='posOutcome'>Shared back: <strong>10</strong></font></font><div class='respPicDiv'><img src='img/responseButtonOffersNo0_wht.png' class='respPic'></div></div>","null","1","Daniel","11","Shared","0.8,0.2","13","0.8","trustrating_stim/white_00898_960530_fa_edt.bmp","6.5","20","2"
"html-keyboard-response","143","530256","0.0-19.0-1.2","631381096e95278a3f97fed4","bdp_trlrn","Wed Mar 15 2023 13:40:42 GMT-0500 (Central Daylight Time)","927754","Untrustworthy,Trustworthy","","1348","","","","decision","","<div class='trialDiv'><img src='trustrating_stim/white_00109_931230_fa_edt.bmp'><br><font class='baseline'><strong>Ethan</strong><p>Choose number of points to send.</font><div class='respPicDiv'><img src='img/responseButtonOffersNo0L.png' class='respPic'></div></div>","5","1","Ethan","7","Shared","0.35,0.8","13","0.35","trustrating_stim/white_00109_931230_fa_edt.bmp","4.5","25","3"
"html-keyboard-response","144","530508","0.0-19.0-2.2","631381096e95278a3f97fed4","bdp_trlrn","Wed Mar 15 2023 13:40:42 GMT-0500 (Central Daylight Time)","927754","Untrustworthy,Trustworthy","","null","","","","decisionFB","","<div class='trialDiv'><img src='trustrating_stim/white_00109_931230_fa_edt.bmp'><br><font class='baseline'><strong>Ethan</strong><p>Choose number of points to send.</font><div class='respPicDiv'><img src='img/responseButtonOffersNo0L5.png' class='respPic'></div></div>","null","1","Ethan","7","Shared","0.35,0.8","13","0.35","trustrating_stim/white_00109_931230_fa_edt.bmp","4.5","20","3"
"html-keyboard-response","145","531510","0.0-19.0-3.2","631381096e95278a3f97fed4","bdp_trlrn","Wed Mar 15 2023 13:40:42 GMT-0500 (Central Daylight Time)","927754","Untrustworthy,Trustworthy","","null","","","","feedback","","<div class='trialDiv'><img src='trustrating_stim/white_00109_931230_fa_edt.bmp'><br><font class='baseline'><strong>Ethan</strong><p>Received: <strong>20</strong></font> &nbsp; &nbsp; &nbsp; &nbsp; &nbsp; &nbsp;<font class='posOutcome'>Shared back: <strong>10</strong></font></font><div class='respPicDiv'><img src='img/responseButtonOffersNo0_wht.png' class='respPic'></div></div>","null","1","Ethan","7","Shared","0.35,0.8","13","0.35","trustrating_stim/white_00109_931230_fa_edt.bmp","4.5","30","3"
"html-keyboard-response","146","532786","0.0-19.0-1.3","631381096e95278a3f97fed4","bdp_trlrn","Wed Mar 15 2023 13:40:42 GMT-0500 (Central Daylight Time)","927754","Untrustworthy,Trustworthy","","1275","","","","decision","","<div class='trialDiv'><img src='trustrating_stim/white_mw060.bmp'><br><font class='baseline'><strong>Gavin</strong><p>Choose number of points to send.</font><div class='respPicDiv'><img src='img/responseButtonOffersNo0L.png' class='respPic'></div></div>","5","2","Gavin","0","Shared","0.65,0.2","13","0.65","trustrating_stim/white_mw060.bmp","3","35","4"
"html-keyboard-response","147","533043","0.0-19.0-2.3","631381096e95278a3f97fed4","bdp_trlrn","Wed Mar 15 2023 13:40:42 GMT-0500 (Central Daylight Time)","927754","Untrustworthy,Trustworthy","","null","","","","decisionFB","","<div class='trialDiv'><img src='trustrating_stim/white_mw060.bmp'><br><font class='baseline'><strong>Gavin</strong><p>Choose number of points to send.</font><div class='respPicDiv'><img src='img/responseButtonOffersNo0L5.png' class='respPic'></div></div>","null","2","Gavin","0","Shared","0.65,0.2","13","0.65","trustrating_stim/white_mw060.bmp","3","30","4"
"html-keyboard-response","148","534044","0.0-19.0-3.3","631381096e95278a3f97fed4","bdp_trlrn","Wed Mar 15 2023 13:40:42 GMT-0500 (Central Daylight Time)","927754","Untrustworthy,Trustworthy","","null","","","","feedback","","<div class='trialDiv'><img src='trustrating_stim/white_mw060.bmp'><br><font class='baseline'><strong>Gavin</strong><p>Received: <strong>20</strong></font> &nbsp; &nbsp; &nbsp; &nbsp; &nbsp; &nbsp;<font class='posOutcome'>Shared back: <strong>10</strong></font></font><div class='respPicDiv'><img src='img/responseButtonOffersNo0_wht.png' class='respPic'></div></div>","null","2","Gavin","0","Shared","0.65,0.2","13","0.65","trustrating_stim/white_mw060.bmp","3","40","4"
"html-keyboard-response","149","534895","0.0-19.0-1.4","631381096e95278a3f97fed4","bdp_trlrn","Wed Mar 15 2023 13:40:42 GMT-0500 (Central Daylight Time)","927754","Untrustworthy,Trustworthy","","849","","","","decision","","<div class='trialDiv'><img src='trustrating_stim/white_00109_931230_fa_edt.bmp'><br><font class='baseline'><strong>Ethan</strong><p>Choose number of points to send.</font><div class='respPicDiv'><img src='img/responseButtonOffersNo0L.png' class='respPic'></div></div>","5","2","Ethan","7","Kept","0.35,0.8","13","0.35","trustrating_stim/white_00109_931230_fa_edt.bmp","4.5","45","5"
"html-keyboard-response","150","535146","0.0-19.0-2.4","631381096e95278a3f97fed4","bdp_trlrn","Wed Mar 15 2023 13:40:42 GMT-0500 (Central Daylight Time)","927754","Untrustworthy,Trustworthy","","null","","","","decisionFB","","<div class='trialDiv'><img src='trustrating_stim/white_00109_931230_fa_edt.bmp'><br><font class='baseline'><strong>Ethan</strong><p>Choose number of points to send.</font><div class='respPicDiv'><img src='img/responseButtonOffersNo0L5.png' class='respPic'></div></div>","null","2","Ethan","7","Kept","0.35,0.8","13","0.35","trustrating_stim/white_00109_931230_fa_edt.bmp","4.5","40","5"
"html-keyboard-response","151","536147","0.0-19.0-3.4","631381096e95278a3f97fed4","bdp_trlrn","Wed Mar 15 2023 13:40:42 GMT-0500 (Central Daylight Time)","927754","Untrustworthy,Trustworthy","","null","","","","feedback","","<div class='trialDiv'><img src='trustrating_stim/white_00109_931230_fa_edt.bmp'><br><font class='baseline'><strong>Ethan</strong><p>Received: <strong>20</strong></font> &nbsp; &nbsp; &nbsp; &nbsp; &nbsp; &nbsp;<font class='negOutcome'>Shared back: <strong>0</strong></font></font><div class='respPicDiv'><img src='img/responseButtonOffersNo0_wht.png' class='respPic'></div></div>","null","2","Ethan","7","Kept","0.35,0.8","13","0.35","trustrating_stim/white_00109_931230_fa_edt.bmp","4.5","40","5"
"html-keyboard-response","152","537041","0.0-19.0-1.5","631381096e95278a3f97fed4","bdp_trlrn","Wed Mar 15 2023 13:40:42 GMT-0500 (Central Daylight Time)","927754","Untrustworthy,Trustworthy","","892","","","","decision","","<div class='trialDiv'><img src='trustrating_stim/white_00898_960530_fa_edt.bmp'><br><font class='baseline'><strong>Daniel</strong><p>Choose number of points to send.</font><div class='respPicDiv'><img src='img/responseButtonOffersNo0L.png' class='respPic'></div></div>","5","2","Daniel","11","Shared","0.8,0.2","13","0.8","trustrating_stim/white_00898_960530_fa_edt.bmp","6.5","45","6"
"html-keyboard-response","153","537292","0.0-19.0-2.5","631381096e95278a3f97fed4","bdp_trlrn","Wed Mar 15 2023 13:40:42 GMT-0500 (Central Daylight Time)","927754","Untrustworthy,Trustworthy","","null","","","","decisionFB","","<div class='trialDiv'><img src='trustrating_stim/white_00898_960530_fa_edt.bmp'><br><font class='baseline'><strong>Daniel</strong><p>Choose number of points to send.</font><div class='respPicDiv'><img src='img/responseButtonOffersNo0L5.png' class='respPic'></div></div>","null","2","Daniel","11","Shared","0.8,0.2","13","0.8","trustrating_stim/white_00898_960530_fa_edt.bmp","6.5","40","6"
"html-keyboard-response","154","538294","0.0-19.0-3.5","631381096e95278a3f97fed4","bdp_trlrn","Wed Mar 15 2023 13:40:42 GMT-0500 (Central Daylight Time)","927754","Untrustworthy,Trustworthy","","null","","","","feedback","","<div class='trialDiv'><img src='trustrating_stim/white_00898_960530_fa_edt.bmp'><br><font class='baseline'><strong>Daniel</strong><p>Received: <strong>20</strong></font> &nbsp; &nbsp; &nbsp; &nbsp; &nbsp; &nbsp;<font class='posOutcome'>Shared back: <strong>10</strong></font></font><div class='respPicDiv'><img src='img/responseButtonOffersNo0_wht.png' class='respPic'></div></div>","null","2","Daniel","11","Shared","0.8,0.2","13","0.8","trustrating_stim/white_00898_960530_fa_edt.bmp","6.5","50","6"
"html-keyboard-response","155","539731","0.0-19.0-1.6","631381096e95278a3f97fed4","bdp_trlrn","Wed Mar 15 2023 13:40:42 GMT-0500 (Central Daylight Time)","927754","Untrustworthy,Trustworthy","","1437","","","","decision","","<div class='trialDiv'><img src='trustrating_stim/white_00109_931230_fa_edt.bmp'><br><font class='baseline'><strong>Ethan</strong><p>Choose number of points to send.</font><div class='respPicDiv'><img src='img/responseButtonOffersNo0L.png' class='respPic'></div></div>","3","3","Ethan","7","Kept","0.35,0.8","13","0.35","trustrating_stim/white_00109_931230_fa_edt.bmp","4.5","55","7"
"html-keyboard-response","156","539982","0.0-19.0-2.6","631381096e95278a3f97fed4","bdp_trlrn","Wed Mar 15 2023 13:40:42 GMT-0500 (Central Daylight Time)","927754","Untrustworthy,Trustworthy","","null","","","","decisionFB","","<div class='trialDiv'><img src='trustrating_stim/white_00109_931230_fa_edt.bmp'><br><font class='baseline'><strong>Ethan</strong><p>Choose number of points to send.</font><div class='respPicDiv'><img src='img/responseButtonOffersNo0L3.png' class='respPic'></div></div>","null","3","Ethan","7","Kept","0.35,0.8","13","0.35","trustrating_stim/white_00109_931230_fa_edt.bmp","4.5","52","7"
"html-keyboard-response","157","540984","0.0-19.0-3.6","631381096e95278a3f97fed4","bdp_trlrn","Wed Mar 15 2023 13:40:42 GMT-0500 (Central Daylight Time)","927754","Untrustworthy,Trustworthy","","null","","","","feedback","","<div class='trialDiv'><img src='trustrating_stim/white_00109_931230_fa_edt.bmp'><br><font class='baseline'><strong>Ethan</strong><p>Received: <strong>12</strong></font> &nbsp; &nbsp; &nbsp; &nbsp; &nbsp; &nbsp;<font class='negOutcome'>Shared back: <strong>0</strong></font></font><div class='respPicDiv'><img src='img/responseButtonOffersNo0_wht.png' class='respPic'></div></div>","null","3","Ethan","7","Kept","0.35,0.8","13","0.35","trustrating_stim/white_00109_931230_fa_edt.bmp","4.5","52","7"
"html-keyboard-response","158","541800","0.0-19.0-1.7","631381096e95278a3f97fed4","bdp_trlrn","Wed Mar 15 2023 13:40:42 GMT-0500 (Central Daylight Time)","927754","Untrustworthy,Trustworthy","","815","","","","decision","","<div class='trialDiv'><img src='trustrating_stim/white_mw060.bmp'><br><font class='baseline'><strong>Gavin</strong><p>Choose number of points to send.</font><div class='respPicDiv'><img src='img/responseButtonOffersNo0L.png' class='respPic'></div></div>","5","3","Gavin","0","Shared","0.65,0.2","13","0.65","trustrating_stim/white_mw060.bmp","3","57","8"
"html-keyboard-response","159","542051","0.0-19.0-2.7","631381096e95278a3f97fed4","bdp_trlrn","Wed Mar 15 2023 13:40:42 GMT-0500 (Central Daylight Time)","927754","Untrustworthy,Trustworthy","","null","","","","decisionFB","","<div class='trialDiv'><img src='trustrating_stim/white_mw060.bmp'><br><font class='baseline'><strong>Gavin</strong><p>Choose number of points to send.</font><div class='respPicDiv'><img src='img/responseButtonOffersNo0L5.png' class='respPic'></div></div>","null","3","Gavin","0","Shared","0.65,0.2","13","0.65","trustrating_stim/white_mw060.bmp","3","52","8"
"html-keyboard-response","160","543052","0.0-19.0-3.7","631381096e95278a3f97fed4","bdp_trlrn","Wed Mar 15 2023 13:40:42 GMT-0500 (Central Daylight Time)","927754","Untrustworthy,Trustworthy","","null","","","","feedback","","<div class='trialDiv'><img src='trustrating_stim/white_mw060.bmp'><br><font class='baseline'><strong>Gavin</strong><p>Received: <strong>20</strong></font> &nbsp; &nbsp; &nbsp; &nbsp; &nbsp; &nbsp;<font class='posOutcome'>Shared back: <strong>10</strong></font></font><div class='respPicDiv'><img src='img/responseButtonOffersNo0_wht.png' class='respPic'></div></div>","null","3","Gavin","0","Shared","0.65,0.2","13","0.65","trustrating_stim/white_mw060.bmp","3","62","8"
"html-keyboard-response","161","543764","0.0-19.0-1.8","631381096e95278a3f97fed4","bdp_trlrn","Wed Mar 15 2023 13:40:42 GMT-0500 (Central Daylight Time)","927754","Untrustworthy,Trustworthy","","711","","","","decision","","<div class='trialDiv'><img src='trustrating_stim/white_00898_960530_fa_edt.bmp'><br><font class='baseline'><strong>Daniel</strong><p>Choose number of points to send.</font><div class='respPicDiv'><img src='img/responseButtonOffersNo0L.png' class='respPic'></div></div>","5","3","Daniel","11","Shared","0.8,0.2","13","0.8","trustrating_stim/white_00898_960530_fa_edt.bmp","6.5","67","9"
"html-keyboard-response","162","544016","0.0-19.0-2.8","631381096e95278a3f97fed4","bdp_trlrn","Wed Mar 15 2023 13:40:42 GMT-0500 (Central Daylight Time)","927754","Untrustworthy,Trustworthy","","null","","","","decisionFB","","<div class='trialDiv'><img src='trustrating_stim/white_00898_960530_fa_edt.bmp'><br><font class='baseline'><strong>Daniel</strong><p>Choose number of points to send.</font><div class='respPicDiv'><img src='img/responseButtonOffersNo0L5.png' class='respPic'></div></div>","null","3","Daniel","11","Shared","0.8,0.2","13","0.8","trustrating_stim/white_00898_960530_fa_edt.bmp","6.5","62","9"
"html-keyboard-response","163","545018","0.0-19.0-3.8","631381096e95278a3f97fed4","bdp_trlrn","Wed Mar 15 2023 13:40:42 GMT-0500 (Central Daylight Time)","927754","Untrustworthy,Trustworthy","","null","","","","feedback","","<div class='trialDiv'><img src='trustrating_stim/white_00898_960530_fa_edt.bmp'><br><font class='baseline'><strong>Daniel</strong><p>Received: <strong>20</strong></font> &nbsp; &nbsp; &nbsp; &nbsp; &nbsp; &nbsp;<font class='posOutcome'>Shared back: <strong>10</strong></font></font><div class='respPicDiv'><img src='img/responseButtonOffersNo0_wht.png' class='respPic'></div></div>","null","3","Daniel","11","Shared","0.8,0.2","13","0.8","trustrating_stim/white_00898_960530_fa_edt.bmp","6.5","72","9"
"html-keyboard-response","164","546344","0.0-19.0-1.9","631381096e95278a3f97fed4","bdp_trlrn","Wed Mar 15 2023 13:40:42 GMT-0500 (Central Daylight Time)","927754","Untrustworthy,Trustworthy","","1325","","","","decision","","<div class='trialDiv'><img src='trustrating_stim/white_mw060.bmp'><br><font class='baseline'><strong>Gavin</strong><p>Choose number of points to send.</font><div class='respPicDiv'><img src='img/responseButtonOffersNo0L.png' class='respPic'></div></div>","5","4","Gavin","0","Kept","0.65,0.2","13","0.65","trustrating_stim/white_mw060.bmp","3","77","10"
"html-keyboard-response","165","546596","0.0-19.0-2.9","631381096e95278a3f97fed4","bdp_trlrn","Wed Mar 15 2023 13:40:42 GMT-0500 (Central Daylight Time)","927754","Untrustworthy,Trustworthy","","null","","","","decisionFB","","<div class='trialDiv'><img src='trustrating_stim/white_mw060.bmp'><br><font class='baseline'><strong>Gavin</strong><p>Choose number of points to send.</font><div class='respPicDiv'><img src='img/responseButtonOffersNo0L5.png' class='respPic'></div></div>","null","4","Gavin","0","Kept","0.65,0.2","13","0.65","trustrating_stim/white_mw060.bmp","3","72","10"
"html-keyboard-response","166","547597","0.0-19.0-3.9","631381096e95278a3f97fed4","bdp_trlrn","Wed Mar 15 2023 13:40:42 GMT-0500 (Central Daylight Time)","927754","Untrustworthy,Trustworthy","","null","","","","feedback","","<div class='trialDiv'><img src='trustrating_stim/white_mw060.bmp'><br><font class='baseline'><strong>Gavin</strong><p>Received: <strong>20</strong></font> &nbsp; &nbsp; &nbsp; &nbsp; &nbsp; &nbsp;<font class='negOutcome'>Shared back: <strong>0</strong></font></font><div class='respPicDiv'><img src='img/responseButtonOffersNo0_wht.png' class='respPic'></div></div>","null","4","Gavin","0","Kept","0.65,0.2","13","0.65","trustrating_stim/white_mw060.bmp","3","72","10"
"html-keyboard-response","167","548955","0.0-19.0-1.10","631381096e95278a3f97fed4","bdp_trlrn","Wed Mar 15 2023 13:40:42 GMT-0500 (Central Daylight Time)","927754","Untrustworthy,Trustworthy","","1356","","","","decision","","<div class='trialDiv'><img src='trustrating_stim/white_00109_931230_fa_edt.bmp'><br><font class='baseline'><strong>Ethan</strong><p>Choose number of points to send.</font><div class='respPicDiv'><img src='img/responseButtonOffersNo0L.png' class='respPic'></div></div>","5","4","Ethan","7","Shared","0.35,0.8","13","0.35","trustrating_stim/white_00109_931230_fa_edt.bmp","4.5","77","11"
"html-keyboard-response","168","549206","0.0-19.0-2.10","631381096e95278a3f97fed4","bdp_trlrn","Wed Mar 15 2023 13:40:42 GMT-0500 (Central Daylight Time)","927754","Untrustworthy,Trustworthy","","null","","","","decisionFB","","<div class='trialDiv'><img src='trustrating_stim/white_00109_931230_fa_edt.bmp'><br><font class='baseline'><strong>Ethan</strong><p>Choose number of points to send.</font><div class='respPicDiv'><img src='img/responseButtonOffersNo0L5.png' class='respPic'></div></div>","null","4","Ethan","7","Shared","0.35,0.8","13","0.35","trustrating_stim/white_00109_931230_fa_edt.bmp","4.5","72","11"
"html-keyboard-response","169","550208","0.0-19.0-3.10","631381096e95278a3f97fed4","bdp_trlrn","Wed Mar 15 2023 13:40:42 GMT-0500 (Central Daylight Time)","927754","Untrustworthy,Trustworthy","","null","","","","feedback","","<div class='trialDiv'><img src='trustrating_stim/white_00109_931230_fa_edt.bmp'><br><font class='baseline'><strong>Ethan</strong><p>Received: <strong>20</strong></font> &nbsp; &nbsp; &nbsp; &nbsp; &nbsp; &nbsp;<font class='posOutcome'>Shared back: <strong>10</strong></font></font><div class='respPicDiv'><img src='img/responseButtonOffersNo0_wht.png' class='respPic'></div></div>","null","4","Ethan","7","Shared","0.35,0.8","13","0.35","trustrating_stim/white_00109_931230_fa_edt.bmp","4.5","82","11"
"html-keyboard-response","170","550938","0.0-19.0-1.11","631381096e95278a3f97fed4","bdp_trlrn","Wed Mar 15 2023 13:40:42 GMT-0500 (Central Daylight Time)","927754","Untrustworthy,Trustworthy","","729","","","","decision","","<div class='trialDiv'><img src='trustrating_stim/white_00898_960530_fa_edt.bmp'><br><font class='baseline'><strong>Daniel</strong><p>Choose number of points to send.</font><div class='respPicDiv'><img src='img/responseButtonOffersNo0L.png' class='respPic'></div></div>","5","4","Daniel","11","Shared","0.8,0.2","13","0.8","trustrating_stim/white_00898_960530_fa_edt.bmp","6.5","87","12"
"html-keyboard-response","171","551189","0.0-19.0-2.11","631381096e95278a3f97fed4","bdp_trlrn","Wed Mar 15 2023 13:40:42 GMT-0500 (Central Daylight Time)","927754","Untrustworthy,Trustworthy","","null","","","","decisionFB","","<div class='trialDiv'><img src='trustrating_stim/white_00898_960530_fa_edt.bmp'><br><font class='baseline'><strong>Daniel</strong><p>Choose number of points to send.</font><div class='respPicDiv'><img src='img/responseButtonOffersNo0L5.png' class='respPic'></div></div>","null","4","Daniel","11","Shared","0.8,0.2","13","0.8","trustrating_stim/white_00898_960530_fa_edt.bmp","6.5","82","12"
"html-keyboard-response","172","552191","0.0-19.0-3.11","631381096e95278a3f97fed4","bdp_trlrn","Wed Mar 15 2023 13:40:42 GMT-0500 (Central Daylight Time)","927754","Untrustworthy,Trustworthy","","null","","","","feedback","","<div class='trialDiv'><img src='trustrating_stim/white_00898_960530_fa_edt.bmp'><br><font class='baseline'><strong>Daniel</strong><p>Received: <strong>20</strong></font> &nbsp; &nbsp; &nbsp; &nbsp; &nbsp; &nbsp;<font class='posOutcome'>Shared back: <strong>10</strong></font></font><div class='respPicDiv'><img src='img/responseButtonOffersNo0_wht.png' class='respPic'></div></div>","null","4","Daniel","11","Shared","0.8,0.2","13","0.8","trustrating_stim/white_00898_960530_fa_edt.bmp","6.5","92","12"
"html-keyboard-response","173","554129","0.0-19.0-1.12","631381096e95278a3f97fed4","bdp_trlrn","Wed Mar 15 2023 13:40:42 GMT-0500 (Central Daylight Time)","927754","Untrustworthy,Trustworthy","","1938","","","","decision","","<div class='trialDiv'><img src='trustrating_stim/white_mw060.bmp'><br><font class='baseline'><strong>Gavin</strong><p>Choose number of points to send.</font><div class='respPicDiv'><img src='img/responseButtonOffersNo0L.png' class='respPic'></div></div>","5","5","Gavin","0","Shared","0.65,0.2","13","0.65","trustrating_stim/white_mw060.bmp","3","97","13"
"html-keyboard-response","174","554380","0.0-19.0-2.12","631381096e95278a3f97fed4","bdp_trlrn","Wed Mar 15 2023 13:40:42 GMT-0500 (Central Daylight Time)","927754","Untrustworthy,Trustworthy","","null","","","","decisionFB","","<div class='trialDiv'><img src='trustrating_stim/white_mw060.bmp'><br><font class='baseline'><strong>Gavin</strong><p>Choose number of points to send.</font><div class='respPicDiv'><img src='img/responseButtonOffersNo0L5.png' class='respPic'></div></div>","null","5","Gavin","0","Shared","0.65,0.2","13","0.65","trustrating_stim/white_mw060.bmp","3","92","13"
"html-keyboard-response","175","555382","0.0-19.0-3.12","631381096e95278a3f97fed4","bdp_trlrn","Wed Mar 15 2023 13:40:42 GMT-0500 (Central Daylight Time)","927754","Untrustworthy,Trustworthy","","null","","","","feedback","","<div class='trialDiv'><img src='trustrating_stim/white_mw060.bmp'><br><font class='baseline'><strong>Gavin</strong><p>Received: <strong>20</strong></font> &nbsp; &nbsp; &nbsp; &nbsp; &nbsp; &nbsp;<font class='posOutcome'>Shared back: <strong>10</strong></font></font><div class='respPicDiv'><img src='img/responseButtonOffersNo0_wht.png' class='respPic'></div></div>","null","5","Gavin","0","Shared","0.65,0.2","13","0.65","trustrating_stim/white_mw060.bmp","3","102","13"
"html-keyboard-response","176","556272","0.0-19.0-1.13","631381096e95278a3f97fed4","bdp_trlrn","Wed Mar 15 2023 13:40:42 GMT-0500 (Central Daylight Time)","927754","Untrustworthy,Trustworthy","","889","","","","decision","","<div class='trialDiv'><img src='trustrating_stim/white_00109_931230_fa_edt.bmp'><br><font class='baseline'><strong>Ethan</strong><p>Choose number of points to send.</font><div class='respPicDiv'><img src='img/responseButtonOffersNo0L.png' class='respPic'></div></div>","3","5","Ethan","7","Kept","0.35,0.8","13","0.35","trustrating_stim/white_00109_931230_fa_edt.bmp","4.5","107","14"
"html-keyboard-response","177","556523","0.0-19.0-2.13","631381096e95278a3f97fed4","bdp_trlrn","Wed Mar 15 2023 13:40:42 GMT-0500 (Central Daylight Time)","927754","Untrustworthy,Trustworthy","","null","","","","decisionFB","","<div class='trialDiv'><img src='trustrating_stim/white_00109_931230_fa_edt.bmp'><br><font class='baseline'><strong>Ethan</strong><p>Choose number of points to send.</font><div class='respPicDiv'><img src='img/responseButtonOffersNo0L3.png' class='respPic'></div></div>","null","5","Ethan","7","Kept","0.35,0.8","13","0.35","trustrating_stim/white_00109_931230_fa_edt.bmp","4.5","104","14"
"html-keyboard-response","178","557525","0.0-19.0-3.13","631381096e95278a3f97fed4","bdp_trlrn","Wed Mar 15 2023 13:40:42 GMT-0500 (Central Daylight Time)","927754","Untrustworthy,Trustworthy","","null","","","","feedback","","<div class='trialDiv'><img src='trustrating_stim/white_00109_931230_fa_edt.bmp'><br><font class='baseline'><strong>Ethan</strong><p>Received: <strong>12</strong></font> &nbsp; &nbsp; &nbsp; &nbsp; &nbsp; &nbsp;<font class='negOutcome'>Shared back: <strong>0</strong></font></font><div class='respPicDiv'><img src='img/responseButtonOffersNo0_wht.png' class='respPic'></div></div>","null","5","Ethan","7","Kept","0.35,0.8","13","0.35","trustrating_stim/white_00109_931230_fa_edt.bmp","4.5","104","14"
"html-keyboard-response","179","558280","0.0-19.0-1.14","631381096e95278a3f97fed4","bdp_trlrn","Wed Mar 15 2023 13:40:42 GMT-0500 (Central Daylight Time)","927754","Untrustworthy,Trustworthy","","755","","","","decision","","<div class='trialDiv'><img src='trustrating_stim/white_00898_960530_fa_edt.bmp'><br><font class='baseline'><strong>Daniel</strong><p>Choose number of points to send.</font><div class='respPicDiv'><img src='img/responseButtonOffersNo0L.png' class='respPic'></div></div>","5","5","Daniel","11","Shared","0.8,0.2","13","0.8","trustrating_stim/white_00898_960530_fa_edt.bmp","6.5","109","15"
"html-keyboard-response","180","558531","0.0-19.0-2.14","631381096e95278a3f97fed4","bdp_trlrn","Wed Mar 15 2023 13:40:42 GMT-0500 (Central Daylight Time)","927754","Untrustworthy,Trustworthy","","null","","","","decisionFB","","<div class='trialDiv'><img src='trustrating_stim/white_00898_960530_fa_edt.bmp'><br><font class='baseline'><strong>Daniel</strong><p>Choose number of points to send.</font><div class='respPicDiv'><img src='img/responseButtonOffersNo0L5.png' class='respPic'></div></div>","null","5","Daniel","11","Shared","0.8,0.2","13","0.8","trustrating_stim/white_00898_960530_fa_edt.bmp","6.5","104","15"
"html-keyboard-response","181","559533","0.0-19.0-3.14","631381096e95278a3f97fed4","bdp_trlrn","Wed Mar 15 2023 13:40:42 GMT-0500 (Central Daylight Time)","927754","Untrustworthy,Trustworthy","","null","","","","feedback","","<div class='trialDiv'><img src='trustrating_stim/white_00898_960530_fa_edt.bmp'><br><font class='baseline'><strong>Daniel</strong><p>Received: <strong>20</strong></font> &nbsp; &nbsp; &nbsp; &nbsp; &nbsp; &nbsp;<font class='posOutcome'>Shared back: <strong>10</strong></font></font><div class='respPicDiv'><img src='img/responseButtonOffersNo0_wht.png' class='respPic'></div></div>","null","5","Daniel","11","Shared","0.8,0.2","13","0.8","trustrating_stim/white_00898_960530_fa_edt.bmp","6.5","114","15"
"html-keyboard-response","182","561453","0.0-19.0-1.15","631381096e95278a3f97fed4","bdp_trlrn","Wed Mar 15 2023 13:40:42 GMT-0500 (Central Daylight Time)","927754","Untrustworthy,Trustworthy","","1918","","","","decision","","<div class='trialDiv'><img src='trustrating_stim/white_00109_931230_fa_edt.bmp'><br><font class='baseline'><strong>Ethan</strong><p>Choose number of points to send.</font><div class='respPicDiv'><img src='img/responseButtonOffersNo0L.png' class='respPic'></div></div>","3","6","Ethan","7","Kept","0.35,0.8","13","0.35","trustrating_stim/white_00109_931230_fa_edt.bmp","4.5","119","16"
"html-keyboard-response","183","561704","0.0-19.0-2.15","631381096e95278a3f97fed4","bdp_trlrn","Wed Mar 15 2023 13:40:42 GMT-0500 (Central Daylight Time)","927754","Untrustworthy,Trustworthy","","null","","","","decisionFB","","<div class='trialDiv'><img src='trustrating_stim/white_00109_931230_fa_edt.bmp'><br><font class='baseline'><strong>Ethan</strong><p>Choose number of points to send.</font><div class='respPicDiv'><img src='img/responseButtonOffersNo0L3.png' class='respPic'></div></div>","null","6","Ethan","7","Kept","0.35,0.8","13","0.35","trustrating_stim/white_00109_931230_fa_edt.bmp","4.5","116","16"
"html-keyboard-response","184","562706","0.0-19.0-3.15","631381096e95278a3f97fed4","bdp_trlrn","Wed Mar 15 2023 13:40:42 GMT-0500 (Central Daylight Time)","927754","Untrustworthy,Trustworthy","","null","","","","feedback","","<div class='trialDiv'><img src='trustrating_stim/white_00109_931230_fa_edt.bmp'><br><font class='baseline'><strong>Ethan</strong><p>Received: <strong>12</strong></font> &nbsp; &nbsp; &nbsp; &nbsp; &nbsp; &nbsp;<font class='negOutcome'>Shared back: <strong>0</strong></font></font><div class='respPicDiv'><img src='img/responseButtonOffersNo0_wht.png' class='respPic'></div></div>","null","6","Ethan","7","Kept","0.35,0.8","13","0.35","trustrating_stim/white_00109_931230_fa_edt.bmp","4.5","116","16"
"html-keyboard-response","185","564317","0.0-19.0-1.16","631381096e95278a3f97fed4","bdp_trlrn","Wed Mar 15 2023 13:40:42 GMT-0500 (Central Daylight Time)","927754","Untrustworthy,Trustworthy","","1610","","","","decision","","<div class='trialDiv'><img src='trustrating_stim/white_mw060.bmp'><br><font class='baseline'><strong>Gavin</strong><p>Choose number of points to send.</font><div class='respPicDiv'><img src='img/responseButtonOffersNo0L.png' class='respPic'></div></div>","5","6","Gavin","0","Shared","0.65,0.2","13","0.65","trustrating_stim/white_mw060.bmp","3","121","17"
"html-keyboard-response","186","564568","0.0-19.0-2.16","631381096e95278a3f97fed4","bdp_trlrn","Wed Mar 15 2023 13:40:42 GMT-0500 (Central Daylight Time)","927754","Untrustworthy,Trustworthy","","null","","","","decisionFB","","<div class='trialDiv'><img src='trustrating_stim/white_mw060.bmp'><br><font class='baseline'><strong>Gavin</strong><p>Choose number of points to send.</font><div class='respPicDiv'><img src='img/responseButtonOffersNo0L5.png' class='respPic'></div></div>","null","6","Gavin","0","Shared","0.65,0.2","13","0.65","trustrating_stim/white_mw060.bmp","3","116","17"
"html-keyboard-response","187","565570","0.0-19.0-3.16","631381096e95278a3f97fed4","bdp_trlrn","Wed Mar 15 2023 13:40:42 GMT-0500 (Central Daylight Time)","927754","Untrustworthy,Trustworthy","","null","","","","feedback","","<div class='trialDiv'><img src='trustrating_stim/white_mw060.bmp'><br><font class='baseline'><strong>Gavin</strong><p>Received: <strong>20</strong></font> &nbsp; &nbsp; &nbsp; &nbsp; &nbsp; &nbsp;<font class='posOutcome'>Shared back: <strong>10</strong></font></font><div class='respPicDiv'><img src='img/responseButtonOffersNo0_wht.png' class='respPic'></div></div>","null","6","Gavin","0","Shared","0.65,0.2","13","0.65","trustrating_stim/white_mw060.bmp","3","126","17"
"html-keyboard-response","188","566318","0.0-19.0-1.17","631381096e95278a3f97fed4","bdp_trlrn","Wed Mar 15 2023 13:40:42 GMT-0500 (Central Daylight Time)","927754","Untrustworthy,Trustworthy","","747","","","","decision","","<div class='trialDiv'><img src='trustrating_stim/white_00898_960530_fa_edt.bmp'><br><font class='baseline'><strong>Daniel</strong><p>Choose number of points to send.</font><div class='respPicDiv'><img src='img/responseButtonOffersNo0L.png' class='respPic'></div></div>","5","6","Daniel","11","Shared","0.8,0.2","13","0.8","trustrating_stim/white_00898_960530_fa_edt.bmp","6.5","131","18"
"html-keyboard-response","189","566569","0.0-19.0-2.17","631381096e95278a3f97fed4","bdp_trlrn","Wed Mar 15 2023 13:40:42 GMT-0500 (Central Daylight Time)","927754","Untrustworthy,Trustworthy","","null","","","","decisionFB","","<div class='trialDiv'><img src='trustrating_stim/white_00898_960530_fa_edt.bmp'><br><font class='baseline'><strong>Daniel</strong><p>Choose number of points to send.</font><div class='respPicDiv'><img src='img/responseButtonOffersNo0L5.png' class='respPic'></div></div>","null","6","Daniel","11","Shared","0.8,0.2","13","0.8","trustrating_stim/white_00898_960530_fa_edt.bmp","6.5","126","18"
"html-keyboard-response","190","567572","0.0-19.0-3.17","631381096e95278a3f97fed4","bdp_trlrn","Wed Mar 15 2023 13:40:42 GMT-0500 (Central Daylight Time)","927754","Untrustworthy,Trustworthy","","null","","","","feedback","","<div class='trialDiv'><img src='trustrating_stim/white_00898_960530_fa_edt.bmp'><br><font class='baseline'><strong>Daniel</strong><p>Received: <strong>20</strong></font> &nbsp; &nbsp; &nbsp; &nbsp; &nbsp; &nbsp;<font class='posOutcome'>Shared back: <strong>10</strong></font></font><div class='respPicDiv'><img src='img/responseButtonOffersNo0_wht.png' class='respPic'></div></div>","null","6","Daniel","11","Shared","0.8,0.2","13","0.8","trustrating_stim/white_00898_960530_fa_edt.bmp","6.5","136","18"
"html-keyboard-response","191","569022","0.0-19.0-1.18","631381096e95278a3f97fed4","bdp_trlrn","Wed Mar 15 2023 13:40:42 GMT-0500 (Central Daylight Time)","927754","Untrustworthy,Trustworthy","","1448","","","","decision","","<div class='trialDiv'><img src='trustrating_stim/white_mw060.bmp'><br><font class='baseline'><strong>Gavin</strong><p>Choose number of points to send.</font><div class='respPicDiv'><img src='img/responseButtonOffersNo0L.png' class='respPic'></div></div>","5","7","Gavin","0","Shared","0.65,0.2","13","0.65","trustrating_stim/white_mw060.bmp","3","141","19"
"html-keyboard-response","192","569274","0.0-19.0-2.18","631381096e95278a3f97fed4","bdp_trlrn","Wed Mar 15 2023 13:40:42 GMT-0500 (Central Daylight Time)","927754","Untrustworthy,Trustworthy","","null","","","","decisionFB","","<div class='trialDiv'><img src='trustrating_stim/white_mw060.bmp'><br><font class='baseline'><strong>Gavin</strong><p>Choose number of points to send.</font><div class='respPicDiv'><img src='img/responseButtonOffersNo0L5.png' class='respPic'></div></div>","null","7","Gavin","0","Shared","0.65,0.2","13","0.65","trustrating_stim/white_mw060.bmp","3","136","19"
"html-keyboard-response","193","570276","0.0-19.0-3.18","631381096e95278a3f97fed4","bdp_trlrn","Wed Mar 15 2023 13:40:42 GMT-0500 (Central Daylight Time)","927754","Untrustworthy,Trustworthy","","null","","","","feedback","","<div class='trialDiv'><img src='trustrating_stim/white_mw060.bmp'><br><font class='baseline'><strong>Gavin</strong><p>Received: <strong>20</strong></font> &nbsp; &nbsp; &nbsp; &nbsp; &nbsp; &nbsp;<font class='posOutcome'>Shared back: <strong>10</strong></font></font><div class='respPicDiv'><img src='img/responseButtonOffersNo0_wht.png' class='respPic'></div></div>","null","7","Gavin","0","Shared","0.65,0.2","13","0.65","trustrating_stim/white_mw060.bmp","3","146","19"
"html-keyboard-response","194","571147","0.0-19.0-1.19","631381096e95278a3f97fed4","bdp_trlrn","Wed Mar 15 2023 13:40:42 GMT-0500 (Central Daylight Time)","927754","Untrustworthy,Trustworthy","","869","","","","decision","","<div class='trialDiv'><img src='trustrating_stim/white_00898_960530_fa_edt.bmp'><br><font class='baseline'><strong>Daniel</strong><p>Choose number of points to send.</font><div class='respPicDiv'><img src='img/responseButtonOffersNo0L.png' class='respPic'></div></div>","5","7","Daniel","11","Shared","0.8,0.2","13","0.8","trustrating_stim/white_00898_960530_fa_edt.bmp","6.5","151","20"
"html-keyboard-response","195","571399","0.0-19.0-2.19","631381096e95278a3f97fed4","bdp_trlrn","Wed Mar 15 2023 13:40:42 GMT-0500 (Central Daylight Time)","927754","Untrustworthy,Trustworthy","","null","","","","decisionFB","","<div class='trialDiv'><img src='trustrating_stim/white_00898_960530_fa_edt.bmp'><br><font class='baseline'><strong>Daniel</strong><p>Choose number of points to send.</font><div class='respPicDiv'><img src='img/responseButtonOffersNo0L5.png' class='respPic'></div></div>","null","7","Daniel","11","Shared","0.8,0.2","13","0.8","trustrating_stim/white_00898_960530_fa_edt.bmp","6.5","146","20"
"html-keyboard-response","196","572401","0.0-19.0-3.19","631381096e95278a3f97fed4","bdp_trlrn","Wed Mar 15 2023 13:40:42 GMT-0500 (Central Daylight Time)","927754","Untrustworthy,Trustworthy","","null","","","","feedback","","<div class='trialDiv'><img src='trustrating_stim/white_00898_960530_fa_edt.bmp'><br><font class='baseline'><strong>Daniel</strong><p>Received: <strong>20</strong></font> &nbsp; &nbsp; &nbsp; &nbsp; &nbsp; &nbsp;<font class='posOutcome'>Shared back: <strong>10</strong></font></font><div class='respPicDiv'><img src='img/responseButtonOffersNo0_wht.png' class='respPic'></div></div>","null","7","Daniel","11","Shared","0.8,0.2","13","0.8","trustrating_stim/white_00898_960530_fa_edt.bmp","6.5","156","20"
"html-keyboard-response","197","573655","0.0-19.0-1.20","631381096e95278a3f97fed4","bdp_trlrn","Wed Mar 15 2023 13:40:42 GMT-0500 (Central Daylight Time)","927754","Untrustworthy,Trustworthy","","1254","","","","decision","","<div class='trialDiv'><img src='trustrating_stim/white_00109_931230_fa_edt.bmp'><br><font class='baseline'><strong>Ethan</strong><p>Choose number of points to send.</font><div class='respPicDiv'><img src='img/responseButtonOffersNo0L.png' class='respPic'></div></div>","1","7","Ethan","7","Shared","0.35,0.8","13","0.35","trustrating_stim/white_00109_931230_fa_edt.bmp","4.5","161","21"
"html-keyboard-response","198","573907","0.0-19.0-2.20","631381096e95278a3f97fed4","bdp_trlrn","Wed Mar 15 2023 13:40:42 GMT-0500 (Central Daylight Time)","927754","Untrustworthy,Trustworthy","","null","","","","decisionFB","","<div class='trialDiv'><img src='trustrating_stim/white_00109_931230_fa_edt.bmp'><br><font class='baseline'><strong>Ethan</strong><p>Choose number of points to send.</font><div class='respPicDiv'><img src='img/responseButtonOffersNo0L1.png' class='respPic'></div></div>","null","7","Ethan","7","Shared","0.35,0.8","13","0.35","trustrating_stim/white_00109_931230_fa_edt.bmp","4.5","160","21"
"html-keyboard-response","199","574908","0.0-19.0-3.20","631381096e95278a3f97fed4","bdp_trlrn","Wed Mar 15 2023 13:40:42 GMT-0500 (Central Daylight Time)","927754","Untrustworthy,Trustworthy","","null","","","","feedback","","<div class='trialDiv'><img src='trustrating_stim/white_00109_931230_fa_edt.bmp'><br><font class='baseline'><strong>Ethan</strong><p>Received: <strong>4</strong></font> &nbsp; &nbsp; &nbsp; &nbsp; &nbsp; &nbsp;<font class='posOutcome'>Shared back: <strong>2</strong></font></font><div class='respPicDiv'><img src='img/responseButtonOffersNo0_wht.png' class='respPic'></div></div>","null","7","Ethan","7","Shared","0.35,0.8","13","0.35","trustrating_stim/white_00109_931230_fa_edt.bmp","4.5","162","21"
"html-keyboard-response","200","575803","0.0-19.0-1.21","631381096e95278a3f97fed4","bdp_trlrn","Wed Mar 15 2023 13:40:42 GMT-0500 (Central Daylight Time)","927754","Untrustworthy,Trustworthy","","894","","","","decision","","<div class='trialDiv'><img src='trustrating_stim/white_00898_960530_fa_edt.bmp'><br><font class='baseline'><strong>Daniel</strong><p>Choose number of points to send.</font><div class='respPicDiv'><img src='img/responseButtonOffersNo0L.png' class='respPic'></div></div>","5","8","Daniel","11","Shared","0.8,0.2","13","0.8","trustrating_stim/white_00898_960530_fa_edt.bmp","6.5","167","22"
"html-keyboard-response","201","576054","0.0-19.0-2.21","631381096e95278a3f97fed4","bdp_trlrn","Wed Mar 15 2023 13:40:42 GMT-0500 (Central Daylight Time)","927754","Untrustworthy,Trustworthy","","null","","","","decisionFB","","<div class='trialDiv'><img src='trustrating_stim/white_00898_960530_fa_edt.bmp'><br><font class='baseline'><strong>Daniel</strong><p>Choose number of points to send.</font><div class='respPicDiv'><img src='img/responseButtonOffersNo0L5.png' class='respPic'></div></div>","null","8","Daniel","11","Shared","0.8,0.2","13","0.8","trustrating_stim/white_00898_960530_fa_edt.bmp","6.5","162","22"
"html-keyboard-response","202","577056","0.0-19.0-3.21","631381096e95278a3f97fed4","bdp_trlrn","Wed Mar 15 2023 13:40:42 GMT-0500 (Central Daylight Time)","927754","Untrustworthy,Trustworthy","","null","","","","feedback","","<div class='trialDiv'><img src='trustrating_stim/white_00898_960530_fa_edt.bmp'><br><font class='baseline'><strong>Daniel</strong><p>Received: <strong>20</strong></font> &nbsp; &nbsp; &nbsp; &nbsp; &nbsp; &nbsp;<font class='posOutcome'>Shared back: <strong>10</strong></font></font><div class='respPicDiv'><img src='img/responseButtonOffersNo0_wht.png' class='respPic'></div></div>","null","8","Daniel","11","Shared","0.8,0.2","13","0.8","trustrating_stim/white_00898_960530_fa_edt.bmp","6.5","172","22"
"html-keyboard-response","203","577890","0.0-19.0-1.22","631381096e95278a3f97fed4","bdp_trlrn","Wed Mar 15 2023 13:40:42 GMT-0500 (Central Daylight Time)","927754","Untrustworthy,Trustworthy","","832","","","","decision","","<div class='trialDiv'><img src='trustrating_stim/white_mw060.bmp'><br><font class='baseline'><strong>Gavin</strong><p>Choose number of points to send.</font><div class='respPicDiv'><img src='img/responseButtonOffersNo0L.png' class='respPic'></div></div>","5","8","Gavin","0","Kept","0.65,0.2","13","0.65","trustrating_stim/white_mw060.bmp","3","177","23"
"html-keyboard-response","204","578140","0.0-19.0-2.22","631381096e95278a3f97fed4","bdp_trlrn","Wed Mar 15 2023 13:40:42 GMT-0500 (Central Daylight Time)","927754","Untrustworthy,Trustworthy","","null","","","","decisionFB","","<div class='trialDiv'><img src='trustrating_stim/white_mw060.bmp'><br><font class='baseline'><strong>Gavin</strong><p>Choose number of points to send.</font><div class='respPicDiv'><img src='img/responseButtonOffersNo0L5.png' class='respPic'></div></div>","null","8","Gavin","0","Kept","0.65,0.2","13","0.65","trustrating_stim/white_mw060.bmp","3","172","23"
"html-keyboard-response","205","579142","0.0-19.0-3.22","631381096e95278a3f97fed4","bdp_trlrn","Wed Mar 15 2023 13:40:42 GMT-0500 (Central Daylight Time)","927754","Untrustworthy,Trustworthy","","null","","","","feedback","","<div class='trialDiv'><img src='trustrating_stim/white_mw060.bmp'><br><font class='baseline'><strong>Gavin</strong><p>Received: <strong>20</strong></font> &nbsp; &nbsp; &nbsp; &nbsp; &nbsp; &nbsp;<font class='negOutcome'>Shared back: <strong>0</strong></font></font><div class='respPicDiv'><img src='img/responseButtonOffersNo0_wht.png' class='respPic'></div></div>","null","8","Gavin","0","Kept","0.65,0.2","13","0.65","trustrating_stim/white_mw060.bmp","3","172","23"
"html-keyboard-response","206","580702","0.0-19.0-1.23","631381096e95278a3f97fed4","bdp_trlrn","Wed Mar 15 2023 13:40:42 GMT-0500 (Central Daylight Time)","927754","Untrustworthy,Trustworthy","","1559","","","","decision","","<div class='trialDiv'><img src='trustrating_stim/white_00109_931230_fa_edt.bmp'><br><font class='baseline'><strong>Ethan</strong><p>Choose number of points to send.</font><div class='respPicDiv'><img src='img/responseButtonOffersNo0L.png' class='respPic'></div></div>","1","8","Ethan","7","Shared","0.35,0.8","13","0.35","trustrating_stim/white_00109_931230_fa_edt.bmp","4.5","177","24"
"html-keyboard-response","207","580953","0.0-19.0-2.23","631381096e95278a3f97fed4","bdp_trlrn","Wed Mar 15 2023 13:40:42 GMT-0500 (Central Daylight Time)","927754","Untrustworthy,Trustworthy","","null","","","","decisionFB","","<div class='trialDiv'><img src='trustrating_stim/white_00109_931230_fa_edt.bmp'><br><font class='baseline'><strong>Ethan</strong><p>Choose number of points to send.</font><div class='respPicDiv'><img src='img/responseButtonOffersNo0L1.png' class='respPic'></div></div>","null","8","Ethan","7","Shared","0.35,0.8","13","0.35","trustrating_stim/white_00109_931230_fa_edt.bmp","4.5","176","24"
"html-keyboard-response","208","581957","0.0-19.0-3.23","631381096e95278a3f97fed4","bdp_trlrn","Wed Mar 15 2023 13:40:42 GMT-0500 (Central Daylight Time)","927754","Untrustworthy,Trustworthy","","null","","","","feedback","","<div class='trialDiv'><img src='trustrating_stim/white_00109_931230_fa_edt.bmp'><br><font class='baseline'><strong>Ethan</strong><p>Received: <strong>4</strong></font> &nbsp; &nbsp; &nbsp; &nbsp; &nbsp; &nbsp;<font class='posOutcome'>Shared back: <strong>2</strong></font></font><div class='respPicDiv'><img src='img/responseButtonOffersNo0_wht.png' class='respPic'></div></div>","null","8","Ethan","7","Shared","0.35,0.8","13","0.35","trustrating_stim/white_00109_931230_fa_edt.bmp","4.5","178","24"
"html-keyboard-response","209","582672","0.0-19.0-1.24","631381096e95278a3f97fed4","bdp_trlrn","Wed Mar 15 2023 13:40:42 GMT-0500 (Central Daylight Time)","927754","Untrustworthy,Trustworthy","","714","","","","decision","","<div class='trialDiv'><img src='trustrating_stim/white_00898_960530_fa_edt.bmp'><br><font class='baseline'><strong>Daniel</strong><p>Choose number of points to send.</font><div class='respPicDiv'><img src='img/responseButtonOffersNo0L.png' class='respPic'></div></div>","5","9","Daniel","11","Shared","0.8,0.2","13","0.8","trustrating_stim/white_00898_960530_fa_edt.bmp","6.5","183","25"
"html-keyboard-response","210","582923","0.0-19.0-2.24","631381096e95278a3f97fed4","bdp_trlrn","Wed Mar 15 2023 13:40:42 GMT-0500 (Central Daylight Time)","927754","Untrustworthy,Trustworthy","","null","","","","decisionFB","","<div class='trialDiv'><img src='trustrating_stim/white_00898_960530_fa_edt.bmp'><br><font class='baseline'><strong>Daniel</strong><p>Choose number of points to send.</font><div class='respPicDiv'><img src='img/responseButtonOffersNo0L5.png' class='respPic'></div></div>","null","9","Daniel","11","Shared","0.8,0.2","13","0.8","trustrating_stim/white_00898_960530_fa_edt.bmp","6.5","178","25"
"html-keyboard-response","211","583925","0.0-19.0-3.24","631381096e95278a3f97fed4","bdp_trlrn","Wed Mar 15 2023 13:40:42 GMT-0500 (Central Daylight Time)","927754","Untrustworthy,Trustworthy","","null","","","","feedback","","<div class='trialDiv'><img src='trustrating_stim/white_00898_960530_fa_edt.bmp'><br><font class='baseline'><strong>Daniel</strong><p>Received: <strong>20</strong></font> &nbsp; &nbsp; &nbsp; &nbsp; &nbsp; &nbsp;<font class='posOutcome'>Shared back: <strong>10</strong></font></font><div class='respPicDiv'><img src='img/responseButtonOffersNo0_wht.png' class='respPic'></div></div>","null","9","Daniel","11","Shared","0.8,0.2","13","0.8","trustrating_stim/white_00898_960530_fa_edt.bmp","6.5","188","25"
"html-keyboard-response","212","585475","0.0-19.0-1.25","631381096e95278a3f97fed4","bdp_trlrn","Wed Mar 15 2023 13:40:42 GMT-0500 (Central Daylight Time)","927754","Untrustworthy,Trustworthy","","1548","","","","decision","","<div class='trialDiv'><img src='trustrating_stim/white_00109_931230_fa_edt.bmp'><br><font class='baseline'><strong>Ethan</strong><p>Choose number of points to send.</font><div class='respPicDiv'><img src='img/responseButtonOffersNo0L.png' class='respPic'></div></div>","1","9","Ethan","7","Kept","0.35,0.8","13","0.35","trustrating_stim/white_00109_931230_fa_edt.bmp","4.5","193","26"
"html-keyboard-response","213","585726","0.0-19.0-2.25","631381096e95278a3f97fed4","bdp_trlrn","Wed Mar 15 2023 13:40:42 GMT-0500 (Central Daylight Time)","927754","Untrustworthy,Trustworthy","","null","","","","decisionFB","","<div class='trialDiv'><img src='trustrating_stim/white_00109_931230_fa_edt.bmp'><br><font class='baseline'><strong>Ethan</strong><p>Choose number of points to send.</font><div class='respPicDiv'><img src='img/responseButtonOffersNo0L1.png' class='respPic'></div></div>","null","9","Ethan","7","Kept","0.35,0.8","13","0.35","trustrating_stim/white_00109_931230_fa_edt.bmp","4.5","192","26"
"html-keyboard-response","214","586728","0.0-19.0-3.25","631381096e95278a3f97fed4","bdp_trlrn","Wed Mar 15 2023 13:40:42 GMT-0500 (Central Daylight Time)","927754","Untrustworthy,Trustworthy","","null","","","","feedback","","<div class='trialDiv'><img src='trustrating_stim/white_00109_931230_fa_edt.bmp'><br><font class='baseline'><strong>Ethan</strong><p>Received: <strong>4</strong></font> &nbsp; &nbsp; &nbsp; &nbsp; &nbsp; &nbsp;<font class='negOutcome'>Shared back: <strong>0</strong></font></font><div class='respPicDiv'><img src='img/responseButtonOffersNo0_wht.png' class='respPic'></div></div>","null","9","Ethan","7","Kept","0.35,0.8","13","0.35","trustrating_stim/white_00109_931230_fa_edt.bmp","4.5","192","26"
"html-keyboard-response","215","587850","0.0-19.0-1.26","631381096e95278a3f97fed4","bdp_trlrn","Wed Mar 15 2023 13:40:42 GMT-0500 (Central Daylight Time)","927754","Untrustworthy,Trustworthy","","1121","","","","decision","","<div class='trialDiv'><img src='trustrating_stim/white_mw060.bmp'><br><font class='baseline'><strong>Gavin</strong><p>Choose number of points to send.</font><div class='respPicDiv'><img src='img/responseButtonOffersNo0L.png' class='respPic'></div></div>","3","9","Gavin","0","Kept","0.65,0.2","13","0.65","trustrating_stim/white_mw060.bmp","3","197","27"
"html-keyboard-response","216","588101","0.0-19.0-2.26","631381096e95278a3f97fed4","bdp_trlrn","Wed Mar 15 2023 13:40:42 GMT-0500 (Central Daylight Time)","927754","Untrustworthy,Trustworthy","","null","","","","decisionFB","","<div class='trialDiv'><img src='trustrating_stim/white_mw060.bmp'><br><font class='baseline'><strong>Gavin</strong><p>Choose number of points to send.</font><div class='respPicDiv'><img src='img/responseButtonOffersNo0L3.png' class='respPic'></div></div>","null","9","Gavin","0","Kept","0.65,0.2","13","0.65","trustrating_stim/white_mw060.bmp","3","194","27"
"html-keyboard-response","217","589104","0.0-19.0-3.26","631381096e95278a3f97fed4","bdp_trlrn","Wed Mar 15 2023 13:40:42 GMT-0500 (Central Daylight Time)","927754","Untrustworthy,Trustworthy","","null","","","","feedback","","<div class='trialDiv'><img src='trustrating_stim/white_mw060.bmp'><br><font class='baseline'><strong>Gavin</strong><p>Received: <strong>12</strong></font> &nbsp; &nbsp; &nbsp; &nbsp; &nbsp; &nbsp;<font class='negOutcome'>Shared back: <strong>0</strong></font></font><div class='respPicDiv'><img src='img/responseButtonOffersNo0_wht.png' class='respPic'></div></div>","null","9","Gavin","0","Kept","0.65,0.2","13","0.65","trustrating_stim/white_mw060.bmp","3","194","27"
"html-keyboard-response","218","589687","0.0-19.0-1.27","631381096e95278a3f97fed4","bdp_trlrn","Wed Mar 15 2023 13:40:42 GMT-0500 (Central Daylight Time)","927754","Untrustworthy,Trustworthy","","582","","","","decision","","<div class='trialDiv'><img src='trustrating_stim/white_00898_960530_fa_edt.bmp'><br><font class='baseline'><strong>Daniel</strong><p>Choose number of points to send.</font><div class='respPicDiv'><img src='img/responseButtonOffersNo0L.png' class='respPic'></div></div>","5","10","Daniel","11","Shared","0.8,0.2","13","0.8","trustrating_stim/white_00898_960530_fa_edt.bmp","6.5","199","28"
"html-keyboard-response","219","589938","0.0-19.0-2.27","631381096e95278a3f97fed4","bdp_trlrn","Wed Mar 15 2023 13:40:42 GMT-0500 (Central Daylight Time)","927754","Untrustworthy,Trustworthy","","null","","","","decisionFB","","<div class='trialDiv'><img src='trustrating_stim/white_00898_960530_fa_edt.bmp'><br><font class='baseline'><strong>Daniel</strong><p>Choose number of points to send.</font><div class='respPicDiv'><img src='img/responseButtonOffersNo0L5.png' class='respPic'></div></div>","null","10","Daniel","11","Shared","0.8,0.2","13","0.8","trustrating_stim/white_00898_960530_fa_edt.bmp","6.5","194","28"
