"event","trial","time","trialtype","numBlurs","subject_id","task","startTime","totalTime","labels","trial_type","trial_index","time_elapsed","internal_node_id","view_history","rt","success","stimulus","key_press","aground","name","face","outcome","agenttype","agentswpt","agentcurrpshare","point_total","round"
"blur","0","0","blurevent","1","5fa774ae1bcae04f0bd898b3","bdp_trlrn","Tue May 11 2021 15:36:11 GMT-0400 (Eastern Daylight Time)","592714","Untrustworthy,Trustworthy","","","","","","","","","","","","","","","","","",""
"focus","0","0","focusevent","","5fa774ae1bcae04f0bd898b3","bdp_trlrn","Tue May 11 2021 15:36:11 GMT-0400 (Eastern Daylight Time)","592714","Untrustworthy,Trustworthy","","","","","","","","","","","","","","","","","",""
"blur","0","0","blurevent","","5fa774ae1bcae04f0bd898b3","bdp_trlrn","Tue May 11 2021 15:36:11 GMT-0400 (Eastern Daylight Time)","592714","Untrustworthy,Trustworthy","","","","","","","","","","","","","","","","","",""
"","","","","","5fa774ae1bcae04f0bd898b3","bdp_trlrn","Tue May 11 2021 15:36:11 GMT-0400 (Eastern Daylight Time)","592714","Untrustworthy,Trustworthy","pavlovia","0","9","0.0-0.0","","","","","","","","","","","","","",""
"focus","1","5599","focusevent","","5fa774ae1bcae04f0bd898b3","bdp_trlrn","Tue May 11 2021 15:36:11 GMT-0400 (Eastern Daylight Time)","592714","Untrustworthy,Trustworthy","","","","","","","","","","","","","","","","","",""
"","","","","","5fa774ae1bcae04f0bd898b3","bdp_trlrn","Tue May 11 2021 15:36:11 GMT-0400 (Eastern Daylight Time)","592714","Untrustworthy,Trustworthy","instructions","1","10396","0.0-1.0","[{""page_index"":0,""viewing_time"":10385}]","10385","","","","","","","","","","","",""
"fullscreenenter","2","13668","fullscreenenter","","5fa774ae1bcae04f0bd898b3","bdp_trlrn","Tue May 11 2021 15:36:11 GMT-0400 (Eastern Daylight Time)","592714","Untrustworthy,Trustworthy","","","","","","","","","","","","","","","","","",""
"","","","","","5fa774ae1bcae04f0bd898b3","bdp_trlrn","Tue May 11 2021 15:36:11 GMT-0400 (Eastern Daylight Time)","592714","Untrustworthy,Trustworthy","fullscreen","2","14653","0.0-2.0","","","true","","","","","","","","","","",""
"","","","","","5fa774ae1bcae04f0bd898b3","bdp_trlrn","Tue May 11 2021 15:36:11 GMT-0400 (Eastern Daylight Time)","592714","Untrustworthy,Trustworthy","instructions","3","40447","0.0-4.0","[{""page_index"":0,""viewing_time"":13776},{""page_index"":1,""viewing_time"":12014}]","25791","","","","","","","","","","","",""
"","","","","","5fa774ae1bcae04f0bd898b3","bdp_trlrn","Tue May 11 2021 15:36:11 GMT-0400 (Eastern Daylight Time)","592714","Untrustworthy,Trustworthy","instructions","4","46933","0.0-5.0","[{""page_index"":0,""viewing_time"":6484}]","6484","","","","","","","","","","","",""
"","","","rating","","5fa774ae1bcae04f0bd898b3","bdp_trlrn","Tue May 11 2021 15:36:11 GMT-0400 (Eastern Daylight Time)","592714","Untrustworthy,Trustworthy","image-keyboard-response","5","58118","0.0-6.0-1.0","","11081","","trustrating_stim/white_00658_941121_fb_edt.bmp","6","","","","","","","","",""
"","","","ratingFB","","5fa774ae1bcae04f0bd898b3","bdp_trlrn","Tue May 11 2021 15:36:11 GMT-0400 (Eastern Daylight Time)","592714","Untrustworthy,Trustworthy","image-keyboard-response","6","58320","0.0-6.0-2.0","","null","","trustrating_stim/white_00658_941121_fb_edt.bmp","null","","","","","","","","",""
"","","","rating","","5fa774ae1bcae04f0bd898b3","bdp_trlrn","Tue May 11 2021 15:36:11 GMT-0400 (Eastern Daylight Time)","592714","Untrustworthy,Trustworthy","image-keyboard-response","7","61487","0.0-6.0-1.1","","3065","","trustrating_stim/white_00785_941205_fb_edt.bmp","5","","","","","","","","",""
"","","","ratingFB","","5fa774ae1bcae04f0bd898b3","bdp_trlrn","Tue May 11 2021 15:36:11 GMT-0400 (Eastern Daylight Time)","592714","Untrustworthy,Trustworthy","image-keyboard-response","8","61691","0.0-6.0-2.1","","null","","trustrating_stim/white_00785_941205_fb_edt.bmp","null","","","","","","","","",""
"","","","rating","","5fa774ae1bcae04f0bd898b3","bdp_trlrn","Tue May 11 2021 15:36:11 GMT-0400 (Eastern Daylight Time)","592714","Untrustworthy,Trustworthy","image-keyboard-response","9","63245","0.0-6.0-1.2","","1452","","trustrating_stim/white_00761_941201_fb_edt.bmp","8","","","","","","","","",""
"","","","ratingFB","","5fa774ae1bcae04f0bd898b3","bdp_trlrn","Tue May 11 2021 15:36:11 GMT-0400 (Eastern Daylight Time)","592714","Untrustworthy,Trustworthy","image-keyboard-response","10","63448","0.0-6.0-2.2","","null","","trustrating_stim/white_00761_941201_fb_edt.bmp","null","","","","","","","","",""
"","","","rating","","5fa774ae1bcae04f0bd898b3","bdp_trlrn","Tue May 11 2021 15:36:11 GMT-0400 (Eastern Daylight Time)","592714","Untrustworthy,Trustworthy","image-keyboard-response","11","65157","0.0-6.0-1.3","","1606","","trustrating_stim/white_00757_941201_fa_edt.bmp","7","","","","","","","","",""
"","","","ratingFB","","5fa774ae1bcae04f0bd898b3","bdp_trlrn","Tue May 11 2021 15:36:11 GMT-0400 (Eastern Daylight Time)","592714","Untrustworthy,Trustworthy","image-keyboard-response","12","65359","0.0-6.0-2.3","","null","","trustrating_stim/white_00757_941201_fa_edt.bmp","null","","","","","","","","",""
"","","","rating","","5fa774ae1bcae04f0bd898b3","bdp_trlrn","Tue May 11 2021 15:36:11 GMT-0400 (Eastern Daylight Time)","592714","Untrustworthy,Trustworthy","image-keyboard-response","13","66924","0.0-6.0-1.4","","1462","","trustrating_stim/white_mw012.bmp","3","","","","","","","","",""
"","","","ratingFB","","5fa774ae1bcae04f0bd898b3","bdp_trlrn","Tue May 11 2021 15:36:11 GMT-0400 (Eastern Daylight Time)","592714","Untrustworthy,Trustworthy","image-keyboard-response","14","67127","0.0-6.0-2.4","","null","","trustrating_stim/white_mw012.bmp","null","","","","","","","","",""
"","","","rating","","5fa774ae1bcae04f0bd898b3","bdp_trlrn","Tue May 11 2021 15:36:11 GMT-0400 (Eastern Daylight Time)","592714","Untrustworthy,Trustworthy","image-keyboard-response","15","68525","0.0-6.0-1.5","","1295","","trustrating_stim/white_00120_931230_fa_edt.bmp","8","","","","","","","","",""
"","","","ratingFB","","5fa774ae1bcae04f0bd898b3","bdp_trlrn","Tue May 11 2021 15:36:11 GMT-0400 (Eastern Daylight Time)","592714","Untrustworthy,Trustworthy","image-keyboard-response","16","68726","0.0-6.0-2.5","","null","","trustrating_stim/white_00120_931230_fa_edt.bmp","null","","","","","","","","",""
"","","","rating","","5fa774ae1bcae04f0bd898b3","bdp_trlrn","Tue May 11 2021 15:36:11 GMT-0400 (Eastern Daylight Time)","592714","Untrustworthy,Trustworthy","image-keyboard-response","17","70068","0.0-6.0-1.6","","1239","","trustrating_stim/white_mw089.bmp","2","","","","","","","","",""
"","","","ratingFB","","5fa774ae1bcae04f0bd898b3","bdp_trlrn","Tue May 11 2021 15:36:11 GMT-0400 (Eastern Daylight Time)","592714","Untrustworthy,Trustworthy","image-keyboard-response","18","70270","0.0-6.0-2.6","","null","","trustrating_stim/white_mw089.bmp","null","","","","","","","","",""
"","","","rating","","5fa774ae1bcae04f0bd898b3","bdp_trlrn","Tue May 11 2021 15:36:11 GMT-0400 (Eastern Daylight Time)","592714","Untrustworthy,Trustworthy","image-keyboard-response","19","72107","0.0-6.0-1.7","","1735","","trustrating_stim/white_mw051.bmp","1","","","","","","","","",""
"","","","ratingFB","","5fa774ae1bcae04f0bd898b3","bdp_trlrn","Tue May 11 2021 15:36:11 GMT-0400 (Eastern Daylight Time)","592714","Untrustworthy,Trustworthy","image-keyboard-response","20","72309","0.0-6.0-2.7","","null","","trustrating_stim/white_mw051.bmp","null","","","","","","","","",""
"","","","rating","","5fa774ae1bcae04f0bd898b3","bdp_trlrn","Tue May 11 2021 15:36:11 GMT-0400 (Eastern Daylight Time)","592714","Untrustworthy,Trustworthy","image-keyboard-response","21","74019","0.0-6.0-1.8","","1609","","trustrating_stim/white_mw080.bmp","3","","","","","","","","",""
"","","","ratingFB","","5fa774ae1bcae04f0bd898b3","bdp_trlrn","Tue May 11 2021 15:36:11 GMT-0400 (Eastern Daylight Time)","592714","Untrustworthy,Trustworthy","image-keyboard-response","22","74221","0.0-6.0-2.8","","null","","trustrating_stim/white_mw080.bmp","null","","","","","","","","",""
"","","","rating","","5fa774ae1bcae04f0bd898b3","bdp_trlrn","Tue May 11 2021 15:36:11 GMT-0400 (Eastern Daylight Time)","592714","Untrustworthy,Trustworthy","image-keyboard-response","23","76295","0.0-6.0-1.9","","1971","","trustrating_stim/white_mw066.bmp","5","","","","","","","","",""
"","","","ratingFB","","5fa774ae1bcae04f0bd898b3","bdp_trlrn","Tue May 11 2021 15:36:11 GMT-0400 (Eastern Daylight Time)","592714","Untrustworthy,Trustworthy","image-keyboard-response","24","76498","0.0-6.0-2.9","","null","","trustrating_stim/white_mw066.bmp","null","","","","","","","","",""
"","","","rating","","5fa774ae1bcae04f0bd898b3","bdp_trlrn","Tue May 11 2021 15:36:11 GMT-0400 (Eastern Daylight Time)","592714","Untrustworthy,Trustworthy","image-keyboard-response","25","77838","0.0-6.0-1.10","","1239","","trustrating_stim/white_mw035.bmp","3","","","","","","","","",""
"","","","ratingFB","","5fa774ae1bcae04f0bd898b3","bdp_trlrn","Tue May 11 2021 15:36:11 GMT-0400 (Eastern Daylight Time)","592714","Untrustworthy,Trustworthy","image-keyboard-response","26","78040","0.0-6.0-2.10","","null","","trustrating_stim/white_mw035.bmp","null","","","","","","","","",""
"","","","rating","","5fa774ae1bcae04f0bd898b3","bdp_trlrn","Tue May 11 2021 15:36:11 GMT-0400 (Eastern Daylight Time)","592714","Untrustworthy,Trustworthy","image-keyboard-response","27","79732","0.0-6.0-1.11","","1589","","trustrating_stim/white_00602_940928_fb_edt.bmp","6","","","","","","","","",""
"","","","ratingFB","","5fa774ae1bcae04f0bd898b3","bdp_trlrn","Tue May 11 2021 15:36:11 GMT-0400 (Eastern Daylight Time)","592714","Untrustworthy,Trustworthy","image-keyboard-response","28","79934","0.0-6.0-2.11","","null","","trustrating_stim/white_00602_940928_fb_edt.bmp","null","","","","","","","","",""
"","","","rating","","5fa774ae1bcae04f0bd898b3","bdp_trlrn","Tue May 11 2021 15:36:11 GMT-0400 (Eastern Daylight Time)","592714","Untrustworthy,Trustworthy","image-keyboard-response","29","81878","0.0-6.0-1.12","","1841","","trustrating_stim/white_00109_931230_fa_edt.bmp","6","","","","","","","","",""
"","","","ratingFB","","5fa774ae1bcae04f0bd898b3","bdp_trlrn","Tue May 11 2021 15:36:11 GMT-0400 (Eastern Daylight Time)","592714","Untrustworthy,Trustworthy","image-keyboard-response","30","82080","0.0-6.0-2.12","","null","","trustrating_stim/white_00109_931230_fa_edt.bmp","null","","","","","","","","",""
"","","","rating","","5fa774ae1bcae04f0bd898b3","bdp_trlrn","Tue May 11 2021 15:36:11 GMT-0400 (Eastern Daylight Time)","592714","Untrustworthy,Trustworthy","image-keyboard-response","31","83233","0.0-6.0-1.13","","1051","","trustrating_stim/white_00897_960530_fb_edt.bmp","7","","","","","","","","",""
"","","","ratingFB","","5fa774ae1bcae04f0bd898b3","bdp_trlrn","Tue May 11 2021 15:36:11 GMT-0400 (Eastern Daylight Time)","592714","Untrustworthy,Trustworthy","image-keyboard-response","32","83434","0.0-6.0-2.13","","null","","trustrating_stim/white_00897_960530_fb_edt.bmp","null","","","","","","","","",""
"","","","rating","","5fa774ae1bcae04f0bd898b3","bdp_trlrn","Tue May 11 2021 15:36:11 GMT-0400 (Eastern Daylight Time)","592714","Untrustworthy,Trustworthy","image-keyboard-response","33","85248","0.0-6.0-1.14","","1712","","trustrating_stim/white_00253_940128_fa_edt.bmp","6","","","","","","","","",""
"","","","ratingFB","","5fa774ae1bcae04f0bd898b3","bdp_trlrn","Tue May 11 2021 15:36:11 GMT-0400 (Eastern Daylight Time)","592714","Untrustworthy,Trustworthy","image-keyboard-response","34","85451","0.0-6.0-2.14","","null","","trustrating_stim/white_00253_940128_fa_edt.bmp","null","","","","","","","","",""
"","","","rating","","5fa774ae1bcae04f0bd898b3","bdp_trlrn","Tue May 11 2021 15:36:11 GMT-0400 (Eastern Daylight Time)","592714","Untrustworthy,Trustworthy","image-keyboard-response","35","86465","0.0-6.0-1.15","","911","","trustrating_stim/white_00657_941121_fa_edt.bmp","8","","","","","","","","",""
"","","","ratingFB","","5fa774ae1bcae04f0bd898b3","bdp_trlrn","Tue May 11 2021 15:36:11 GMT-0400 (Eastern Daylight Time)","592714","Untrustworthy,Trustworthy","image-keyboard-response","36","86666","0.0-6.0-2.15","","null","","trustrating_stim/white_00657_941121_fa_edt.bmp","null","","","","","","","","",""
"","","","rating","","5fa774ae1bcae04f0bd898b3","bdp_trlrn","Tue May 11 2021 15:36:11 GMT-0400 (Eastern Daylight Time)","592714","Untrustworthy,Trustworthy","image-keyboard-response","37","88017","0.0-6.0-1.16","","1248","","trustrating_stim/white_00960_960627_fb_edt.bmp","3","","","","","","","","",""
"","","","ratingFB","","5fa774ae1bcae04f0bd898b3","bdp_trlrn","Tue May 11 2021 15:36:11 GMT-0400 (Eastern Daylight Time)","592714","Untrustworthy,Trustworthy","image-keyboard-response","38","88219","0.0-6.0-2.16","","null","","trustrating_stim/white_00960_960627_fb_edt.bmp","null","","","","","","","","",""
"","","","rating","","5fa774ae1bcae04f0bd898b3","bdp_trlrn","Tue May 11 2021 15:36:11 GMT-0400 (Eastern Daylight Time)","592714","Untrustworthy,Trustworthy","image-keyboard-response","39","90295","0.0-6.0-1.17","","1974","","trustrating_stim/white_mw084.bmp","5","","","","","","","","",""
"","","","ratingFB","","5fa774ae1bcae04f0bd898b3","bdp_trlrn","Tue May 11 2021 15:36:11 GMT-0400 (Eastern Daylight Time)","592714","Untrustworthy,Trustworthy","image-keyboard-response","40","90497","0.0-6.0-2.17","","null","","trustrating_stim/white_mw084.bmp","null","","","","","","","","",""
"","","","rating","","5fa774ae1bcae04f0bd898b3","bdp_trlrn","Tue May 11 2021 15:36:11 GMT-0400 (Eastern Daylight Time)","592714","Untrustworthy,Trustworthy","image-keyboard-response","41","91788","0.0-6.0-1.18","","1189","","trustrating_stim/white_00807_941205_fb_edt.bmp","9","","","","","","","","",""
"","","","ratingFB","","5fa774ae1bcae04f0bd898b3","bdp_trlrn","Tue May 11 2021 15:36:11 GMT-0400 (Eastern Daylight Time)","592714","Untrustworthy,Trustworthy","image-keyboard-response","42","91990","0.0-6.0-2.18","","null","","trustrating_stim/white_00807_941205_fb_edt.bmp","null","","","","","","","","",""
"","","","rating","","5fa774ae1bcae04f0bd898b3","bdp_trlrn","Tue May 11 2021 15:36:11 GMT-0400 (Eastern Daylight Time)","592714","Untrustworthy,Trustworthy","image-keyboard-response","43","93753","0.0-6.0-1.19","","1661","","trustrating_stim/white_mw004.bmp","5","","","","","","","","",""
"","","","ratingFB","","5fa774ae1bcae04f0bd898b3","bdp_trlrn","Tue May 11 2021 15:36:11 GMT-0400 (Eastern Daylight Time)","592714","Untrustworthy,Trustworthy","image-keyboard-response","44","93955","0.0-6.0-2.19","","null","","trustrating_stim/white_mw004.bmp","null","","","","","","","","",""
"","","","rating","","5fa774ae1bcae04f0bd898b3","bdp_trlrn","Tue May 11 2021 15:36:11 GMT-0400 (Eastern Daylight Time)","592714","Untrustworthy,Trustworthy","image-keyboard-response","45","96546","0.0-6.0-1.20","","2489","","trustrating_stim/white_mw044.bmp","9","","","","","","","","",""
"","","","ratingFB","","5fa774ae1bcae04f0bd898b3","bdp_trlrn","Tue May 11 2021 15:36:11 GMT-0400 (Eastern Daylight Time)","592714","Untrustworthy,Trustworthy","image-keyboard-response","46","96749","0.0-6.0-2.20","","null","","trustrating_stim/white_mw044.bmp","null","","","","","","","","",""
"","","","rating","","5fa774ae1bcae04f0bd898b3","bdp_trlrn","Tue May 11 2021 15:36:11 GMT-0400 (Eastern Daylight Time)","592714","Untrustworthy,Trustworthy","image-keyboard-response","47","99755","0.0-6.0-1.21","","2902","","trustrating_stim/white_mw006.bmp","4","","","","","","","","",""
"","","","ratingFB","","5fa774ae1bcae04f0bd898b3","bdp_trlrn","Tue May 11 2021 15:36:11 GMT-0400 (Eastern Daylight Time)","592714","Untrustworthy,Trustworthy","image-keyboard-response","48","99957","0.0-6.0-2.21","","null","","trustrating_stim/white_mw006.bmp","null","","","","","","","","",""
"","","","rating","","5fa774ae1bcae04f0bd898b3","bdp_trlrn","Tue May 11 2021 15:36:11 GMT-0400 (Eastern Daylight Time)","592714","Untrustworthy,Trustworthy","image-keyboard-response","49","101254","0.0-6.0-1.22","","1194","","trustrating_stim/white_mw071.bmp","3","","","","","","","","",""
"","","","ratingFB","","5fa774ae1bcae04f0bd898b3","bdp_trlrn","Tue May 11 2021 15:36:11 GMT-0400 (Eastern Daylight Time)","592714","Untrustworthy,Trustworthy","image-keyboard-response","50","101455","0.0-6.0-2.22","","null","","trustrating_stim/white_mw071.bmp","null","","","","","","","","",""
"","","","rating","","5fa774ae1bcae04f0bd898b3","bdp_trlrn","Tue May 11 2021 15:36:11 GMT-0400 (Eastern Daylight Time)","592714","Untrustworthy,Trustworthy","image-keyboard-response","51","102768","0.0-6.0-1.23","","1211","","trustrating_stim/white_00223_940128_fb_edt.bmp","4","","","","","","","","",""
"","","","ratingFB","","5fa774ae1bcae04f0bd898b3","bdp_trlrn","Tue May 11 2021 15:36:11 GMT-0400 (Eastern Daylight Time)","592714","Untrustworthy,Trustworthy","image-keyboard-response","52","102971","0.0-6.0-2.23","","null","","trustrating_stim/white_00223_940128_fb_edt.bmp","null","","","","","","","","",""
"","","","rating","","5fa774ae1bcae04f0bd898b3","bdp_trlrn","Tue May 11 2021 15:36:11 GMT-0400 (Eastern Daylight Time)","592714","Untrustworthy,Trustworthy","image-keyboard-response","53","104112","0.0-6.0-1.24","","1040","","trustrating_stim/white_mw013.bmp","3","","","","","","","","",""
"","","","ratingFB","","5fa774ae1bcae04f0bd898b3","bdp_trlrn","Tue May 11 2021 15:36:11 GMT-0400 (Eastern Daylight Time)","592714","Untrustworthy,Trustworthy","image-keyboard-response","54","104315","0.0-6.0-2.24","","null","","trustrating_stim/white_mw013.bmp","null","","","","","","","","",""
"","","","rating","","5fa774ae1bcae04f0bd898b3","bdp_trlrn","Tue May 11 2021 15:36:11 GMT-0400 (Eastern Daylight Time)","592714","Untrustworthy,Trustworthy","image-keyboard-response","55","105450","0.0-6.0-1.25","","1032","","trustrating_stim/white_mw072.bmp","2","","","","","","","","",""
"","","","ratingFB","","5fa774ae1bcae04f0bd898b3","bdp_trlrn","Tue May 11 2021 15:36:11 GMT-0400 (Eastern Daylight Time)","592714","Untrustworthy,Trustworthy","image-keyboard-response","56","105652","0.0-6.0-2.25","","null","","trustrating_stim/white_mw072.bmp","null","","","","","","","","",""
"","","","rating","","5fa774ae1bcae04f0bd898b3","bdp_trlrn","Tue May 11 2021 15:36:11 GMT-0400 (Eastern Daylight Time)","592714","Untrustworthy,Trustworthy","image-keyboard-response","57","106815","0.0-6.0-1.26","","1060","","trustrating_stim/white_mw025.bmp","3","","","","","","","","",""
"","","","ratingFB","","5fa774ae1bcae04f0bd898b3","bdp_trlrn","Tue May 11 2021 15:36:11 GMT-0400 (Eastern Daylight Time)","592714","Untrustworthy,Trustworthy","image-keyboard-response","58","107018","0.0-6.0-2.26","","null","","trustrating_stim/white_mw025.bmp","null","","","","","","","","",""
"","","","rating","","5fa774ae1bcae04f0bd898b3","bdp_trlrn","Tue May 11 2021 15:36:11 GMT-0400 (Eastern Daylight Time)","592714","Untrustworthy,Trustworthy","image-keyboard-response","59","108349","0.0-6.0-1.27","","1230","","trustrating_stim/white_mw022.bmp","6","","","","","","","","",""
"","","","ratingFB","","5fa774ae1bcae04f0bd898b3","bdp_trlrn","Tue May 11 2021 15:36:11 GMT-0400 (Eastern Daylight Time)","592714","Untrustworthy,Trustworthy","image-keyboard-response","60","108551","0.0-6.0-2.27","","null","","trustrating_stim/white_mw022.bmp","null","","","","","","","","",""
"","","","rating","","5fa774ae1bcae04f0bd898b3","bdp_trlrn","Tue May 11 2021 15:36:11 GMT-0400 (Eastern Daylight Time)","592714","Untrustworthy,Trustworthy","image-keyboard-response","61","109979","0.0-6.0-1.28","","1326","","trustrating_stim/white_mw099.bmp","5","","","","","","","","",""
"","","","ratingFB","","5fa774ae1bcae04f0bd898b3","bdp_trlrn","Tue May 11 2021 15:36:11 GMT-0400 (Eastern Daylight Time)","592714","Untrustworthy,Trustworthy","image-keyboard-response","62","110181","0.0-6.0-2.28","","null","","trustrating_stim/white_mw099.bmp","null","","","","","","","","",""
"","","","rating","","5fa774ae1bcae04f0bd898b3","bdp_trlrn","Tue May 11 2021 15:36:11 GMT-0400 (Eastern Daylight Time)","592714","Untrustworthy,Trustworthy","image-keyboard-response","63","111359","0.0-6.0-1.29","","1075","","trustrating_stim/white_mw040.bmp","4","","","","","","","","",""
"","","","ratingFB","","5fa774ae1bcae04f0bd898b3","bdp_trlrn","Tue May 11 2021 15:36:11 GMT-0400 (Eastern Daylight Time)","592714","Untrustworthy,Trustworthy","image-keyboard-response","64","111561","0.0-6.0-2.29","","null","","trustrating_stim/white_mw040.bmp","null","","","","","","","","",""
"","","","rating","","5fa774ae1bcae04f0bd898b3","bdp_trlrn","Tue May 11 2021 15:36:11 GMT-0400 (Eastern Daylight Time)","592714","Untrustworthy,Trustworthy","image-keyboard-response","65","112717","0.0-6.0-1.30","","1053","","trustrating_stim/white_mw085.bmp","4","","","","","","","","",""
"","","","ratingFB","","5fa774ae1bcae04f0bd898b3","bdp_trlrn","Tue May 11 2021 15:36:11 GMT-0400 (Eastern Daylight Time)","592714","Untrustworthy,Trustworthy","image-keyboard-response","66","112923","0.0-6.0-2.30","","null","","trustrating_stim/white_mw085.bmp","null","","","","","","","","",""
"","","","rating","","5fa774ae1bcae04f0bd898b3","bdp_trlrn","Tue May 11 2021 15:36:11 GMT-0400 (Eastern Daylight Time)","592714","Untrustworthy,Trustworthy","image-keyboard-response","67","114240","0.0-6.0-1.31","","1214","","trustrating_stim/white_mw082.bmp","7","","","","","","","","",""
"","","","ratingFB","","5fa774ae1bcae04f0bd898b3","bdp_trlrn","Tue May 11 2021 15:36:11 GMT-0400 (Eastern Daylight Time)","592714","Untrustworthy,Trustworthy","image-keyboard-response","68","114442","0.0-6.0-2.31","","null","","trustrating_stim/white_mw082.bmp","null","","","","","","","","",""
"","","","rating","","5fa774ae1bcae04f0bd898b3","bdp_trlrn","Tue May 11 2021 15:36:11 GMT-0400 (Eastern Daylight Time)","592714","Untrustworthy,Trustworthy","image-keyboard-response","69","115822","0.0-6.0-1.32","","1278","","trustrating_stim/white_mw016.bmp","5","","","","","","","","",""
"","","","ratingFB","","5fa774ae1bcae04f0bd898b3","bdp_trlrn","Tue May 11 2021 15:36:11 GMT-0400 (Eastern Daylight Time)","592714","Untrustworthy,Trustworthy","image-keyboard-response","70","116024","0.0-6.0-2.32","","null","","trustrating_stim/white_mw016.bmp","null","","","","","","","","",""
"","","","rating","","5fa774ae1bcae04f0bd898b3","bdp_trlrn","Tue May 11 2021 15:36:11 GMT-0400 (Eastern Daylight Time)","592714","Untrustworthy,Trustworthy","image-keyboard-response","71","117414","0.0-6.0-1.33","","1287","","trustrating_stim/white_mw057.bmp","5","","","","","","","","",""
"","","","ratingFB","","5fa774ae1bcae04f0bd898b3","bdp_trlrn","Tue May 11 2021 15:36:11 GMT-0400 (Eastern Daylight Time)","592714","Untrustworthy,Trustworthy","image-keyboard-response","72","117616","0.0-6.0-2.33","","null","","trustrating_stim/white_mw057.bmp","null","","","","","","","","",""
"","","","rating","","5fa774ae1bcae04f0bd898b3","bdp_trlrn","Tue May 11 2021 15:36:11 GMT-0400 (Eastern Daylight Time)","592714","Untrustworthy,Trustworthy","image-keyboard-response","73","119587","0.0-6.0-1.34","","1869","","trustrating_stim/white_mw046.bmp","6","","","","","","","","",""
"","","","ratingFB","","5fa774ae1bcae04f0bd898b3","bdp_trlrn","Tue May 11 2021 15:36:11 GMT-0400 (Eastern Daylight Time)","592714","Untrustworthy,Trustworthy","image-keyboard-response","74","119789","0.0-6.0-2.34","","null","","trustrating_stim/white_mw046.bmp","null","","","","","","","","",""
"","","","rating","","5fa774ae1bcae04f0bd898b3","bdp_trlrn","Tue May 11 2021 15:36:11 GMT-0400 (Eastern Daylight Time)","592714","Untrustworthy,Trustworthy","image-keyboard-response","75","120943","0.0-6.0-1.35","","1052","","trustrating_stim/white_mw054.bmp","6","","","","","","","","",""
"","","","ratingFB","","5fa774ae1bcae04f0bd898b3","bdp_trlrn","Tue May 11 2021 15:36:11 GMT-0400 (Eastern Daylight Time)","592714","Untrustworthy,Trustworthy","image-keyboard-response","76","121144","0.0-6.0-2.35","","null","","trustrating_stim/white_mw054.bmp","null","","","","","","","","",""
"","","","rating","","5fa774ae1bcae04f0bd898b3","bdp_trlrn","Tue May 11 2021 15:36:11 GMT-0400 (Eastern Daylight Time)","592714","Untrustworthy,Trustworthy","image-keyboard-response","77","122511","0.0-6.0-1.36","","1264","","trustrating_stim/white_mw058.bmp","3","","","","","","","","",""
"","","","ratingFB","","5fa774ae1bcae04f0bd898b3","bdp_trlrn","Tue May 11 2021 15:36:11 GMT-0400 (Eastern Daylight Time)","592714","Untrustworthy,Trustworthy","image-keyboard-response","78","122713","0.0-6.0-2.36","","null","","trustrating_stim/white_mw058.bmp","null","","","","","","","","",""
"","","","rating","","5fa774ae1bcae04f0bd898b3","bdp_trlrn","Tue May 11 2021 15:36:11 GMT-0400 (Eastern Daylight Time)","592714","Untrustworthy,Trustworthy","image-keyboard-response","79","124087","0.0-6.0-1.37","","1272","","trustrating_stim/white_mw019.bmp","2","","","","","","","","",""
"","","","ratingFB","","5fa774ae1bcae04f0bd898b3","bdp_trlrn","Tue May 11 2021 15:36:11 GMT-0400 (Eastern Daylight Time)","592714","Untrustworthy,Trustworthy","image-keyboard-response","80","124290","0.0-6.0-2.37","","null","","trustrating_stim/white_mw019.bmp","null","","","","","","","","",""
"","","","rating","","5fa774ae1bcae04f0bd898b3","bdp_trlrn","Tue May 11 2021 15:36:11 GMT-0400 (Eastern Daylight Time)","592714","Untrustworthy,Trustworthy","image-keyboard-response","81","125498","0.0-6.0-1.38","","1107","","trustrating_stim/white_mw043.bmp","2","","","","","","","","",""
"","","","ratingFB","","5fa774ae1bcae04f0bd898b3","bdp_trlrn","Tue May 11 2021 15:36:11 GMT-0400 (Eastern Daylight Time)","592714","Untrustworthy,Trustworthy","image-keyboard-response","82","125700","0.0-6.0-2.38","","null","","trustrating_stim/white_mw043.bmp","null","","","","","","","","",""
"","","","rating","","5fa774ae1bcae04f0bd898b3","bdp_trlrn","Tue May 11 2021 15:36:11 GMT-0400 (Eastern Daylight Time)","592714","Untrustworthy,Trustworthy","image-keyboard-response","83","126911","0.0-6.0-1.39","","1109","","trustrating_stim/white_mw097.bmp","1","","","","","","","","",""
"","","","ratingFB","","5fa774ae1bcae04f0bd898b3","bdp_trlrn","Tue May 11 2021 15:36:11 GMT-0400 (Eastern Daylight Time)","592714","Untrustworthy,Trustworthy","image-keyboard-response","84","127113","0.0-6.0-2.39","","null","","trustrating_stim/white_mw097.bmp","null","","","","","","","","",""
"","","","","","5fa774ae1bcae04f0bd898b3","bdp_trlrn","Tue May 11 2021 15:36:11 GMT-0400 (Eastern Daylight Time)","592714","Untrustworthy,Trustworthy","instructions","85","129385","0.0-7.0","[{""page_index"":0,""viewing_time"":2171}]","2172","","","","","","","","","","","",""
"","","","","","5fa774ae1bcae04f0bd898b3","bdp_trlrn","Tue May 11 2021 15:36:11 GMT-0400 (Eastern Daylight Time)","592714","Untrustworthy,Trustworthy","instructions","86","234681","0.0-8.0","[{""page_index"":0,""viewing_time"":34913},{""page_index"":1,""viewing_time"":14465},{""page_index"":2,""viewing_time"":12765},{""page_index"":3,""viewing_time"":10082},{""page_index"":4,""viewing_time"":10428},{""page_index"":5,""viewing_time"":17589},{""page_index"":6,""viewing_time"":4952}]","105194","","","","","","","","","","","",""
"","","","","","5fa774ae1bcae04f0bd898b3","bdp_trlrn","Tue May 11 2021 15:36:11 GMT-0400 (Eastern Daylight Time)","592714","Untrustworthy,Trustworthy","html-keyboard-response","87","242708","0.0-9.0","","8024","","<div class='header' style='text-align:left; position: absolute; top: 5%; left: 5%;'><small>Task 3 of 4</small></div><div style='text-align:left; position: absolute; top: 10%; left: 20%; width: 60%'><p><strong>1) What is the minimum number of points you can choose to send to your partner?</strong></p><p>a) 0</p><p>b) 1</p><p>c) 5</p>","A","","","","","","","","",""
"","","","","","5fa774ae1bcae04f0bd898b3","bdp_trlrn","Tue May 11 2021 15:36:11 GMT-0400 (Eastern Daylight Time)","592714","Untrustworthy,Trustworthy","html-keyboard-response","88","248034","0.0-10.0","","5220","","<div class='header' style='text-align:left; position: absolute; top: 5%; left: 5%;'><small>Task 3 of 4</small></div><div style='text-align:left; position: absolute; top: 10%; left: 20%; width: 60%'><p><strong>1) What is the minimum number of points you can choose to send to your partner?</strong></p><p style='color:#FF0000'>a) 0</p><p>b) 1</p><p>c) 5</p><h3 style='color:#FF0000'>Incorrect!</h3><h3 class='center-content'>The correct response is b).</h3><h3 class='center-content'>The minimum number of points you can choose to send to your partner is 1 point.</h3><p><em>Press SPACEBAR to continue</em></p></div>"," ","","","","","","","","",""
"","","","","","5fa774ae1bcae04f0bd898b3","bdp_trlrn","Tue May 11 2021 15:36:11 GMT-0400 (Eastern Daylight Time)","592714","Untrustworthy,Trustworthy","html-keyboard-response","89","254675","0.0-11.0","","6539","","<div class='header' style='text-align:left; position: absolute; top: 5%; left: 5%;'><small>Task 3 of 4</small></div><div style='text-align:left; position: absolute; top: 10%; left: 20%; width: 60%'><p><strong>2) What is the maximum number of points you can choose to send to your partner?</strong></p><p>a) 8</p><p>b) 5</p><p>c) 3</p>","B","","","","","","","","",""
"","","","","","5fa774ae1bcae04f0bd898b3","bdp_trlrn","Tue May 11 2021 15:36:11 GMT-0400 (Eastern Daylight Time)","592714","Untrustworthy,Trustworthy","html-keyboard-response","90","257412","0.0-12.0","","2634","","<div class='header' style='text-align:left; position: absolute; top: 5%; left: 5%;'><small>Task 3 of 4</small></div><div style='text-align:left; position: absolute; top: 10%; left: 20%; width: 60%'><p><strong>2) What is the maximum number of points you can choose to send to your partner?</strong></p><p>a) 8</p><p style='color:#00FF00'>b) 5</p><p>c) 3</p><h3 style='color:#00FF00'>Correct!</h3><h3 class='center-content'>The correct response is b).</h3><h3 class='center-content'>The maximum number of points you can choose to send to your partner is 5 points.</h3><p><em>Press SPACEBAR to continue</em></p></div>"," ","","","","","","","","",""
"","","","","","5fa774ae1bcae04f0bd898b3","bdp_trlrn","Tue May 11 2021 15:36:11 GMT-0400 (Eastern Daylight Time)","592714","Untrustworthy,Trustworthy","html-keyboard-response","91","265606","0.0-13.0","","8093","","<div class='header' style='text-align:left; position: absolute; top: 5%; left: 5%;'><small>Task 3 of 4</small></div><div style='text-align:left; position: absolute; top: 10%; left: 20%; width: 60%'><p><strong>3) What happens to the amount of points you send to your partner?</strong></p><p>a) Nothing</p><p>b) It doubles</p><p>c) It quadruples</p>","C","","","","","","","","",""
"","","","","","5fa774ae1bcae04f0bd898b3","bdp_trlrn","Tue May 11 2021 15:36:11 GMT-0400 (Eastern Daylight Time)","592714","Untrustworthy,Trustworthy","html-keyboard-response","92","267830","0.0-14.0","","2121","","<div class='header' style='text-align:left; position: absolute; top: 5%; left: 5%;'><small>Task 3 of 4</small></div><div style='text-align:left; position: absolute; top: 10%; left: 20%; width: 60%'><p><strong>3) What happens to the amount of points you send to your partner?</strong></p><p>a) Nothing</p><p>b) It doubles</p><p style='color:#00FF00'>c) It quadruples</p><h3 style='color:#00FF00'>Correct!</h3><h3 class='center-content'>The correct response is c).</h3><h3 class='center-content'>The amount of points you send to your partner quadruples.</h3><p><em>Press SPACEBAR to continue</em></p></div>"," ","","","","","","","","",""
"","","","","","5fa774ae1bcae04f0bd898b3","bdp_trlrn","Tue May 11 2021 15:36:11 GMT-0400 (Eastern Daylight Time)","592714","Untrustworthy,Trustworthy","html-keyboard-response","93","299294","0.0-15.0","","31362","","<div class='header' style='text-align:left; position: absolute; top: 5%; left: 5%;'><small>Task 3 of 4</small></div><div style='text-align:left; position: absolute; top: 10%; left: 20%; width: 60%'><p><strong>4) If you decide to share 4 out of 5 points with your partner, and he decided to share half of what he received, how many points would you end up with in this round?</strong></p><p>a) 16</p><p>b) 0</p><p>c) 9</p>","A","","","","","","","","",""
"","","","","","5fa774ae1bcae04f0bd898b3","bdp_trlrn","Tue May 11 2021 15:36:11 GMT-0400 (Eastern Daylight Time)","592714","Untrustworthy,Trustworthy","html-keyboard-response","94","316822","0.0-16.0","","17424","","<div class='header' style='text-align:left; position: absolute; top: 5%; left: 5%;'><small>Task 3 of 4</small></div><div style='text-align:left; position: absolute; top: 10%; left: 20%; width: 60%'><p><strong>4) If you decide to share 4 points with your partner, and he decided to share half of what he received, how many points would you end up with in this round?</strong></p><p style='color:#FF0000'>a) 16</p><p>b) 0</p><p>c) 9</p><h3 style='color:#FF0000'>Incorrect!</h3><h3 class='center-content'>The correct response is c).</h3><h3 class='center-content'>If you share 4 out of 5 points with your partner and he decided to share half with you, you would receive 8 points back (i.e. (4 x 4)/2 = 8), totaling to 9 points altogether.</h3><p><em>Press SPACEBAR to continue</em></p></div>"," ","","","","","","","","",""
"","","","","","5fa774ae1bcae04f0bd898b3","bdp_trlrn","Tue May 11 2021 15:36:11 GMT-0400 (Eastern Daylight Time)","592714","Untrustworthy,Trustworthy","instructions","95","333451","0.0-17.0","[{""page_index"":0,""viewing_time"":16527}]","16528","","","","","","","","","","","",""
"","","","decision","","5fa774ae1bcae04f0bd898b3","bdp_trlrn","Tue May 11 2021 15:36:11 GMT-0400 (Eastern Daylight Time)","592714","Untrustworthy,Trustworthy","html-keyboard-response","96","339269","0.0-18.0-1.0","","5713","","<div class='trialDiv'><img src='trustrating_stim/white_mw071.bmp'><br><font class='baseline'><strong>Benjamin</strong><p>Choose number of points to send.</font><div class='respPicDiv'><img src='img/responseButtonOffersNo0L.png' class='respPic'></div></div>","2","1","Benjamin","trustrating_stim/white_mw071.bmp","Kept","0.8,0.4","13","0.8","5","1"
"","","","decisionFB","","5fa774ae1bcae04f0bd898b3","bdp_trlrn","Tue May 11 2021 15:36:11 GMT-0400 (Eastern Daylight Time)","592714","Untrustworthy,Trustworthy","html-keyboard-response","97","339522","0.0-18.0-2.0","","null","","<div class='trialDiv'><img src='trustrating_stim/white_mw071.bmp'><br><font class='baseline'><strong>Benjamin</strong><p>Choose number of points to send.</font><div class='respPicDiv'><img src='img/responseButtonOffersNo0L2.png' class='respPic'></div></div>","null","1","Benjamin","trustrating_stim/white_mw071.bmp","Kept","0.8,0.4","13","0.8","3","1"
"","","","feedback","","5fa774ae1bcae04f0bd898b3","bdp_trlrn","Tue May 11 2021 15:36:11 GMT-0400 (Eastern Daylight Time)","592714","Untrustworthy,Trustworthy","html-keyboard-response","98","340525","0.0-18.0-3.0","","null","","<div class='trialDiv'><img src='trustrating_stim/white_mw071.bmp'><br><font class='baseline'><strong>Benjamin</strong><p>Received: <strong>8</strong></font> &nbsp; &nbsp; &nbsp; &nbsp; &nbsp; &nbsp;<font class='negOutcome'>Shared back: <strong>0</strong></font></font><div class='respPicDiv'><img src='img/responseButtonOffersNo0_wht.png' class='respPic'></div></div>","null","1","Benjamin","trustrating_stim/white_mw071.bmp","Kept","0.8,0.4","13","0.8","3","1"
"","","","decision","","5fa774ae1bcae04f0bd898b3","bdp_trlrn","Tue May 11 2021 15:36:11 GMT-0400 (Eastern Daylight Time)","592714","Untrustworthy,Trustworthy","html-keyboard-response","99","343054","0.0-18.0-1.1","","2526","","<div class='trialDiv'><img src='trustrating_stim/white_mw046.bmp'><br><font class='baseline'><strong>Jacob</strong><p>Choose number of points to send.</font><div class='respPicDiv'><img src='img/responseButtonOffersNo0L.png' class='respPic'></div></div>","4","1","Jacob","trustrating_stim/white_mw046.bmp","Kept","0.2,0.6","12","0.2","8","2"
"","","","decisionFB","","5fa774ae1bcae04f0bd898b3","bdp_trlrn","Tue May 11 2021 15:36:11 GMT-0400 (Eastern Daylight Time)","592714","Untrustworthy,Trustworthy","html-keyboard-response","100","343306","0.0-18.0-2.1","","null","","<div class='trialDiv'><img src='trustrating_stim/white_mw046.bmp'><br><font class='baseline'><strong>Jacob</strong><p>Choose number of points to send.</font><div class='respPicDiv'><img src='img/responseButtonOffersNo0L4.png' class='respPic'></div></div>","null","1","Jacob","trustrating_stim/white_mw046.bmp","Kept","0.2,0.6","12","0.2","4","2"
"","","","feedback","","5fa774ae1bcae04f0bd898b3","bdp_trlrn","Tue May 11 2021 15:36:11 GMT-0400 (Eastern Daylight Time)","592714","Untrustworthy,Trustworthy","html-keyboard-response","101","344309","0.0-18.0-3.1","","null","","<div class='trialDiv'><img src='trustrating_stim/white_mw046.bmp'><br><font class='baseline'><strong>Jacob</strong><p>Received: <strong>16</strong></font> &nbsp; &nbsp; &nbsp; &nbsp; &nbsp; &nbsp;<font class='negOutcome'>Shared back: <strong>0</strong></font></font><div class='respPicDiv'><img src='img/responseButtonOffersNo0_wht.png' class='respPic'></div></div>","null","1","Jacob","trustrating_stim/white_mw046.bmp","Kept","0.2,0.6","12","0.2","4","2"
"","","","decision","","5fa774ae1bcae04f0bd898b3","bdp_trlrn","Tue May 11 2021 15:36:11 GMT-0400 (Eastern Daylight Time)","592714","Untrustworthy,Trustworthy","html-keyboard-response","102","347540","0.0-18.0-1.2","","3228","","<div class='trialDiv'><img src='trustrating_stim/white_00761_941201_fb_edt.bmp'><br><font class='baseline'><strong>Joseph</strong><p>Choose number of points to send.</font><div class='respPicDiv'><img src='img/responseButtonOffersNo0L.png' class='respPic'></div></div>","4","1","Joseph","trustrating_stim/white_00761_941201_fb_edt.bmp","Shared","0.4,0.8","10","0.4","9","3"
"","","","decisionFB","","5fa774ae1bcae04f0bd898b3","bdp_trlrn","Tue May 11 2021 15:36:11 GMT-0400 (Eastern Daylight Time)","592714","Untrustworthy,Trustworthy","html-keyboard-response","103","347793","0.0-18.0-2.2","","null","","<div class='trialDiv'><img src='trustrating_stim/white_00761_941201_fb_edt.bmp'><br><font class='baseline'><strong>Joseph</strong><p>Choose number of points to send.</font><div class='respPicDiv'><img src='img/responseButtonOffersNo0L4.png' class='respPic'></div></div>","null","1","Joseph","trustrating_stim/white_00761_941201_fb_edt.bmp","Shared","0.4,0.8","10","0.4","5","3"
"","","","feedback","","5fa774ae1bcae04f0bd898b3","bdp_trlrn","Tue May 11 2021 15:36:11 GMT-0400 (Eastern Daylight Time)","592714","Untrustworthy,Trustworthy","html-keyboard-response","104","348796","0.0-18.0-3.2","","null","","<div class='trialDiv'><img src='trustrating_stim/white_00761_941201_fb_edt.bmp'><br><font class='baseline'><strong>Joseph</strong><p>Received: <strong>16</strong></font> &nbsp; &nbsp; &nbsp; &nbsp; &nbsp; &nbsp;<font class='posOutcome'>Shared back: <strong>8</strong></font></font><div class='respPicDiv'><img src='img/responseButtonOffersNo0_wht.png' class='respPic'></div></div>","null","1","Joseph","trustrating_stim/white_00761_941201_fb_edt.bmp","Shared","0.4,0.8","10","0.4","13","3"
"","","","decision","","5fa774ae1bcae04f0bd898b3","bdp_trlrn","Tue May 11 2021 15:36:11 GMT-0400 (Eastern Daylight Time)","592714","Untrustworthy,Trustworthy","html-keyboard-response","105","351800","0.0-18.0-1.3","","3001","","<div class='trialDiv'><img src='trustrating_stim/white_mw035.bmp'><br><font class='baseline'><strong>Brian</strong><p>Choose number of points to send.</font><div class='respPicDiv'><img src='img/responseButtonOffersNo0L.png' class='respPic'></div></div>","2","1","Brian","trustrating_stim/white_mw035.bmp","Shared","0.6,0.2","10","0.6","18","4"
"","","","decisionFB","","5fa774ae1bcae04f0bd898b3","bdp_trlrn","Tue May 11 2021 15:36:11 GMT-0400 (Eastern Daylight Time)","592714","Untrustworthy,Trustworthy","html-keyboard-response","106","352053","0.0-18.0-2.3","","null","","<div class='trialDiv'><img src='trustrating_stim/white_mw035.bmp'><br><font class='baseline'><strong>Brian</strong><p>Choose number of points to send.</font><div class='respPicDiv'><img src='img/responseButtonOffersNo0L2.png' class='respPic'></div></div>","null","1","Brian","trustrating_stim/white_mw035.bmp","Shared","0.6,0.2","10","0.6","16","4"
"","","","feedback","","5fa774ae1bcae04f0bd898b3","bdp_trlrn","Tue May 11 2021 15:36:11 GMT-0400 (Eastern Daylight Time)","592714","Untrustworthy,Trustworthy","html-keyboard-response","107","353055","0.0-18.0-3.3","","null","","<div class='trialDiv'><img src='trustrating_stim/white_mw035.bmp'><br><font class='baseline'><strong>Brian</strong><p>Received: <strong>8</strong></font> &nbsp; &nbsp; &nbsp; &nbsp; &nbsp; &nbsp;<font class='posOutcome'>Shared back: <strong>4</strong></font></font><div class='respPicDiv'><img src='img/responseButtonOffersNo0_wht.png' class='respPic'></div></div>","null","1","Brian","trustrating_stim/white_mw035.bmp","Shared","0.6,0.2","10","0.6","20","4"
"","","","decision","","5fa774ae1bcae04f0bd898b3","bdp_trlrn","Tue May 11 2021 15:36:11 GMT-0400 (Eastern Daylight Time)","592714","Untrustworthy,Trustworthy","html-keyboard-response","108","356045","0.0-18.0-1.4","","2988","","<div class='trialDiv'><img src='trustrating_stim/white_mw046.bmp'><br><font class='baseline'><strong>Jacob</strong><p>Choose number of points to send.</font><div class='respPicDiv'><img src='img/responseButtonOffersNo0L.png' class='respPic'></div></div>","4","2","Jacob","trustrating_stim/white_mw046.bmp","Shared","0.2,0.6","12","0.2","25","5"
"","","","decisionFB","","5fa774ae1bcae04f0bd898b3","bdp_trlrn","Tue May 11 2021 15:36:11 GMT-0400 (Eastern Daylight Time)","592714","Untrustworthy,Trustworthy","html-keyboard-response","109","356299","0.0-18.0-2.4","","null","","<div class='trialDiv'><img src='trustrating_stim/white_mw046.bmp'><br><font class='baseline'><strong>Jacob</strong><p>Choose number of points to send.</font><div class='respPicDiv'><img src='img/responseButtonOffersNo0L4.png' class='respPic'></div></div>","null","2","Jacob","trustrating_stim/white_mw046.bmp","Shared","0.2,0.6","12","0.2","21","5"
"","","","feedback","","5fa774ae1bcae04f0bd898b3","bdp_trlrn","Tue May 11 2021 15:36:11 GMT-0400 (Eastern Daylight Time)","592714","Untrustworthy,Trustworthy","html-keyboard-response","110","357301","0.0-18.0-3.4","","null","","<div class='trialDiv'><img src='trustrating_stim/white_mw046.bmp'><br><font class='baseline'><strong>Jacob</strong><p>Received: <strong>16</strong></font> &nbsp; &nbsp; &nbsp; &nbsp; &nbsp; &nbsp;<font class='posOutcome'>Shared back: <strong>8</strong></font></font><div class='respPicDiv'><img src='img/responseButtonOffersNo0_wht.png' class='respPic'></div></div>","null","2","Jacob","trustrating_stim/white_mw046.bmp","Shared","0.2,0.6","12","0.2","29","5"
"","","","decision","","5fa774ae1bcae04f0bd898b3","bdp_trlrn","Tue May 11 2021 15:36:11 GMT-0400 (Eastern Daylight Time)","592714","Untrustworthy,Trustworthy","html-keyboard-response","111","359293","0.0-18.0-1.5","","1989","","<div class='trialDiv'><img src='trustrating_stim/white_mw035.bmp'><br><font class='baseline'><strong>Brian</strong><p>Choose number of points to send.</font><div class='respPicDiv'><img src='img/responseButtonOffersNo0L.png' class='respPic'></div></div>","4","2","Brian","trustrating_stim/white_mw035.bmp","Shared","0.6,0.2","10","0.6","34","6"
"","","","decisionFB","","5fa774ae1bcae04f0bd898b3","bdp_trlrn","Tue May 11 2021 15:36:11 GMT-0400 (Eastern Daylight Time)","592714","Untrustworthy,Trustworthy","html-keyboard-response","112","359547","0.0-18.0-2.5","","null","","<div class='trialDiv'><img src='trustrating_stim/white_mw035.bmp'><br><font class='baseline'><strong>Brian</strong><p>Choose number of points to send.</font><div class='respPicDiv'><img src='img/responseButtonOffersNo0L4.png' class='respPic'></div></div>","null","2","Brian","trustrating_stim/white_mw035.bmp","Shared","0.6,0.2","10","0.6","30","6"
"","","","feedback","","5fa774ae1bcae04f0bd898b3","bdp_trlrn","Tue May 11 2021 15:36:11 GMT-0400 (Eastern Daylight Time)","592714","Untrustworthy,Trustworthy","html-keyboard-response","113","360550","0.0-18.0-3.5","","null","","<div class='trialDiv'><img src='trustrating_stim/white_mw035.bmp'><br><font class='baseline'><strong>Brian</strong><p>Received: <strong>16</strong></font> &nbsp; &nbsp; &nbsp; &nbsp; &nbsp; &nbsp;<font class='posOutcome'>Shared back: <strong>8</strong></font></font><div class='respPicDiv'><img src='img/responseButtonOffersNo0_wht.png' class='respPic'></div></div>","null","2","Brian","trustrating_stim/white_mw035.bmp","Shared","0.6,0.2","10","0.6","38","6"
"","","","decision","","5fa774ae1bcae04f0bd898b3","bdp_trlrn","Tue May 11 2021 15:36:11 GMT-0400 (Eastern Daylight Time)","592714","Untrustworthy,Trustworthy","html-keyboard-response","114","363268","0.0-18.0-1.6","","2715","","<div class='trialDiv'><img src='trustrating_stim/white_00761_941201_fb_edt.bmp'><br><font class='baseline'><strong>Joseph</strong><p>Choose number of points to send.</font><div class='respPicDiv'><img src='img/responseButtonOffersNo0L.png' class='respPic'></div></div>","3","2","Joseph","trustrating_stim/white_00761_941201_fb_edt.bmp","Kept","0.4,0.8","10","0.4","43","7"
"","","","decisionFB","","5fa774ae1bcae04f0bd898b3","bdp_trlrn","Tue May 11 2021 15:36:11 GMT-0400 (Eastern Daylight Time)","592714","Untrustworthy,Trustworthy","html-keyboard-response","115","363521","0.0-18.0-2.6","","null","","<div class='trialDiv'><img src='trustrating_stim/white_00761_941201_fb_edt.bmp'><br><font class='baseline'><strong>Joseph</strong><p>Choose number of points to send.</font><div class='respPicDiv'><img src='img/responseButtonOffersNo0L3.png' class='respPic'></div></div>","null","2","Joseph","trustrating_stim/white_00761_941201_fb_edt.bmp","Kept","0.4,0.8","10","0.4","40","7"
"","","","feedback","","5fa774ae1bcae04f0bd898b3","bdp_trlrn","Tue May 11 2021 15:36:11 GMT-0400 (Eastern Daylight Time)","592714","Untrustworthy,Trustworthy","html-keyboard-response","116","364524","0.0-18.0-3.6","","null","","<div class='trialDiv'><img src='trustrating_stim/white_00761_941201_fb_edt.bmp'><br><font class='baseline'><strong>Joseph</strong><p>Received: <strong>12</strong></font> &nbsp; &nbsp; &nbsp; &nbsp; &nbsp; &nbsp;<font class='negOutcome'>Shared back: <strong>0</strong></font></font><div class='respPicDiv'><img src='img/responseButtonOffersNo0_wht.png' class='respPic'></div></div>","null","2","Joseph","trustrating_stim/white_00761_941201_fb_edt.bmp","Kept","0.4,0.8","10","0.4","40","7"
"","","","decision","","5fa774ae1bcae04f0bd898b3","bdp_trlrn","Tue May 11 2021 15:36:11 GMT-0400 (Eastern Daylight Time)","592714","Untrustworthy,Trustworthy","html-keyboard-response","117","367335","0.0-18.0-1.7","","2809","","<div class='trialDiv'><img src='trustrating_stim/white_mw071.bmp'><br><font class='baseline'><strong>Benjamin</strong><p>Choose number of points to send.</font><div class='respPicDiv'><img src='img/responseButtonOffersNo0L.png' class='respPic'></div></div>","4","2","Benjamin","trustrating_stim/white_mw071.bmp","Shared","0.8,0.4","13","0.8","45","8"
"","","","decisionFB","","5fa774ae1bcae04f0bd898b3","bdp_trlrn","Tue May 11 2021 15:36:11 GMT-0400 (Eastern Daylight Time)","592714","Untrustworthy,Trustworthy","html-keyboard-response","118","367587","0.0-18.0-2.7","","null","","<div class='trialDiv'><img src='trustrating_stim/white_mw071.bmp'><br><font class='baseline'><strong>Benjamin</strong><p>Choose number of points to send.</font><div class='respPicDiv'><img src='img/responseButtonOffersNo0L4.png' class='respPic'></div></div>","null","2","Benjamin","trustrating_stim/white_mw071.bmp","Shared","0.8,0.4","13","0.8","41","8"
"","","","feedback","","5fa774ae1bcae04f0bd898b3","bdp_trlrn","Tue May 11 2021 15:36:11 GMT-0400 (Eastern Daylight Time)","592714","Untrustworthy,Trustworthy","html-keyboard-response","119","368590","0.0-18.0-3.7","","null","","<div class='trialDiv'><img src='trustrating_stim/white_mw071.bmp'><br><font class='baseline'><strong>Benjamin</strong><p>Received: <strong>16</strong></font> &nbsp; &nbsp; &nbsp; &nbsp; &nbsp; &nbsp;<font class='posOutcome'>Shared back: <strong>8</strong></font></font><div class='respPicDiv'><img src='img/responseButtonOffersNo0_wht.png' class='respPic'></div></div>","null","2","Benjamin","trustrating_stim/white_mw071.bmp","Shared","0.8,0.4","13","0.8","49","8"
"","","","decision","","5fa774ae1bcae04f0bd898b3","bdp_trlrn","Tue May 11 2021 15:36:11 GMT-0400 (Eastern Daylight Time)","592714","Untrustworthy,Trustworthy","html-keyboard-response","120","370806","0.0-18.0-1.8","","2214","","<div class='trialDiv'><img src='trustrating_stim/white_mw046.bmp'><br><font class='baseline'><strong>Jacob</strong><p>Choose number of points to send.</font><div class='respPicDiv'><img src='img/responseButtonOffersNo0L.png' class='respPic'></div></div>","4","3","Jacob","trustrating_stim/white_mw046.bmp","Shared","0.2,0.6","12","0.2","54","9"
"","","","decisionFB","","5fa774ae1bcae04f0bd898b3","bdp_trlrn","Tue May 11 2021 15:36:11 GMT-0400 (Eastern Daylight Time)","592714","Untrustworthy,Trustworthy","html-keyboard-response","121","371059","0.0-18.0-2.8","","null","","<div class='trialDiv'><img src='trustrating_stim/white_mw046.bmp'><br><font class='baseline'><strong>Jacob</strong><p>Choose number of points to send.</font><div class='respPicDiv'><img src='img/responseButtonOffersNo0L4.png' class='respPic'></div></div>","null","3","Jacob","trustrating_stim/white_mw046.bmp","Shared","0.2,0.6","12","0.2","50","9"
"","","","feedback","","5fa774ae1bcae04f0bd898b3","bdp_trlrn","Tue May 11 2021 15:36:11 GMT-0400 (Eastern Daylight Time)","592714","Untrustworthy,Trustworthy","html-keyboard-response","122","372062","0.0-18.0-3.8","","null","","<div class='trialDiv'><img src='trustrating_stim/white_mw046.bmp'><br><font class='baseline'><strong>Jacob</strong><p>Received: <strong>16</strong></font> &nbsp; &nbsp; &nbsp; &nbsp; &nbsp; &nbsp;<font class='posOutcome'>Shared back: <strong>8</strong></font></font><div class='respPicDiv'><img src='img/responseButtonOffersNo0_wht.png' class='respPic'></div></div>","null","3","Jacob","trustrating_stim/white_mw046.bmp","Shared","0.2,0.6","12","0.2","58","9"
"","","","decision","","5fa774ae1bcae04f0bd898b3","bdp_trlrn","Tue May 11 2021 15:36:11 GMT-0400 (Eastern Daylight Time)","592714","Untrustworthy,Trustworthy","html-keyboard-response","123","376402","0.0-18.0-1.9","","4338","","<div class='trialDiv'><img src='trustrating_stim/white_mw071.bmp'><br><font class='baseline'><strong>Benjamin</strong><p>Choose number of points to send.</font><div class='respPicDiv'><img src='img/responseButtonOffersNo0L.png' class='respPic'></div></div>","3","3","Benjamin","trustrating_stim/white_mw071.bmp","Kept","0.8,0.4","13","0.8","63","10"
"","","","decisionFB","","5fa774ae1bcae04f0bd898b3","bdp_trlrn","Tue May 11 2021 15:36:11 GMT-0400 (Eastern Daylight Time)","592714","Untrustworthy,Trustworthy","html-keyboard-response","124","376655","0.0-18.0-2.9","","null","","<div class='trialDiv'><img src='trustrating_stim/white_mw071.bmp'><br><font class='baseline'><strong>Benjamin</strong><p>Choose number of points to send.</font><div class='respPicDiv'><img src='img/responseButtonOffersNo0L3.png' class='respPic'></div></div>","null","3","Benjamin","trustrating_stim/white_mw071.bmp","Kept","0.8,0.4","13","0.8","60","10"
"","","","feedback","","5fa774ae1bcae04f0bd898b3","bdp_trlrn","Tue May 11 2021 15:36:11 GMT-0400 (Eastern Daylight Time)","592714","Untrustworthy,Trustworthy","html-keyboard-response","125","377658","0.0-18.0-3.9","","null","","<div class='trialDiv'><img src='trustrating_stim/white_mw071.bmp'><br><font class='baseline'><strong>Benjamin</strong><p>Received: <strong>12</strong></font> &nbsp; &nbsp; &nbsp; &nbsp; &nbsp; &nbsp;<font class='negOutcome'>Shared back: <strong>0</strong></font></font><div class='respPicDiv'><img src='img/responseButtonOffersNo0_wht.png' class='respPic'></div></div>","null","3","Benjamin","trustrating_stim/white_mw071.bmp","Kept","0.8,0.4","13","0.8","60","10"
"","","","decision","","5fa774ae1bcae04f0bd898b3","bdp_trlrn","Tue May 11 2021 15:36:11 GMT-0400 (Eastern Daylight Time)","592714","Untrustworthy,Trustworthy","html-keyboard-response","126","380114","0.0-18.0-1.10","","2454","","<div class='trialDiv'><img src='trustrating_stim/white_00761_941201_fb_edt.bmp'><br><font class='baseline'><strong>Joseph</strong><p>Choose number of points to send.</font><div class='respPicDiv'><img src='img/responseButtonOffersNo0L.png' class='respPic'></div></div>","4","3","Joseph","trustrating_stim/white_00761_941201_fb_edt.bmp","Kept","0.4,0.8","10","0.4","65","11"
"","","","decisionFB","","5fa774ae1bcae04f0bd898b3","bdp_trlrn","Tue May 11 2021 15:36:11 GMT-0400 (Eastern Daylight Time)","592714","Untrustworthy,Trustworthy","html-keyboard-response","127","380367","0.0-18.0-2.10","","null","","<div class='trialDiv'><img src='trustrating_stim/white_00761_941201_fb_edt.bmp'><br><font class='baseline'><strong>Joseph</strong><p>Choose number of points to send.</font><div class='respPicDiv'><img src='img/responseButtonOffersNo0L4.png' class='respPic'></div></div>","null","3","Joseph","trustrating_stim/white_00761_941201_fb_edt.bmp","Kept","0.4,0.8","10","0.4","61","11"
"","","","feedback","","5fa774ae1bcae04f0bd898b3","bdp_trlrn","Tue May 11 2021 15:36:11 GMT-0400 (Eastern Daylight Time)","592714","Untrustworthy,Trustworthy","html-keyboard-response","128","381370","0.0-18.0-3.10","","null","","<div class='trialDiv'><img src='trustrating_stim/white_00761_941201_fb_edt.bmp'><br><font class='baseline'><strong>Joseph</strong><p>Received: <strong>16</strong></font> &nbsp; &nbsp; &nbsp; &nbsp; &nbsp; &nbsp;<font class='negOutcome'>Shared back: <strong>0</strong></font></font><div class='respPicDiv'><img src='img/responseButtonOffersNo0_wht.png' class='respPic'></div></div>","null","3","Joseph","trustrating_stim/white_00761_941201_fb_edt.bmp","Kept","0.4,0.8","10","0.4","61","11"
"","","","decision","","5fa774ae1bcae04f0bd898b3","bdp_trlrn","Tue May 11 2021 15:36:11 GMT-0400 (Eastern Daylight Time)","592714","Untrustworthy,Trustworthy","html-keyboard-response","129","386278","0.0-18.0-1.11","","4906","","<div class='trialDiv'><img src='trustrating_stim/white_mw035.bmp'><br><font class='baseline'><strong>Brian</strong><p>Choose number of points to send.</font><div class='respPicDiv'><img src='img/responseButtonOffersNo0L.png' class='respPic'></div></div>","4","3","Brian","trustrating_stim/white_mw035.bmp","Shared","0.6,0.2","10","0.6","66","12"
"","","","decisionFB","","5fa774ae1bcae04f0bd898b3","bdp_trlrn","Tue May 11 2021 15:36:11 GMT-0400 (Eastern Daylight Time)","592714","Untrustworthy,Trustworthy","html-keyboard-response","130","386532","0.0-18.0-2.11","","null","","<div class='trialDiv'><img src='trustrating_stim/white_mw035.bmp'><br><font class='baseline'><strong>Brian</strong><p>Choose number of points to send.</font><div class='respPicDiv'><img src='img/responseButtonOffersNo0L4.png' class='respPic'></div></div>","null","3","Brian","trustrating_stim/white_mw035.bmp","Shared","0.6,0.2","10","0.6","62","12"
"","","","feedback","","5fa774ae1bcae04f0bd898b3","bdp_trlrn","Tue May 11 2021 15:36:11 GMT-0400 (Eastern Daylight Time)","592714","Untrustworthy,Trustworthy","html-keyboard-response","131","387534","0.0-18.0-3.11","","null","","<div class='trialDiv'><img src='trustrating_stim/white_mw035.bmp'><br><font class='baseline'><strong>Brian</strong><p>Received: <strong>16</strong></font> &nbsp; &nbsp; &nbsp; &nbsp; &nbsp; &nbsp;<font class='posOutcome'>Shared back: <strong>8</strong></font></font><div class='respPicDiv'><img src='img/responseButtonOffersNo0_wht.png' class='respPic'></div></div>","null","3","Brian","trustrating_stim/white_mw035.bmp","Shared","0.6,0.2","10","0.6","70","12"
"","","","decision","","5fa774ae1bcae04f0bd898b3","bdp_trlrn","Tue May 11 2021 15:36:11 GMT-0400 (Eastern Daylight Time)","592714","Untrustworthy,Trustworthy","html-keyboard-response","132","388613","0.0-18.0-1.12","","1076","","<div class='trialDiv'><img src='trustrating_stim/white_mw071.bmp'><br><font class='baseline'><strong>Benjamin</strong><p>Choose number of points to send.</font><div class='respPicDiv'><img src='img/responseButtonOffersNo0L.png' class='respPic'></div></div>","2","4","Benjamin","trustrating_stim/white_mw071.bmp","Shared","0.8,0.4","13","0.8","75","13"
"","","","decisionFB","","5fa774ae1bcae04f0bd898b3","bdp_trlrn","Tue May 11 2021 15:36:11 GMT-0400 (Eastern Daylight Time)","592714","Untrustworthy,Trustworthy","html-keyboard-response","133","388865","0.0-18.0-2.12","","null","","<div class='trialDiv'><img src='trustrating_stim/white_mw071.bmp'><br><font class='baseline'><strong>Benjamin</strong><p>Choose number of points to send.</font><div class='respPicDiv'><img src='img/responseButtonOffersNo0L2.png' class='respPic'></div></div>","null","4","Benjamin","trustrating_stim/white_mw071.bmp","Shared","0.8,0.4","13","0.8","73","13"
"","","","feedback","","5fa774ae1bcae04f0bd898b3","bdp_trlrn","Tue May 11 2021 15:36:11 GMT-0400 (Eastern Daylight Time)","592714","Untrustworthy,Trustworthy","html-keyboard-response","134","389868","0.0-18.0-3.12","","null","","<div class='trialDiv'><img src='trustrating_stim/white_mw071.bmp'><br><font class='baseline'><strong>Benjamin</strong><p>Received: <strong>8</strong></font> &nbsp; &nbsp; &nbsp; &nbsp; &nbsp; &nbsp;<font class='posOutcome'>Shared back: <strong>4</strong></font></font><div class='respPicDiv'><img src='img/responseButtonOffersNo0_wht.png' class='respPic'></div></div>","null","4","Benjamin","trustrating_stim/white_mw071.bmp","Shared","0.8,0.4","13","0.8","77","13"
"","","","decision","","5fa774ae1bcae04f0bd898b3","bdp_trlrn","Tue May 11 2021 15:36:11 GMT-0400 (Eastern Daylight Time)","592714","Untrustworthy,Trustworthy","html-keyboard-response","135","390427","0.0-18.0-1.13","","556","","<div class='trialDiv'><img src='trustrating_stim/white_00761_941201_fb_edt.bmp'><br><font class='baseline'><strong>Joseph</strong><p>Choose number of points to send.</font><div class='respPicDiv'><img src='img/responseButtonOffersNo0L.png' class='respPic'></div></div>","4","4","Joseph","trustrating_stim/white_00761_941201_fb_edt.bmp","Kept","0.4,0.8","10","0.4","82","14"
"","","","decisionFB","","5fa774ae1bcae04f0bd898b3","bdp_trlrn","Tue May 11 2021 15:36:11 GMT-0400 (Eastern Daylight Time)","592714","Untrustworthy,Trustworthy","html-keyboard-response","136","390679","0.0-18.0-2.13","","null","","<div class='trialDiv'><img src='trustrating_stim/white_00761_941201_fb_edt.bmp'><br><font class='baseline'><strong>Joseph</strong><p>Choose number of points to send.</font><div class='respPicDiv'><img src='img/responseButtonOffersNo0L4.png' class='respPic'></div></div>","null","4","Joseph","trustrating_stim/white_00761_941201_fb_edt.bmp","Kept","0.4,0.8","10","0.4","78","14"
"","","","feedback","","5fa774ae1bcae04f0bd898b3","bdp_trlrn","Tue May 11 2021 15:36:11 GMT-0400 (Eastern Daylight Time)","592714","Untrustworthy,Trustworthy","html-keyboard-response","137","391683","0.0-18.0-3.13","","null","","<div class='trialDiv'><img src='trustrating_stim/white_00761_941201_fb_edt.bmp'><br><font class='baseline'><strong>Joseph</strong><p>Received: <strong>16</strong></font> &nbsp; &nbsp; &nbsp; &nbsp; &nbsp; &nbsp;<font class='negOutcome'>Shared back: <strong>0</strong></font></font><div class='respPicDiv'><img src='img/responseButtonOffersNo0_wht.png' class='respPic'></div></div>","null","4","Joseph","trustrating_stim/white_00761_941201_fb_edt.bmp","Kept","0.4,0.8","10","0.4","78","14"
"","","","decision","","5fa774ae1bcae04f0bd898b3","bdp_trlrn","Tue May 11 2021 15:36:11 GMT-0400 (Eastern Daylight Time)","592714","Untrustworthy,Trustworthy","html-keyboard-response","138","392934","0.0-18.0-1.14","","1249","","<div class='trialDiv'><img src='trustrating_stim/white_mw046.bmp'><br><font class='baseline'><strong>Jacob</strong><p>Choose number of points to send.</font><div class='respPicDiv'><img src='img/responseButtonOffersNo0L.png' class='respPic'></div></div>","4","4","Jacob","trustrating_stim/white_mw046.bmp","Kept","0.2,0.6","12","0.2","83","15"
"","","","decisionFB","","5fa774ae1bcae04f0bd898b3","bdp_trlrn","Tue May 11 2021 15:36:11 GMT-0400 (Eastern Daylight Time)","592714","Untrustworthy,Trustworthy","html-keyboard-response","139","393186","0.0-18.0-2.14","","null","","<div class='trialDiv'><img src='trustrating_stim/white_mw046.bmp'><br><font class='baseline'><strong>Jacob</strong><p>Choose number of points to send.</font><div class='respPicDiv'><img src='img/responseButtonOffersNo0L4.png' class='respPic'></div></div>","null","4","Jacob","trustrating_stim/white_mw046.bmp","Kept","0.2,0.6","12","0.2","79","15"
"","","","feedback","","5fa774ae1bcae04f0bd898b3","bdp_trlrn","Tue May 11 2021 15:36:11 GMT-0400 (Eastern Daylight Time)","592714","Untrustworthy,Trustworthy","html-keyboard-response","140","394189","0.0-18.0-3.14","","null","","<div class='trialDiv'><img src='trustrating_stim/white_mw046.bmp'><br><font class='baseline'><strong>Jacob</strong><p>Received: <strong>16</strong></font> &nbsp; &nbsp; &nbsp; &nbsp; &nbsp; &nbsp;<font class='negOutcome'>Shared back: <strong>0</strong></font></font><div class='respPicDiv'><img src='img/responseButtonOffersNo0_wht.png' class='respPic'></div></div>","null","4","Jacob","trustrating_stim/white_mw046.bmp","Kept","0.2,0.6","12","0.2","79","15"
"","","","decision","","5fa774ae1bcae04f0bd898b3","bdp_trlrn","Tue May 11 2021 15:36:11 GMT-0400 (Eastern Daylight Time)","592714","Untrustworthy,Trustworthy","html-keyboard-response","141","394971","0.0-18.0-1.15","","780","","<div class='trialDiv'><img src='trustrating_stim/white_mw035.bmp'><br><font class='baseline'><strong>Brian</strong><p>Choose number of points to send.</font><div class='respPicDiv'><img src='img/responseButtonOffersNo0L.png' class='respPic'></div></div>","4","4","Brian","trustrating_stim/white_mw035.bmp","Kept","0.6,0.2","10","0.6","84","16"
"","","","decisionFB","","5fa774ae1bcae04f0bd898b3","bdp_trlrn","Tue May 11 2021 15:36:11 GMT-0400 (Eastern Daylight Time)","592714","Untrustworthy,Trustworthy","html-keyboard-response","142","395224","0.0-18.0-2.15","","null","","<div class='trialDiv'><img src='trustrating_stim/white_mw035.bmp'><br><font class='baseline'><strong>Brian</strong><p>Choose number of points to send.</font><div class='respPicDiv'><img src='img/responseButtonOffersNo0L4.png' class='respPic'></div></div>","null","4","Brian","trustrating_stim/white_mw035.bmp","Kept","0.6,0.2","10","0.6","80","16"
"","","","feedback","","5fa774ae1bcae04f0bd898b3","bdp_trlrn","Tue May 11 2021 15:36:11 GMT-0400 (Eastern Daylight Time)","592714","Untrustworthy,Trustworthy","html-keyboard-response","143","396226","0.0-18.0-3.15","","null","","<div class='trialDiv'><img src='trustrating_stim/white_mw035.bmp'><br><font class='baseline'><strong>Brian</strong><p>Received: <strong>16</strong></font> &nbsp; &nbsp; &nbsp; &nbsp; &nbsp; &nbsp;<font class='negOutcome'>Shared back: <strong>0</strong></font></font><div class='respPicDiv'><img src='img/responseButtonOffersNo0_wht.png' class='respPic'></div></div>","null","4","Brian","trustrating_stim/white_mw035.bmp","Kept","0.6,0.2","10","0.6","80","16"
"","","","decision","","5fa774ae1bcae04f0bd898b3","bdp_trlrn","Tue May 11 2021 15:36:11 GMT-0400 (Eastern Daylight Time)","592714","Untrustworthy,Trustworthy","html-keyboard-response","144","397071","0.0-18.0-1.16","","842","","<div class='trialDiv'><img src='trustrating_stim/white_mw046.bmp'><br><font class='baseline'><strong>Jacob</strong><p>Choose number of points to send.</font><div class='respPicDiv'><img src='img/responseButtonOffersNo0L.png' class='respPic'></div></div>","4","5","Jacob","trustrating_stim/white_mw046.bmp","Kept","0.2,0.6","12","0.2","85","17"
"","","","decisionFB","","5fa774ae1bcae04f0bd898b3","bdp_trlrn","Tue May 11 2021 15:36:11 GMT-0400 (Eastern Daylight Time)","592714","Untrustworthy,Trustworthy","html-keyboard-response","145","397323","0.0-18.0-2.16","","null","","<div class='trialDiv'><img src='trustrating_stim/white_mw046.bmp'><br><font class='baseline'><strong>Jacob</strong><p>Choose number of points to send.</font><div class='respPicDiv'><img src='img/responseButtonOffersNo0L4.png' class='respPic'></div></div>","null","5","Jacob","trustrating_stim/white_mw046.bmp","Kept","0.2,0.6","12","0.2","81","17"
"","","","feedback","","5fa774ae1bcae04f0bd898b3","bdp_trlrn","Tue May 11 2021 15:36:11 GMT-0400 (Eastern Daylight Time)","592714","Untrustworthy,Trustworthy","html-keyboard-response","146","398326","0.0-18.0-3.16","","null","","<div class='trialDiv'><img src='trustrating_stim/white_mw046.bmp'><br><font class='baseline'><strong>Jacob</strong><p>Received: <strong>16</strong></font> &nbsp; &nbsp; &nbsp; &nbsp; &nbsp; &nbsp;<font class='negOutcome'>Shared back: <strong>0</strong></font></font><div class='respPicDiv'><img src='img/responseButtonOffersNo0_wht.png' class='respPic'></div></div>","null","5","Jacob","trustrating_stim/white_mw046.bmp","Kept","0.2,0.6","12","0.2","81","17"
"","","","decision","","5fa774ae1bcae04f0bd898b3","bdp_trlrn","Tue May 11 2021 15:36:11 GMT-0400 (Eastern Daylight Time)","592714","Untrustworthy,Trustworthy","html-keyboard-response","147","398716","0.0-18.0-1.17","","389","","<div class='trialDiv'><img src='trustrating_stim/white_00761_941201_fb_edt.bmp'><br><font class='baseline'><strong>Joseph</strong><p>Choose number of points to send.</font><div class='respPicDiv'><img src='img/responseButtonOffersNo0L.png' class='respPic'></div></div>","2","5","Joseph","trustrating_stim/white_00761_941201_fb_edt.bmp","Shared","0.4,0.8","10","0.4","86","18"
"","","","decisionFB","","5fa774ae1bcae04f0bd898b3","bdp_trlrn","Tue May 11 2021 15:36:11 GMT-0400 (Eastern Daylight Time)","592714","Untrustworthy,Trustworthy","html-keyboard-response","148","398969","0.0-18.0-2.17","","null","","<div class='trialDiv'><img src='trustrating_stim/white_00761_941201_fb_edt.bmp'><br><font class='baseline'><strong>Joseph</strong><p>Choose number of points to send.</font><div class='respPicDiv'><img src='img/responseButtonOffersNo0L2.png' class='respPic'></div></div>","null","5","Joseph","trustrating_stim/white_00761_941201_fb_edt.bmp","Shared","0.4,0.8","10","0.4","84","18"
"","","","feedback","","5fa774ae1bcae04f0bd898b3","bdp_trlrn","Tue May 11 2021 15:36:11 GMT-0400 (Eastern Daylight Time)","592714","Untrustworthy,Trustworthy","html-keyboard-response","149","399972","0.0-18.0-3.17","","null","","<div class='trialDiv'><img src='trustrating_stim/white_00761_941201_fb_edt.bmp'><br><font class='baseline'><strong>Joseph</strong><p>Received: <strong>8</strong></font> &nbsp; &nbsp; &nbsp; &nbsp; &nbsp; &nbsp;<font class='posOutcome'>Shared back: <strong>4</strong></font></font><div class='respPicDiv'><img src='img/responseButtonOffersNo0_wht.png' class='respPic'></div></div>","null","5","Joseph","trustrating_stim/white_00761_941201_fb_edt.bmp","Shared","0.4,0.8","10","0.4","88","18"
"","","","decision","","5fa774ae1bcae04f0bd898b3","bdp_trlrn","Tue May 11 2021 15:36:11 GMT-0400 (Eastern Daylight Time)","592714","Untrustworthy,Trustworthy","html-keyboard-response","150","400425","0.0-18.0-1.18","","451","","<div class='trialDiv'><img src='trustrating_stim/white_mw071.bmp'><br><font class='baseline'><strong>Benjamin</strong><p>Choose number of points to send.</font><div class='respPicDiv'><img src='img/responseButtonOffersNo0L.png' class='respPic'></div></div>","2","5","Benjamin","trustrating_stim/white_mw071.bmp","Shared","0.8,0.4","13","0.8","93","19"
"","","","decisionFB","","5fa774ae1bcae04f0bd898b3","bdp_trlrn","Tue May 11 2021 15:36:11 GMT-0400 (Eastern Daylight Time)","592714","Untrustworthy,Trustworthy","html-keyboard-response","151","400677","0.0-18.0-2.18","","null","","<div class='trialDiv'><img src='trustrating_stim/white_mw071.bmp'><br><font class='baseline'><strong>Benjamin</strong><p>Choose number of points to send.</font><div class='respPicDiv'><img src='img/responseButtonOffersNo0L2.png' class='respPic'></div></div>","null","5","Benjamin","trustrating_stim/white_mw071.bmp","Shared","0.8,0.4","13","0.8","91","19"
"","","","feedback","","5fa774ae1bcae04f0bd898b3","bdp_trlrn","Tue May 11 2021 15:36:11 GMT-0400 (Eastern Daylight Time)","592714","Untrustworthy,Trustworthy","html-keyboard-response","152","401680","0.0-18.0-3.18","","null","","<div class='trialDiv'><img src='trustrating_stim/white_mw071.bmp'><br><font class='baseline'><strong>Benjamin</strong><p>Received: <strong>8</strong></font> &nbsp; &nbsp; &nbsp; &nbsp; &nbsp; &nbsp;<font class='posOutcome'>Shared back: <strong>4</strong></font></font><div class='respPicDiv'><img src='img/responseButtonOffersNo0_wht.png' class='respPic'></div></div>","null","5","Benjamin","trustrating_stim/white_mw071.bmp","Shared","0.8,0.4","13","0.8","95","19"
"","","","decision","","5fa774ae1bcae04f0bd898b3","bdp_trlrn","Tue May 11 2021 15:36:11 GMT-0400 (Eastern Daylight Time)","592714","Untrustworthy,Trustworthy","html-keyboard-response","153","402365","0.0-18.0-1.19","","681","","<div class='trialDiv'><img src='trustrating_stim/white_mw035.bmp'><br><font class='baseline'><strong>Brian</strong><p>Choose number of points to send.</font><div class='respPicDiv'><img src='img/responseButtonOffersNo0L.png' class='respPic'></div></div>","3","5","Brian","trustrating_stim/white_mw035.bmp","Kept","0.6,0.2","10","0.6","100","20"
"","","","decisionFB","","5fa774ae1bcae04f0bd898b3","bdp_trlrn","Tue May 11 2021 15:36:11 GMT-0400 (Eastern Daylight Time)","592714","Untrustworthy,Trustworthy","html-keyboard-response","154","402617","0.0-18.0-2.19","","null","","<div class='trialDiv'><img src='trustrating_stim/white_mw035.bmp'><br><font class='baseline'><strong>Brian</strong><p>Choose number of points to send.</font><div class='respPicDiv'><img src='img/responseButtonOffersNo0L3.png' class='respPic'></div></div>","null","5","Brian","trustrating_stim/white_mw035.bmp","Kept","0.6,0.2","10","0.6","97","20"
"","","","feedback","","5fa774ae1bcae04f0bd898b3","bdp_trlrn","Tue May 11 2021 15:36:11 GMT-0400 (Eastern Daylight Time)","592714","Untrustworthy,Trustworthy","html-keyboard-response","155","403619","0.0-18.0-3.19","","null","","<div class='trialDiv'><img src='trustrating_stim/white_mw035.bmp'><br><font class='baseline'><strong>Brian</strong><p>Received: <strong>12</strong></font> &nbsp; &nbsp; &nbsp; &nbsp; &nbsp; &nbsp;<font class='negOutcome'>Shared back: <strong>0</strong></font></font><div class='respPicDiv'><img src='img/responseButtonOffersNo0_wht.png' class='respPic'></div></div>","null","5","Brian","trustrating_stim/white_mw035.bmp","Kept","0.6,0.2","10","0.6","97","20"
"","","","decision","","5fa774ae1bcae04f0bd898b3","bdp_trlrn","Tue May 11 2021 15:36:11 GMT-0400 (Eastern Daylight Time)","592714","Untrustworthy,Trustworthy","html-keyboard-response","156","403975","0.0-18.0-1.20","","353","","<div class='trialDiv'><img src='trustrating_stim/white_mw046.bmp'><br><font class='baseline'><strong>Jacob</strong><p>Choose number of points to send.</font><div class='respPicDiv'><img src='img/responseButtonOffersNo0L.png' class='respPic'></div></div>","2","6","Jacob","trustrating_stim/white_mw046.bmp","Kept","0.2,0.6","12","0.2","102","21"
"","","","decisionFB","","5fa774ae1bcae04f0bd898b3","bdp_trlrn","Tue May 11 2021 15:36:11 GMT-0400 (Eastern Daylight Time)","592714","Untrustworthy,Trustworthy","html-keyboard-response","157","404230","0.0-18.0-2.20","","null","","<div class='trialDiv'><img src='trustrating_stim/white_mw046.bmp'><br><font class='baseline'><strong>Jacob</strong><p>Choose number of points to send.</font><div class='respPicDiv'><img src='img/responseButtonOffersNo0L2.png' class='respPic'></div></div>","null","6","Jacob","trustrating_stim/white_mw046.bmp","Kept","0.2,0.6","12","0.2","100","21"
"","","","feedback","","5fa774ae1bcae04f0bd898b3","bdp_trlrn","Tue May 11 2021 15:36:11 GMT-0400 (Eastern Daylight Time)","592714","Untrustworthy,Trustworthy","html-keyboard-response","158","405233","0.0-18.0-3.20","","null","","<div class='trialDiv'><img src='trustrating_stim/white_mw046.bmp'><br><font class='baseline'><strong>Jacob</strong><p>Received: <strong>8</strong></font> &nbsp; &nbsp; &nbsp; &nbsp; &nbsp; &nbsp;<font class='negOutcome'>Shared back: <strong>0</strong></font></font><div class='respPicDiv'><img src='img/responseButtonOffersNo0_wht.png' class='respPic'></div></div>","null","6","Jacob","trustrating_stim/white_mw046.bmp","Kept","0.2,0.6","12","0.2","100","21"
"","","","decision","","5fa774ae1bcae04f0bd898b3","bdp_trlrn","Tue May 11 2021 15:36:11 GMT-0400 (Eastern Daylight Time)","592714","Untrustworthy,Trustworthy","html-keyboard-response","159","405673","0.0-18.0-1.21","","439","","<div class='trialDiv'><img src='trustrating_stim/white_00761_941201_fb_edt.bmp'><br><font class='baseline'><strong>Joseph</strong><p>Choose number of points to send.</font><div class='respPicDiv'><img src='img/responseButtonOffersNo0L.png' class='respPic'></div></div>","2","6","Joseph","trustrating_stim/white_00761_941201_fb_edt.bmp","Shared","0.4,0.8","10","0.4","105","22"
"","","","decisionFB","","5fa774ae1bcae04f0bd898b3","bdp_trlrn","Tue May 11 2021 15:36:11 GMT-0400 (Eastern Daylight Time)","592714","Untrustworthy,Trustworthy","html-keyboard-response","160","405925","0.0-18.0-2.21","","null","","<div class='trialDiv'><img src='trustrating_stim/white_00761_941201_fb_edt.bmp'><br><font class='baseline'><strong>Joseph</strong><p>Choose number of points to send.</font><div class='respPicDiv'><img src='img/responseButtonOffersNo0L2.png' class='respPic'></div></div>","null","6","Joseph","trustrating_stim/white_00761_941201_fb_edt.bmp","Shared","0.4,0.8","10","0.4","103","22"
"","","","feedback","","5fa774ae1bcae04f0bd898b3","bdp_trlrn","Tue May 11 2021 15:36:11 GMT-0400 (Eastern Daylight Time)","592714","Untrustworthy,Trustworthy","html-keyboard-response","161","406927","0.0-18.0-3.21","","null","","<div class='trialDiv'><img src='trustrating_stim/white_00761_941201_fb_edt.bmp'><br><font class='baseline'><strong>Joseph</strong><p>Received: <strong>8</strong></font> &nbsp; &nbsp; &nbsp; &nbsp; &nbsp; &nbsp;<font class='posOutcome'>Shared back: <strong>4</strong></font></font><div class='respPicDiv'><img src='img/responseButtonOffersNo0_wht.png' class='respPic'></div></div>","null","6","Joseph","trustrating_stim/white_00761_941201_fb_edt.bmp","Shared","0.4,0.8","10","0.4","107","22"
"","","","decision","","5fa774ae1bcae04f0bd898b3","bdp_trlrn","Tue May 11 2021 15:36:11 GMT-0400 (Eastern Daylight Time)","592714","Untrustworthy,Trustworthy","html-keyboard-response","162","407299","0.0-18.0-1.22","","369","","<div class='trialDiv'><img src='trustrating_stim/white_mw071.bmp'><br><font class='baseline'><strong>Benjamin</strong><p>Choose number of points to send.</font><div class='respPicDiv'><img src='img/responseButtonOffersNo0L.png' class='respPic'></div></div>","2","6","Benjamin","trustrating_stim/white_mw071.bmp","Shared","0.8,0.4","13","0.8","112","23"
"","","","decisionFB","","5fa774ae1bcae04f0bd898b3","bdp_trlrn","Tue May 11 2021 15:36:11 GMT-0400 (Eastern Daylight Time)","592714","Untrustworthy,Trustworthy","html-keyboard-response","163","407551","0.0-18.0-2.22","","null","","<div class='trialDiv'><img src='trustrating_stim/white_mw071.bmp'><br><font class='baseline'><strong>Benjamin</strong><p>Choose number of points to send.</font><div class='respPicDiv'><img src='img/responseButtonOffersNo0L2.png' class='respPic'></div></div>","null","6","Benjamin","trustrating_stim/white_mw071.bmp","Shared","0.8,0.4","13","0.8","110","23"
"","","","feedback","","5fa774ae1bcae04f0bd898b3","bdp_trlrn","Tue May 11 2021 15:36:11 GMT-0400 (Eastern Daylight Time)","592714","Untrustworthy,Trustworthy","html-keyboard-response","164","408554","0.0-18.0-3.22","","null","","<div class='trialDiv'><img src='trustrating_stim/white_mw071.bmp'><br><font class='baseline'><strong>Benjamin</strong><p>Received: <strong>8</strong></font> &nbsp; &nbsp; &nbsp; &nbsp; &nbsp; &nbsp;<font class='posOutcome'>Shared back: <strong>4</strong></font></font><div class='respPicDiv'><img src='img/responseButtonOffersNo0_wht.png' class='respPic'></div></div>","null","6","Benjamin","trustrating_stim/white_mw071.bmp","Shared","0.8,0.4","13","0.8","114","23"
"","","","decision","","5fa774ae1bcae04f0bd898b3","bdp_trlrn","Tue May 11 2021 15:36:11 GMT-0400 (Eastern Daylight Time)","592714","Untrustworthy,Trustworthy","html-keyboard-response","165","408875","0.0-18.0-1.23","","320","","<div class='trialDiv'><img src='trustrating_stim/white_mw035.bmp'><br><font class='baseline'><strong>Brian</strong><p>Choose number of points to send.</font><div class='respPicDiv'><img src='img/responseButtonOffersNo0L.png' class='respPic'></div></div>","4","6","Brian","trustrating_stim/white_mw035.bmp","Kept","0.6,0.2","10","0.6","119","24"
"","","","decisionFB","","5fa774ae1bcae04f0bd898b3","bdp_trlrn","Tue May 11 2021 15:36:11 GMT-0400 (Eastern Daylight Time)","592714","Untrustworthy,Trustworthy","html-keyboard-response","166","409127","0.0-18.0-2.23","","null","","<div class='trialDiv'><img src='trustrating_stim/white_mw035.bmp'><br><font class='baseline'><strong>Brian</strong><p>Choose number of points to send.</font><div class='respPicDiv'><img src='img/responseButtonOffersNo0L4.png' class='respPic'></div></div>","null","6","Brian","trustrating_stim/white_mw035.bmp","Kept","0.6,0.2","10","0.6","115","24"
"","","","feedback","","5fa774ae1bcae04f0bd898b3","bdp_trlrn","Tue May 11 2021 15:36:11 GMT-0400 (Eastern Daylight Time)","592714","Untrustworthy,Trustworthy","html-keyboard-response","167","410131","0.0-18.0-3.23","","null","","<div class='trialDiv'><img src='trustrating_stim/white_mw035.bmp'><br><font class='baseline'><strong>Brian</strong><p>Received: <strong>16</strong></font> &nbsp; &nbsp; &nbsp; &nbsp; &nbsp; &nbsp;<font class='negOutcome'>Shared back: <strong>0</strong></font></font><div class='respPicDiv'><img src='img/responseButtonOffersNo0_wht.png' class='respPic'></div></div>","null","6","Brian","trustrating_stim/white_mw035.bmp","Kept","0.6,0.2","10","0.6","115","24"
"","","","decision","","5fa774ae1bcae04f0bd898b3","bdp_trlrn","Tue May 11 2021 15:36:11 GMT-0400 (Eastern Daylight Time)","592714","Untrustworthy,Trustworthy","html-keyboard-response","168","410506","0.0-18.0-1.24","","373","","<div class='trialDiv'><img src='trustrating_stim/white_mw071.bmp'><br><font class='baseline'><strong>Benjamin</strong><p>Choose number of points to send.</font><div class='respPicDiv'><img src='img/responseButtonOffersNo0L.png' class='respPic'></div></div>","2","7","Benjamin","trustrating_stim/white_mw071.bmp","Shared","0.8,0.4","13","0.8","120","25"
"","","","decisionFB","","5fa774ae1bcae04f0bd898b3","bdp_trlrn","Tue May 11 2021 15:36:11 GMT-0400 (Eastern Daylight Time)","592714","Untrustworthy,Trustworthy","html-keyboard-response","169","410758","0.0-18.0-2.24","","null","","<div class='trialDiv'><img src='trustrating_stim/white_mw071.bmp'><br><font class='baseline'><strong>Benjamin</strong><p>Choose number of points to send.</font><div class='respPicDiv'><img src='img/responseButtonOffersNo0L2.png' class='respPic'></div></div>","null","7","Benjamin","trustrating_stim/white_mw071.bmp","Shared","0.8,0.4","13","0.8","118","25"
"","","","feedback","","5fa774ae1bcae04f0bd898b3","bdp_trlrn","Tue May 11 2021 15:36:11 GMT-0400 (Eastern Daylight Time)","592714","Untrustworthy,Trustworthy","html-keyboard-response","170","411761","0.0-18.0-3.24","","null","","<div class='trialDiv'><img src='trustrating_stim/white_mw071.bmp'><br><font class='baseline'><strong>Benjamin</strong><p>Received: <strong>8</strong></font> &nbsp; &nbsp; &nbsp; &nbsp; &nbsp; &nbsp;<font class='posOutcome'>Shared back: <strong>4</strong></font></font><div class='respPicDiv'><img src='img/responseButtonOffersNo0_wht.png' class='respPic'></div></div>","null","7","Benjamin","trustrating_stim/white_mw071.bmp","Shared","0.8,0.4","13","0.8","122","25"
"","","","decision","","5fa774ae1bcae04f0bd898b3","bdp_trlrn","Tue May 11 2021 15:36:11 GMT-0400 (Eastern Daylight Time)","592714","Untrustworthy,Trustworthy","html-keyboard-response","171","412421","0.0-18.0-1.25","","658","","<div class='trialDiv'><img src='trustrating_stim/white_00761_941201_fb_edt.bmp'><br><font class='baseline'><strong>Joseph</strong><p>Choose number of points to send.</font><div class='respPicDiv'><img src='img/responseButtonOffersNo0L.png' class='respPic'></div></div>","2","7","Joseph","trustrating_stim/white_00761_941201_fb_edt.bmp","Kept","0.4,0.8","10","0.4","127","26"
"","","","decisionFB","","5fa774ae1bcae04f0bd898b3","bdp_trlrn","Tue May 11 2021 15:36:11 GMT-0400 (Eastern Daylight Time)","592714","Untrustworthy,Trustworthy","html-keyboard-response","172","412673","0.0-18.0-2.25","","null","","<div class='trialDiv'><img src='trustrating_stim/white_00761_941201_fb_edt.bmp'><br><font class='baseline'><strong>Joseph</strong><p>Choose number of points to send.</font><div class='respPicDiv'><img src='img/responseButtonOffersNo0L2.png' class='respPic'></div></div>","null","7","Joseph","trustrating_stim/white_00761_941201_fb_edt.bmp","Kept","0.4,0.8","10","0.4","125","26"
"","","","feedback","","5fa774ae1bcae04f0bd898b3","bdp_trlrn","Tue May 11 2021 15:36:11 GMT-0400 (Eastern Daylight Time)","592714","Untrustworthy,Trustworthy","html-keyboard-response","173","413675","0.0-18.0-3.25","","null","","<div class='trialDiv'><img src='trustrating_stim/white_00761_941201_fb_edt.bmp'><br><font class='baseline'><strong>Joseph</strong><p>Received: <strong>8</strong></font> &nbsp; &nbsp; &nbsp; &nbsp; &nbsp; &nbsp;<font class='negOutcome'>Shared back: <strong>0</strong></font></font><div class='respPicDiv'><img src='img/responseButtonOffersNo0_wht.png' class='respPic'></div></div>","null","7","Joseph","trustrating_stim/white_00761_941201_fb_edt.bmp","Kept","0.4,0.8","10","0.4","125","26"
"","","","decision","","5fa774ae1bcae04f0bd898b3","bdp_trlrn","Tue May 11 2021 15:36:11 GMT-0400 (Eastern Daylight Time)","592714","Untrustworthy,Trustworthy","html-keyboard-response","174","413978","0.0-18.0-1.26","","301","","<div class='trialDiv'><img src='trustrating_stim/white_mw046.bmp'><br><font class='baseline'><strong>Jacob</strong><p>Choose number of points to send.</font><div class='respPicDiv'><img src='img/responseButtonOffersNo0L.png' class='respPic'></div></div>","3","7","Jacob","trustrating_stim/white_mw046.bmp","Kept","0.2,0.6","12","0.2","130","27"
"","","","decisionFB","","5fa774ae1bcae04f0bd898b3","bdp_trlrn","Tue May 11 2021 15:36:11 GMT-0400 (Eastern Daylight Time)","592714","Untrustworthy,Trustworthy","html-keyboard-response","175","414231","0.0-18.0-2.26","","null","","<div class='trialDiv'><img src='trustrating_stim/white_mw046.bmp'><br><font class='baseline'><strong>Jacob</strong><p>Choose number of points to send.</font><div class='respPicDiv'><img src='img/responseButtonOffersNo0L3.png' class='respPic'></div></div>","null","7","Jacob","trustrating_stim/white_mw046.bmp","Kept","0.2,0.6","12","0.2","127","27"
"","","","feedback","","5fa774ae1bcae04f0bd898b3","bdp_trlrn","Tue May 11 2021 15:36:11 GMT-0400 (Eastern Daylight Time)","592714","Untrustworthy,Trustworthy","html-keyboard-response","176","415233","0.0-18.0-3.26","","null","","<div class='trialDiv'><img src='trustrating_stim/white_mw046.bmp'><br><font class='baseline'><strong>Jacob</strong><p>Received: <strong>12</strong></font> &nbsp; &nbsp; &nbsp; &nbsp; &nbsp; &nbsp;<font class='negOutcome'>Shared back: <strong>0</strong></font></font><div class='respPicDiv'><img src='img/responseButtonOffersNo0_wht.png' class='respPic'></div></div>","null","7","Jacob","trustrating_stim/white_mw046.bmp","Kept","0.2,0.6","12","0.2","127","27"
"","","","decision","","5fa774ae1bcae04f0bd898b3","bdp_trlrn","Tue May 11 2021 15:36:11 GMT-0400 (Eastern Daylight Time)","592714","Untrustworthy,Trustworthy","html-keyboard-response","177","415552","0.0-18.0-1.27","","318","","<div class='trialDiv'><img src='trustrating_stim/white_mw035.bmp'><br><font class='baseline'><strong>Brian</strong><p>Choose number of points to send.</font><div class='respPicDiv'><img src='img/responseButtonOffersNo0L.png' class='respPic'></div></div>","4","7","Brian","trustrating_stim/white_mw035.bmp","Shared","0.6,0.2","10","0.6","132","28"
"","","","decisionFB","","5fa774ae1bcae04f0bd898b3","bdp_trlrn","Tue May 11 2021 15:36:11 GMT-0400 (Eastern Daylight Time)","592714","Untrustworthy,Trustworthy","html-keyboard-response","178","415804","0.0-18.0-2.27","","null","","<div class='trialDiv'><img src='trustrating_stim/white_mw035.bmp'><br><font class='baseline'><strong>Brian</strong><p>Choose number of points to send.</font><div class='respPicDiv'><img src='img/responseButtonOffersNo0L4.png' class='respPic'></div></div>","null","7","Brian","trustrating_stim/white_mw035.bmp","Shared","0.6,0.2","10","0.6","128","28"
"","","","feedback","","5fa774ae1bcae04f0bd898b3","bdp_trlrn","Tue May 11 2021 15:36:11 GMT-0400 (Eastern Daylight Time)","592714","Untrustworthy,Trustworthy","html-keyboard-response","179","416805","0.0-18.0-3.27","","null","","<div class='trialDiv'><img src='trustrating_stim/white_mw035.bmp'><br><font class='baseline'><strong>Brian</strong><p>Received: <strong>16</strong></font> &nbsp; &nbsp; &nbsp; &nbsp; &nbsp; &nbsp;<font class='posOutcome'>Shared back: <strong>8</strong></font></font><div class='respPicDiv'><img src='img/responseButtonOffersNo0_wht.png' class='respPic'></div></div>","null","7","Brian","trustrating_stim/white_mw035.bmp","Shared","0.6,0.2","10","0.6","136","28"
"","","","decision","","5fa774ae1bcae04f0bd898b3","bdp_trlrn","Tue May 11 2021 15:36:11 GMT-0400 (Eastern Daylight Time)","592714","Untrustworthy,Trustworthy","html-keyboard-response","180","417344","0.0-18.0-1.28","","537","","<div class='trialDiv'><img src='trustrating_stim/white_mw071.bmp'><br><font class='baseline'><strong>Benjamin</strong><p>Choose number of points to send.</font><div class='respPicDiv'><img src='img/responseButtonOffersNo0L.png' class='respPic'></div></div>","3","8","Benjamin","trustrating_stim/white_mw071.bmp","Shared","0.8,0.4","13","0.8","141","29"
"","","","decisionFB","","5fa774ae1bcae04f0bd898b3","bdp_trlrn","Tue May 11 2021 15:36:11 GMT-0400 (Eastern Daylight Time)","592714","Untrustworthy,Trustworthy","html-keyboard-response","181","417595","0.0-18.0-2.28","","null","","<div class='trialDiv'><img src='trustrating_stim/white_mw071.bmp'><br><font class='baseline'><strong>Benjamin</strong><p>Choose number of points to send.</font><div class='respPicDiv'><img src='img/responseButtonOffersNo0L3.png' class='respPic'></div></div>","null","8","Benjamin","trustrating_stim/white_mw071.bmp","Shared","0.8,0.4","13","0.8","138","29"
"","","","feedback","","5fa774ae1bcae04f0bd898b3","bdp_trlrn","Tue May 11 2021 15:36:11 GMT-0400 (Eastern Daylight Time)","592714","Untrustworthy,Trustworthy","html-keyboard-response","182","418597","0.0-18.0-3.28","","null","","<div class='trialDiv'><img src='trustrating_stim/white_mw071.bmp'><br><font class='baseline'><strong>Benjamin</strong><p>Received: <strong>12</strong></font> &nbsp; &nbsp; &nbsp; &nbsp; &nbsp; &nbsp;<font class='posOutcome'>Shared back: <strong>6</strong></font></font><div class='respPicDiv'><img src='img/responseButtonOffersNo0_wht.png' class='respPic'></div></div>","null","8","Benjamin","trustrating_stim/white_mw071.bmp","Shared","0.8,0.4","13","0.8","144","29"
"","","","decision","","5fa774ae1bcae04f0bd898b3","bdp_trlrn","Tue May 11 2021 15:36:11 GMT-0400 (Eastern Daylight Time)","592714","Untrustworthy,Trustworthy","html-keyboard-response","183","419134","0.0-18.0-1.29","","534","","<div class='trialDiv'><img src='trustrating_stim/white_mw046.bmp'><br><font class='baseline'><strong>Jacob</strong><p>Choose number of points to send.</font><div class='respPicDiv'><img src='img/responseButtonOffersNo0L.png' class='respPic'></div></div>","2","8","Jacob","trustrating_stim/white_mw046.bmp","Kept","0.2,0.6","12","0.2","149","30"
"","","","decisionFB","","5fa774ae1bcae04f0bd898b3","bdp_trlrn","Tue May 11 2021 15:36:11 GMT-0400 (Eastern Daylight Time)","592714","Untrustworthy,Trustworthy","html-keyboard-response","184","419387","0.0-18.0-2.29","","null","","<div class='trialDiv'><img src='trustrating_stim/white_mw046.bmp'><br><font class='baseline'><strong>Jacob</strong><p>Choose number of points to send.</font><div class='respPicDiv'><img src='img/responseButtonOffersNo0L2.png' class='respPic'></div></div>","null","8","Jacob","trustrating_stim/white_mw046.bmp","Kept","0.2,0.6","12","0.2","147","30"
"","","","feedback","","5fa774ae1bcae04f0bd898b3","bdp_trlrn","Tue May 11 2021 15:36:11 GMT-0400 (Eastern Daylight Time)","592714","Untrustworthy,Trustworthy","html-keyboard-response","185","420389","0.0-18.0-3.29","","null","","<div class='trialDiv'><img src='trustrating_stim/white_mw046.bmp'><br><font class='baseline'><strong>Jacob</strong><p>Received: <strong>8</strong></font> &nbsp; &nbsp; &nbsp; &nbsp; &nbsp; &nbsp;<font class='negOutcome'>Shared back: <strong>0</strong></font></font><div class='respPicDiv'><img src='img/responseButtonOffersNo0_wht.png' class='respPic'></div></div>","null","8","Jacob","trustrating_stim/white_mw046.bmp","Kept","0.2,0.6","12","0.2","147","30"
"","","","decision","","5fa774ae1bcae04f0bd898b3","bdp_trlrn","Tue May 11 2021 15:36:11 GMT-0400 (Eastern Daylight Time)","592714","Untrustworthy,Trustworthy","html-keyboard-response","186","420718","0.0-18.0-1.30","","328","","<div class='trialDiv'><img src='trustrating_stim/white_mw035.bmp'><br><font class='baseline'><strong>Brian</strong><p>Choose number of points to send.</font><div class='respPicDiv'><img src='img/responseButtonOffersNo0L.png' class='respPic'></div></div>","4","8","Brian","trustrating_stim/white_mw035.bmp","Kept","0.6,0.2","10","0.6","152","31"
"","","","decisionFB","","5fa774ae1bcae04f0bd898b3","bdp_trlrn","Tue May 11 2021 15:36:11 GMT-0400 (Eastern Daylight Time)","592714","Untrustworthy,Trustworthy","html-keyboard-response","187","420970","0.0-18.0-2.30","","null","","<div class='trialDiv'><img src='trustrating_stim/white_mw035.bmp'><br><font class='baseline'><strong>Brian</strong><p>Choose number of points to send.</font><div class='respPicDiv'><img src='img/responseButtonOffersNo0L4.png' class='respPic'></div></div>","null","8","Brian","trustrating_stim/white_mw035.bmp","Kept","0.6,0.2","10","0.6","148","31"
"","","","feedback","","5fa774ae1bcae04f0bd898b3","bdp_trlrn","Tue May 11 2021 15:36:11 GMT-0400 (Eastern Daylight Time)","592714","Untrustworthy,Trustworthy","html-keyboard-response","188","421972","0.0-18.0-3.30","","null","","<div class='trialDiv'><img src='trustrating_stim/white_mw035.bmp'><br><font class='baseline'><strong>Brian</strong><p>Received: <strong>16</strong></font> &nbsp; &nbsp; &nbsp; &nbsp; &nbsp; &nbsp;<font class='negOutcome'>Shared back: <strong>0</strong></font></font><div class='respPicDiv'><img src='img/responseButtonOffersNo0_wht.png' class='respPic'></div></div>","null","8","Brian","trustrating_stim/white_mw035.bmp","Kept","0.6,0.2","10","0.6","148","31"
"","","","decision","","5fa774ae1bcae04f0bd898b3","bdp_trlrn","Tue May 11 2021 15:36:11 GMT-0400 (Eastern Daylight Time)","592714","Untrustworthy,Trustworthy","html-keyboard-response","189","424135","0.0-18.0-1.31","","2161","","<div class='trialDiv'><img src='trustrating_stim/white_00761_941201_fb_edt.bmp'><br><font class='baseline'><strong>Joseph</strong><p>Choose number of points to send.</font><div class='respPicDiv'><img src='img/responseButtonOffersNo0L.png' class='respPic'></div></div>","4","8","Joseph","trustrating_stim/white_00761_941201_fb_edt.bmp","Kept","0.4,0.8","10","0.4","153","32"
"","","","decisionFB","","5fa774ae1bcae04f0bd898b3","bdp_trlrn","Tue May 11 2021 15:36:11 GMT-0400 (Eastern Daylight Time)","592714","Untrustworthy,Trustworthy","html-keyboard-response","190","424388","0.0-18.0-2.31","","null","","<div class='trialDiv'><img src='trustrating_stim/white_00761_941201_fb_edt.bmp'><br><font class='baseline'><strong>Joseph</strong><p>Choose number of points to send.</font><div class='respPicDiv'><img src='img/responseButtonOffersNo0L4.png' class='respPic'></div></div>","null","8","Joseph","trustrating_stim/white_00761_941201_fb_edt.bmp","Kept","0.4,0.8","10","0.4","149","32"
"","","","feedback","","5fa774ae1bcae04f0bd898b3","bdp_trlrn","Tue May 11 2021 15:36:11 GMT-0400 (Eastern Daylight Time)","592714","Untrustworthy,Trustworthy","html-keyboard-response","191","425391","0.0-18.0-3.31","","null","","<div class='trialDiv'><img src='trustrating_stim/white_00761_941201_fb_edt.bmp'><br><font class='baseline'><strong>Joseph</strong><p>Received: <strong>16</strong></font> &nbsp; &nbsp; &nbsp; &nbsp; &nbsp; &nbsp;<font class='negOutcome'>Shared back: <strong>0</strong></font></font><div class='respPicDiv'><img src='img/responseButtonOffersNo0_wht.png' class='respPic'></div></div>","null","8","Joseph","trustrating_stim/white_00761_941201_fb_edt.bmp","Kept","0.4,0.8","10","0.4","149","32"
"","","","decision","","5fa774ae1bcae04f0bd898b3","bdp_trlrn","Tue May 11 2021 15:36:11 GMT-0400 (Eastern Daylight Time)","592714","Untrustworthy,Trustworthy","html-keyboard-response","192","425759","0.0-18.0-1.32","","367","","<div class='trialDiv'><img src='trustrating_stim/white_mw035.bmp'><br><font class='baseline'><strong>Brian</strong><p>Choose number of points to send.</font><div class='respPicDiv'><img src='img/responseButtonOffersNo0L.png' class='respPic'></div></div>","3","9","Brian","trustrating_stim/white_mw035.bmp","Shared","0.6,0.2","10","0.6","154","33"
"","","","decisionFB","","5fa774ae1bcae04f0bd898b3","bdp_trlrn","Tue May 11 2021 15:36:11 GMT-0400 (Eastern Daylight Time)","592714","Untrustworthy,Trustworthy","html-keyboard-response","193","426012","0.0-18.0-2.32","","null","","<div class='trialDiv'><img src='trustrating_stim/white_mw035.bmp'><br><font class='baseline'><strong>Brian</strong><p>Choose number of points to send.</font><div class='respPicDiv'><img src='img/responseButtonOffersNo0L3.png' class='respPic'></div></div>","null","9","Brian","trustrating_stim/white_mw035.bmp","Shared","0.6,0.2","10","0.6","151","33"
"","","","feedback","","5fa774ae1bcae04f0bd898b3","bdp_trlrn","Tue May 11 2021 15:36:11 GMT-0400 (Eastern Daylight Time)","592714","Untrustworthy,Trustworthy","html-keyboard-response","194","427015","0.0-18.0-3.32","","null","","<div class='trialDiv'><img src='trustrating_stim/white_mw035.bmp'><br><font class='baseline'><strong>Brian</strong><p>Received: <strong>12</strong></font> &nbsp; &nbsp; &nbsp; &nbsp; &nbsp; &nbsp;<font class='posOutcome'>Shared back: <strong>6</strong></font></font><div class='respPicDiv'><img src='img/responseButtonOffersNo0_wht.png' class='respPic'></div></div>","null","9","Brian","trustrating_stim/white_mw035.bmp","Shared","0.6,0.2","10","0.6","157","33"
"","","","decision","","5fa774ae1bcae04f0bd898b3","bdp_trlrn","Tue May 11 2021 15:36:11 GMT-0400 (Eastern Daylight Time)","592714","Untrustworthy,Trustworthy","html-keyboard-response","195","427640","0.0-18.0-1.33","","624","","<div class='trialDiv'><img src='trustrating_stim/white_mw071.bmp'><br><font class='baseline'><strong>Benjamin</strong><p>Choose number of points to send.</font><div class='respPicDiv'><img src='img/responseButtonOffersNo0L.png' class='respPic'></div></div>","2","9","Benjamin","trustrating_stim/white_mw071.bmp","Shared","0.8,0.4","13","0.8","162","34"
"","","","decisionFB","","5fa774ae1bcae04f0bd898b3","bdp_trlrn","Tue May 11 2021 15:36:11 GMT-0400 (Eastern Daylight Time)","592714","Untrustworthy,Trustworthy","html-keyboard-response","196","427893","0.0-18.0-2.33","","null","","<div class='trialDiv'><img src='trustrating_stim/white_mw071.bmp'><br><font class='baseline'><strong>Benjamin</strong><p>Choose number of points to send.</font><div class='respPicDiv'><img src='img/responseButtonOffersNo0L2.png' class='respPic'></div></div>","null","9","Benjamin","trustrating_stim/white_mw071.bmp","Shared","0.8,0.4","13","0.8","160","34"
"","","","feedback","","5fa774ae1bcae04f0bd898b3","bdp_trlrn","Tue May 11 2021 15:36:11 GMT-0400 (Eastern Daylight Time)","592714","Untrustworthy,Trustworthy","html-keyboard-response","197","428896","0.0-18.0-3.33","","null","","<div class='trialDiv'><img src='trustrating_stim/white_mw071.bmp'><br><font class='baseline'><strong>Benjamin</strong><p>Received: <strong>8</strong></font> &nbsp; &nbsp; &nbsp; &nbsp; &nbsp; &nbsp;<font class='posOutcome'>Shared back: <strong>4</strong></font></font><div class='respPicDiv'><img src='img/responseButtonOffersNo0_wht.png' class='respPic'></div></div>","null","9","Benjamin","trustrating_stim/white_mw071.bmp","Shared","0.8,0.4","13","0.8","164","34"
"","","","decision","","5fa774ae1bcae04f0bd898b3","bdp_trlrn","Tue May 11 2021 15:36:11 GMT-0400 (Eastern Daylight Time)","592714","Untrustworthy,Trustworthy","html-keyboard-response","198","429578","0.0-18.0-1.34","","679","","<div class='trialDiv'><img src='trustrating_stim/white_mw046.bmp'><br><font class='baseline'><strong>Jacob</strong><p>Choose number of points to send.</font><div class='respPicDiv'><img src='img/responseButtonOffersNo0L.png' class='respPic'></div></div>","2","9","Jacob","trustrating_stim/white_mw046.bmp","Kept","0.2,0.6","12","0.2","169","35"
"","","","decisionFB","","5fa774ae1bcae04f0bd898b3","bdp_trlrn","Tue May 11 2021 15:36:11 GMT-0400 (Eastern Daylight Time)","592714","Untrustworthy,Trustworthy","html-keyboard-response","199","429830","0.0-18.0-2.34","","null","","<div class='trialDiv'><img src='trustrating_stim/white_mw046.bmp'><br><font class='baseline'><strong>Jacob</strong><p>Choose number of points to send.</font><div class='respPicDiv'><img src='img/responseButtonOffersNo0L2.png' class='respPic'></div></div>","null","9","Jacob","trustrating_stim/white_mw046.bmp","Kept","0.2,0.6","12","0.2","167","35"
"","","","feedback","","5fa774ae1bcae04f0bd898b3","bdp_trlrn","Tue May 11 2021 15:36:11 GMT-0400 (Eastern Daylight Time)","592714","Untrustworthy,Trustworthy","html-keyboard-response","200","430833","0.0-18.0-3.34","","null","","<div class='trialDiv'><img src='trustrating_stim/white_mw046.bmp'><br><font class='baseline'><strong>Jacob</strong><p>Received: <strong>8</strong></font> &nbsp; &nbsp; &nbsp; &nbsp; &nbsp; &nbsp;<font class='negOutcome'>Shared back: <strong>0</strong></font></font><div class='respPicDiv'><img src='img/responseButtonOffersNo0_wht.png' class='respPic'></div></div>","null","9","Jacob","trustrating_stim/white_mw046.bmp","Kept","0.2,0.6","12","0.2","167","35"
"","","","decision","","5fa774ae1bcae04f0bd898b3","bdp_trlrn","Tue May 11 2021 15:36:11 GMT-0400 (Eastern Daylight Time)","592714","Untrustworthy,Trustworthy","html-keyboard-response","201","431170","0.0-18.0-1.35","","334","","<div class='trialDiv'><img src='trustrating_stim/white_00761_941201_fb_edt.bmp'><br><font class='baseline'><strong>Joseph</strong><p>Choose number of points to send.</font><div class='respPicDiv'><img src='img/responseButtonOffersNo0L.png' class='respPic'></div></div>","1","9","Joseph","trustrating_stim/white_00761_941201_fb_edt.bmp","Kept","0.4,0.8","10","0.4","172","36"
