"trial_type","trial_index","time_elapsed","internal_node_id","subject_id","task","startTime","totalTime","labels","view_history","rt","event","trial","time","trialtype","success","stimulus","key_press","aground","name","faceID","outcome","agenttype","agentswpt","agentcurrpshare","face","avgRating","point_total","round"
"pavlovia","0","3","0.0-0.0","611401411bf1ede5a4d85bdc","bdp_trlrn","Wed Mar 15 2023 22:57:37 GMT-0400 (Eastern Daylight Time)","692015","Trustworthy,Untrustworthy","","","","","","","","","","","","","","","","","","","",""
"instructions","1","4247","0.0-1.0","611401411bf1ede5a4d85bdc","bdp_trlrn","Wed Mar 15 2023 22:57:37 GMT-0400 (Eastern Daylight Time)","692015","Trustworthy,Untrustworthy","[{""page_index"":0,""viewing_time"":4244}]","4244","","","","","","","","","","","","","","","","","",""
"","","","","611401411bf1ede5a4d85bdc","bdp_trlrn","Wed Mar 15 2023 22:57:37 GMT-0400 (Eastern Daylight Time)","692015","Trustworthy,Untrustworthy","","","fullscreenenter","2","6664","fullscreenenter","","","","","","","","","","","","","",""
"fullscreen","2","7656","0.0-2.0","611401411bf1ede5a4d85bdc","bdp_trlrn","Wed Mar 15 2023 22:57:37 GMT-0400 (Eastern Daylight Time)","692015","Trustworthy,Untrustworthy","","","","","","","true","","","","","","","","","","","","",""
"instructions","3","36303","0.0-4.0","611401411bf1ede5a4d85bdc","bdp_trlrn","Wed Mar 15 2023 22:57:37 GMT-0400 (Eastern Daylight Time)","692015","Trustworthy,Untrustworthy","[{""page_index"":0,""viewing_time"":20519},{""page_index"":1,""viewing_time"":8125}]","28645","","","","","","","","","","","","","","","","","",""
"instructions","4","37521","0.0-5.0","611401411bf1ede5a4d85bdc","bdp_trlrn","Wed Mar 15 2023 22:57:37 GMT-0400 (Eastern Daylight Time)","692015","Trustworthy,Untrustworthy","[{""page_index"":0,""viewing_time"":1217}]","1217","","","","","","","","","","","","","","","","","",""
"image-keyboard-response","5","43697","0.0-6.0-1.0","611401411bf1ede5a4d85bdc","bdp_trlrn","Wed Mar 15 2023 22:57:37 GMT-0400 (Eastern Daylight Time)","692015","Trustworthy,Untrustworthy","","6065","","","","rating","","trustrating_stim/white_00757_941201_fa_edt.bmp","4","","","","","","","","","","",""
"image-keyboard-response","6","43908","0.0-6.0-2.0","611401411bf1ede5a4d85bdc","bdp_trlrn","Wed Mar 15 2023 22:57:37 GMT-0400 (Eastern Daylight Time)","692015","Trustworthy,Untrustworthy","","null","","","","ratingFB","","trustrating_stim/white_00757_941201_fa_edt.bmp","null","","","","","","","","","","",""
"image-keyboard-response","7","46428","0.0-6.0-1.1","611401411bf1ede5a4d85bdc","bdp_trlrn","Wed Mar 15 2023 22:57:37 GMT-0400 (Eastern Daylight Time)","692015","Trustworthy,Untrustworthy","","2413","","","","rating","","trustrating_stim/white_00519_940519_fb_edt.bmp","4","","","","","","","","","","",""
"image-keyboard-response","8","46634","0.0-6.0-2.1","611401411bf1ede5a4d85bdc","bdp_trlrn","Wed Mar 15 2023 22:57:37 GMT-0400 (Eastern Daylight Time)","692015","Trustworthy,Untrustworthy","","null","","","","ratingFB","","trustrating_stim/white_00519_940519_fb_edt.bmp","null","","","","","","","","","","",""
"image-keyboard-response","9","49491","0.0-6.0-1.2","611401411bf1ede5a4d85bdc","bdp_trlrn","Wed Mar 15 2023 22:57:37 GMT-0400 (Eastern Daylight Time)","692015","Trustworthy,Untrustworthy","","2750","","","","rating","","trustrating_stim/white_mw099.bmp","3","","","","","","","","","","",""
"image-keyboard-response","10","49695","0.0-6.0-2.2","611401411bf1ede5a4d85bdc","bdp_trlrn","Wed Mar 15 2023 22:57:37 GMT-0400 (Eastern Daylight Time)","692015","Trustworthy,Untrustworthy","","null","","","","ratingFB","","trustrating_stim/white_mw099.bmp","null","","","","","","","","","","",""
"image-keyboard-response","11","51894","0.0-6.0-1.3","611401411bf1ede5a4d85bdc","bdp_trlrn","Wed Mar 15 2023 22:57:37 GMT-0400 (Eastern Daylight Time)","692015","Trustworthy,Untrustworthy","","2082","","","","rating","","trustrating_stim/white_mw056.bmp","5","","","","","","","","","","",""
"image-keyboard-response","12","52104","0.0-6.0-2.3","611401411bf1ede5a4d85bdc","bdp_trlrn","Wed Mar 15 2023 22:57:37 GMT-0400 (Eastern Daylight Time)","692015","Trustworthy,Untrustworthy","","null","","","","ratingFB","","trustrating_stim/white_mw056.bmp","null","","","","","","","","","","",""
"image-keyboard-response","13","54697","0.0-6.0-1.4","611401411bf1ede5a4d85bdc","bdp_trlrn","Wed Mar 15 2023 22:57:37 GMT-0400 (Eastern Daylight Time)","692015","Trustworthy,Untrustworthy","","2474","","","","rating","","trustrating_stim/white_mw089.bmp","4","","","","","","","","","","",""
"image-keyboard-response","14","54927","0.0-6.0-2.4","611401411bf1ede5a4d85bdc","bdp_trlrn","Wed Mar 15 2023 22:57:37 GMT-0400 (Eastern Daylight Time)","692015","Trustworthy,Untrustworthy","","null","","","","ratingFB","","trustrating_stim/white_mw089.bmp","null","","","","","","","","","","",""
"image-keyboard-response","15","67181","0.0-6.0-1.5","611401411bf1ede5a4d85bdc","bdp_trlrn","Wed Mar 15 2023 22:57:37 GMT-0400 (Eastern Daylight Time)","692015","Trustworthy,Untrustworthy","","12149","","","","rating","","trustrating_stim/white_00120_931230_fa_edt.bmp","5","","","","","","","","","","",""
"image-keyboard-response","16","67389","0.0-6.0-2.5","611401411bf1ede5a4d85bdc","bdp_trlrn","Wed Mar 15 2023 22:57:37 GMT-0400 (Eastern Daylight Time)","692015","Trustworthy,Untrustworthy","","null","","","","ratingFB","","trustrating_stim/white_00120_931230_fa_edt.bmp","null","","","","","","","","","","",""
"image-keyboard-response","17","72200","0.0-6.0-1.6","611401411bf1ede5a4d85bdc","bdp_trlrn","Wed Mar 15 2023 22:57:37 GMT-0400 (Eastern Daylight Time)","692015","Trustworthy,Untrustworthy","","4689","","","","rating","","trustrating_stim/white_00109_931230_fa_edt.bmp","6","","","","","","","","","","",""
"image-keyboard-response","18","72420","0.0-6.0-2.6","611401411bf1ede5a4d85bdc","bdp_trlrn","Wed Mar 15 2023 22:57:37 GMT-0400 (Eastern Daylight Time)","692015","Trustworthy,Untrustworthy","","null","","","","ratingFB","","trustrating_stim/white_00109_931230_fa_edt.bmp","null","","","","","","","","","","",""
"image-keyboard-response","19","74721","0.0-6.0-1.7","611401411bf1ede5a4d85bdc","bdp_trlrn","Wed Mar 15 2023 22:57:37 GMT-0400 (Eastern Daylight Time)","692015","Trustworthy,Untrustworthy","","2178","","","","rating","","trustrating_stim/white_mw048.bmp","7","","","","","","","","","","",""
"image-keyboard-response","20","74929","0.0-6.0-2.7","611401411bf1ede5a4d85bdc","bdp_trlrn","Wed Mar 15 2023 22:57:37 GMT-0400 (Eastern Daylight Time)","692015","Trustworthy,Untrustworthy","","null","","","","ratingFB","","trustrating_stim/white_mw048.bmp","null","","","","","","","","","","",""
"image-keyboard-response","21","76131","0.0-6.0-1.8","611401411bf1ede5a4d85bdc","bdp_trlrn","Wed Mar 15 2023 22:57:37 GMT-0400 (Eastern Daylight Time)","692015","Trustworthy,Untrustworthy","","1098","","","","rating","","trustrating_stim/white_mw060.bmp","7","","","","","","","","","","",""
"image-keyboard-response","22","76348","0.0-6.0-2.8","611401411bf1ede5a4d85bdc","bdp_trlrn","Wed Mar 15 2023 22:57:37 GMT-0400 (Eastern Daylight Time)","692015","Trustworthy,Untrustworthy","","null","","","","ratingFB","","trustrating_stim/white_mw060.bmp","null","","","","","","","","","","",""
"image-keyboard-response","23","80741","0.0-6.0-1.9","611401411bf1ede5a4d85bdc","bdp_trlrn","Wed Mar 15 2023 22:57:37 GMT-0400 (Eastern Daylight Time)","692015","Trustworthy,Untrustworthy","","4274","","","","rating","","trustrating_stim/white_00659_941121_fa_edt.bmp","6","","","","","","","","","","",""
"image-keyboard-response","24","80957","0.0-6.0-2.9","611401411bf1ede5a4d85bdc","bdp_trlrn","Wed Mar 15 2023 22:57:37 GMT-0400 (Eastern Daylight Time)","692015","Trustworthy,Untrustworthy","","null","","","","ratingFB","","trustrating_stim/white_00659_941121_fa_edt.bmp","null","","","","","","","","","","",""
"image-keyboard-response","25","82997","0.0-6.0-1.10","611401411bf1ede5a4d85bdc","bdp_trlrn","Wed Mar 15 2023 22:57:37 GMT-0400 (Eastern Daylight Time)","692015","Trustworthy,Untrustworthy","","1934","","","","rating","","trustrating_stim/white_mw066.bmp","4","","","","","","","","","","",""
"image-keyboard-response","26","83217","0.0-6.0-2.10","611401411bf1ede5a4d85bdc","bdp_trlrn","Wed Mar 15 2023 22:57:37 GMT-0400 (Eastern Daylight Time)","692015","Trustworthy,Untrustworthy","","null","","","","ratingFB","","trustrating_stim/white_mw066.bmp","null","","","","","","","","","","",""
"image-keyboard-response","27","85916","0.0-6.0-1.11","611401411bf1ede5a4d85bdc","bdp_trlrn","Wed Mar 15 2023 22:57:37 GMT-0400 (Eastern Daylight Time)","692015","Trustworthy,Untrustworthy","","2587","","","","rating","","trustrating_stim/white_mw033.bmp","7","","","","","","","","","","",""
"image-keyboard-response","28","86136","0.0-6.0-2.11","611401411bf1ede5a4d85bdc","bdp_trlrn","Wed Mar 15 2023 22:57:37 GMT-0400 (Eastern Daylight Time)","692015","Trustworthy,Untrustworthy","","null","","","","ratingFB","","trustrating_stim/white_mw033.bmp","null","","","","","","","","","","",""
"image-keyboard-response","29","89217","0.0-6.0-1.12","611401411bf1ede5a4d85bdc","bdp_trlrn","Wed Mar 15 2023 22:57:37 GMT-0400 (Eastern Daylight Time)","692015","Trustworthy,Untrustworthy","","2969","","","","rating","","trustrating_stim/white_00761_941201_fb_edt.bmp","6","","","","","","","","","","",""
"image-keyboard-response","30","89424","0.0-6.0-2.12","611401411bf1ede5a4d85bdc","bdp_trlrn","Wed Mar 15 2023 22:57:37 GMT-0400 (Eastern Daylight Time)","692015","Trustworthy,Untrustworthy","","null","","","","ratingFB","","trustrating_stim/white_00761_941201_fb_edt.bmp","null","","","","","","","","","","",""
"image-keyboard-response","31","93143","0.0-6.0-1.13","611401411bf1ede5a4d85bdc","bdp_trlrn","Wed Mar 15 2023 22:57:37 GMT-0400 (Eastern Daylight Time)","692015","Trustworthy,Untrustworthy","","3611","","","","rating","","trustrating_stim/white_00340_940422_fa_edt.bmp","7","","","","","","","","","","",""
"image-keyboard-response","32","93363","0.0-6.0-2.13","611401411bf1ede5a4d85bdc","bdp_trlrn","Wed Mar 15 2023 22:57:37 GMT-0400 (Eastern Daylight Time)","692015","Trustworthy,Untrustworthy","","null","","","","ratingFB","","trustrating_stim/white_00340_940422_fa_edt.bmp","null","","","","","","","","","","",""
"image-keyboard-response","33","95826","0.0-6.0-1.14","611401411bf1ede5a4d85bdc","bdp_trlrn","Wed Mar 15 2023 22:57:37 GMT-0400 (Eastern Daylight Time)","692015","Trustworthy,Untrustworthy","","2341","","","","rating","","trustrating_stim/white_mw071.bmp","6","","","","","","","","","","",""
"image-keyboard-response","34","96029","0.0-6.0-2.14","611401411bf1ede5a4d85bdc","bdp_trlrn","Wed Mar 15 2023 22:57:37 GMT-0400 (Eastern Daylight Time)","692015","Trustworthy,Untrustworthy","","null","","","","ratingFB","","trustrating_stim/white_mw071.bmp","null","","","","","","","","","","",""
"image-keyboard-response","35","98124","0.0-6.0-1.15","611401411bf1ede5a4d85bdc","bdp_trlrn","Wed Mar 15 2023 22:57:37 GMT-0400 (Eastern Daylight Time)","692015","Trustworthy,Untrustworthy","","1976","","","","rating","","trustrating_stim/white_mw035.bmp","5","","","","","","","","","","",""
"image-keyboard-response","36","98341","0.0-6.0-2.15","611401411bf1ede5a4d85bdc","bdp_trlrn","Wed Mar 15 2023 22:57:37 GMT-0400 (Eastern Daylight Time)","692015","Trustworthy,Untrustworthy","","null","","","","ratingFB","","trustrating_stim/white_mw035.bmp","null","","","","","","","","","","",""
"image-keyboard-response","37","101258","0.0-6.0-1.16","611401411bf1ede5a4d85bdc","bdp_trlrn","Wed Mar 15 2023 22:57:37 GMT-0400 (Eastern Daylight Time)","692015","Trustworthy,Untrustworthy","","2798","","","","rating","","trustrating_stim/white_mw049.bmp","4","","","","","","","","","","",""
"image-keyboard-response","38","101471","0.0-6.0-2.16","611401411bf1ede5a4d85bdc","bdp_trlrn","Wed Mar 15 2023 22:57:37 GMT-0400 (Eastern Daylight Time)","692015","Trustworthy,Untrustworthy","","null","","","","ratingFB","","trustrating_stim/white_mw049.bmp","null","","","","","","","","","","",""
"image-keyboard-response","39","102941","0.0-6.0-1.17","611401411bf1ede5a4d85bdc","bdp_trlrn","Wed Mar 15 2023 22:57:37 GMT-0400 (Eastern Daylight Time)","692015","Trustworthy,Untrustworthy","","1350","","","","rating","","trustrating_stim/white_00223_940128_fb_edt.bmp","6","","","","","","","","","","",""
"image-keyboard-response","40","103143","0.0-6.0-2.17","611401411bf1ede5a4d85bdc","bdp_trlrn","Wed Mar 15 2023 22:57:37 GMT-0400 (Eastern Daylight Time)","692015","Trustworthy,Untrustworthy","","null","","","","ratingFB","","trustrating_stim/white_00223_940128_fb_edt.bmp","null","","","","","","","","","","",""
"image-keyboard-response","41","109668","0.0-6.0-1.18","611401411bf1ede5a4d85bdc","bdp_trlrn","Wed Mar 15 2023 22:57:37 GMT-0400 (Eastern Daylight Time)","692015","Trustworthy,Untrustworthy","","6403","","","","rating","","trustrating_stim/white_mw053.bmp","5","","","","","","","","","","",""
"image-keyboard-response","42","109888","0.0-6.0-2.18","611401411bf1ede5a4d85bdc","bdp_trlrn","Wed Mar 15 2023 22:57:37 GMT-0400 (Eastern Daylight Time)","692015","Trustworthy,Untrustworthy","","null","","","","ratingFB","","trustrating_stim/white_mw053.bmp","null","","","","","","","","","","",""
"image-keyboard-response","43","111442","0.0-6.0-1.19","611401411bf1ede5a4d85bdc","bdp_trlrn","Wed Mar 15 2023 22:57:37 GMT-0400 (Eastern Daylight Time)","692015","Trustworthy,Untrustworthy","","1446","","","","rating","","trustrating_stim/white_mw063.bmp","6","","","","","","","","","","",""
"image-keyboard-response","44","111649","0.0-6.0-2.19","611401411bf1ede5a4d85bdc","bdp_trlrn","Wed Mar 15 2023 22:57:37 GMT-0400 (Eastern Daylight Time)","692015","Trustworthy,Untrustworthy","","null","","","","ratingFB","","trustrating_stim/white_mw063.bmp","null","","","","","","","","","","",""
"image-keyboard-response","45","113095","0.0-6.0-1.20","611401411bf1ede5a4d85bdc","bdp_trlrn","Wed Mar 15 2023 22:57:37 GMT-0400 (Eastern Daylight Time)","692015","Trustworthy,Untrustworthy","","1321","","","","rating","","trustrating_stim/white_00602_940928_fb_edt.bmp","4","","","","","","","","","","",""
"image-keyboard-response","46","113303","0.0-6.0-2.20","611401411bf1ede5a4d85bdc","bdp_trlrn","Wed Mar 15 2023 22:57:37 GMT-0400 (Eastern Daylight Time)","692015","Trustworthy,Untrustworthy","","null","","","","ratingFB","","trustrating_stim/white_00602_940928_fb_edt.bmp","null","","","","","","","","","","",""
"image-keyboard-response","47","115620","0.0-6.0-1.21","611401411bf1ede5a4d85bdc","bdp_trlrn","Wed Mar 15 2023 22:57:37 GMT-0400 (Eastern Daylight Time)","692015","Trustworthy,Untrustworthy","","2200","","","","rating","","trustrating_stim/white_00785_941205_fb_edt.bmp","5","","","","","","","","","","",""
"image-keyboard-response","48","115837","0.0-6.0-2.21","611401411bf1ede5a4d85bdc","bdp_trlrn","Wed Mar 15 2023 22:57:37 GMT-0400 (Eastern Daylight Time)","692015","Trustworthy,Untrustworthy","","null","","","","ratingFB","","trustrating_stim/white_00785_941205_fb_edt.bmp","null","","","","","","","","","","",""
"image-keyboard-response","49","117967","0.0-6.0-1.22","611401411bf1ede5a4d85bdc","bdp_trlrn","Wed Mar 15 2023 22:57:37 GMT-0400 (Eastern Daylight Time)","692015","Trustworthy,Untrustworthy","","2011","","","","rating","","trustrating_stim/white_00129_931230_fb_edt.bmp","5","","","","","","","","","","",""
"image-keyboard-response","50","118181","0.0-6.0-2.22","611401411bf1ede5a4d85bdc","bdp_trlrn","Wed Mar 15 2023 22:57:37 GMT-0400 (Eastern Daylight Time)","692015","Trustworthy,Untrustworthy","","null","","","","ratingFB","","trustrating_stim/white_00129_931230_fb_edt.bmp","null","","","","","","","","","","",""
"image-keyboard-response","51","120408","0.0-6.0-1.23","611401411bf1ede5a4d85bdc","bdp_trlrn","Wed Mar 15 2023 22:57:37 GMT-0400 (Eastern Daylight Time)","692015","Trustworthy,Untrustworthy","","2107","","","","rating","","trustrating_stim/white_mw084.bmp","7","","","","","","","","","","",""
"image-keyboard-response","52","120612","0.0-6.0-2.23","611401411bf1ede5a4d85bdc","bdp_trlrn","Wed Mar 15 2023 22:57:37 GMT-0400 (Eastern Daylight Time)","692015","Trustworthy,Untrustworthy","","null","","","","ratingFB","","trustrating_stim/white_mw084.bmp","null","","","","","","","","","","",""
"image-keyboard-response","53","121908","0.0-6.0-1.24","611401411bf1ede5a4d85bdc","bdp_trlrn","Wed Mar 15 2023 22:57:37 GMT-0400 (Eastern Daylight Time)","692015","Trustworthy,Untrustworthy","","1176","","","","rating","","trustrating_stim/white_mw097.bmp","7","","","","","","","","","","",""
"image-keyboard-response","54","122112","0.0-6.0-2.24","611401411bf1ede5a4d85bdc","bdp_trlrn","Wed Mar 15 2023 22:57:37 GMT-0400 (Eastern Daylight Time)","692015","Trustworthy,Untrustworthy","","null","","","","ratingFB","","trustrating_stim/white_mw097.bmp","null","","","","","","","","","","",""
"image-keyboard-response","55","123331","0.0-6.0-1.25","611401411bf1ede5a4d85bdc","bdp_trlrn","Wed Mar 15 2023 22:57:37 GMT-0400 (Eastern Daylight Time)","692015","Trustworthy,Untrustworthy","","1102","","","","rating","","trustrating_stim/white_00807_941205_fb_edt.bmp","6","","","","","","","","","","",""
"image-keyboard-response","56","123546","0.0-6.0-2.25","611401411bf1ede5a4d85bdc","bdp_trlrn","Wed Mar 15 2023 22:57:37 GMT-0400 (Eastern Daylight Time)","692015","Trustworthy,Untrustworthy","","null","","","","ratingFB","","trustrating_stim/white_00807_941205_fb_edt.bmp","null","","","","","","","","","","",""
"image-keyboard-response","57","124925","0.0-6.0-1.26","611401411bf1ede5a4d85bdc","bdp_trlrn","Wed Mar 15 2023 22:57:37 GMT-0400 (Eastern Daylight Time)","692015","Trustworthy,Untrustworthy","","1268","","","","rating","","trustrating_stim/white_00898_960530_fa_edt.bmp","5","","","","","","","","","","",""
"image-keyboard-response","58","125145","0.0-6.0-2.26","611401411bf1ede5a4d85bdc","bdp_trlrn","Wed Mar 15 2023 22:57:37 GMT-0400 (Eastern Daylight Time)","692015","Trustworthy,Untrustworthy","","null","","","","ratingFB","","trustrating_stim/white_00898_960530_fa_edt.bmp","null","","","","","","","","","","",""
"image-keyboard-response","59","128569","0.0-6.0-1.27","611401411bf1ede5a4d85bdc","bdp_trlrn","Wed Mar 15 2023 22:57:37 GMT-0400 (Eastern Daylight Time)","692015","Trustworthy,Untrustworthy","","3304","","","","rating","","trustrating_stim/white_00299_940422_fa_edt.bmp","5","","","","","","","","","","",""
"image-keyboard-response","60","128802","0.0-6.0-2.27","611401411bf1ede5a4d85bdc","bdp_trlrn","Wed Mar 15 2023 22:57:37 GMT-0400 (Eastern Daylight Time)","692015","Trustworthy,Untrustworthy","","null","","","","ratingFB","","trustrating_stim/white_00299_940422_fa_edt.bmp","null","","","","","","","","","","",""
"image-keyboard-response","61","131368","0.0-6.0-1.28","611401411bf1ede5a4d85bdc","bdp_trlrn","Wed Mar 15 2023 22:57:37 GMT-0400 (Eastern Daylight Time)","692015","Trustworthy,Untrustworthy","","2456","","","","rating","","trustrating_stim/white_mw046.bmp","5","","","","","","","","","","",""
"image-keyboard-response","62","131579","0.0-6.0-2.28","611401411bf1ede5a4d85bdc","bdp_trlrn","Wed Mar 15 2023 22:57:37 GMT-0400 (Eastern Daylight Time)","692015","Trustworthy,Untrustworthy","","null","","","","ratingFB","","trustrating_stim/white_mw046.bmp","null","","","","","","","","","","",""
"image-keyboard-response","63","132906","0.0-6.0-1.29","611401411bf1ede5a4d85bdc","bdp_trlrn","Wed Mar 15 2023 22:57:37 GMT-0400 (Eastern Daylight Time)","692015","Trustworthy,Untrustworthy","","1214","","","","rating","","trustrating_stim/white_00577_940928_fa_edt.bmp","6","","","","","","","","","","",""
"image-keyboard-response","64","133110","0.0-6.0-2.29","611401411bf1ede5a4d85bdc","bdp_trlrn","Wed Mar 15 2023 22:57:37 GMT-0400 (Eastern Daylight Time)","692015","Trustworthy,Untrustworthy","","null","","","","ratingFB","","trustrating_stim/white_00577_940928_fa_edt.bmp","null","","","","","","","","","","",""
"image-keyboard-response","65","134714","0.0-6.0-1.30","611401411bf1ede5a4d85bdc","bdp_trlrn","Wed Mar 15 2023 22:57:37 GMT-0400 (Eastern Daylight Time)","692015","Trustworthy,Untrustworthy","","1498","","","","rating","","trustrating_stim/white_00807_941205_fb_edt.bmp","5","","","","","","","","","","",""
"image-keyboard-response","66","134939","0.0-6.0-2.30","611401411bf1ede5a4d85bdc","bdp_trlrn","Wed Mar 15 2023 22:57:37 GMT-0400 (Eastern Daylight Time)","692015","Trustworthy,Untrustworthy","","null","","","","ratingFB","","trustrating_stim/white_00807_941205_fb_edt.bmp","null","","","","","","","","","","",""
"image-keyboard-response","67","136050","0.0-6.0-1.31","611401411bf1ede5a4d85bdc","bdp_trlrn","Wed Mar 15 2023 22:57:37 GMT-0400 (Eastern Daylight Time)","692015","Trustworthy,Untrustworthy","","988","","","","rating","","trustrating_stim/white_00898_960530_fa_edt.bmp","4","","","","","","","","","","",""
"image-keyboard-response","68","136271","0.0-6.0-2.31","611401411bf1ede5a4d85bdc","bdp_trlrn","Wed Mar 15 2023 22:57:37 GMT-0400 (Eastern Daylight Time)","692015","Trustworthy,Untrustworthy","","null","","","","ratingFB","","trustrating_stim/white_00898_960530_fa_edt.bmp","null","","","","","","","","","","",""
"image-keyboard-response","69","137939","0.0-6.0-1.32","611401411bf1ede5a4d85bdc","bdp_trlrn","Wed Mar 15 2023 22:57:37 GMT-0400 (Eastern Daylight Time)","692015","Trustworthy,Untrustworthy","","1562","","","","rating","","trustrating_stim/white_00577_940928_fa_edt.bmp","5","","","","","","","","","","",""
"image-keyboard-response","70","138151","0.0-6.0-2.32","611401411bf1ede5a4d85bdc","bdp_trlrn","Wed Mar 15 2023 22:57:37 GMT-0400 (Eastern Daylight Time)","692015","Trustworthy,Untrustworthy","","null","","","","ratingFB","","trustrating_stim/white_00577_940928_fa_edt.bmp","null","","","","","","","","","","",""
"image-keyboard-response","71","140204","0.0-6.0-1.33","611401411bf1ede5a4d85bdc","bdp_trlrn","Wed Mar 15 2023 22:57:37 GMT-0400 (Eastern Daylight Time)","692015","Trustworthy,Untrustworthy","","1946","","","","rating","","trustrating_stim/white_mw053.bmp","5","","","","","","","","","","",""
"image-keyboard-response","72","140408","0.0-6.0-2.33","611401411bf1ede5a4d85bdc","bdp_trlrn","Wed Mar 15 2023 22:57:37 GMT-0400 (Eastern Daylight Time)","692015","Trustworthy,Untrustworthy","","null","","","","ratingFB","","trustrating_stim/white_mw053.bmp","null","","","","","","","","","","",""
"image-keyboard-response","73","141730","0.0-6.0-1.34","611401411bf1ede5a4d85bdc","bdp_trlrn","Wed Mar 15 2023 22:57:37 GMT-0400 (Eastern Daylight Time)","692015","Trustworthy,Untrustworthy","","1205","","","","rating","","trustrating_stim/white_mw048.bmp","7","","","","","","","","","","",""
"image-keyboard-response","74","141937","0.0-6.0-2.34","611401411bf1ede5a4d85bdc","bdp_trlrn","Wed Mar 15 2023 22:57:37 GMT-0400 (Eastern Daylight Time)","692015","Trustworthy,Untrustworthy","","null","","","","ratingFB","","trustrating_stim/white_mw048.bmp","null","","","","","","","","","","",""
"image-keyboard-response","75","143783","0.0-6.0-1.35","611401411bf1ede5a4d85bdc","bdp_trlrn","Wed Mar 15 2023 22:57:37 GMT-0400 (Eastern Daylight Time)","692015","Trustworthy,Untrustworthy","","1715","","","","rating","","trustrating_stim/white_mw071.bmp","6","","","","","","","","","","",""
"image-keyboard-response","76","143992","0.0-6.0-2.35","611401411bf1ede5a4d85bdc","bdp_trlrn","Wed Mar 15 2023 22:57:37 GMT-0400 (Eastern Daylight Time)","692015","Trustworthy,Untrustworthy","","null","","","","ratingFB","","trustrating_stim/white_mw071.bmp","null","","","","","","","","","","",""
"image-keyboard-response","77","145469","0.0-6.0-1.36","611401411bf1ede5a4d85bdc","bdp_trlrn","Wed Mar 15 2023 22:57:37 GMT-0400 (Eastern Daylight Time)","692015","Trustworthy,Untrustworthy","","1368","","","","rating","","trustrating_stim/white_00223_940128_fb_edt.bmp","6","","","","","","","","","","",""
"image-keyboard-response","78","145681","0.0-6.0-2.36","611401411bf1ede5a4d85bdc","bdp_trlrn","Wed Mar 15 2023 22:57:37 GMT-0400 (Eastern Daylight Time)","692015","Trustworthy,Untrustworthy","","null","","","","ratingFB","","trustrating_stim/white_00223_940128_fb_edt.bmp","null","","","","","","","","","","",""
"image-keyboard-response","79","148030","0.0-6.0-1.37","611401411bf1ede5a4d85bdc","bdp_trlrn","Wed Mar 15 2023 22:57:37 GMT-0400 (Eastern Daylight Time)","692015","Trustworthy,Untrustworthy","","2234","","","","rating","","trustrating_stim/white_00785_941205_fb_edt.bmp","5","","","","","","","","","","",""
"image-keyboard-response","80","148251","0.0-6.0-2.37","611401411bf1ede5a4d85bdc","bdp_trlrn","Wed Mar 15 2023 22:57:37 GMT-0400 (Eastern Daylight Time)","692015","Trustworthy,Untrustworthy","","null","","","","ratingFB","","trustrating_stim/white_00785_941205_fb_edt.bmp","null","","","","","","","","","","",""
"image-keyboard-response","81","150012","0.0-6.0-1.38","611401411bf1ede5a4d85bdc","bdp_trlrn","Wed Mar 15 2023 22:57:37 GMT-0400 (Eastern Daylight Time)","692015","Trustworthy,Untrustworthy","","1654","","","","rating","","trustrating_stim/white_mw060.bmp","7","","","","","","","","","","",""
"image-keyboard-response","82","150221","0.0-6.0-2.38","611401411bf1ede5a4d85bdc","bdp_trlrn","Wed Mar 15 2023 22:57:37 GMT-0400 (Eastern Daylight Time)","692015","Trustworthy,Untrustworthy","","null","","","","ratingFB","","trustrating_stim/white_mw060.bmp","null","","","","","","","","","","",""
"image-keyboard-response","83","151424","0.0-6.0-1.39","611401411bf1ede5a4d85bdc","bdp_trlrn","Wed Mar 15 2023 22:57:37 GMT-0400 (Eastern Daylight Time)","692015","Trustworthy,Untrustworthy","","1092","","","","rating","","trustrating_stim/white_mw063.bmp","7","","","","","","","","","","",""
"image-keyboard-response","84","151642","0.0-6.0-2.39","611401411bf1ede5a4d85bdc","bdp_trlrn","Wed Mar 15 2023 22:57:37 GMT-0400 (Eastern Daylight Time)","692015","Trustworthy,Untrustworthy","","null","","","","ratingFB","","trustrating_stim/white_mw063.bmp","null","","","","","","","","","","",""
"image-keyboard-response","85","152773","0.0-6.0-1.40","611401411bf1ede5a4d85bdc","bdp_trlrn","Wed Mar 15 2023 22:57:37 GMT-0400 (Eastern Daylight Time)","692015","Trustworthy,Untrustworthy","","1022","","","","rating","","trustrating_stim/white_00602_940928_fb_edt.bmp","4","","","","","","","","","","",""
"image-keyboard-response","86","152991","0.0-6.0-2.40","611401411bf1ede5a4d85bdc","bdp_trlrn","Wed Mar 15 2023 22:57:37 GMT-0400 (Eastern Daylight Time)","692015","Trustworthy,Untrustworthy","","null","","","","ratingFB","","trustrating_stim/white_00602_940928_fb_edt.bmp","null","","","","","","","","","","",""
"image-keyboard-response","87","157088","0.0-6.0-1.41","611401411bf1ede5a4d85bdc","bdp_trlrn","Wed Mar 15 2023 22:57:37 GMT-0400 (Eastern Daylight Time)","692015","Trustworthy,Untrustworthy","","3989","","","","rating","","trustrating_stim/white_00299_940422_fa_edt.bmp","4","","","","","","","","","","",""
"image-keyboard-response","88","157294","0.0-6.0-2.41","611401411bf1ede5a4d85bdc","bdp_trlrn","Wed Mar 15 2023 22:57:37 GMT-0400 (Eastern Daylight Time)","692015","Trustworthy,Untrustworthy","","null","","","","ratingFB","","trustrating_stim/white_00299_940422_fa_edt.bmp","null","","","","","","","","","","",""
"image-keyboard-response","89","158562","0.0-6.0-1.42","611401411bf1ede5a4d85bdc","bdp_trlrn","Wed Mar 15 2023 22:57:37 GMT-0400 (Eastern Daylight Time)","692015","Trustworthy,Untrustworthy","","1142","","","","rating","","trustrating_stim/white_mw097.bmp","6","","","","","","","","","","",""
"image-keyboard-response","90","158774","0.0-6.0-2.42","611401411bf1ede5a4d85bdc","bdp_trlrn","Wed Mar 15 2023 22:57:37 GMT-0400 (Eastern Daylight Time)","692015","Trustworthy,Untrustworthy","","null","","","","ratingFB","","trustrating_stim/white_mw097.bmp","null","","","","","","","","","","",""
"image-keyboard-response","91","160476","0.0-6.0-1.43","611401411bf1ede5a4d85bdc","bdp_trlrn","Wed Mar 15 2023 22:57:37 GMT-0400 (Eastern Daylight Time)","692015","Trustworthy,Untrustworthy","","1596","","","","rating","","trustrating_stim/white_mw035.bmp","6","","","","","","","","","","",""
"image-keyboard-response","92","160687","0.0-6.0-2.43","611401411bf1ede5a4d85bdc","bdp_trlrn","Wed Mar 15 2023 22:57:37 GMT-0400 (Eastern Daylight Time)","692015","Trustworthy,Untrustworthy","","null","","","","ratingFB","","trustrating_stim/white_mw035.bmp","null","","","","","","","","","","",""
"image-keyboard-response","93","161758","0.0-6.0-1.44","611401411bf1ede5a4d85bdc","bdp_trlrn","Wed Mar 15 2023 22:57:37 GMT-0400 (Eastern Daylight Time)","692015","Trustworthy,Untrustworthy","","964","","","","rating","","trustrating_stim/white_mw049.bmp","4","","","","","","","","","","",""
"image-keyboard-response","94","161965","0.0-6.0-2.44","611401411bf1ede5a4d85bdc","bdp_trlrn","Wed Mar 15 2023 22:57:37 GMT-0400 (Eastern Daylight Time)","692015","Trustworthy,Untrustworthy","","null","","","","ratingFB","","trustrating_stim/white_mw049.bmp","null","","","","","","","","","","",""
"image-keyboard-response","95","163734","0.0-6.0-1.45","611401411bf1ede5a4d85bdc","bdp_trlrn","Wed Mar 15 2023 22:57:37 GMT-0400 (Eastern Daylight Time)","692015","Trustworthy,Untrustworthy","","1656","","","","rating","","trustrating_stim/white_00659_941121_fa_edt.bmp","7","","","","","","","","","","",""
"image-keyboard-response","96","163945","0.0-6.0-2.45","611401411bf1ede5a4d85bdc","bdp_trlrn","Wed Mar 15 2023 22:57:37 GMT-0400 (Eastern Daylight Time)","692015","Trustworthy,Untrustworthy","","null","","","","ratingFB","","trustrating_stim/white_00659_941121_fa_edt.bmp","null","","","","","","","","","","",""
"image-keyboard-response","97","165483","0.0-6.0-1.46","611401411bf1ede5a4d85bdc","bdp_trlrn","Wed Mar 15 2023 22:57:37 GMT-0400 (Eastern Daylight Time)","692015","Trustworthy,Untrustworthy","","1426","","","","rating","","trustrating_stim/white_mw033.bmp","7","","","","","","","","","","",""
"image-keyboard-response","98","165689","0.0-6.0-2.46","611401411bf1ede5a4d85bdc","bdp_trlrn","Wed Mar 15 2023 22:57:37 GMT-0400 (Eastern Daylight Time)","692015","Trustworthy,Untrustworthy","","null","","","","ratingFB","","trustrating_stim/white_mw033.bmp","null","","","","","","","","","","",""
"image-keyboard-response","99","167053","0.0-6.0-1.47","611401411bf1ede5a4d85bdc","bdp_trlrn","Wed Mar 15 2023 22:57:37 GMT-0400 (Eastern Daylight Time)","692015","Trustworthy,Untrustworthy","","1255","","","","rating","","trustrating_stim/white_mw089.bmp","5","","","","","","","","","","",""
"image-keyboard-response","100","167258","0.0-6.0-2.47","611401411bf1ede5a4d85bdc","bdp_trlrn","Wed Mar 15 2023 22:57:37 GMT-0400 (Eastern Daylight Time)","692015","Trustworthy,Untrustworthy","","null","","","","ratingFB","","trustrating_stim/white_mw089.bmp","null","","","","","","","","","","",""
"image-keyboard-response","101","168241","0.0-6.0-1.48","611401411bf1ede5a4d85bdc","bdp_trlrn","Wed Mar 15 2023 22:57:37 GMT-0400 (Eastern Daylight Time)","692015","Trustworthy,Untrustworthy","","871","","","","rating","","trustrating_stim/white_00120_931230_fa_edt.bmp","4","","","","","","","","","","",""
"image-keyboard-response","102","168450","0.0-6.0-2.48","611401411bf1ede5a4d85bdc","bdp_trlrn","Wed Mar 15 2023 22:57:37 GMT-0400 (Eastern Daylight Time)","692015","Trustworthy,Untrustworthy","","null","","","","ratingFB","","trustrating_stim/white_00120_931230_fa_edt.bmp","null","","","","","","","","","","",""
"image-keyboard-response","103","170022","0.0-6.0-1.49","611401411bf1ede5a4d85bdc","bdp_trlrn","Wed Mar 15 2023 22:57:37 GMT-0400 (Eastern Daylight Time)","692015","Trustworthy,Untrustworthy","","1458","","","","rating","","trustrating_stim/white_mw046.bmp","5","","","","","","","","","","",""
"image-keyboard-response","104","170228","0.0-6.0-2.49","611401411bf1ede5a4d85bdc","bdp_trlrn","Wed Mar 15 2023 22:57:37 GMT-0400 (Eastern Daylight Time)","692015","Trustworthy,Untrustworthy","","null","","","","ratingFB","","trustrating_stim/white_mw046.bmp","null","","","","","","","","","","",""
"image-keyboard-response","105","171645","0.0-6.0-1.50","611401411bf1ede5a4d85bdc","bdp_trlrn","Wed Mar 15 2023 22:57:37 GMT-0400 (Eastern Daylight Time)","692015","Trustworthy,Untrustworthy","","1291","","","","rating","","trustrating_stim/white_00109_931230_fa_edt.bmp","5","","","","","","","","","","",""
"image-keyboard-response","106","171861","0.0-6.0-2.50","611401411bf1ede5a4d85bdc","bdp_trlrn","Wed Mar 15 2023 22:57:37 GMT-0400 (Eastern Daylight Time)","692015","Trustworthy,Untrustworthy","","null","","","","ratingFB","","trustrating_stim/white_00109_931230_fa_edt.bmp","null","","","","","","","","","","",""
"image-keyboard-response","107","173435","0.0-6.0-1.51","611401411bf1ede5a4d85bdc","bdp_trlrn","Wed Mar 15 2023 22:57:37 GMT-0400 (Eastern Daylight Time)","692015","Trustworthy,Untrustworthy","","1456","","","","rating","","trustrating_stim/white_mw099.bmp","6","","","","","","","","","","",""
"image-keyboard-response","108","173641","0.0-6.0-2.51","611401411bf1ede5a4d85bdc","bdp_trlrn","Wed Mar 15 2023 22:57:37 GMT-0400 (Eastern Daylight Time)","692015","Trustworthy,Untrustworthy","","null","","","","ratingFB","","trustrating_stim/white_mw099.bmp","null","","","","","","","","","","",""
"image-keyboard-response","109","174978","0.0-6.0-1.52","611401411bf1ede5a4d85bdc","bdp_trlrn","Wed Mar 15 2023 22:57:37 GMT-0400 (Eastern Daylight Time)","692015","Trustworthy,Untrustworthy","","1215","","","","rating","","trustrating_stim/white_00519_940519_fb_edt.bmp","6","","","","","","","","","","",""
"image-keyboard-response","110","175191","0.0-6.0-2.52","611401411bf1ede5a4d85bdc","bdp_trlrn","Wed Mar 15 2023 22:57:37 GMT-0400 (Eastern Daylight Time)","692015","Trustworthy,Untrustworthy","","null","","","","ratingFB","","trustrating_stim/white_00519_940519_fb_edt.bmp","null","","","","","","","","","","",""
"image-keyboard-response","111","176697","0.0-6.0-1.53","611401411bf1ede5a4d85bdc","bdp_trlrn","Wed Mar 15 2023 22:57:37 GMT-0400 (Eastern Daylight Time)","692015","Trustworthy,Untrustworthy","","1390","","","","rating","","trustrating_stim/white_mw084.bmp","6","","","","","","","","","","",""
"image-keyboard-response","112","176912","0.0-6.0-2.53","611401411bf1ede5a4d85bdc","bdp_trlrn","Wed Mar 15 2023 22:57:37 GMT-0400 (Eastern Daylight Time)","692015","Trustworthy,Untrustworthy","","null","","","","ratingFB","","trustrating_stim/white_mw084.bmp","null","","","","","","","","","","",""
"image-keyboard-response","113","178401","0.0-6.0-1.54","611401411bf1ede5a4d85bdc","bdp_trlrn","Wed Mar 15 2023 22:57:37 GMT-0400 (Eastern Daylight Time)","692015","Trustworthy,Untrustworthy","","1373","","","","rating","","trustrating_stim/white_00340_940422_fa_edt.bmp","6","","","","","","","","","","",""
"image-keyboard-response","114","178614","0.0-6.0-2.54","611401411bf1ede5a4d85bdc","bdp_trlrn","Wed Mar 15 2023 22:57:37 GMT-0400 (Eastern Daylight Time)","692015","Trustworthy,Untrustworthy","","null","","","","ratingFB","","trustrating_stim/white_00340_940422_fa_edt.bmp","null","","","","","","","","","","",""
"image-keyboard-response","115","179732","0.0-6.0-1.55","611401411bf1ede5a4d85bdc","bdp_trlrn","Wed Mar 15 2023 22:57:37 GMT-0400 (Eastern Daylight Time)","692015","Trustworthy,Untrustworthy","","994","","","","rating","","trustrating_stim/white_mw066.bmp","4","","","","","","","","","","",""
"image-keyboard-response","116","179952","0.0-6.0-2.55","611401411bf1ede5a4d85bdc","bdp_trlrn","Wed Mar 15 2023 22:57:37 GMT-0400 (Eastern Daylight Time)","692015","Trustworthy,Untrustworthy","","null","","","","ratingFB","","trustrating_stim/white_mw066.bmp","null","","","","","","","","","","",""
"image-keyboard-response","117","181715","0.0-6.0-1.56","611401411bf1ede5a4d85bdc","bdp_trlrn","Wed Mar 15 2023 22:57:37 GMT-0400 (Eastern Daylight Time)","692015","Trustworthy,Untrustworthy","","1647","","","","rating","","trustrating_stim/white_00757_941201_fa_edt.bmp","5","","","","","","","","","","",""
"image-keyboard-response","118","181922","0.0-6.0-2.56","611401411bf1ede5a4d85bdc","bdp_trlrn","Wed Mar 15 2023 22:57:37 GMT-0400 (Eastern Daylight Time)","692015","Trustworthy,Untrustworthy","","null","","","","ratingFB","","trustrating_stim/white_00757_941201_fa_edt.bmp","null","","","","","","","","","","",""
"image-keyboard-response","119","184344","0.0-6.0-1.57","611401411bf1ede5a4d85bdc","bdp_trlrn","Wed Mar 15 2023 22:57:37 GMT-0400 (Eastern Daylight Time)","692015","Trustworthy,Untrustworthy","","2306","","","","rating","","trustrating_stim/white_mw056.bmp","5","","","","","","","","","","",""
"image-keyboard-response","120","184567","0.0-6.0-2.57","611401411bf1ede5a4d85bdc","bdp_trlrn","Wed Mar 15 2023 22:57:37 GMT-0400 (Eastern Daylight Time)","692015","Trustworthy,Untrustworthy","","null","","","","ratingFB","","trustrating_stim/white_mw056.bmp","null","","","","","","","","","","",""
"image-keyboard-response","121","186123","0.0-6.0-1.58","611401411bf1ede5a4d85bdc","bdp_trlrn","Wed Mar 15 2023 22:57:37 GMT-0400 (Eastern Daylight Time)","692015","Trustworthy,Untrustworthy","","1449","","","","rating","","trustrating_stim/white_00761_941201_fb_edt.bmp","5","","","","","","","","","","",""
"image-keyboard-response","122","186331","0.0-6.0-2.58","611401411bf1ede5a4d85bdc","bdp_trlrn","Wed Mar 15 2023 22:57:37 GMT-0400 (Eastern Daylight Time)","692015","Trustworthy,Untrustworthy","","null","","","","ratingFB","","trustrating_stim/white_00761_941201_fb_edt.bmp","null","","","","","","","","","","",""
"image-keyboard-response","123","187516","0.0-6.0-1.59","611401411bf1ede5a4d85bdc","bdp_trlrn","Wed Mar 15 2023 22:57:37 GMT-0400 (Eastern Daylight Time)","692015","Trustworthy,Untrustworthy","","1072","","","","rating","","trustrating_stim/white_00129_931230_fb_edt.bmp","6","","","","","","","","","","",""
"image-keyboard-response","124","187729","0.0-6.0-2.59","611401411bf1ede5a4d85bdc","bdp_trlrn","Wed Mar 15 2023 22:57:37 GMT-0400 (Eastern Daylight Time)","692015","Trustworthy,Untrustworthy","","null","","","","ratingFB","","trustrating_stim/white_00129_931230_fb_edt.bmp","null","","","","","","","","","","",""
"instructions","125","189149","0.0-7.0","611401411bf1ede5a4d85bdc","bdp_trlrn","Wed Mar 15 2023 22:57:37 GMT-0400 (Eastern Daylight Time)","692015","Trustworthy,Untrustworthy","[{""page_index"":0,""viewing_time"":1307}]","1307","","","","","","","","","","","","","","","","","",""
"instructions","126","276590","0.0-8.0","611401411bf1ede5a4d85bdc","bdp_trlrn","Wed Mar 15 2023 22:57:37 GMT-0400 (Eastern Daylight Time)","692015","Trustworthy,Untrustworthy","[{""page_index"":0,""viewing_time"":14660},{""page_index"":1,""viewing_time"":7578},{""page_index"":2,""viewing_time"":6903},{""page_index"":3,""viewing_time"":6398},{""page_index"":4,""viewing_time"":12381},{""page_index"":5,""viewing_time"":8252},{""page_index"":6,""viewing_time"":19083},{""page_index"":7,""viewing_time"":12067}]","87322","","","","","","","","","","","","","","","","","",""
"html-keyboard-response","127","281959","0.0-9.0","611401411bf1ede5a4d85bdc","bdp_trlrn","Wed Mar 15 2023 22:57:37 GMT-0400 (Eastern Daylight Time)","692015","Trustworthy,Untrustworthy","","5366","","","","","","<div class='header' style='text-align:left; position: absolute; top: 5%; left: 5%;'><small>Task 2 of 5</small></div><div class='instruxDiv'><p><strong>1) What is the minimum number of points you can choose to send to your partner?</strong></p><p>a) 0</p><p>b) 1</p><p>c) 5</p>","C","","","","","","","","","","",""
"html-keyboard-response","128","285436","0.0-10.0","611401411bf1ede5a4d85bdc","bdp_trlrn","Wed Mar 15 2023 22:57:37 GMT-0400 (Eastern Daylight Time)","692015","Trustworthy,Untrustworthy","","3370","","","","","","<div class='header' style='text-align:left; position: absolute; top: 5%; left: 5%;'><small>Task 2 of 5</small></div><div class='instruxDiv'><p><strong>1) What is the minimum number of points you can choose to send to your partner?</strong></p><p>a) 1</p><p>b) 1</p><p style='color:#FF0000'>c) 5</p><h3 style='color:#FF0000'>Incorrect!</h3><h3 class='center-content'>The correct response is b).</h3><h3 class='center-content'>The minimum number of points you can choose to send to your partner is 1 point.</h3><p><em>Press SPACEBAR to continue</em></p></div>"," ","","","","","","","","","","",""
"html-keyboard-response","129","289027","0.0-11.0","611401411bf1ede5a4d85bdc","bdp_trlrn","Wed Mar 15 2023 22:57:37 GMT-0400 (Eastern Daylight Time)","692015","Trustworthy,Untrustworthy","","3478","","","","","","<div class='header' style='text-align:left; position: absolute; top: 5%; left: 5%;'><small>Task 2 of 5</small></div><div class='instruxDiv'><p><strong>2) What is the maximum number of points you can choose to send to your partner?</strong></p><p>a) 8</p><p>b) 5</p><p>c) 3</p>","B","","","","","","","","","","",""
"html-keyboard-response","130","290811","0.0-12.0","611401411bf1ede5a4d85bdc","bdp_trlrn","Wed Mar 15 2023 22:57:37 GMT-0400 (Eastern Daylight Time)","692015","Trustworthy,Untrustworthy","","1678","","","","","","<div class='header' style='text-align:left; position: absolute; top: 5%; left: 5%;'><small>Task 2 of 5</small></div><div class='instruxDiv'><p><strong>2) What is the maximum number of points you can choose to send to your partner?</strong></p><p>a) 8</p><p style='color:#00FF00'>b) 5</p><p>c) 3</p><h3 style='color:#00FF00'>Correct!</h3><h3 class='center-content'>The correct response is b).</h3><h3 class='center-content'>The maximum number of points you can choose to send to your partner is 5 points.</h3><p><em>Press SPACEBAR to continue</em></p></div>"," ","","","","","","","","","","",""
"html-keyboard-response","131","294956","0.0-13.0","611401411bf1ede5a4d85bdc","bdp_trlrn","Wed Mar 15 2023 22:57:37 GMT-0400 (Eastern Daylight Time)","692015","Trustworthy,Untrustworthy","","4027","","","","","","<div class='header' style='text-align:left; position: absolute; top: 5%; left: 5%;'><small>Task 2 of 5</small></div><div class='instruxDiv'><p><strong>3) What happens to the amount of points you send to your partner?</strong></p><p>a) Nothing</p><p>b) It doubles</p><p>c) It quadruples</p>","C","","","","","","","","","","",""
"html-keyboard-response","132","296107","0.0-14.0","611401411bf1ede5a4d85bdc","bdp_trlrn","Wed Mar 15 2023 22:57:37 GMT-0400 (Eastern Daylight Time)","692015","Trustworthy,Untrustworthy","","1030","","","","","","<div class='header' style='text-align:left; position: absolute; top: 5%; left: 5%;'><small>Task 2 of 5</small></div><div class='instruxDiv'><p><strong>3) What happens to the amount of points you send to your partner?</strong></p><p>a) Nothing</p><p>b) It doubles</p><p style='color:#00FF00'>c) It quadruples</p><h3 style='color:#00FF00'>Correct!</h3><h3 class='center-content'>The correct response is c).</h3><h3 class='center-content'>The amount of points you send to your partner quadruples.</h3><p><em>Press SPACEBAR to continue</em></p></div>"," ","","","","","","","","","","",""
"html-keyboard-response","133","305681","0.0-15.0","611401411bf1ede5a4d85bdc","bdp_trlrn","Wed Mar 15 2023 22:57:37 GMT-0400 (Eastern Daylight Time)","692015","Trustworthy,Untrustworthy","","9462","","","","","","<div class='header' style='text-align:left; position: absolute; top: 5%; left: 5%;'><small>Task 2 of 5</small></div><div class='instruxDiv'><p><strong>4) If you decided to share 4 out of 5 points with your partner, and they decided to share half of the amount they received with you, how many points would you receive back from them on this round?</strong></p><p>a) 16</p><p>b) 0</p><p>c) 8</p>","C","","","","","","","","","","",""
"html-keyboard-response","134","307831","0.0-16.0","611401411bf1ede5a4d85bdc","bdp_trlrn","Wed Mar 15 2023 22:57:37 GMT-0400 (Eastern Daylight Time)","692015","Trustworthy,Untrustworthy","","2026","","","","","","<div class='header' style='text-align:left; position: absolute; top: 5%; left: 5%;'><small>Task 2 of 5</small></div><div class='instruxDiv'><p><strong>4) If you decided to share 4 out of 5 points with your partner, and they decided to share half of the amount they received with you, how many points would you receive back from them on this round?</strong></p><p>a) 16</p><p>b) 0</p><p style='color:#00FF00'>c) 8</p><h3 style='color:#00FF00'>Correct!</h3><h3 class='center-content'>The correct response is c).</h3><h3 class='center-content'>If you shared 4 out of 5 points with your partner and they decided to share half of the amount they received with you, you would receive 8 points back (i.e. (4 x 4)/2 = 8).</h3><p><em>Press SPACEBAR to continue</em></p></div>"," ","","","","","","","","","","",""
"html-keyboard-response","135","312964","0.0-17.0","611401411bf1ede5a4d85bdc","bdp_trlrn","Wed Mar 15 2023 22:57:37 GMT-0400 (Eastern Daylight Time)","692015","Trustworthy,Untrustworthy","","null","","","","","","<div class='header' style='text-align:left; position: absolute; top: 5%; left: 5%;'><small>Task 2 of 5</small></div><div class='instruxDiv'><p>Thank you for completing the quiz<p>These are the actual partners you will be interacting with in the next block:<p><div class='tc' align='center'><img class='introPic' src='trustrating_stim/white_mw066.bmp'><br><strong>Joseph</strong></div><div class='bl' align='center'><img class='introPic' src='trustrating_stim/white_00577_940928_fa_edt.bmp'><br><strong>Brian</strong></div><div class='br' align='center'><img class='introPic' src='trustrating_stim/white_mw060.bmp'><br><strong>Timothy</strong></div></div><p>Across <strong>66 rounds</strong> you will interact with each partner <strong>22 times</strong> (in random order).<p style='align:center; color:white'><font <em>Press SPACEBAR to continue</em></p>","null","","","","","","","","","","",""
"instructions","136","318140","0.0-18.0","611401411bf1ede5a4d85bdc","bdp_trlrn","Wed Mar 15 2023 22:57:37 GMT-0400 (Eastern Daylight Time)","692015","Trustworthy,Untrustworthy","[{""page_index"":0,""viewing_time"":2355},{""page_index"":1,""viewing_time"":2818}]","5174","","","","","","","","","","","","","","","","","",""
"html-keyboard-response","137","321253","0.0-19.0-1.0","611401411bf1ede5a4d85bdc","bdp_trlrn","Wed Mar 15 2023 22:57:37 GMT-0400 (Eastern Daylight Time)","692015","Trustworthy,Untrustworthy","","3002","","","","decision","","<div class='trialDiv'><img src='trustrating_stim/white_00577_940928_fa_edt.bmp'><br><font class='baseline'><strong>Brian</strong><p>Choose number of points to send.</font><div class='respPicDiv'><img src='img/responseButtonOffersNo0L.png' class='respPic'></div></div>","3","1","Brian","7","Shared","0.8,0.35","14","0.8","trustrating_stim/white_00577_940928_fa_edt.bmp","5.5","5","1"
"html-keyboard-response","138","321513","0.0-19.0-2.0","611401411bf1ede5a4d85bdc","bdp_trlrn","Wed Mar 15 2023 22:57:37 GMT-0400 (Eastern Daylight Time)","692015","Trustworthy,Untrustworthy","","null","","","","decisionFB","","<div class='trialDiv'><img src='trustrating_stim/white_00577_940928_fa_edt.bmp'><br><font class='baseline'><strong>Brian</strong><p>Choose number of points to send.</font><div class='respPicDiv'><img src='img/responseButtonOffersNo0L3.png' class='respPic'></div></div>","null","1","Brian","7","Shared","0.8,0.35","14","0.8","trustrating_stim/white_00577_940928_fa_edt.bmp","5.5","2","1"
"html-keyboard-response","139","322529","0.0-19.0-3.0","611401411bf1ede5a4d85bdc","bdp_trlrn","Wed Mar 15 2023 22:57:37 GMT-0400 (Eastern Daylight Time)","692015","Trustworthy,Untrustworthy","","null","","","","feedback","","<div class='trialDiv'><img src='trustrating_stim/white_00577_940928_fa_edt.bmp'><br><font class='baseline'><strong>Brian</strong><p>Received: <strong>12</strong></font> &nbsp; &nbsp; &nbsp; &nbsp; &nbsp; &nbsp;<font class='posOutcome'>Shared back: <strong>6</strong></font></font><div class='respPicDiv'><img src='img/responseButtonOffersNo0_wht.png' class='respPic'></div></div>","null","1","Brian","7","Shared","0.8,0.35","14","0.8","trustrating_stim/white_00577_940928_fa_edt.bmp","5.5","8","1"
"html-keyboard-response","140","323871","0.0-19.0-1.1","611401411bf1ede5a4d85bdc","bdp_trlrn","Wed Mar 15 2023 22:57:37 GMT-0400 (Eastern Daylight Time)","692015","Trustworthy,Untrustworthy","","1339","","","","decision","","<div class='trialDiv'><img src='trustrating_stim/white_mw066.bmp'><br><font class='baseline'><strong>Joseph</strong><p>Choose number of points to send.</font><div class='respPicDiv'><img src='img/responseButtonOffersNo0L.png' class='respPic'></div></div>","3","1","Joseph","0","Shared","0.35,0.8","13","0.35","trustrating_stim/white_mw066.bmp","4","13","2"
"html-keyboard-response","141","324128","0.0-19.0-2.1","611401411bf1ede5a4d85bdc","bdp_trlrn","Wed Mar 15 2023 22:57:37 GMT-0400 (Eastern Daylight Time)","692015","Trustworthy,Untrustworthy","","null","","","","decisionFB","","<div class='trialDiv'><img src='trustrating_stim/white_mw066.bmp'><br><font class='baseline'><strong>Joseph</strong><p>Choose number of points to send.</font><div class='respPicDiv'><img src='img/responseButtonOffersNo0L3.png' class='respPic'></div></div>","null","1","Joseph","0","Shared","0.35,0.8","13","0.35","trustrating_stim/white_mw066.bmp","4","10","2"
"html-keyboard-response","142","325143","0.0-19.0-3.1","611401411bf1ede5a4d85bdc","bdp_trlrn","Wed Mar 15 2023 22:57:37 GMT-0400 (Eastern Daylight Time)","692015","Trustworthy,Untrustworthy","","null","","","","feedback","","<div class='trialDiv'><img src='trustrating_stim/white_mw066.bmp'><br><font class='baseline'><strong>Joseph</strong><p>Received: <strong>12</strong></font> &nbsp; &nbsp; &nbsp; &nbsp; &nbsp; &nbsp;<font class='posOutcome'>Shared back: <strong>6</strong></font></font><div class='respPicDiv'><img src='img/responseButtonOffersNo0_wht.png' class='respPic'></div></div>","null","1","Joseph","0","Shared","0.35,0.8","13","0.35","trustrating_stim/white_mw066.bmp","4","16","2"
"html-keyboard-response","143","326143","0.0-19.0-1.2","611401411bf1ede5a4d85bdc","bdp_trlrn","Wed Mar 15 2023 22:57:37 GMT-0400 (Eastern Daylight Time)","692015","Trustworthy,Untrustworthy","","996","","","","decision","","<div class='trialDiv'><img src='trustrating_stim/white_mw060.bmp'><br><font class='baseline'><strong>Timothy</strong><p>Choose number of points to send.</font><div class='respPicDiv'><img src='img/responseButtonOffersNo0L.png' class='respPic'></div></div>","3","1","Timothy","9","Kept","0.65,0.35","14","0.65","trustrating_stim/white_mw060.bmp","7","21","3"
"html-keyboard-response","144","326400","0.0-19.0-2.2","611401411bf1ede5a4d85bdc","bdp_trlrn","Wed Mar 15 2023 22:57:37 GMT-0400 (Eastern Daylight Time)","692015","Trustworthy,Untrustworthy","","null","","","","decisionFB","","<div class='trialDiv'><img src='trustrating_stim/white_mw060.bmp'><br><font class='baseline'><strong>Timothy</strong><p>Choose number of points to send.</font><div class='respPicDiv'><img src='img/responseButtonOffersNo0L3.png' class='respPic'></div></div>","null","1","Timothy","9","Kept","0.65,0.35","14","0.65","trustrating_stim/white_mw060.bmp","7","18","3"
"html-keyboard-response","145","327424","0.0-19.0-3.2","611401411bf1ede5a4d85bdc","bdp_trlrn","Wed Mar 15 2023 22:57:37 GMT-0400 (Eastern Daylight Time)","692015","Trustworthy,Untrustworthy","","null","","","","feedback","","<div class='trialDiv'><img src='trustrating_stim/white_mw060.bmp'><br><font class='baseline'><strong>Timothy</strong><p>Received: <strong>12</strong></font> &nbsp; &nbsp; &nbsp; &nbsp; &nbsp; &nbsp;<font class='negOutcome'>Shared back: <strong>0</strong></font></font><div class='respPicDiv'><img src='img/responseButtonOffersNo0_wht.png' class='respPic'></div></div>","null","1","Timothy","9","Kept","0.65,0.35","14","0.65","trustrating_stim/white_mw060.bmp","7","18","3"
"html-keyboard-response","146","330582","0.0-19.0-1.3","611401411bf1ede5a4d85bdc","bdp_trlrn","Wed Mar 15 2023 22:57:37 GMT-0400 (Eastern Daylight Time)","692015","Trustworthy,Untrustworthy","","3154","","","","decision","","<div class='trialDiv'><img src='trustrating_stim/white_00577_940928_fa_edt.bmp'><br><font class='baseline'><strong>Brian</strong><p>Choose number of points to send.</font><div class='respPicDiv'><img src='img/responseButtonOffersNo0L.png' class='respPic'></div></div>","3","2","Brian","7","Shared","0.8,0.35","14","0.8","trustrating_stim/white_00577_940928_fa_edt.bmp","5.5","23","4"
"html-keyboard-response","147","330840","0.0-19.0-2.3","611401411bf1ede5a4d85bdc","bdp_trlrn","Wed Mar 15 2023 22:57:37 GMT-0400 (Eastern Daylight Time)","692015","Trustworthy,Untrustworthy","","null","","","","decisionFB","","<div class='trialDiv'><img src='trustrating_stim/white_00577_940928_fa_edt.bmp'><br><font class='baseline'><strong>Brian</strong><p>Choose number of points to send.</font><div class='respPicDiv'><img src='img/responseButtonOffersNo0L3.png' class='respPic'></div></div>","null","2","Brian","7","Shared","0.8,0.35","14","0.8","trustrating_stim/white_00577_940928_fa_edt.bmp","5.5","20","4"
"html-keyboard-response","148","331852","0.0-19.0-3.3","611401411bf1ede5a4d85bdc","bdp_trlrn","Wed Mar 15 2023 22:57:37 GMT-0400 (Eastern Daylight Time)","692015","Trustworthy,Untrustworthy","","null","","","","feedback","","<div class='trialDiv'><img src='trustrating_stim/white_00577_940928_fa_edt.bmp'><br><font class='baseline'><strong>Brian</strong><p>Received: <strong>12</strong></font> &nbsp; &nbsp; &nbsp; &nbsp; &nbsp; &nbsp;<font class='posOutcome'>Shared back: <strong>6</strong></font></font><div class='respPicDiv'><img src='img/responseButtonOffersNo0_wht.png' class='respPic'></div></div>","null","2","Brian","7","Shared","0.8,0.35","14","0.8","trustrating_stim/white_00577_940928_fa_edt.bmp","5.5","26","4"
"html-keyboard-response","149","334305","0.0-19.0-1.4","611401411bf1ede5a4d85bdc","bdp_trlrn","Wed Mar 15 2023 22:57:37 GMT-0400 (Eastern Daylight Time)","692015","Trustworthy,Untrustworthy","","2449","","","","decision","","<div class='trialDiv'><img src='trustrating_stim/white_mw060.bmp'><br><font class='baseline'><strong>Timothy</strong><p>Choose number of points to send.</font><div class='respPicDiv'><img src='img/responseButtonOffersNo0L.png' class='respPic'></div></div>","2","2","Timothy","9","Kept","0.65,0.35","14","0.65","trustrating_stim/white_mw060.bmp","7","31","5"
"html-keyboard-response","150","334559","0.0-19.0-2.4","611401411bf1ede5a4d85bdc","bdp_trlrn","Wed Mar 15 2023 22:57:37 GMT-0400 (Eastern Daylight Time)","692015","Trustworthy,Untrustworthy","","null","","","","decisionFB","","<div class='trialDiv'><img src='trustrating_stim/white_mw060.bmp'><br><font class='baseline'><strong>Timothy</strong><p>Choose number of points to send.</font><div class='respPicDiv'><img src='img/responseButtonOffersNo0L2.png' class='respPic'></div></div>","null","2","Timothy","9","Kept","0.65,0.35","14","0.65","trustrating_stim/white_mw060.bmp","7","29","5"
"html-keyboard-response","151","335580","0.0-19.0-3.4","611401411bf1ede5a4d85bdc","bdp_trlrn","Wed Mar 15 2023 22:57:37 GMT-0400 (Eastern Daylight Time)","692015","Trustworthy,Untrustworthy","","null","","","","feedback","","<div class='trialDiv'><img src='trustrating_stim/white_mw060.bmp'><br><font class='baseline'><strong>Timothy</strong><p>Received: <strong>8</strong></font> &nbsp; &nbsp; &nbsp; &nbsp; &nbsp; &nbsp;<font class='negOutcome'>Shared back: <strong>0</strong></font></font><div class='respPicDiv'><img src='img/responseButtonOffersNo0_wht.png' class='respPic'></div></div>","null","2","Timothy","9","Kept","0.65,0.35","14","0.65","trustrating_stim/white_mw060.bmp","7","29","5"
"html-keyboard-response","152","337125","0.0-19.0-1.5","611401411bf1ede5a4d85bdc","bdp_trlrn","Wed Mar 15 2023 22:57:37 GMT-0400 (Eastern Daylight Time)","692015","Trustworthy,Untrustworthy","","1542","","","","decision","","<div class='trialDiv'><img src='trustrating_stim/white_mw066.bmp'><br><font class='baseline'><strong>Joseph</strong><p>Choose number of points to send.</font><div class='respPicDiv'><img src='img/responseButtonOffersNo0L.png' class='respPic'></div></div>","4","2","Joseph","0","Kept","0.35,0.8","13","0.35","trustrating_stim/white_mw066.bmp","4","34","6"
"html-keyboard-response","153","337397","0.0-19.0-2.5","611401411bf1ede5a4d85bdc","bdp_trlrn","Wed Mar 15 2023 22:57:37 GMT-0400 (Eastern Daylight Time)","692015","Trustworthy,Untrustworthy","","null","","","","decisionFB","","<div class='trialDiv'><img src='trustrating_stim/white_mw066.bmp'><br><font class='baseline'><strong>Joseph</strong><p>Choose number of points to send.</font><div class='respPicDiv'><img src='img/responseButtonOffersNo0L4.png' class='respPic'></div></div>","null","2","Joseph","0","Kept","0.35,0.8","13","0.35","trustrating_stim/white_mw066.bmp","4","30","6"
"html-keyboard-response","154","338411","0.0-19.0-3.5","611401411bf1ede5a4d85bdc","bdp_trlrn","Wed Mar 15 2023 22:57:37 GMT-0400 (Eastern Daylight Time)","692015","Trustworthy,Untrustworthy","","null","","","","feedback","","<div class='trialDiv'><img src='trustrating_stim/white_mw066.bmp'><br><font class='baseline'><strong>Joseph</strong><p>Received: <strong>16</strong></font> &nbsp; &nbsp; &nbsp; &nbsp; &nbsp; &nbsp;<font class='negOutcome'>Shared back: <strong>0</strong></font></font><div class='respPicDiv'><img src='img/responseButtonOffersNo0_wht.png' class='respPic'></div></div>","null","2","Joseph","0","Kept","0.35,0.8","13","0.35","trustrating_stim/white_mw066.bmp","4","30","6"
"html-keyboard-response","155","340351","0.0-19.0-1.6","611401411bf1ede5a4d85bdc","bdp_trlrn","Wed Mar 15 2023 22:57:37 GMT-0400 (Eastern Daylight Time)","692015","Trustworthy,Untrustworthy","","1937","","","","decision","","<div class='trialDiv'><img src='trustrating_stim/white_mw060.bmp'><br><font class='baseline'><strong>Timothy</strong><p>Choose number of points to send.</font><div class='respPicDiv'><img src='img/responseButtonOffersNo0L.png' class='respPic'></div></div>","1","3","Timothy","9","Shared","0.65,0.35","14","0.65","trustrating_stim/white_mw060.bmp","7","35","7"
"html-keyboard-response","156","340605","0.0-19.0-2.6","611401411bf1ede5a4d85bdc","bdp_trlrn","Wed Mar 15 2023 22:57:37 GMT-0400 (Eastern Daylight Time)","692015","Trustworthy,Untrustworthy","","null","","","","decisionFB","","<div class='trialDiv'><img src='trustrating_stim/white_mw060.bmp'><br><font class='baseline'><strong>Timothy</strong><p>Choose number of points to send.</font><div class='respPicDiv'><img src='img/responseButtonOffersNo0L1.png' class='respPic'></div></div>","null","3","Timothy","9","Shared","0.65,0.35","14","0.65","trustrating_stim/white_mw060.bmp","7","34","7"
"html-keyboard-response","157","341611","0.0-19.0-3.6","611401411bf1ede5a4d85bdc","bdp_trlrn","Wed Mar 15 2023 22:57:37 GMT-0400 (Eastern Daylight Time)","692015","Trustworthy,Untrustworthy","","null","","","","feedback","","<div class='trialDiv'><img src='trustrating_stim/white_mw060.bmp'><br><font class='baseline'><strong>Timothy</strong><p>Received: <strong>4</strong></font> &nbsp; &nbsp; &nbsp; &nbsp; &nbsp; &nbsp;<font class='posOutcome'>Shared back: <strong>2</strong></font></font><div class='respPicDiv'><img src='img/responseButtonOffersNo0_wht.png' class='respPic'></div></div>","null","3","Timothy","9","Shared","0.65,0.35","14","0.65","trustrating_stim/white_mw060.bmp","7","36","7"
"html-keyboard-response","158","345330","0.0-19.0-1.7","611401411bf1ede5a4d85bdc","bdp_trlrn","Wed Mar 15 2023 22:57:37 GMT-0400 (Eastern Daylight Time)","692015","Trustworthy,Untrustworthy","","3716","","","","decision","","<div class='trialDiv'><img src='trustrating_stim/white_mw066.bmp'><br><font class='baseline'><strong>Joseph</strong><p>Choose number of points to send.</font><div class='respPicDiv'><img src='img/responseButtonOffersNo0L.png' class='respPic'></div></div>","5","3","Joseph","0","Shared","0.35,0.8","13","0.35","trustrating_stim/white_mw066.bmp","4","41","8"
"html-keyboard-response","159","345600","0.0-19.0-2.7","611401411bf1ede5a4d85bdc","bdp_trlrn","Wed Mar 15 2023 22:57:37 GMT-0400 (Eastern Daylight Time)","692015","Trustworthy,Untrustworthy","","null","","","","decisionFB","","<div class='trialDiv'><img src='trustrating_stim/white_mw066.bmp'><br><font class='baseline'><strong>Joseph</strong><p>Choose number of points to send.</font><div class='respPicDiv'><img src='img/responseButtonOffersNo0L5.png' class='respPic'></div></div>","null","3","Joseph","0","Shared","0.35,0.8","13","0.35","trustrating_stim/white_mw066.bmp","4","36","8"
"html-keyboard-response","160","346622","0.0-19.0-3.7","611401411bf1ede5a4d85bdc","bdp_trlrn","Wed Mar 15 2023 22:57:37 GMT-0400 (Eastern Daylight Time)","692015","Trustworthy,Untrustworthy","","null","","","","feedback","","<div class='trialDiv'><img src='trustrating_stim/white_mw066.bmp'><br><font class='baseline'><strong>Joseph</strong><p>Received: <strong>20</strong></font> &nbsp; &nbsp; &nbsp; &nbsp; &nbsp; &nbsp;<font class='posOutcome'>Shared back: <strong>10</strong></font></font><div class='respPicDiv'><img src='img/responseButtonOffersNo0_wht.png' class='respPic'></div></div>","null","3","Joseph","0","Shared","0.35,0.8","13","0.35","trustrating_stim/white_mw066.bmp","4","46","8"
"html-keyboard-response","161","347950","0.0-19.0-1.8","611401411bf1ede5a4d85bdc","bdp_trlrn","Wed Mar 15 2023 22:57:37 GMT-0400 (Eastern Daylight Time)","692015","Trustworthy,Untrustworthy","","1323","","","","decision","","<div class='trialDiv'><img src='trustrating_stim/white_00577_940928_fa_edt.bmp'><br><font class='baseline'><strong>Brian</strong><p>Choose number of points to send.</font><div class='respPicDiv'><img src='img/responseButtonOffersNo0L.png' class='respPic'></div></div>","5","3","Brian","7","Shared","0.8,0.35","14","0.8","trustrating_stim/white_00577_940928_fa_edt.bmp","5.5","51","9"
"html-keyboard-response","162","348208","0.0-19.0-2.8","611401411bf1ede5a4d85bdc","bdp_trlrn","Wed Mar 15 2023 22:57:37 GMT-0400 (Eastern Daylight Time)","692015","Trustworthy,Untrustworthy","","null","","","","decisionFB","","<div class='trialDiv'><img src='trustrating_stim/white_00577_940928_fa_edt.bmp'><br><font class='baseline'><strong>Brian</strong><p>Choose number of points to send.</font><div class='respPicDiv'><img src='img/responseButtonOffersNo0L5.png' class='respPic'></div></div>","null","3","Brian","7","Shared","0.8,0.35","14","0.8","trustrating_stim/white_00577_940928_fa_edt.bmp","5.5","46","9"
"html-keyboard-response","163","349215","0.0-19.0-3.8","611401411bf1ede5a4d85bdc","bdp_trlrn","Wed Mar 15 2023 22:57:37 GMT-0400 (Eastern Daylight Time)","692015","Trustworthy,Untrustworthy","","null","","","","feedback","","<div class='trialDiv'><img src='trustrating_stim/white_00577_940928_fa_edt.bmp'><br><font class='baseline'><strong>Brian</strong><p>Received: <strong>20</strong></font> &nbsp; &nbsp; &nbsp; &nbsp; &nbsp; &nbsp;<font class='posOutcome'>Shared back: <strong>10</strong></font></font><div class='respPicDiv'><img src='img/responseButtonOffersNo0_wht.png' class='respPic'></div></div>","null","3","Brian","7","Shared","0.8,0.35","14","0.8","trustrating_stim/white_00577_940928_fa_edt.bmp","5.5","56","9"
"html-keyboard-response","164","350281","0.0-19.0-1.9","611401411bf1ede5a4d85bdc","bdp_trlrn","Wed Mar 15 2023 22:57:37 GMT-0400 (Eastern Daylight Time)","692015","Trustworthy,Untrustworthy","","1063","","","","decision","","<div class='trialDiv'><img src='trustrating_stim/white_mw066.bmp'><br><font class='baseline'><strong>Joseph</strong><p>Choose number of points to send.</font><div class='respPicDiv'><img src='img/responseButtonOffersNo0L.png' class='respPic'></div></div>","5","4","Joseph","0","Shared","0.35,0.8","13","0.35","trustrating_stim/white_mw066.bmp","4","61","10"
"html-keyboard-response","165","350556","0.0-19.0-2.9","611401411bf1ede5a4d85bdc","bdp_trlrn","Wed Mar 15 2023 22:57:37 GMT-0400 (Eastern Daylight Time)","692015","Trustworthy,Untrustworthy","","null","","","","decisionFB","","<div class='trialDiv'><img src='trustrating_stim/white_mw066.bmp'><br><font class='baseline'><strong>Joseph</strong><p>Choose number of points to send.</font><div class='respPicDiv'><img src='img/responseButtonOffersNo0L5.png' class='respPic'></div></div>","null","4","Joseph","0","Shared","0.35,0.8","13","0.35","trustrating_stim/white_mw066.bmp","4","56","10"
"html-keyboard-response","166","351579","0.0-19.0-3.9","611401411bf1ede5a4d85bdc","bdp_trlrn","Wed Mar 15 2023 22:57:37 GMT-0400 (Eastern Daylight Time)","692015","Trustworthy,Untrustworthy","","null","","","","feedback","","<div class='trialDiv'><img src='trustrating_stim/white_mw066.bmp'><br><font class='baseline'><strong>Joseph</strong><p>Received: <strong>20</strong></font> &nbsp; &nbsp; &nbsp; &nbsp; &nbsp; &nbsp;<font class='posOutcome'>Shared back: <strong>10</strong></font></font><div class='respPicDiv'><img src='img/responseButtonOffersNo0_wht.png' class='respPic'></div></div>","null","4","Joseph","0","Shared","0.35,0.8","13","0.35","trustrating_stim/white_mw066.bmp","4","66","10"
"html-keyboard-response","167","353015","0.0-19.0-1.10","611401411bf1ede5a4d85bdc","bdp_trlrn","Wed Mar 15 2023 22:57:37 GMT-0400 (Eastern Daylight Time)","692015","Trustworthy,Untrustworthy","","1433","","","","decision","","<div class='trialDiv'><img src='trustrating_stim/white_mw060.bmp'><br><font class='baseline'><strong>Timothy</strong><p>Choose number of points to send.</font><div class='respPicDiv'><img src='img/responseButtonOffersNo0L.png' class='respPic'></div></div>","5","4","Timothy","9","Shared","0.65,0.35","14","0.65","trustrating_stim/white_mw060.bmp","7","71","11"
"html-keyboard-response","168","353283","0.0-19.0-2.10","611401411bf1ede5a4d85bdc","bdp_trlrn","Wed Mar 15 2023 22:57:37 GMT-0400 (Eastern Daylight Time)","692015","Trustworthy,Untrustworthy","","null","","","","decisionFB","","<div class='trialDiv'><img src='trustrating_stim/white_mw060.bmp'><br><font class='baseline'><strong>Timothy</strong><p>Choose number of points to send.</font><div class='respPicDiv'><img src='img/responseButtonOffersNo0L5.png' class='respPic'></div></div>","null","4","Timothy","9","Shared","0.65,0.35","14","0.65","trustrating_stim/white_mw060.bmp","7","66","11"
"html-keyboard-response","169","354304","0.0-19.0-3.10","611401411bf1ede5a4d85bdc","bdp_trlrn","Wed Mar 15 2023 22:57:37 GMT-0400 (Eastern Daylight Time)","692015","Trustworthy,Untrustworthy","","null","","","","feedback","","<div class='trialDiv'><img src='trustrating_stim/white_mw060.bmp'><br><font class='baseline'><strong>Timothy</strong><p>Received: <strong>20</strong></font> &nbsp; &nbsp; &nbsp; &nbsp; &nbsp; &nbsp;<font class='posOutcome'>Shared back: <strong>10</strong></font></font><div class='respPicDiv'><img src='img/responseButtonOffersNo0_wht.png' class='respPic'></div></div>","null","4","Timothy","9","Shared","0.65,0.35","14","0.65","trustrating_stim/white_mw060.bmp","7","76","11"
"html-keyboard-response","170","355218","0.0-19.0-1.11","611401411bf1ede5a4d85bdc","bdp_trlrn","Wed Mar 15 2023 22:57:37 GMT-0400 (Eastern Daylight Time)","692015","Trustworthy,Untrustworthy","","910","","","","decision","","<div class='trialDiv'><img src='trustrating_stim/white_00577_940928_fa_edt.bmp'><br><font class='baseline'><strong>Brian</strong><p>Choose number of points to send.</font><div class='respPicDiv'><img src='img/responseButtonOffersNo0L.png' class='respPic'></div></div>","5","4","Brian","7","Shared","0.8,0.35","14","0.8","trustrating_stim/white_00577_940928_fa_edt.bmp","5.5","81","12"
"html-keyboard-response","171","355474","0.0-19.0-2.11","611401411bf1ede5a4d85bdc","bdp_trlrn","Wed Mar 15 2023 22:57:37 GMT-0400 (Eastern Daylight Time)","692015","Trustworthy,Untrustworthy","","null","","","","decisionFB","","<div class='trialDiv'><img src='trustrating_stim/white_00577_940928_fa_edt.bmp'><br><font class='baseline'><strong>Brian</strong><p>Choose number of points to send.</font><div class='respPicDiv'><img src='img/responseButtonOffersNo0L5.png' class='respPic'></div></div>","null","4","Brian","7","Shared","0.8,0.35","14","0.8","trustrating_stim/white_00577_940928_fa_edt.bmp","5.5","76","12"
"html-keyboard-response","172","356486","0.0-19.0-3.11","611401411bf1ede5a4d85bdc","bdp_trlrn","Wed Mar 15 2023 22:57:37 GMT-0400 (Eastern Daylight Time)","692015","Trustworthy,Untrustworthy","","null","","","","feedback","","<div class='trialDiv'><img src='trustrating_stim/white_00577_940928_fa_edt.bmp'><br><font class='baseline'><strong>Brian</strong><p>Received: <strong>20</strong></font> &nbsp; &nbsp; &nbsp; &nbsp; &nbsp; &nbsp;<font class='posOutcome'>Shared back: <strong>10</strong></font></font><div class='respPicDiv'><img src='img/responseButtonOffersNo0_wht.png' class='respPic'></div></div>","null","4","Brian","7","Shared","0.8,0.35","14","0.8","trustrating_stim/white_00577_940928_fa_edt.bmp","5.5","86","12"
"html-keyboard-response","173","357285","0.0-19.0-1.12","611401411bf1ede5a4d85bdc","bdp_trlrn","Wed Mar 15 2023 22:57:37 GMT-0400 (Eastern Daylight Time)","692015","Trustworthy,Untrustworthy","","793","","","","decision","","<div class='trialDiv'><img src='trustrating_stim/white_mw066.bmp'><br><font class='baseline'><strong>Joseph</strong><p>Choose number of points to send.</font><div class='respPicDiv'><img src='img/responseButtonOffersNo0L.png' class='respPic'></div></div>","5","5","Joseph","0","Kept","0.35,0.8","13","0.35","trustrating_stim/white_mw066.bmp","4","91","13"
"html-keyboard-response","174","357546","0.0-19.0-2.12","611401411bf1ede5a4d85bdc","bdp_trlrn","Wed Mar 15 2023 22:57:37 GMT-0400 (Eastern Daylight Time)","692015","Trustworthy,Untrustworthy","","null","","","","decisionFB","","<div class='trialDiv'><img src='trustrating_stim/white_mw066.bmp'><br><font class='baseline'><strong>Joseph</strong><p>Choose number of points to send.</font><div class='respPicDiv'><img src='img/responseButtonOffersNo0L5.png' class='respPic'></div></div>","null","5","Joseph","0","Kept","0.35,0.8","13","0.35","trustrating_stim/white_mw066.bmp","4","86","13"
"html-keyboard-response","175","358556","0.0-19.0-3.12","611401411bf1ede5a4d85bdc","bdp_trlrn","Wed Mar 15 2023 22:57:37 GMT-0400 (Eastern Daylight Time)","692015","Trustworthy,Untrustworthy","","null","","","","feedback","","<div class='trialDiv'><img src='trustrating_stim/white_mw066.bmp'><br><font class='baseline'><strong>Joseph</strong><p>Received: <strong>20</strong></font> &nbsp; &nbsp; &nbsp; &nbsp; &nbsp; &nbsp;<font class='negOutcome'>Shared back: <strong>0</strong></font></font><div class='respPicDiv'><img src='img/responseButtonOffersNo0_wht.png' class='respPic'></div></div>","null","5","Joseph","0","Kept","0.35,0.8","13","0.35","trustrating_stim/white_mw066.bmp","4","86","13"
"html-keyboard-response","176","360005","0.0-19.0-1.13","611401411bf1ede5a4d85bdc","bdp_trlrn","Wed Mar 15 2023 22:57:37 GMT-0400 (Eastern Daylight Time)","692015","Trustworthy,Untrustworthy","","1445","","","","decision","","<div class='trialDiv'><img src='trustrating_stim/white_mw060.bmp'><br><font class='baseline'><strong>Timothy</strong><p>Choose number of points to send.</font><div class='respPicDiv'><img src='img/responseButtonOffersNo0L.png' class='respPic'></div></div>","2","5","Timothy","9","Kept","0.65,0.35","14","0.65","trustrating_stim/white_mw060.bmp","7","91","14"
"html-keyboard-response","177","360260","0.0-19.0-2.13","611401411bf1ede5a4d85bdc","bdp_trlrn","Wed Mar 15 2023 22:57:37 GMT-0400 (Eastern Daylight Time)","692015","Trustworthy,Untrustworthy","","null","","","","decisionFB","","<div class='trialDiv'><img src='trustrating_stim/white_mw060.bmp'><br><font class='baseline'><strong>Timothy</strong><p>Choose number of points to send.</font><div class='respPicDiv'><img src='img/responseButtonOffersNo0L2.png' class='respPic'></div></div>","null","5","Timothy","9","Kept","0.65,0.35","14","0.65","trustrating_stim/white_mw060.bmp","7","89","14"
"html-keyboard-response","178","361267","0.0-19.0-3.13","611401411bf1ede5a4d85bdc","bdp_trlrn","Wed Mar 15 2023 22:57:37 GMT-0400 (Eastern Daylight Time)","692015","Trustworthy,Untrustworthy","","null","","","","feedback","","<div class='trialDiv'><img src='trustrating_stim/white_mw060.bmp'><br><font class='baseline'><strong>Timothy</strong><p>Received: <strong>8</strong></font> &nbsp; &nbsp; &nbsp; &nbsp; &nbsp; &nbsp;<font class='negOutcome'>Shared back: <strong>0</strong></font></font><div class='respPicDiv'><img src='img/responseButtonOffersNo0_wht.png' class='respPic'></div></div>","null","5","Timothy","9","Kept","0.65,0.35","14","0.65","trustrating_stim/white_mw060.bmp","7","89","14"
"html-keyboard-response","179","363352","0.0-19.0-1.14","611401411bf1ede5a4d85bdc","bdp_trlrn","Wed Mar 15 2023 22:57:37 GMT-0400 (Eastern Daylight Time)","692015","Trustworthy,Untrustworthy","","2081","","","","decision","","<div class='trialDiv'><img src='trustrating_stim/white_00577_940928_fa_edt.bmp'><br><font class='baseline'><strong>Brian</strong><p>Choose number of points to send.</font><div class='respPicDiv'><img src='img/responseButtonOffersNo0L.png' class='respPic'></div></div>","5","5","Brian","7","Shared","0.8,0.35","14","0.8","trustrating_stim/white_00577_940928_fa_edt.bmp","5.5","94","15"
"html-keyboard-response","180","363619","0.0-19.0-2.14","611401411bf1ede5a4d85bdc","bdp_trlrn","Wed Mar 15 2023 22:57:37 GMT-0400 (Eastern Daylight Time)","692015","Trustworthy,Untrustworthy","","null","","","","decisionFB","","<div class='trialDiv'><img src='trustrating_stim/white_00577_940928_fa_edt.bmp'><br><font class='baseline'><strong>Brian</strong><p>Choose number of points to send.</font><div class='respPicDiv'><img src='img/responseButtonOffersNo0L5.png' class='respPic'></div></div>","null","5","Brian","7","Shared","0.8,0.35","14","0.8","trustrating_stim/white_00577_940928_fa_edt.bmp","5.5","89","15"
"html-keyboard-response","181","364642","0.0-19.0-3.14","611401411bf1ede5a4d85bdc","bdp_trlrn","Wed Mar 15 2023 22:57:37 GMT-0400 (Eastern Daylight Time)","692015","Trustworthy,Untrustworthy","","null","","","","feedback","","<div class='trialDiv'><img src='trustrating_stim/white_00577_940928_fa_edt.bmp'><br><font class='baseline'><strong>Brian</strong><p>Received: <strong>20</strong></font> &nbsp; &nbsp; &nbsp; &nbsp; &nbsp; &nbsp;<font class='posOutcome'>Shared back: <strong>10</strong></font></font><div class='respPicDiv'><img src='img/responseButtonOffersNo0_wht.png' class='respPic'></div></div>","null","5","Brian","7","Shared","0.8,0.35","14","0.8","trustrating_stim/white_00577_940928_fa_edt.bmp","5.5","99","15"
"html-keyboard-response","182","365399","0.0-19.0-1.15","611401411bf1ede5a4d85bdc","bdp_trlrn","Wed Mar 15 2023 22:57:37 GMT-0400 (Eastern Daylight Time)","692015","Trustworthy,Untrustworthy","","753","","","","decision","","<div class='trialDiv'><img src='trustrating_stim/white_mw066.bmp'><br><font class='baseline'><strong>Joseph</strong><p>Choose number of points to send.</font><div class='respPicDiv'><img src='img/responseButtonOffersNo0L.png' class='respPic'></div></div>","5","6","Joseph","0","Kept","0.35,0.8","13","0.35","trustrating_stim/white_mw066.bmp","4","104","16"
"html-keyboard-response","183","365660","0.0-19.0-2.15","611401411bf1ede5a4d85bdc","bdp_trlrn","Wed Mar 15 2023 22:57:37 GMT-0400 (Eastern Daylight Time)","692015","Trustworthy,Untrustworthy","","null","","","","decisionFB","","<div class='trialDiv'><img src='trustrating_stim/white_mw066.bmp'><br><font class='baseline'><strong>Joseph</strong><p>Choose number of points to send.</font><div class='respPicDiv'><img src='img/responseButtonOffersNo0L5.png' class='respPic'></div></div>","null","6","Joseph","0","Kept","0.35,0.8","13","0.35","trustrating_stim/white_mw066.bmp","4","99","16"
"html-keyboard-response","184","366678","0.0-19.0-3.15","611401411bf1ede5a4d85bdc","bdp_trlrn","Wed Mar 15 2023 22:57:37 GMT-0400 (Eastern Daylight Time)","692015","Trustworthy,Untrustworthy","","null","","","","feedback","","<div class='trialDiv'><img src='trustrating_stim/white_mw066.bmp'><br><font class='baseline'><strong>Joseph</strong><p>Received: <strong>20</strong></font> &nbsp; &nbsp; &nbsp; &nbsp; &nbsp; &nbsp;<font class='negOutcome'>Shared back: <strong>0</strong></font></font><div class='respPicDiv'><img src='img/responseButtonOffersNo0_wht.png' class='respPic'></div></div>","null","6","Joseph","0","Kept","0.35,0.8","13","0.35","trustrating_stim/white_mw066.bmp","4","99","16"
"html-keyboard-response","185","368477","0.0-19.0-1.16","611401411bf1ede5a4d85bdc","bdp_trlrn","Wed Mar 15 2023 22:57:37 GMT-0400 (Eastern Daylight Time)","692015","Trustworthy,Untrustworthy","","1795","","","","decision","","<div class='trialDiv'><img src='trustrating_stim/white_mw060.bmp'><br><font class='baseline'><strong>Timothy</strong><p>Choose number of points to send.</font><div class='respPicDiv'><img src='img/responseButtonOffersNo0L.png' class='respPic'></div></div>","2","6","Timothy","9","Shared","0.65,0.35","14","0.65","trustrating_stim/white_mw060.bmp","7","104","17"
"html-keyboard-response","186","368730","0.0-19.0-2.16","611401411bf1ede5a4d85bdc","bdp_trlrn","Wed Mar 15 2023 22:57:37 GMT-0400 (Eastern Daylight Time)","692015","Trustworthy,Untrustworthy","","null","","","","decisionFB","","<div class='trialDiv'><img src='trustrating_stim/white_mw060.bmp'><br><font class='baseline'><strong>Timothy</strong><p>Choose number of points to send.</font><div class='respPicDiv'><img src='img/responseButtonOffersNo0L2.png' class='respPic'></div></div>","null","6","Timothy","9","Shared","0.65,0.35","14","0.65","trustrating_stim/white_mw060.bmp","7","102","17"
"html-keyboard-response","187","369743","0.0-19.0-3.16","611401411bf1ede5a4d85bdc","bdp_trlrn","Wed Mar 15 2023 22:57:37 GMT-0400 (Eastern Daylight Time)","692015","Trustworthy,Untrustworthy","","null","","","","feedback","","<div class='trialDiv'><img src='trustrating_stim/white_mw060.bmp'><br><font class='baseline'><strong>Timothy</strong><p>Received: <strong>8</strong></font> &nbsp; &nbsp; &nbsp; &nbsp; &nbsp; &nbsp;<font class='posOutcome'>Shared back: <strong>4</strong></font></font><div class='respPicDiv'><img src='img/responseButtonOffersNo0_wht.png' class='respPic'></div></div>","null","6","Timothy","9","Shared","0.65,0.35","14","0.65","trustrating_stim/white_mw060.bmp","7","106","17"
"html-keyboard-response","188","371994","0.0-19.0-1.17","611401411bf1ede5a4d85bdc","bdp_trlrn","Wed Mar 15 2023 22:57:37 GMT-0400 (Eastern Daylight Time)","692015","Trustworthy,Untrustworthy","","2249","","","","decision","","<div class='trialDiv'><img src='trustrating_stim/white_00577_940928_fa_edt.bmp'><br><font class='baseline'><strong>Brian</strong><p>Choose number of points to send.</font><div class='respPicDiv'><img src='img/responseButtonOffersNo0L.png' class='respPic'></div></div>","4","6","Brian","7","Shared","0.8,0.35","14","0.8","trustrating_stim/white_00577_940928_fa_edt.bmp","5.5","111","18"
"html-keyboard-response","189","372248","0.0-19.0-2.17","611401411bf1ede5a4d85bdc","bdp_trlrn","Wed Mar 15 2023 22:57:37 GMT-0400 (Eastern Daylight Time)","692015","Trustworthy,Untrustworthy","","null","","","","decisionFB","","<div class='trialDiv'><img src='trustrating_stim/white_00577_940928_fa_edt.bmp'><br><font class='baseline'><strong>Brian</strong><p>Choose number of points to send.</font><div class='respPicDiv'><img src='img/responseButtonOffersNo0L4.png' class='respPic'></div></div>","null","6","Brian","7","Shared","0.8,0.35","14","0.8","trustrating_stim/white_00577_940928_fa_edt.bmp","5.5","107","18"
"html-keyboard-response","190","373255","0.0-19.0-3.17","611401411bf1ede5a4d85bdc","bdp_trlrn","Wed Mar 15 2023 22:57:37 GMT-0400 (Eastern Daylight Time)","692015","Trustworthy,Untrustworthy","","null","","","","feedback","","<div class='trialDiv'><img src='trustrating_stim/white_00577_940928_fa_edt.bmp'><br><font class='baseline'><strong>Brian</strong><p>Received: <strong>16</strong></font> &nbsp; &nbsp; &nbsp; &nbsp; &nbsp; &nbsp;<font class='posOutcome'>Shared back: <strong>8</strong></font></font><div class='respPicDiv'><img src='img/responseButtonOffersNo0_wht.png' class='respPic'></div></div>","null","6","Brian","7","Shared","0.8,0.35","14","0.8","trustrating_stim/white_00577_940928_fa_edt.bmp","5.5","115","18"
"html-keyboard-response","191","374409","0.0-19.0-1.18","611401411bf1ede5a4d85bdc","bdp_trlrn","Wed Mar 15 2023 22:57:37 GMT-0400 (Eastern Daylight Time)","692015","Trustworthy,Untrustworthy","","1151","","","","decision","","<div class='trialDiv'><img src='trustrating_stim/white_mw060.bmp'><br><font class='baseline'><strong>Timothy</strong><p>Choose number of points to send.</font><div class='respPicDiv'><img src='img/responseButtonOffersNo0L.png' class='respPic'></div></div>","2","7","Timothy","9","Shared","0.65,0.35","14","0.65","trustrating_stim/white_mw060.bmp","7","120","19"
"html-keyboard-response","192","374663","0.0-19.0-2.18","611401411bf1ede5a4d85bdc","bdp_trlrn","Wed Mar 15 2023 22:57:37 GMT-0400 (Eastern Daylight Time)","692015","Trustworthy,Untrustworthy","","null","","","","decisionFB","","<div class='trialDiv'><img src='trustrating_stim/white_mw060.bmp'><br><font class='baseline'><strong>Timothy</strong><p>Choose number of points to send.</font><div class='respPicDiv'><img src='img/responseButtonOffersNo0L2.png' class='respPic'></div></div>","null","7","Timothy","9","Shared","0.65,0.35","14","0.65","trustrating_stim/white_mw060.bmp","7","118","19"
"html-keyboard-response","193","375670","0.0-19.0-3.18","611401411bf1ede5a4d85bdc","bdp_trlrn","Wed Mar 15 2023 22:57:37 GMT-0400 (Eastern Daylight Time)","692015","Trustworthy,Untrustworthy","","null","","","","feedback","","<div class='trialDiv'><img src='trustrating_stim/white_mw060.bmp'><br><font class='baseline'><strong>Timothy</strong><p>Received: <strong>8</strong></font> &nbsp; &nbsp; &nbsp; &nbsp; &nbsp; &nbsp;<font class='posOutcome'>Shared back: <strong>4</strong></font></font><div class='respPicDiv'><img src='img/responseButtonOffersNo0_wht.png' class='respPic'></div></div>","null","7","Timothy","9","Shared","0.65,0.35","14","0.65","trustrating_stim/white_mw060.bmp","7","122","19"
"html-keyboard-response","194","377028","0.0-19.0-1.19","611401411bf1ede5a4d85bdc","bdp_trlrn","Wed Mar 15 2023 22:57:37 GMT-0400 (Eastern Daylight Time)","692015","Trustworthy,Untrustworthy","","1355","","","","decision","","<div class='trialDiv'><img src='trustrating_stim/white_mw066.bmp'><br><font class='baseline'><strong>Joseph</strong><p>Choose number of points to send.</font><div class='respPicDiv'><img src='img/responseButtonOffersNo0L.png' class='respPic'></div></div>","2","7","Joseph","0","Shared","0.35,0.8","13","0.35","trustrating_stim/white_mw066.bmp","4","127","20"
"html-keyboard-response","195","377284","0.0-19.0-2.19","611401411bf1ede5a4d85bdc","bdp_trlrn","Wed Mar 15 2023 22:57:37 GMT-0400 (Eastern Daylight Time)","692015","Trustworthy,Untrustworthy","","null","","","","decisionFB","","<div class='trialDiv'><img src='trustrating_stim/white_mw066.bmp'><br><font class='baseline'><strong>Joseph</strong><p>Choose number of points to send.</font><div class='respPicDiv'><img src='img/responseButtonOffersNo0L2.png' class='respPic'></div></div>","null","7","Joseph","0","Shared","0.35,0.8","13","0.35","trustrating_stim/white_mw066.bmp","4","125","20"
"html-keyboard-response","196","378304","0.0-19.0-3.19","611401411bf1ede5a4d85bdc","bdp_trlrn","Wed Mar 15 2023 22:57:37 GMT-0400 (Eastern Daylight Time)","692015","Trustworthy,Untrustworthy","","null","","","","feedback","","<div class='trialDiv'><img src='trustrating_stim/white_mw066.bmp'><br><font class='baseline'><strong>Joseph</strong><p>Received: <strong>8</strong></font> &nbsp; &nbsp; &nbsp; &nbsp; &nbsp; &nbsp;<font class='posOutcome'>Shared back: <strong>4</strong></font></font><div class='respPicDiv'><img src='img/responseButtonOffersNo0_wht.png' class='respPic'></div></div>","null","7","Joseph","0","Shared","0.35,0.8","13","0.35","trustrating_stim/white_mw066.bmp","4","129","20"
"html-keyboard-response","197","379724","0.0-19.0-1.20","611401411bf1ede5a4d85bdc","bdp_trlrn","Wed Mar 15 2023 22:57:37 GMT-0400 (Eastern Daylight Time)","692015","Trustworthy,Untrustworthy","","1417","","","","decision","","<div class='trialDiv'><img src='trustrating_stim/white_00577_940928_fa_edt.bmp'><br><font class='baseline'><strong>Brian</strong><p>Choose number of points to send.</font><div class='respPicDiv'><img src='img/responseButtonOffersNo0L.png' class='respPic'></div></div>","5","7","Brian","7","Kept","0.8,0.35","14","0.8","trustrating_stim/white_00577_940928_fa_edt.bmp","5.5","134","21"
"html-keyboard-response","198","379985","0.0-19.0-2.20","611401411bf1ede5a4d85bdc","bdp_trlrn","Wed Mar 15 2023 22:57:37 GMT-0400 (Eastern Daylight Time)","692015","Trustworthy,Untrustworthy","","null","","","","decisionFB","","<div class='trialDiv'><img src='trustrating_stim/white_00577_940928_fa_edt.bmp'><br><font class='baseline'><strong>Brian</strong><p>Choose number of points to send.</font><div class='respPicDiv'><img src='img/responseButtonOffersNo0L5.png' class='respPic'></div></div>","null","7","Brian","7","Kept","0.8,0.35","14","0.8","trustrating_stim/white_00577_940928_fa_edt.bmp","5.5","129","21"
"html-keyboard-response","199","381004","0.0-19.0-3.20","611401411bf1ede5a4d85bdc","bdp_trlrn","Wed Mar 15 2023 22:57:37 GMT-0400 (Eastern Daylight Time)","692015","Trustworthy,Untrustworthy","","null","","","","feedback","","<div class='trialDiv'><img src='trustrating_stim/white_00577_940928_fa_edt.bmp'><br><font class='baseline'><strong>Brian</strong><p>Received: <strong>20</strong></font> &nbsp; &nbsp; &nbsp; &nbsp; &nbsp; &nbsp;<font class='negOutcome'>Shared back: <strong>0</strong></font></font><div class='respPicDiv'><img src='img/responseButtonOffersNo0_wht.png' class='respPic'></div></div>","null","7","Brian","7","Kept","0.8,0.35","14","0.8","trustrating_stim/white_00577_940928_fa_edt.bmp","5.5","129","21"
"html-keyboard-response","200","382210","0.0-19.0-1.21","611401411bf1ede5a4d85bdc","bdp_trlrn","Wed Mar 15 2023 22:57:37 GMT-0400 (Eastern Daylight Time)","692015","Trustworthy,Untrustworthy","","1203","","","","decision","","<div class='trialDiv'><img src='trustrating_stim/white_mw060.bmp'><br><font class='baseline'><strong>Timothy</strong><p>Choose number of points to send.</font><div class='respPicDiv'><img src='img/responseButtonOffersNo0L.png' class='respPic'></div></div>","5","8","Timothy","9","Kept","0.65,0.35","14","0.65","trustrating_stim/white_mw060.bmp","7","134","22"
"html-keyboard-response","201","382463","0.0-19.0-2.21","611401411bf1ede5a4d85bdc","bdp_trlrn","Wed Mar 15 2023 22:57:37 GMT-0400 (Eastern Daylight Time)","692015","Trustworthy,Untrustworthy","","null","","","","decisionFB","","<div class='trialDiv'><img src='trustrating_stim/white_mw060.bmp'><br><font class='baseline'><strong>Timothy</strong><p>Choose number of points to send.</font><div class='respPicDiv'><img src='img/responseButtonOffersNo0L5.png' class='respPic'></div></div>","null","8","Timothy","9","Kept","0.65,0.35","14","0.65","trustrating_stim/white_mw060.bmp","7","129","22"
"html-keyboard-response","202","383482","0.0-19.0-3.21","611401411bf1ede5a4d85bdc","bdp_trlrn","Wed Mar 15 2023 22:57:37 GMT-0400 (Eastern Daylight Time)","692015","Trustworthy,Untrustworthy","","null","","","","feedback","","<div class='trialDiv'><img src='trustrating_stim/white_mw060.bmp'><br><font class='baseline'><strong>Timothy</strong><p>Received: <strong>20</strong></font> &nbsp; &nbsp; &nbsp; &nbsp; &nbsp; &nbsp;<font class='negOutcome'>Shared back: <strong>0</strong></font></font><div class='respPicDiv'><img src='img/responseButtonOffersNo0_wht.png' class='respPic'></div></div>","null","8","Timothy","9","Kept","0.65,0.35","14","0.65","trustrating_stim/white_mw060.bmp","7","129","22"
"html-keyboard-response","203","385439","0.0-19.0-1.22","611401411bf1ede5a4d85bdc","bdp_trlrn","Wed Mar 15 2023 22:57:37 GMT-0400 (Eastern Daylight Time)","692015","Trustworthy,Untrustworthy","","1953","","","","decision","","<div class='trialDiv'><img src='trustrating_stim/white_00577_940928_fa_edt.bmp'><br><font class='baseline'><strong>Brian</strong><p>Choose number of points to send.</font><div class='respPicDiv'><img src='img/responseButtonOffersNo0L.png' class='respPic'></div></div>","4","8","Brian","7","Shared","0.8,0.35","14","0.8","trustrating_stim/white_00577_940928_fa_edt.bmp","5.5","134","23"
"html-keyboard-response","204","385694","0.0-19.0-2.22","611401411bf1ede5a4d85bdc","bdp_trlrn","Wed Mar 15 2023 22:57:37 GMT-0400 (Eastern Daylight Time)","692015","Trustworthy,Untrustworthy","","null","","","","decisionFB","","<div class='trialDiv'><img src='trustrating_stim/white_00577_940928_fa_edt.bmp'><br><font class='baseline'><strong>Brian</strong><p>Choose number of points to send.</font><div class='respPicDiv'><img src='img/responseButtonOffersNo0L4.png' class='respPic'></div></div>","null","8","Brian","7","Shared","0.8,0.35","14","0.8","trustrating_stim/white_00577_940928_fa_edt.bmp","5.5","130","23"
"html-keyboard-response","205","386712","0.0-19.0-3.22","611401411bf1ede5a4d85bdc","bdp_trlrn","Wed Mar 15 2023 22:57:37 GMT-0400 (Eastern Daylight Time)","692015","Trustworthy,Untrustworthy","","null","","","","feedback","","<div class='trialDiv'><img src='trustrating_stim/white_00577_940928_fa_edt.bmp'><br><font class='baseline'><strong>Brian</strong><p>Received: <strong>16</strong></font> &nbsp; &nbsp; &nbsp; &nbsp; &nbsp; &nbsp;<font class='posOutcome'>Shared back: <strong>8</strong></font></font><div class='respPicDiv'><img src='img/responseButtonOffersNo0_wht.png' class='respPic'></div></div>","null","8","Brian","7","Shared","0.8,0.35","14","0.8","trustrating_stim/white_00577_940928_fa_edt.bmp","5.5","138","23"
"html-keyboard-response","206","387667","0.0-19.0-1.23","611401411bf1ede5a4d85bdc","bdp_trlrn","Wed Mar 15 2023 22:57:37 GMT-0400 (Eastern Daylight Time)","692015","Trustworthy,Untrustworthy","","951","","","","decision","","<div class='trialDiv'><img src='trustrating_stim/white_mw066.bmp'><br><font class='baseline'><strong>Joseph</strong><p>Choose number of points to send.</font><div class='respPicDiv'><img src='img/responseButtonOffersNo0L.png' class='respPic'></div></div>","4","8","Joseph","0","Kept","0.35,0.8","13","0.35","trustrating_stim/white_mw066.bmp","4","143","24"
"html-keyboard-response","207","387928","0.0-19.0-2.23","611401411bf1ede5a4d85bdc","bdp_trlrn","Wed Mar 15 2023 22:57:37 GMT-0400 (Eastern Daylight Time)","692015","Trustworthy,Untrustworthy","","null","","","","decisionFB","","<div class='trialDiv'><img src='trustrating_stim/white_mw066.bmp'><br><font class='baseline'><strong>Joseph</strong><p>Choose number of points to send.</font><div class='respPicDiv'><img src='img/responseButtonOffersNo0L4.png' class='respPic'></div></div>","null","8","Joseph","0","Kept","0.35,0.8","13","0.35","trustrating_stim/white_mw066.bmp","4","139","24"
"html-keyboard-response","208","388950","0.0-19.0-3.23","611401411bf1ede5a4d85bdc","bdp_trlrn","Wed Mar 15 2023 22:57:37 GMT-0400 (Eastern Daylight Time)","692015","Trustworthy,Untrustworthy","","null","","","","feedback","","<div class='trialDiv'><img src='trustrating_stim/white_mw066.bmp'><br><font class='baseline'><strong>Joseph</strong><p>Received: <strong>16</strong></font> &nbsp; &nbsp; &nbsp; &nbsp; &nbsp; &nbsp;<font class='negOutcome'>Shared back: <strong>0</strong></font></font><div class='respPicDiv'><img src='img/responseButtonOffersNo0_wht.png' class='respPic'></div></div>","null","8","Joseph","0","Kept","0.35,0.8","13","0.35","trustrating_stim/white_mw066.bmp","4","139","24"
"html-keyboard-response","209","389736","0.0-19.0-1.24","611401411bf1ede5a4d85bdc","bdp_trlrn","Wed Mar 15 2023 22:57:37 GMT-0400 (Eastern Daylight Time)","692015","Trustworthy,Untrustworthy","","784","","","","decision","","<div class='trialDiv'><img src='trustrating_stim/white_00577_940928_fa_edt.bmp'><br><font class='baseline'><strong>Brian</strong><p>Choose number of points to send.</font><div class='respPicDiv'><img src='img/responseButtonOffersNo0L.png' class='respPic'></div></div>","4","9","Brian","7","Shared","0.8,0.35","14","0.8","trustrating_stim/white_00577_940928_fa_edt.bmp","5.5","144","25"
"html-keyboard-response","210","389990","0.0-19.0-2.24","611401411bf1ede5a4d85bdc","bdp_trlrn","Wed Mar 15 2023 22:57:37 GMT-0400 (Eastern Daylight Time)","692015","Trustworthy,Untrustworthy","","null","","","","decisionFB","","<div class='trialDiv'><img src='trustrating_stim/white_00577_940928_fa_edt.bmp'><br><font class='baseline'><strong>Brian</strong><p>Choose number of points to send.</font><div class='respPicDiv'><img src='img/responseButtonOffersNo0L4.png' class='respPic'></div></div>","null","9","Brian","7","Shared","0.8,0.35","14","0.8","trustrating_stim/white_00577_940928_fa_edt.bmp","5.5","140","25"
"html-keyboard-response","211","391007","0.0-19.0-3.24","611401411bf1ede5a4d85bdc","bdp_trlrn","Wed Mar 15 2023 22:57:37 GMT-0400 (Eastern Daylight Time)","692015","Trustworthy,Untrustworthy","","null","","","","feedback","","<div class='trialDiv'><img src='trustrating_stim/white_00577_940928_fa_edt.bmp'><br><font class='baseline'><strong>Brian</strong><p>Received: <strong>16</strong></font> &nbsp; &nbsp; &nbsp; &nbsp; &nbsp; &nbsp;<font class='posOutcome'>Shared back: <strong>8</strong></font></font><div class='respPicDiv'><img src='img/responseButtonOffersNo0_wht.png' class='respPic'></div></div>","null","9","Brian","7","Shared","0.8,0.35","14","0.8","trustrating_stim/white_00577_940928_fa_edt.bmp","5.5","148","25"
"html-keyboard-response","212","392212","0.0-19.0-1.25","611401411bf1ede5a4d85bdc","bdp_trlrn","Wed Mar 15 2023 22:57:37 GMT-0400 (Eastern Daylight Time)","692015","Trustworthy,Untrustworthy","","1203","","","","decision","","<div class='trialDiv'><img src='trustrating_stim/white_mw060.bmp'><br><font class='baseline'><strong>Timothy</strong><p>Choose number of points to send.</font><div class='respPicDiv'><img src='img/responseButtonOffersNo0L.png' class='respPic'></div></div>","1","9","Timothy","9","Shared","0.65,0.35","14","0.65","trustrating_stim/white_mw060.bmp","7","153","26"
"html-keyboard-response","213","392489","0.0-19.0-2.25","611401411bf1ede5a4d85bdc","bdp_trlrn","Wed Mar 15 2023 22:57:37 GMT-0400 (Eastern Daylight Time)","692015","Trustworthy,Untrustworthy","","null","","","","decisionFB","","<div class='trialDiv'><img src='trustrating_stim/white_mw060.bmp'><br><font class='baseline'><strong>Timothy</strong><p>Choose number of points to send.</font><div class='respPicDiv'><img src='img/responseButtonOffersNo0L1.png' class='respPic'></div></div>","null","9","Timothy","9","Shared","0.65,0.35","14","0.65","trustrating_stim/white_mw060.bmp","7","152","26"
"html-keyboard-response","214","393507","0.0-19.0-3.25","611401411bf1ede5a4d85bdc","bdp_trlrn","Wed Mar 15 2023 22:57:37 GMT-0400 (Eastern Daylight Time)","692015","Trustworthy,Untrustworthy","","null","","","","feedback","","<div class='trialDiv'><img src='trustrating_stim/white_mw060.bmp'><br><font class='baseline'><strong>Timothy</strong><p>Received: <strong>4</strong></font> &nbsp; &nbsp; &nbsp; &nbsp; &nbsp; &nbsp;<font class='posOutcome'>Shared back: <strong>2</strong></font></font><div class='respPicDiv'><img src='img/responseButtonOffersNo0_wht.png' class='respPic'></div></div>","null","9","Timothy","9","Shared","0.65,0.35","14","0.65","trustrating_stim/white_mw060.bmp","7","154","26"
"html-keyboard-response","215","395770","0.0-19.0-1.26","611401411bf1ede5a4d85bdc","bdp_trlrn","Wed Mar 15 2023 22:57:37 GMT-0400 (Eastern Daylight Time)","692015","Trustworthy,Untrustworthy","","2261","","","","decision","","<div class='trialDiv'><img src='trustrating_stim/white_mw066.bmp'><br><font class='baseline'><strong>Joseph</strong><p>Choose number of points to send.</font><div class='respPicDiv'><img src='img/responseButtonOffersNo0L.png' class='respPic'></div></div>","3","9","Joseph","0","Shared","0.35,0.8","13","0.35","trustrating_stim/white_mw066.bmp","4","159","27"
"html-keyboard-response","216","396044","0.0-19.0-2.26","611401411bf1ede5a4d85bdc","bdp_trlrn","Wed Mar 15 2023 22:57:37 GMT-0400 (Eastern Daylight Time)","692015","Trustworthy,Untrustworthy","","null","","","","decisionFB","","<div class='trialDiv'><img src='trustrating_stim/white_mw066.bmp'><br><font class='baseline'><strong>Joseph</strong><p>Choose number of points to send.</font><div class='respPicDiv'><img src='img/responseButtonOffersNo0L3.png' class='respPic'></div></div>","null","9","Joseph","0","Shared","0.35,0.8","13","0.35","trustrating_stim/white_mw066.bmp","4","156","27"
"html-keyboard-response","217","397067","0.0-19.0-3.26","611401411bf1ede5a4d85bdc","bdp_trlrn","Wed Mar 15 2023 22:57:37 GMT-0400 (Eastern Daylight Time)","692015","Trustworthy,Untrustworthy","","null","","","","feedback","","<div class='trialDiv'><img src='trustrating_stim/white_mw066.bmp'><br><font class='baseline'><strong>Joseph</strong><p>Received: <strong>12</strong></font> &nbsp; &nbsp; &nbsp; &nbsp; &nbsp; &nbsp;<font class='posOutcome'>Shared back: <strong>6</strong></font></font><div class='respPicDiv'><img src='img/responseButtonOffersNo0_wht.png' class='respPic'></div></div>","null","9","Joseph","0","Shared","0.35,0.8","13","0.35","trustrating_stim/white_mw066.bmp","4","162","27"
"html-keyboard-response","218","398279","0.0-19.0-1.27","611401411bf1ede5a4d85bdc","bdp_trlrn","Wed Mar 15 2023 22:57:37 GMT-0400 (Eastern Daylight Time)","692015","Trustworthy,Untrustworthy","","1210","","","","decision","","<div class='trialDiv'><img src='trustrating_stim/white_mw060.bmp'><br><font class='baseline'><strong>Timothy</strong><p>Choose number of points to send.</font><div class='respPicDiv'><img src='img/responseButtonOffersNo0L.png' class='respPic'></div></div>","2","10","Timothy","9","Kept","0.65,0.35","14","0.65","trustrating_stim/white_mw060.bmp","7","167","28"
"html-keyboard-response","219","398539","0.0-19.0-2.27","611401411bf1ede5a4d85bdc","bdp_trlrn","Wed Mar 15 2023 22:57:37 GMT-0400 (Eastern Daylight Time)","692015","Trustworthy,Untrustworthy","","null","","","","decisionFB","","<div class='trialDiv'><img src='trustrating_stim/white_mw060.bmp'><br><font class='baseline'><strong>Timothy</strong><p>Choose number of points to send.</font><div class='respPicDiv'><img src='img/responseButtonOffersNo0L2.png' class='respPic'></div></div>","null","10","Timothy","9","Kept","0.65,0.35","14","0.65","trustrating_stim/white_mw060.bmp","7","165","28"
"html-keyboard-response","220","399550","0.0-19.0-3.27","611401411bf1ede5a4d85bdc","bdp_trlrn","Wed Mar 15 2023 22:57:37 GMT-0400 (Eastern Daylight Time)","692015","Trustworthy,Untrustworthy","","null","","","","feedback","","<div class='trialDiv'><img src='trustrating_stim/white_mw060.bmp'><br><font class='baseline'><strong>Timothy</strong><p>Received: <strong>8</strong></font> &nbsp; &nbsp; &nbsp; &nbsp; &nbsp; &nbsp;<font class='negOutcome'>Shared back: <strong>0</strong></font></font><div class='respPicDiv'><img src='img/responseButtonOffersNo0_wht.png' class='respPic'></div></div>","null","10","Timothy","9","Kept","0.65,0.35","14","0.65","trustrating_stim/white_mw060.bmp","7","165","28"
