"trial_type","trial_index","time_elapsed","internal_node_id","subject_id","task","startTime","totalTime","labels","event","trial","time","trialtype","numBlurs","view_history","rt","success","stimulus","key_press","aground","name","faceID","outcome","agenttype","agentswpt","agentcurrpshare","face","avgRating","point_total","round"
"pavlovia","0","3","0.0-0.0","5fee456f8929f014481adff9","bdp_trlrn","Wed Mar 15 2023 22:31:57 GMT-0400 (Eastern Daylight Time)","719532","Untrustworthy,Trustworthy","","","","","","","","","","","","","","","","","","","","",""
"","","","","5fee456f8929f014481adff9","bdp_trlrn","Wed Mar 15 2023 22:31:57 GMT-0400 (Eastern Daylight Time)","719532","Untrustworthy,Trustworthy","blur","1","2868","blurevent","1","","","","","","","","","","","","","","","",""
"","","","","5fee456f8929f014481adff9","bdp_trlrn","Wed Mar 15 2023 22:31:57 GMT-0400 (Eastern Daylight Time)","719532","Untrustworthy,Trustworthy","focus","1","4711","focusevent","","","","","","","","","","","","","","","","",""
"instructions","1","6213","0.0-1.0","5fee456f8929f014481adff9","bdp_trlrn","Wed Mar 15 2023 22:31:57 GMT-0400 (Eastern Daylight Time)","719532","Untrustworthy,Trustworthy","","","","","","[{""page_index"":0,""viewing_time"":6209}]","6209","","","","","","","","","","","","","",""
"","","","","5fee456f8929f014481adff9","bdp_trlrn","Wed Mar 15 2023 22:31:57 GMT-0400 (Eastern Daylight Time)","719532","Untrustworthy,Trustworthy","fullscreenenter","2","8411","fullscreenenter","","","","","","","","","","","","","","","","",""
"fullscreen","2","9407","0.0-2.0","5fee456f8929f014481adff9","bdp_trlrn","Wed Mar 15 2023 22:31:57 GMT-0400 (Eastern Daylight Time)","719532","Untrustworthy,Trustworthy","","","","","","","","true","","","","","","","","","","","","",""
"instructions","3","31499","0.0-4.0","5fee456f8929f014481adff9","bdp_trlrn","Wed Mar 15 2023 22:31:57 GMT-0400 (Eastern Daylight Time)","719532","Untrustworthy,Trustworthy","","","","","","[{""page_index"":0,""viewing_time"":19597},{""page_index"":1,""viewing_time"":2492}]","22089","","","","","","","","","","","","","",""
"instructions","4","32068","0.0-5.0","5fee456f8929f014481adff9","bdp_trlrn","Wed Mar 15 2023 22:31:57 GMT-0400 (Eastern Daylight Time)","719532","Untrustworthy,Trustworthy","","","","","","[{""page_index"":0,""viewing_time"":568}]","568","","","","","","","","","","","","","",""
"image-keyboard-response","5","34603","0.0-6.0-1.0","5fee456f8929f014481adff9","bdp_trlrn","Wed Mar 15 2023 22:31:57 GMT-0400 (Eastern Daylight Time)","719532","Untrustworthy,Trustworthy","","","","rating","","","2432","","trustrating_stim/white_00602_940928_fb_edt.bmp","3","","","","","","","","","","",""
"image-keyboard-response","6","34804","0.0-6.0-2.0","5fee456f8929f014481adff9","bdp_trlrn","Wed Mar 15 2023 22:31:57 GMT-0400 (Eastern Daylight Time)","719532","Untrustworthy,Trustworthy","","","","ratingFB","","","null","","trustrating_stim/white_00602_940928_fb_edt.bmp","null","","","","","","","","","","",""
"image-keyboard-response","7","36743","0.0-6.0-1.1","5fee456f8929f014481adff9","bdp_trlrn","Wed Mar 15 2023 22:31:57 GMT-0400 (Eastern Daylight Time)","719532","Untrustworthy,Trustworthy","","","","rating","","","1836","","trustrating_stim/white_mw056.bmp","1","","","","","","","","","","",""
"image-keyboard-response","8","36944","0.0-6.0-2.1","5fee456f8929f014481adff9","bdp_trlrn","Wed Mar 15 2023 22:31:57 GMT-0400 (Eastern Daylight Time)","719532","Untrustworthy,Trustworthy","","","","ratingFB","","","null","","trustrating_stim/white_mw056.bmp","null","","","","","","","","","","",""
"image-keyboard-response","9","38473","0.0-6.0-1.2","5fee456f8929f014481adff9","bdp_trlrn","Wed Mar 15 2023 22:31:57 GMT-0400 (Eastern Daylight Time)","719532","Untrustworthy,Trustworthy","","","","rating","","","1426","","trustrating_stim/white_00785_941205_fb_edt.bmp","2","","","","","","","","","","",""
"image-keyboard-response","10","38675","0.0-6.0-2.2","5fee456f8929f014481adff9","bdp_trlrn","Wed Mar 15 2023 22:31:57 GMT-0400 (Eastern Daylight Time)","719532","Untrustworthy,Trustworthy","","","","ratingFB","","","null","","trustrating_stim/white_00785_941205_fb_edt.bmp","null","","","","","","","","","","",""
"image-keyboard-response","11","41404","0.0-6.0-1.3","5fee456f8929f014481adff9","bdp_trlrn","Wed Mar 15 2023 22:31:57 GMT-0400 (Eastern Daylight Time)","719532","Untrustworthy,Trustworthy","","","","rating","","","2628","","trustrating_stim/white_mw035.bmp","5","","","","","","","","","","",""
"image-keyboard-response","12","41605","0.0-6.0-2.3","5fee456f8929f014481adff9","bdp_trlrn","Wed Mar 15 2023 22:31:57 GMT-0400 (Eastern Daylight Time)","719532","Untrustworthy,Trustworthy","","","","ratingFB","","","null","","trustrating_stim/white_mw035.bmp","null","","","","","","","","","","",""
"image-keyboard-response","13","42980","0.0-6.0-1.4","5fee456f8929f014481adff9","bdp_trlrn","Wed Mar 15 2023 22:31:57 GMT-0400 (Eastern Daylight Time)","719532","Untrustworthy,Trustworthy","","","","rating","","","1273","","trustrating_stim/white_00340_940422_fa_edt.bmp","2","","","","","","","","","","",""
"image-keyboard-response","14","43182","0.0-6.0-2.4","5fee456f8929f014481adff9","bdp_trlrn","Wed Mar 15 2023 22:31:57 GMT-0400 (Eastern Daylight Time)","719532","Untrustworthy,Trustworthy","","","","ratingFB","","","null","","trustrating_stim/white_00340_940422_fa_edt.bmp","null","","","","","","","","","","",""
"image-keyboard-response","15","44285","0.0-6.0-1.5","5fee456f8929f014481adff9","bdp_trlrn","Wed Mar 15 2023 22:31:57 GMT-0400 (Eastern Daylight Time)","719532","Untrustworthy,Trustworthy","","","","rating","","","1002","","trustrating_stim/white_mw063.bmp","2","","","","","","","","","","",""
"image-keyboard-response","16","44487","0.0-6.0-2.5","5fee456f8929f014481adff9","bdp_trlrn","Wed Mar 15 2023 22:31:57 GMT-0400 (Eastern Daylight Time)","719532","Untrustworthy,Trustworthy","","","","ratingFB","","","null","","trustrating_stim/white_mw063.bmp","null","","","","","","","","","","",""
"image-keyboard-response","17","46880","0.0-6.0-1.6","5fee456f8929f014481adff9","bdp_trlrn","Wed Mar 15 2023 22:31:57 GMT-0400 (Eastern Daylight Time)","719532","Untrustworthy,Trustworthy","","","","rating","","","2291","","trustrating_stim/white_00299_940422_fa_edt.bmp","3","","","","","","","","","","",""
"image-keyboard-response","18","47081","0.0-6.0-2.6","5fee456f8929f014481adff9","bdp_trlrn","Wed Mar 15 2023 22:31:57 GMT-0400 (Eastern Daylight Time)","719532","Untrustworthy,Trustworthy","","","","ratingFB","","","null","","trustrating_stim/white_00299_940422_fa_edt.bmp","null","","","","","","","","","","",""
"image-keyboard-response","19","48666","0.0-6.0-1.7","5fee456f8929f014481adff9","bdp_trlrn","Wed Mar 15 2023 22:31:57 GMT-0400 (Eastern Daylight Time)","719532","Untrustworthy,Trustworthy","","","","rating","","","1483","","trustrating_stim/white_00519_940519_fb_edt.bmp","1","","","","","","","","","","",""
"image-keyboard-response","20","48869","0.0-6.0-2.7","5fee456f8929f014481adff9","bdp_trlrn","Wed Mar 15 2023 22:31:57 GMT-0400 (Eastern Daylight Time)","719532","Untrustworthy,Trustworthy","","","","ratingFB","","","null","","trustrating_stim/white_00519_940519_fb_edt.bmp","null","","","","","","","","","","",""
"image-keyboard-response","21","49853","0.0-6.0-1.8","5fee456f8929f014481adff9","bdp_trlrn","Wed Mar 15 2023 22:31:57 GMT-0400 (Eastern Daylight Time)","719532","Untrustworthy,Trustworthy","","","","rating","","","882","","trustrating_stim/white_mw097.bmp","1","","","","","","","","","","",""
"image-keyboard-response","22","50054","0.0-6.0-2.8","5fee456f8929f014481adff9","bdp_trlrn","Wed Mar 15 2023 22:31:57 GMT-0400 (Eastern Daylight Time)","719532","Untrustworthy,Trustworthy","","","","ratingFB","","","null","","trustrating_stim/white_mw097.bmp","null","","","","","","","","","","",""
"image-keyboard-response","23","50924","0.0-6.0-1.9","5fee456f8929f014481adff9","bdp_trlrn","Wed Mar 15 2023 22:31:57 GMT-0400 (Eastern Daylight Time)","719532","Untrustworthy,Trustworthy","","","","rating","","","768","","trustrating_stim/white_mw060.bmp","1","","","","","","","","","","",""
"image-keyboard-response","24","51126","0.0-6.0-2.9","5fee456f8929f014481adff9","bdp_trlrn","Wed Mar 15 2023 22:31:57 GMT-0400 (Eastern Daylight Time)","719532","Untrustworthy,Trustworthy","","","","ratingFB","","","null","","trustrating_stim/white_mw060.bmp","null","","","","","","","","","","",""
"image-keyboard-response","25","52600","0.0-6.0-1.10","5fee456f8929f014481adff9","bdp_trlrn","Wed Mar 15 2023 22:31:57 GMT-0400 (Eastern Daylight Time)","719532","Untrustworthy,Trustworthy","","","","rating","","","1371","","trustrating_stim/white_mw048.bmp","1","","","","","","","","","","",""
"image-keyboard-response","26","52801","0.0-6.0-2.10","5fee456f8929f014481adff9","bdp_trlrn","Wed Mar 15 2023 22:31:57 GMT-0400 (Eastern Daylight Time)","719532","Untrustworthy,Trustworthy","","","","ratingFB","","","null","","trustrating_stim/white_mw048.bmp","null","","","","","","","","","","",""
"image-keyboard-response","27","54870","0.0-6.0-1.11","5fee456f8929f014481adff9","bdp_trlrn","Wed Mar 15 2023 22:31:57 GMT-0400 (Eastern Daylight Time)","719532","Untrustworthy,Trustworthy","","","","rating","","","1967","","trustrating_stim/white_00109_931230_fa_edt.bmp","6","","","","","","","","","","",""
"image-keyboard-response","28","55072","0.0-6.0-2.11","5fee456f8929f014481adff9","bdp_trlrn","Wed Mar 15 2023 22:31:57 GMT-0400 (Eastern Daylight Time)","719532","Untrustworthy,Trustworthy","","","","ratingFB","","","null","","trustrating_stim/white_00109_931230_fa_edt.bmp","null","","","","","","","","","","",""
"image-keyboard-response","29","56892","0.0-6.0-1.12","5fee456f8929f014481adff9","bdp_trlrn","Wed Mar 15 2023 22:31:57 GMT-0400 (Eastern Daylight Time)","719532","Untrustworthy,Trustworthy","","","","rating","","","1716","","trustrating_stim/white_mw089.bmp","5","","","","","","","","","","",""
"image-keyboard-response","30","57094","0.0-6.0-2.12","5fee456f8929f014481adff9","bdp_trlrn","Wed Mar 15 2023 22:31:57 GMT-0400 (Eastern Daylight Time)","719532","Untrustworthy,Trustworthy","","","","ratingFB","","","null","","trustrating_stim/white_mw089.bmp","null","","","","","","","","","","",""
"image-keyboard-response","31","58424","0.0-6.0-1.13","5fee456f8929f014481adff9","bdp_trlrn","Wed Mar 15 2023 22:31:57 GMT-0400 (Eastern Daylight Time)","719532","Untrustworthy,Trustworthy","","","","rating","","","1227","","trustrating_stim/white_mw099.bmp","6","","","","","","","","","","",""
"image-keyboard-response","32","58626","0.0-6.0-2.13","5fee456f8929f014481adff9","bdp_trlrn","Wed Mar 15 2023 22:31:57 GMT-0400 (Eastern Daylight Time)","719532","Untrustworthy,Trustworthy","","","","ratingFB","","","null","","trustrating_stim/white_mw099.bmp","null","","","","","","","","","","",""
"image-keyboard-response","33","60669","0.0-6.0-1.14","5fee456f8929f014481adff9","bdp_trlrn","Wed Mar 15 2023 22:31:57 GMT-0400 (Eastern Daylight Time)","719532","Untrustworthy,Trustworthy","","","","rating","","","1942","","trustrating_stim/white_00761_941201_fb_edt.bmp","6","","","","","","","","","","",""
"image-keyboard-response","34","60871","0.0-6.0-2.14","5fee456f8929f014481adff9","bdp_trlrn","Wed Mar 15 2023 22:31:57 GMT-0400 (Eastern Daylight Time)","719532","Untrustworthy,Trustworthy","","","","ratingFB","","","null","","trustrating_stim/white_00761_941201_fb_edt.bmp","null","","","","","","","","","","",""
"image-keyboard-response","35","62542","0.0-6.0-1.15","5fee456f8929f014481adff9","bdp_trlrn","Wed Mar 15 2023 22:31:57 GMT-0400 (Eastern Daylight Time)","719532","Untrustworthy,Trustworthy","","","","rating","","","1568","","trustrating_stim/white_00898_960530_fa_edt.bmp","5","","","","","","","","","","",""
"image-keyboard-response","36","62743","0.0-6.0-2.15","5fee456f8929f014481adff9","bdp_trlrn","Wed Mar 15 2023 22:31:57 GMT-0400 (Eastern Daylight Time)","719532","Untrustworthy,Trustworthy","","","","ratingFB","","","null","","trustrating_stim/white_00898_960530_fa_edt.bmp","null","","","","","","","","","","",""
"image-keyboard-response","37","77400","0.0-6.0-1.16","5fee456f8929f014481adff9","bdp_trlrn","Wed Mar 15 2023 22:31:57 GMT-0400 (Eastern Daylight Time)","719532","Untrustworthy,Trustworthy","","","","rating","","","14543","","trustrating_stim/white_00129_931230_fb_edt.bmp","5","","","","","","","","","","",""
"image-keyboard-response","38","77603","0.0-6.0-2.16","5fee456f8929f014481adff9","bdp_trlrn","Wed Mar 15 2023 22:31:57 GMT-0400 (Eastern Daylight Time)","719532","Untrustworthy,Trustworthy","","","","ratingFB","","","null","","trustrating_stim/white_00129_931230_fb_edt.bmp","null","","","","","","","","","","",""
"image-keyboard-response","39","79710","0.0-6.0-1.17","5fee456f8929f014481adff9","bdp_trlrn","Wed Mar 15 2023 22:31:57 GMT-0400 (Eastern Daylight Time)","719532","Untrustworthy,Trustworthy","","","","rating","","","2004","","trustrating_stim/white_mw033.bmp","3","","","","","","","","","","",""
"image-keyboard-response","40","79912","0.0-6.0-2.17","5fee456f8929f014481adff9","bdp_trlrn","Wed Mar 15 2023 22:31:57 GMT-0400 (Eastern Daylight Time)","719532","Untrustworthy,Trustworthy","","","","ratingFB","","","null","","trustrating_stim/white_mw033.bmp","null","","","","","","","","","","",""
"image-keyboard-response","41","83208","0.0-6.0-1.18","5fee456f8929f014481adff9","bdp_trlrn","Wed Mar 15 2023 22:31:57 GMT-0400 (Eastern Daylight Time)","719532","Untrustworthy,Trustworthy","","","","rating","","","3195","","trustrating_stim/white_00223_940128_fb_edt.bmp","7","","","","","","","","","","",""
"image-keyboard-response","42","83409","0.0-6.0-2.18","5fee456f8929f014481adff9","bdp_trlrn","Wed Mar 15 2023 22:31:57 GMT-0400 (Eastern Daylight Time)","719532","Untrustworthy,Trustworthy","","","","ratingFB","","","null","","trustrating_stim/white_00223_940128_fb_edt.bmp","null","","","","","","","","","","",""
"image-keyboard-response","43","85241","0.0-6.0-1.19","5fee456f8929f014481adff9","bdp_trlrn","Wed Mar 15 2023 22:31:57 GMT-0400 (Eastern Daylight Time)","719532","Untrustworthy,Trustworthy","","","","rating","","","1731","","trustrating_stim/white_mw053.bmp","4","","","","","","","","","","",""
"image-keyboard-response","44","85442","0.0-6.0-2.19","5fee456f8929f014481adff9","bdp_trlrn","Wed Mar 15 2023 22:31:57 GMT-0400 (Eastern Daylight Time)","719532","Untrustworthy,Trustworthy","","","","ratingFB","","","null","","trustrating_stim/white_mw053.bmp","null","","","","","","","","","","",""
"image-keyboard-response","45","87819","0.0-6.0-1.20","5fee456f8929f014481adff9","bdp_trlrn","Wed Mar 15 2023 22:31:57 GMT-0400 (Eastern Daylight Time)","719532","Untrustworthy,Trustworthy","","","","rating","","","2274","","trustrating_stim/white_mw046.bmp","2","","","","","","","","","","",""
"image-keyboard-response","46","88020","0.0-6.0-2.20","5fee456f8929f014481adff9","bdp_trlrn","Wed Mar 15 2023 22:31:57 GMT-0400 (Eastern Daylight Time)","719532","Untrustworthy,Trustworthy","","","","ratingFB","","","null","","trustrating_stim/white_mw046.bmp","null","","","","","","","","","","",""
"image-keyboard-response","47","89267","0.0-6.0-1.21","5fee456f8929f014481adff9","bdp_trlrn","Wed Mar 15 2023 22:31:57 GMT-0400 (Eastern Daylight Time)","719532","Untrustworthy,Trustworthy","","","","rating","","","1143","","trustrating_stim/white_mw084.bmp","2","","","","","","","","","","",""
"image-keyboard-response","48","89467","0.0-6.0-2.21","5fee456f8929f014481adff9","bdp_trlrn","Wed Mar 15 2023 22:31:57 GMT-0400 (Eastern Daylight Time)","719532","Untrustworthy,Trustworthy","","","","ratingFB","","","null","","trustrating_stim/white_mw084.bmp","null","","","","","","","","","","",""
"image-keyboard-response","49","90706","0.0-6.0-1.22","5fee456f8929f014481adff9","bdp_trlrn","Wed Mar 15 2023 22:31:57 GMT-0400 (Eastern Daylight Time)","719532","Untrustworthy,Trustworthy","","","","rating","","","1137","","trustrating_stim/white_00807_941205_fb_edt.bmp","1","","","","","","","","","","",""
"image-keyboard-response","50","90908","0.0-6.0-2.22","5fee456f8929f014481adff9","bdp_trlrn","Wed Mar 15 2023 22:31:57 GMT-0400 (Eastern Daylight Time)","719532","Untrustworthy,Trustworthy","","","","ratingFB","","","null","","trustrating_stim/white_00807_941205_fb_edt.bmp","null","","","","","","","","","","",""
"image-keyboard-response","51","91835","0.0-6.0-1.23","5fee456f8929f014481adff9","bdp_trlrn","Wed Mar 15 2023 22:31:57 GMT-0400 (Eastern Daylight Time)","719532","Untrustworthy,Trustworthy","","","","rating","","","823","","trustrating_stim/white_mw049.bmp","1","","","","","","","","","","",""
"image-keyboard-response","52","92037","0.0-6.0-2.23","5fee456f8929f014481adff9","bdp_trlrn","Wed Mar 15 2023 22:31:57 GMT-0400 (Eastern Daylight Time)","719532","Untrustworthy,Trustworthy","","","","ratingFB","","","null","","trustrating_stim/white_mw049.bmp","null","","","","","","","","","","",""
"image-keyboard-response","53","93873","0.0-6.0-1.24","5fee456f8929f014481adff9","bdp_trlrn","Wed Mar 15 2023 22:31:57 GMT-0400 (Eastern Daylight Time)","719532","Untrustworthy,Trustworthy","","","","rating","","","1734","","trustrating_stim/white_mw066.bmp","7","","","","","","","","","","",""
"image-keyboard-response","54","94075","0.0-6.0-2.24","5fee456f8929f014481adff9","bdp_trlrn","Wed Mar 15 2023 22:31:57 GMT-0400 (Eastern Daylight Time)","719532","Untrustworthy,Trustworthy","","","","ratingFB","","","null","","trustrating_stim/white_mw066.bmp","null","","","","","","","","","","",""
"image-keyboard-response","55","95760","0.0-6.0-1.25","5fee456f8929f014481adff9","bdp_trlrn","Wed Mar 15 2023 22:31:57 GMT-0400 (Eastern Daylight Time)","719532","Untrustworthy,Trustworthy","","","","rating","","","1583","","trustrating_stim/white_00120_931230_fa_edt.bmp","6","","","","","","","","","","",""
"image-keyboard-response","56","95961","0.0-6.0-2.25","5fee456f8929f014481adff9","bdp_trlrn","Wed Mar 15 2023 22:31:57 GMT-0400 (Eastern Daylight Time)","719532","Untrustworthy,Trustworthy","","","","ratingFB","","","null","","trustrating_stim/white_00120_931230_fa_edt.bmp","null","","","","","","","","","","",""
"image-keyboard-response","57","97363","0.0-6.0-1.26","5fee456f8929f014481adff9","bdp_trlrn","Wed Mar 15 2023 22:31:57 GMT-0400 (Eastern Daylight Time)","719532","Untrustworthy,Trustworthy","","","","rating","","","1301","","trustrating_stim/white_00659_941121_fa_edt.bmp","4","","","","","","","","","","",""
"image-keyboard-response","58","97565","0.0-6.0-2.26","5fee456f8929f014481adff9","bdp_trlrn","Wed Mar 15 2023 22:31:57 GMT-0400 (Eastern Daylight Time)","719532","Untrustworthy,Trustworthy","","","","ratingFB","","","null","","trustrating_stim/white_00659_941121_fa_edt.bmp","null","","","","","","","","","","",""
"image-keyboard-response","59","99218","0.0-6.0-1.27","5fee456f8929f014481adff9","bdp_trlrn","Wed Mar 15 2023 22:31:57 GMT-0400 (Eastern Daylight Time)","719532","Untrustworthy,Trustworthy","","","","rating","","","1551","","trustrating_stim/white_00577_940928_fa_edt.bmp","4","","","","","","","","","","",""
"image-keyboard-response","60","99421","0.0-6.0-2.27","5fee456f8929f014481adff9","bdp_trlrn","Wed Mar 15 2023 22:31:57 GMT-0400 (Eastern Daylight Time)","719532","Untrustworthy,Trustworthy","","","","ratingFB","","","null","","trustrating_stim/white_00577_940928_fa_edt.bmp","null","","","","","","","","","","",""
"image-keyboard-response","61","100589","0.0-6.0-1.28","5fee456f8929f014481adff9","bdp_trlrn","Wed Mar 15 2023 22:31:57 GMT-0400 (Eastern Daylight Time)","719532","Untrustworthy,Trustworthy","","","","rating","","","1067","","trustrating_stim/white_00757_941201_fa_edt.bmp","2","","","","","","","","","","",""
"image-keyboard-response","62","100791","0.0-6.0-2.28","5fee456f8929f014481adff9","bdp_trlrn","Wed Mar 15 2023 22:31:57 GMT-0400 (Eastern Daylight Time)","719532","Untrustworthy,Trustworthy","","","","ratingFB","","","null","","trustrating_stim/white_00757_941201_fa_edt.bmp","null","","","","","","","","","","",""
"image-keyboard-response","63","102348","0.0-6.0-1.29","5fee456f8929f014481adff9","bdp_trlrn","Wed Mar 15 2023 22:31:57 GMT-0400 (Eastern Daylight Time)","719532","Untrustworthy,Trustworthy","","","","rating","","","1454","","trustrating_stim/white_mw071.bmp","1","","","","","","","","","","",""
"image-keyboard-response","64","102550","0.0-6.0-2.29","5fee456f8929f014481adff9","bdp_trlrn","Wed Mar 15 2023 22:31:57 GMT-0400 (Eastern Daylight Time)","719532","Untrustworthy,Trustworthy","","","","ratingFB","","","null","","trustrating_stim/white_mw071.bmp","null","","","","","","","","","","",""
"image-keyboard-response","65","103571","0.0-6.0-1.30","5fee456f8929f014481adff9","bdp_trlrn","Wed Mar 15 2023 22:31:57 GMT-0400 (Eastern Daylight Time)","719532","Untrustworthy,Trustworthy","","","","rating","","","920","","trustrating_stim/white_00519_940519_fb_edt.bmp","1","","","","","","","","","","",""
"image-keyboard-response","66","103772","0.0-6.0-2.30","5fee456f8929f014481adff9","bdp_trlrn","Wed Mar 15 2023 22:31:57 GMT-0400 (Eastern Daylight Time)","719532","Untrustworthy,Trustworthy","","","","ratingFB","","","null","","trustrating_stim/white_00519_940519_fb_edt.bmp","null","","","","","","","","","","",""
"image-keyboard-response","67","104871","0.0-6.0-1.31","5fee456f8929f014481adff9","bdp_trlrn","Wed Mar 15 2023 22:31:57 GMT-0400 (Eastern Daylight Time)","719532","Untrustworthy,Trustworthy","","","","rating","","","996","","trustrating_stim/white_00785_941205_fb_edt.bmp","1","","","","","","","","","","",""
"image-keyboard-response","68","105073","0.0-6.0-2.31","5fee456f8929f014481adff9","bdp_trlrn","Wed Mar 15 2023 22:31:57 GMT-0400 (Eastern Daylight Time)","719532","Untrustworthy,Trustworthy","","","","ratingFB","","","null","","trustrating_stim/white_00785_941205_fb_edt.bmp","null","","","","","","","","","","",""
"image-keyboard-response","69","107815","0.0-6.0-1.32","5fee456f8929f014481adff9","bdp_trlrn","Wed Mar 15 2023 22:31:57 GMT-0400 (Eastern Daylight Time)","719532","Untrustworthy,Trustworthy","","","","rating","","","2633","","trustrating_stim/white_00898_960530_fa_edt.bmp","6","","","","","","","","","","",""
"image-keyboard-response","70","108017","0.0-6.0-2.32","5fee456f8929f014481adff9","bdp_trlrn","Wed Mar 15 2023 22:31:57 GMT-0400 (Eastern Daylight Time)","719532","Untrustworthy,Trustworthy","","","","ratingFB","","","null","","trustrating_stim/white_00898_960530_fa_edt.bmp","null","","","","","","","","","","",""
"image-keyboard-response","71","109893","0.0-6.0-1.33","5fee456f8929f014481adff9","bdp_trlrn","Wed Mar 15 2023 22:31:57 GMT-0400 (Eastern Daylight Time)","719532","Untrustworthy,Trustworthy","","","","rating","","","1774","","trustrating_stim/white_mw056.bmp","2","","","","","","","","","","",""
"image-keyboard-response","72","110096","0.0-6.0-2.33","5fee456f8929f014481adff9","bdp_trlrn","Wed Mar 15 2023 22:31:57 GMT-0400 (Eastern Daylight Time)","719532","Untrustworthy,Trustworthy","","","","ratingFB","","","null","","trustrating_stim/white_mw056.bmp","null","","","","","","","","","","",""
"image-keyboard-response","73","111348","0.0-6.0-1.34","5fee456f8929f014481adff9","bdp_trlrn","Wed Mar 15 2023 22:31:57 GMT-0400 (Eastern Daylight Time)","719532","Untrustworthy,Trustworthy","","","","rating","","","1150","","trustrating_stim/white_mw097.bmp","1","","","","","","","","","","",""
"image-keyboard-response","74","111549","0.0-6.0-2.34","5fee456f8929f014481adff9","bdp_trlrn","Wed Mar 15 2023 22:31:57 GMT-0400 (Eastern Daylight Time)","719532","Untrustworthy,Trustworthy","","","","ratingFB","","","null","","trustrating_stim/white_mw097.bmp","null","","","","","","","","","","",""
"image-keyboard-response","75","114855","0.0-6.0-1.35","5fee456f8929f014481adff9","bdp_trlrn","Wed Mar 15 2023 22:31:57 GMT-0400 (Eastern Daylight Time)","719532","Untrustworthy,Trustworthy","","","","rating","","","3203","","trustrating_stim/white_mw099.bmp","4","","","","","","","","","","",""
"image-keyboard-response","76","115057","0.0-6.0-2.35","5fee456f8929f014481adff9","bdp_trlrn","Wed Mar 15 2023 22:31:57 GMT-0400 (Eastern Daylight Time)","719532","Untrustworthy,Trustworthy","","","","ratingFB","","","null","","trustrating_stim/white_mw099.bmp","null","","","","","","","","","","",""
"image-keyboard-response","77","117254","0.0-6.0-1.36","5fee456f8929f014481adff9","bdp_trlrn","Wed Mar 15 2023 22:31:57 GMT-0400 (Eastern Daylight Time)","719532","Untrustworthy,Trustworthy","","","","rating","","","2095","","trustrating_stim/white_00120_931230_fa_edt.bmp","5","","","","","","","","","","",""
"image-keyboard-response","78","117455","0.0-6.0-2.36","5fee456f8929f014481adff9","bdp_trlrn","Wed Mar 15 2023 22:31:57 GMT-0400 (Eastern Daylight Time)","719532","Untrustworthy,Trustworthy","","","","ratingFB","","","null","","trustrating_stim/white_00120_931230_fa_edt.bmp","null","","","","","","","","","","",""
"image-keyboard-response","79","120182","0.0-6.0-1.37","5fee456f8929f014481adff9","bdp_trlrn","Wed Mar 15 2023 22:31:57 GMT-0400 (Eastern Daylight Time)","719532","Untrustworthy,Trustworthy","","","","rating","","","2625","","trustrating_stim/white_00223_940128_fb_edt.bmp","5","","","","","","","","","","",""
"image-keyboard-response","80","120384","0.0-6.0-2.37","5fee456f8929f014481adff9","bdp_trlrn","Wed Mar 15 2023 22:31:57 GMT-0400 (Eastern Daylight Time)","719532","Untrustworthy,Trustworthy","","","","ratingFB","","","null","","trustrating_stim/white_00223_940128_fb_edt.bmp","null","","","","","","","","","","",""
"image-keyboard-response","81","122330","0.0-6.0-1.38","5fee456f8929f014481adff9","bdp_trlrn","Wed Mar 15 2023 22:31:57 GMT-0400 (Eastern Daylight Time)","719532","Untrustworthy,Trustworthy","","","","rating","","","1841","","trustrating_stim/white_mw049.bmp","6","","","","","","","","","","",""
"image-keyboard-response","82","122532","0.0-6.0-2.38","5fee456f8929f014481adff9","bdp_trlrn","Wed Mar 15 2023 22:31:57 GMT-0400 (Eastern Daylight Time)","719532","Untrustworthy,Trustworthy","","","","ratingFB","","","null","","trustrating_stim/white_mw049.bmp","null","","","","","","","","","","",""
"image-keyboard-response","83","125163","0.0-6.0-1.39","5fee456f8929f014481adff9","bdp_trlrn","Wed Mar 15 2023 22:31:57 GMT-0400 (Eastern Daylight Time)","719532","Untrustworthy,Trustworthy","","","","rating","","","2530","","trustrating_stim/white_00577_940928_fa_edt.bmp","4","","","","","","","","","","",""
"image-keyboard-response","84","125364","0.0-6.0-2.39","5fee456f8929f014481adff9","bdp_trlrn","Wed Mar 15 2023 22:31:57 GMT-0400 (Eastern Daylight Time)","719532","Untrustworthy,Trustworthy","","","","ratingFB","","","null","","trustrating_stim/white_00577_940928_fa_edt.bmp","null","","","","","","","","","","",""
"image-keyboard-response","85","126998","0.0-6.0-1.40","5fee456f8929f014481adff9","bdp_trlrn","Wed Mar 15 2023 22:31:57 GMT-0400 (Eastern Daylight Time)","719532","Untrustworthy,Trustworthy","","","","rating","","","1531","","trustrating_stim/white_00602_940928_fb_edt.bmp","6","","","","","","","","","","",""
"image-keyboard-response","86","127200","0.0-6.0-2.40","5fee456f8929f014481adff9","bdp_trlrn","Wed Mar 15 2023 22:31:57 GMT-0400 (Eastern Daylight Time)","719532","Untrustworthy,Trustworthy","","","","ratingFB","","","null","","trustrating_stim/white_00602_940928_fb_edt.bmp","null","","","","","","","","","","",""
"image-keyboard-response","87","128766","0.0-6.0-1.41","5fee456f8929f014481adff9","bdp_trlrn","Wed Mar 15 2023 22:31:57 GMT-0400 (Eastern Daylight Time)","719532","Untrustworthy,Trustworthy","","","","rating","","","1463","","trustrating_stim/white_mw053.bmp","3","","","","","","","","","","",""
"image-keyboard-response","88","128966","0.0-6.0-2.41","5fee456f8929f014481adff9","bdp_trlrn","Wed Mar 15 2023 22:31:57 GMT-0400 (Eastern Daylight Time)","719532","Untrustworthy,Trustworthy","","","","ratingFB","","","null","","trustrating_stim/white_mw053.bmp","null","","","","","","","","","","",""
"image-keyboard-response","89","130174","0.0-6.0-1.42","5fee456f8929f014481adff9","bdp_trlrn","Wed Mar 15 2023 22:31:57 GMT-0400 (Eastern Daylight Time)","719532","Untrustworthy,Trustworthy","","","","rating","","","1103","","trustrating_stim/white_mw046.bmp","2","","","","","","","","","","",""
"image-keyboard-response","90","130375","0.0-6.0-2.42","5fee456f8929f014481adff9","bdp_trlrn","Wed Mar 15 2023 22:31:57 GMT-0400 (Eastern Daylight Time)","719532","Untrustworthy,Trustworthy","","","","ratingFB","","","null","","trustrating_stim/white_mw046.bmp","null","","","","","","","","","","",""
"image-keyboard-response","91","131593","0.0-6.0-1.43","5fee456f8929f014481adff9","bdp_trlrn","Wed Mar 15 2023 22:31:57 GMT-0400 (Eastern Daylight Time)","719532","Untrustworthy,Trustworthy","","","","rating","","","1116","","trustrating_stim/white_mw071.bmp","1","","","","","","","","","","",""
"image-keyboard-response","92","131795","0.0-6.0-2.43","5fee456f8929f014481adff9","bdp_trlrn","Wed Mar 15 2023 22:31:57 GMT-0400 (Eastern Daylight Time)","719532","Untrustworthy,Trustworthy","","","","ratingFB","","","null","","trustrating_stim/white_mw071.bmp","null","","","","","","","","","","",""
"image-keyboard-response","93","134158","0.0-6.0-1.44","5fee456f8929f014481adff9","bdp_trlrn","Wed Mar 15 2023 22:31:57 GMT-0400 (Eastern Daylight Time)","719532","Untrustworthy,Trustworthy","","","","rating","","","2261","","trustrating_stim/white_mw035.bmp","7","","","","","","","","","","",""
"image-keyboard-response","94","134363","0.0-6.0-2.44","5fee456f8929f014481adff9","bdp_trlrn","Wed Mar 15 2023 22:31:57 GMT-0400 (Eastern Daylight Time)","719532","Untrustworthy,Trustworthy","","","","ratingFB","","","null","","trustrating_stim/white_mw035.bmp","null","","","","","","","","","","",""
"image-keyboard-response","95","135770","0.0-6.0-1.45","5fee456f8929f014481adff9","bdp_trlrn","Wed Mar 15 2023 22:31:57 GMT-0400 (Eastern Daylight Time)","719532","Untrustworthy,Trustworthy","","","","rating","","","1305","","trustrating_stim/white_mw033.bmp","6","","","","","","","","","","",""
"image-keyboard-response","96","135972","0.0-6.0-2.45","5fee456f8929f014481adff9","bdp_trlrn","Wed Mar 15 2023 22:31:57 GMT-0400 (Eastern Daylight Time)","719532","Untrustworthy,Trustworthy","","","","ratingFB","","","null","","trustrating_stim/white_mw033.bmp","null","","","","","","","","","","",""
"image-keyboard-response","97","138483","0.0-6.0-1.46","5fee456f8929f014481adff9","bdp_trlrn","Wed Mar 15 2023 22:31:57 GMT-0400 (Eastern Daylight Time)","719532","Untrustworthy,Trustworthy","","","","rating","","","2409","","trustrating_stim/white_00340_940422_fa_edt.bmp","3","","","","","","","","","","",""
"image-keyboard-response","98","138684","0.0-6.0-2.46","5fee456f8929f014481adff9","bdp_trlrn","Wed Mar 15 2023 22:31:57 GMT-0400 (Eastern Daylight Time)","719532","Untrustworthy,Trustworthy","","","","ratingFB","","","null","","trustrating_stim/white_00340_940422_fa_edt.bmp","null","","","","","","","","","","",""
"image-keyboard-response","99","141363","0.0-6.0-1.47","5fee456f8929f014481adff9","bdp_trlrn","Wed Mar 15 2023 22:31:57 GMT-0400 (Eastern Daylight Time)","719532","Untrustworthy,Trustworthy","","","","rating","","","2575","","trustrating_stim/white_mw084.bmp","3","","","","","","","","","","",""
"image-keyboard-response","100","141564","0.0-6.0-2.47","5fee456f8929f014481adff9","bdp_trlrn","Wed Mar 15 2023 22:31:57 GMT-0400 (Eastern Daylight Time)","719532","Untrustworthy,Trustworthy","","","","ratingFB","","","null","","trustrating_stim/white_mw084.bmp","null","","","","","","","","","","",""
"image-keyboard-response","101","142750","0.0-6.0-1.48","5fee456f8929f014481adff9","bdp_trlrn","Wed Mar 15 2023 22:31:57 GMT-0400 (Eastern Daylight Time)","719532","Untrustworthy,Trustworthy","","","","rating","","","1084","","trustrating_stim/white_00807_941205_fb_edt.bmp","1","","","","","","","","","","",""
"image-keyboard-response","102","142951","0.0-6.0-2.48","5fee456f8929f014481adff9","bdp_trlrn","Wed Mar 15 2023 22:31:57 GMT-0400 (Eastern Daylight Time)","719532","Untrustworthy,Trustworthy","","","","ratingFB","","","null","","trustrating_stim/white_00807_941205_fb_edt.bmp","null","","","","","","","","","","",""
"image-keyboard-response","103","143849","0.0-6.0-1.49","5fee456f8929f014481adff9","bdp_trlrn","Wed Mar 15 2023 22:31:57 GMT-0400 (Eastern Daylight Time)","719532","Untrustworthy,Trustworthy","","","","rating","","","796","","trustrating_stim/white_mw060.bmp","1","","","","","","","","","","",""
"image-keyboard-response","104","144052","0.0-6.0-2.49","5fee456f8929f014481adff9","bdp_trlrn","Wed Mar 15 2023 22:31:57 GMT-0400 (Eastern Daylight Time)","719532","Untrustworthy,Trustworthy","","","","ratingFB","","","null","","trustrating_stim/white_mw060.bmp","null","","","","","","","","","","",""
"image-keyboard-response","105","145998","0.0-6.0-1.50","5fee456f8929f014481adff9","bdp_trlrn","Wed Mar 15 2023 22:31:57 GMT-0400 (Eastern Daylight Time)","719532","Untrustworthy,Trustworthy","","","","rating","","","1845","","trustrating_stim/white_00761_941201_fb_edt.bmp","6","","","","","","","","","","",""
"image-keyboard-response","106","146200","0.0-6.0-2.50","5fee456f8929f014481adff9","bdp_trlrn","Wed Mar 15 2023 22:31:57 GMT-0400 (Eastern Daylight Time)","719532","Untrustworthy,Trustworthy","","","","ratingFB","","","null","","trustrating_stim/white_00761_941201_fb_edt.bmp","null","","","","","","","","","","",""
"image-keyboard-response","107","147494","0.0-6.0-1.51","5fee456f8929f014481adff9","bdp_trlrn","Wed Mar 15 2023 22:31:57 GMT-0400 (Eastern Daylight Time)","719532","Untrustworthy,Trustworthy","","","","rating","","","1192","","trustrating_stim/white_mw066.bmp","7","","","","","","","","","","",""
"image-keyboard-response","108","147696","0.0-6.0-2.51","5fee456f8929f014481adff9","bdp_trlrn","Wed Mar 15 2023 22:31:57 GMT-0400 (Eastern Daylight Time)","719532","Untrustworthy,Trustworthy","","","","ratingFB","","","null","","trustrating_stim/white_mw066.bmp","null","","","","","","","","","","",""
"image-keyboard-response","109","149115","0.0-6.0-1.52","5fee456f8929f014481adff9","bdp_trlrn","Wed Mar 15 2023 22:31:57 GMT-0400 (Eastern Daylight Time)","719532","Untrustworthy,Trustworthy","","","","rating","","","1317","","trustrating_stim/white_mw048.bmp","2","","","","","","","","","","",""
"image-keyboard-response","110","149317","0.0-6.0-2.52","5fee456f8929f014481adff9","bdp_trlrn","Wed Mar 15 2023 22:31:57 GMT-0400 (Eastern Daylight Time)","719532","Untrustworthy,Trustworthy","","","","ratingFB","","","null","","trustrating_stim/white_mw048.bmp","null","","","","","","","","","","",""
"image-keyboard-response","111","151561","0.0-6.0-1.53","5fee456f8929f014481adff9","bdp_trlrn","Wed Mar 15 2023 22:31:57 GMT-0400 (Eastern Daylight Time)","719532","Untrustworthy,Trustworthy","","","","rating","","","2141","","trustrating_stim/white_mw089.bmp","5","","","","","","","","","","",""
"image-keyboard-response","112","151762","0.0-6.0-2.53","5fee456f8929f014481adff9","bdp_trlrn","Wed Mar 15 2023 22:31:57 GMT-0400 (Eastern Daylight Time)","719532","Untrustworthy,Trustworthy","","","","ratingFB","","","null","","trustrating_stim/white_mw089.bmp","null","","","","","","","","","","",""
"image-keyboard-response","113","152871","0.0-6.0-1.54","5fee456f8929f014481adff9","bdp_trlrn","Wed Mar 15 2023 22:31:57 GMT-0400 (Eastern Daylight Time)","719532","Untrustworthy,Trustworthy","","","","rating","","","1006","","trustrating_stim/white_mw063.bmp","3","","","","","","","","","","",""
"image-keyboard-response","114","153072","0.0-6.0-2.54","5fee456f8929f014481adff9","bdp_trlrn","Wed Mar 15 2023 22:31:57 GMT-0400 (Eastern Daylight Time)","719532","Untrustworthy,Trustworthy","","","","ratingFB","","","null","","trustrating_stim/white_mw063.bmp","null","","","","","","","","","","",""
"image-keyboard-response","115","155350","0.0-6.0-1.55","5fee456f8929f014481adff9","bdp_trlrn","Wed Mar 15 2023 22:31:57 GMT-0400 (Eastern Daylight Time)","719532","Untrustworthy,Trustworthy","","","","rating","","","2176","","trustrating_stim/white_00129_931230_fb_edt.bmp","5","","","","","","","","","","",""
"image-keyboard-response","116","155552","0.0-6.0-2.55","5fee456f8929f014481adff9","bdp_trlrn","Wed Mar 15 2023 22:31:57 GMT-0400 (Eastern Daylight Time)","719532","Untrustworthy,Trustworthy","","","","ratingFB","","","null","","trustrating_stim/white_00129_931230_fb_edt.bmp","null","","","","","","","","","","",""
"image-keyboard-response","117","158939","0.0-6.0-1.56","5fee456f8929f014481adff9","bdp_trlrn","Wed Mar 15 2023 22:31:57 GMT-0400 (Eastern Daylight Time)","719532","Untrustworthy,Trustworthy","","","","rating","","","3285","","trustrating_stim/white_00757_941201_fa_edt.bmp","4","","","","","","","","","","",""
"image-keyboard-response","118","159141","0.0-6.0-2.56","5fee456f8929f014481adff9","bdp_trlrn","Wed Mar 15 2023 22:31:57 GMT-0400 (Eastern Daylight Time)","719532","Untrustworthy,Trustworthy","","","","ratingFB","","","null","","trustrating_stim/white_00757_941201_fa_edt.bmp","null","","","","","","","","","","",""
"image-keyboard-response","119","161851","0.0-6.0-1.57","5fee456f8929f014481adff9","bdp_trlrn","Wed Mar 15 2023 22:31:57 GMT-0400 (Eastern Daylight Time)","719532","Untrustworthy,Trustworthy","","","","rating","","","2608","","trustrating_stim/white_00109_931230_fa_edt.bmp","6","","","","","","","","","","",""
"image-keyboard-response","120","162053","0.0-6.0-2.57","5fee456f8929f014481adff9","bdp_trlrn","Wed Mar 15 2023 22:31:57 GMT-0400 (Eastern Daylight Time)","719532","Untrustworthy,Trustworthy","","","","ratingFB","","","null","","trustrating_stim/white_00109_931230_fa_edt.bmp","null","","","","","","","","","","",""
"image-keyboard-response","121","163762","0.0-6.0-1.58","5fee456f8929f014481adff9","bdp_trlrn","Wed Mar 15 2023 22:31:57 GMT-0400 (Eastern Daylight Time)","719532","Untrustworthy,Trustworthy","","","","rating","","","1606","","trustrating_stim/white_00299_940422_fa_edt.bmp","5","","","","","","","","","","",""
"image-keyboard-response","122","163962","0.0-6.0-2.58","5fee456f8929f014481adff9","bdp_trlrn","Wed Mar 15 2023 22:31:57 GMT-0400 (Eastern Daylight Time)","719532","Untrustworthy,Trustworthy","","","","ratingFB","","","null","","trustrating_stim/white_00299_940422_fa_edt.bmp","null","","","","","","","","","","",""
"image-keyboard-response","123","166689","0.0-6.0-1.59","5fee456f8929f014481adff9","bdp_trlrn","Wed Mar 15 2023 22:31:57 GMT-0400 (Eastern Daylight Time)","719532","Untrustworthy,Trustworthy","","","","rating","","","2624","","trustrating_stim/white_00659_941121_fa_edt.bmp","3","","","","","","","","","","",""
"image-keyboard-response","124","166890","0.0-6.0-2.59","5fee456f8929f014481adff9","bdp_trlrn","Wed Mar 15 2023 22:31:57 GMT-0400 (Eastern Daylight Time)","719532","Untrustworthy,Trustworthy","","","","ratingFB","","","null","","trustrating_stim/white_00659_941121_fa_edt.bmp","null","","","","","","","","","","",""
"instructions","125","168561","0.0-7.0","5fee456f8929f014481adff9","bdp_trlrn","Wed Mar 15 2023 22:31:57 GMT-0400 (Eastern Daylight Time)","719532","Untrustworthy,Trustworthy","","","","","","[{""page_index"":0,""viewing_time"":1568}]","1568","","","","","","","","","","","","","",""
"instructions","126","235068","0.0-8.0","5fee456f8929f014481adff9","bdp_trlrn","Wed Mar 15 2023 22:31:57 GMT-0400 (Eastern Daylight Time)","719532","Untrustworthy,Trustworthy","","","","","","[{""page_index"":0,""viewing_time"":22245},{""page_index"":1,""viewing_time"":14269},{""page_index"":2,""viewing_time"":4256},{""page_index"":3,""viewing_time"":3973},{""page_index"":4,""viewing_time"":4765},{""page_index"":5,""viewing_time"":6686},{""page_index"":6,""viewing_time"":9650},{""page_index"":7,""viewing_time"":561}]","66406","","","","","","","","","","","","","",""
"html-keyboard-response","127","239773","0.0-9.0","5fee456f8929f014481adff9","bdp_trlrn","Wed Mar 15 2023 22:31:57 GMT-0400 (Eastern Daylight Time)","719532","Untrustworthy,Trustworthy","","","","","","","4705","","<div class='header' style='text-align:left; position: absolute; top: 5%; left: 5%;'><small>Task 3 of 5</small></div><div class='instruxDiv'><p><strong>1) What is the minimum number of points you can choose to send to your partner?</strong></p><p>a) 0</p><p>b) 1</p><p>c) 5</p>","C","","","","","","","","","","",""
"html-keyboard-response","128","242848","0.0-10.0","5fee456f8929f014481adff9","bdp_trlrn","Wed Mar 15 2023 22:31:57 GMT-0400 (Eastern Daylight Time)","719532","Untrustworthy,Trustworthy","","","","","","","2973","","<div class='header' style='text-align:left; position: absolute; top: 5%; left: 5%;'><small>Task 3 of 5</small></div><div class='instruxDiv'><p><strong>1) What is the minimum number of points you can choose to send to your partner?</strong></p><p>a) 1</p><p>b) 1</p><p style='color:#FF0000'>c) 5</p><h3 style='color:#FF0000'>Incorrect!</h3><h3 class='center-content'>The correct response is b).</h3><h3 class='center-content'>The minimum number of points you can choose to send to your partner is 1 point.</h3><p><em>Press SPACEBAR to continue</em></p></div>"," ","","","","","","","","","","",""
"html-keyboard-response","129","245758","0.0-11.0","5fee456f8929f014481adff9","bdp_trlrn","Wed Mar 15 2023 22:31:57 GMT-0400 (Eastern Daylight Time)","719532","Untrustworthy,Trustworthy","","","","","","","2808","","<div class='header' style='text-align:left; position: absolute; top: 5%; left: 5%;'><small>Task 3 of 5</small></div><div class='instruxDiv'><p><strong>2) What is the maximum number of points you can choose to send to your partner?</strong></p><p>a) 8</p><p>b) 5</p><p>c) 3</p>","B","","","","","","","","","","",""
"html-keyboard-response","130","246514","0.0-12.0","5fee456f8929f014481adff9","bdp_trlrn","Wed Mar 15 2023 22:31:57 GMT-0400 (Eastern Daylight Time)","719532","Untrustworthy,Trustworthy","","","","","","","653","","<div class='header' style='text-align:left; position: absolute; top: 5%; left: 5%;'><small>Task 3 of 5</small></div><div class='instruxDiv'><p><strong>2) What is the maximum number of points you can choose to send to your partner?</strong></p><p>a) 8</p><p style='color:#00FF00'>b) 5</p><p>c) 3</p><h3 style='color:#00FF00'>Correct!</h3><h3 class='center-content'>The correct response is b).</h3><h3 class='center-content'>The maximum number of points you can choose to send to your partner is 5 points.</h3><p><em>Press SPACEBAR to continue</em></p></div>"," ","","","","","","","","","","",""
"html-keyboard-response","131","248819","0.0-13.0","5fee456f8929f014481adff9","bdp_trlrn","Wed Mar 15 2023 22:31:57 GMT-0400 (Eastern Daylight Time)","719532","Untrustworthy,Trustworthy","","","","","","","2203","","<div class='header' style='text-align:left; position: absolute; top: 5%; left: 5%;'><small>Task 3 of 5</small></div><div class='instruxDiv'><p><strong>3) What happens to the amount of points you send to your partner?</strong></p><p>a) Nothing</p><p>b) It doubles</p><p>c) It quadruples</p>","C","","","","","","","","","","",""
"html-keyboard-response","132","249269","0.0-14.0","5fee456f8929f014481adff9","bdp_trlrn","Wed Mar 15 2023 22:31:57 GMT-0400 (Eastern Daylight Time)","719532","Untrustworthy,Trustworthy","","","","","","","349","","<div class='header' style='text-align:left; position: absolute; top: 5%; left: 5%;'><small>Task 3 of 5</small></div><div class='instruxDiv'><p><strong>3) What happens to the amount of points you send to your partner?</strong></p><p>a) Nothing</p><p>b) It doubles</p><p style='color:#00FF00'>c) It quadruples</p><h3 style='color:#00FF00'>Correct!</h3><h3 class='center-content'>The correct response is c).</h3><h3 class='center-content'>The amount of points you send to your partner quadruples.</h3><p><em>Press SPACEBAR to continue</em></p></div>"," ","","","","","","","","","","",""
"html-keyboard-response","133","270608","0.0-15.0","5fee456f8929f014481adff9","bdp_trlrn","Wed Mar 15 2023 22:31:57 GMT-0400 (Eastern Daylight Time)","719532","Untrustworthy,Trustworthy","","","","","","","21238","","<div class='header' style='text-align:left; position: absolute; top: 5%; left: 5%;'><small>Task 3 of 5</small></div><div class='instruxDiv'><p><strong>4) If you decided to share 4 out of 5 points with your partner, and they decided to share half of the amount they received with you, how many points would you receive back from them on this round?</strong></p><p>a) 16</p><p>b) 0</p><p>c) 8</p>","C","","","","","","","","","","",""
"html-keyboard-response","134","271814","0.0-16.0","5fee456f8929f014481adff9","bdp_trlrn","Wed Mar 15 2023 22:31:57 GMT-0400 (Eastern Daylight Time)","719532","Untrustworthy,Trustworthy","","","","","","","1104","","<div class='header' style='text-align:left; position: absolute; top: 5%; left: 5%;'><small>Task 3 of 5</small></div><div class='instruxDiv'><p><strong>4) If you decided to share 4 out of 5 points with your partner, and they decided to share half of the amount they received with you, how many points would you receive back from them on this round?</strong></p><p>a) 16</p><p>b) 0</p><p style='color:#00FF00'>c) 8</p><h3 style='color:#00FF00'>Correct!</h3><h3 class='center-content'>The correct response is c).</h3><h3 class='center-content'>If you shared 4 out of 5 points with your partner and they decided to share half of the amount they received with you, you would receive 8 points back (i.e. (4 x 4)/2 = 8).</h3><p><em>Press SPACEBAR to continue</em></p></div>"," ","","","","","","","","","","",""
"html-keyboard-response","135","276918","0.0-17.0","5fee456f8929f014481adff9","bdp_trlrn","Wed Mar 15 2023 22:31:57 GMT-0400 (Eastern Daylight Time)","719532","Untrustworthy,Trustworthy","","","","","","","null","","<div class='header' style='text-align:left; position: absolute; top: 5%; left: 5%;'><small>Task 3 of 5</small></div><div class='instruxDiv'><p>Thank you for completing the quiz<p>These are the actual partners you will be interacting with in the next block:<p><div class='tc' align='center'><img class='introPic' src='trustrating_stim/white_mw097.bmp'><br><strong>Gavin</strong></div><div class='bl' align='center'><img class='introPic' src='trustrating_stim/white_mw053.bmp'><br><strong>Marcus</strong></div><div class='br' align='center'><img class='introPic' src='trustrating_stim/white_00223_940128_fb_edt.bmp'><br><strong>Sebastian</strong></div></div><p>Across <strong>66 rounds</strong> you will interact with each partner <strong>22 times</strong> (in random order).<p style='align:center; color:white'><font <em>Press SPACEBAR to continue</em></p>","null","","","","","","","","","","",""
"instructions","136","285036","0.0-18.0","5fee456f8929f014481adff9","bdp_trlrn","Wed Mar 15 2023 22:31:57 GMT-0400 (Eastern Daylight Time)","719532","Untrustworthy,Trustworthy","","","","","","[{""page_index"":0,""viewing_time"":649},{""page_index"":1,""viewing_time"":7469}]","8118","","","","","","","","","","","","","",""
"html-keyboard-response","137","292652","0.0-19.0-1.0","5fee456f8929f014481adff9","bdp_trlrn","Wed Mar 15 2023 22:31:57 GMT-0400 (Eastern Daylight Time)","719532","Untrustworthy,Trustworthy","","","","decision","","","7514","","<div class='trialDiv'><img src='trustrating_stim/white_mw053.bmp'><br><font class='baseline'><strong>Marcus</strong><p>Choose number of points to send.</font><div class='respPicDiv'><img src='img/responseButtonOffersNo0L.png' class='respPic'></div></div>","4","1","Marcus","4","Shared","0.65,0.2","8","0.65","trustrating_stim/white_mw053.bmp","3.5","5","1"
"html-keyboard-response","138","292904","0.0-19.0-2.0","5fee456f8929f014481adff9","bdp_trlrn","Wed Mar 15 2023 22:31:57 GMT-0400 (Eastern Daylight Time)","719532","Untrustworthy,Trustworthy","","","","decisionFB","","","null","","<div class='trialDiv'><img src='trustrating_stim/white_mw053.bmp'><br><font class='baseline'><strong>Marcus</strong><p>Choose number of points to send.</font><div class='respPicDiv'><img src='img/responseButtonOffersNo0L4.png' class='respPic'></div></div>","null","1","Marcus","4","Shared","0.65,0.2","8","0.65","trustrating_stim/white_mw053.bmp","3.5","1","1"
"html-keyboard-response","139","293907","0.0-19.0-3.0","5fee456f8929f014481adff9","bdp_trlrn","Wed Mar 15 2023 22:31:57 GMT-0400 (Eastern Daylight Time)","719532","Untrustworthy,Trustworthy","","","","feedback","","","null","","<div class='trialDiv'><img src='trustrating_stim/white_mw053.bmp'><br><font class='baseline'><strong>Marcus</strong><p>Received: <strong>16</strong></font> &nbsp; &nbsp; &nbsp; &nbsp; &nbsp; &nbsp;<font class='posOutcome'>Shared back: <strong>8</strong></font></font><div class='respPicDiv'><img src='img/responseButtonOffersNo0_wht.png' class='respPic'></div></div>","null","1","Marcus","4","Shared","0.65,0.2","8","0.65","trustrating_stim/white_mw053.bmp","3.5","9","1"
"html-keyboard-response","140","298551","0.0-19.0-1.1","5fee456f8929f014481adff9","bdp_trlrn","Wed Mar 15 2023 22:31:57 GMT-0400 (Eastern Daylight Time)","719532","Untrustworthy,Trustworthy","","","","decision","","","4642","","<div class='trialDiv'><img src='trustrating_stim/white_00223_940128_fb_edt.bmp'><br><font class='baseline'><strong>Sebastian</strong><p>Choose number of points to send.</font><div class='respPicDiv'><img src='img/responseButtonOffersNo0L.png' class='respPic'></div></div>","2","1","Sebastian","9","Shared","0.35,0.65","8","0.35","trustrating_stim/white_00223_940128_fb_edt.bmp","6","14","2"
"html-keyboard-response","141","298802","0.0-19.0-2.1","5fee456f8929f014481adff9","bdp_trlrn","Wed Mar 15 2023 22:31:57 GMT-0400 (Eastern Daylight Time)","719532","Untrustworthy,Trustworthy","","","","decisionFB","","","null","","<div class='trialDiv'><img src='trustrating_stim/white_00223_940128_fb_edt.bmp'><br><font class='baseline'><strong>Sebastian</strong><p>Choose number of points to send.</font><div class='respPicDiv'><img src='img/responseButtonOffersNo0L2.png' class='respPic'></div></div>","null","1","Sebastian","9","Shared","0.35,0.65","8","0.35","trustrating_stim/white_00223_940128_fb_edt.bmp","6","12","2"
"html-keyboard-response","142","299805","0.0-19.0-3.1","5fee456f8929f014481adff9","bdp_trlrn","Wed Mar 15 2023 22:31:57 GMT-0400 (Eastern Daylight Time)","719532","Untrustworthy,Trustworthy","","","","feedback","","","null","","<div class='trialDiv'><img src='trustrating_stim/white_00223_940128_fb_edt.bmp'><br><font class='baseline'><strong>Sebastian</strong><p>Received: <strong>8</strong></font> &nbsp; &nbsp; &nbsp; &nbsp; &nbsp; &nbsp;<font class='posOutcome'>Shared back: <strong>4</strong></font></font><div class='respPicDiv'><img src='img/responseButtonOffersNo0_wht.png' class='respPic'></div></div>","null","1","Sebastian","9","Shared","0.35,0.65","8","0.35","trustrating_stim/white_00223_940128_fb_edt.bmp","6","16","2"
"html-keyboard-response","143","302033","0.0-19.0-1.2","5fee456f8929f014481adff9","bdp_trlrn","Wed Mar 15 2023 22:31:57 GMT-0400 (Eastern Daylight Time)","719532","Untrustworthy,Trustworthy","","","","decision","","","2228","","<div class='trialDiv'><img src='trustrating_stim/white_mw097.bmp'><br><font class='baseline'><strong>Gavin</strong><p>Choose number of points to send.</font><div class='respPicDiv'><img src='img/responseButtonOffersNo0L.png' class='respPic'></div></div>","1","1","Gavin","3","Kept","0.35,0.8","8","0.35","trustrating_stim/white_mw097.bmp","1","21","3"
"html-keyboard-response","144","302285","0.0-19.0-2.2","5fee456f8929f014481adff9","bdp_trlrn","Wed Mar 15 2023 22:31:57 GMT-0400 (Eastern Daylight Time)","719532","Untrustworthy,Trustworthy","","","","decisionFB","","","null","","<div class='trialDiv'><img src='trustrating_stim/white_mw097.bmp'><br><font class='baseline'><strong>Gavin</strong><p>Choose number of points to send.</font><div class='respPicDiv'><img src='img/responseButtonOffersNo0L1.png' class='respPic'></div></div>","null","1","Gavin","3","Kept","0.35,0.8","8","0.35","trustrating_stim/white_mw097.bmp","1","20","3"
"html-keyboard-response","145","303287","0.0-19.0-3.2","5fee456f8929f014481adff9","bdp_trlrn","Wed Mar 15 2023 22:31:57 GMT-0400 (Eastern Daylight Time)","719532","Untrustworthy,Trustworthy","","","","feedback","","","null","","<div class='trialDiv'><img src='trustrating_stim/white_mw097.bmp'><br><font class='baseline'><strong>Gavin</strong><p>Received: <strong>4</strong></font> &nbsp; &nbsp; &nbsp; &nbsp; &nbsp; &nbsp;<font class='negOutcome'>Shared back: <strong>0</strong></font></font><div class='respPicDiv'><img src='img/responseButtonOffersNo0_wht.png' class='respPic'></div></div>","null","1","Gavin","3","Kept","0.35,0.8","8","0.35","trustrating_stim/white_mw097.bmp","1","20","3"
"html-keyboard-response","146","307108","0.0-19.0-1.3","5fee456f8929f014481adff9","bdp_trlrn","Wed Mar 15 2023 22:31:57 GMT-0400 (Eastern Daylight Time)","719532","Untrustworthy,Trustworthy","","","","decision","","","3820","","<div class='trialDiv'><img src='trustrating_stim/white_00223_940128_fb_edt.bmp'><br><font class='baseline'><strong>Sebastian</strong><p>Choose number of points to send.</font><div class='respPicDiv'><img src='img/responseButtonOffersNo0L.png' class='respPic'></div></div>","5","2","Sebastian","9","Kept","0.35,0.65","8","0.35","trustrating_stim/white_00223_940128_fb_edt.bmp","6","25","4"
"html-keyboard-response","147","307375","0.0-19.0-2.3","5fee456f8929f014481adff9","bdp_trlrn","Wed Mar 15 2023 22:31:57 GMT-0400 (Eastern Daylight Time)","719532","Untrustworthy,Trustworthy","","","","decisionFB","","","null","","<div class='trialDiv'><img src='trustrating_stim/white_00223_940128_fb_edt.bmp'><br><font class='baseline'><strong>Sebastian</strong><p>Choose number of points to send.</font><div class='respPicDiv'><img src='img/responseButtonOffersNo0L5.png' class='respPic'></div></div>","null","2","Sebastian","9","Kept","0.35,0.65","8","0.35","trustrating_stim/white_00223_940128_fb_edt.bmp","6","20","4"
"html-keyboard-response","148","308377","0.0-19.0-3.3","5fee456f8929f014481adff9","bdp_trlrn","Wed Mar 15 2023 22:31:57 GMT-0400 (Eastern Daylight Time)","719532","Untrustworthy,Trustworthy","","","","feedback","","","null","","<div class='trialDiv'><img src='trustrating_stim/white_00223_940128_fb_edt.bmp'><br><font class='baseline'><strong>Sebastian</strong><p>Received: <strong>20</strong></font> &nbsp; &nbsp; &nbsp; &nbsp; &nbsp; &nbsp;<font class='negOutcome'>Shared back: <strong>0</strong></font></font><div class='respPicDiv'><img src='img/responseButtonOffersNo0_wht.png' class='respPic'></div></div>","null","2","Sebastian","9","Kept","0.35,0.65","8","0.35","trustrating_stim/white_00223_940128_fb_edt.bmp","6","20","4"
"html-keyboard-response","149","308616","0.0-19.0-1.4","5fee456f8929f014481adff9","bdp_trlrn","Wed Mar 15 2023 22:31:57 GMT-0400 (Eastern Daylight Time)","719532","Untrustworthy,Trustworthy","","","","decision","","","238","","<div class='trialDiv'><img src='trustrating_stim/white_mw097.bmp'><br><font class='baseline'><strong>Gavin</strong><p>Choose number of points to send.</font><div class='respPicDiv'><img src='img/responseButtonOffersNo0L.png' class='respPic'></div></div>","5","2","Gavin","3","Shared","0.35,0.8","8","0.35","trustrating_stim/white_mw097.bmp","1","25","5"
"html-keyboard-response","150","308867","0.0-19.0-2.4","5fee456f8929f014481adff9","bdp_trlrn","Wed Mar 15 2023 22:31:57 GMT-0400 (Eastern Daylight Time)","719532","Untrustworthy,Trustworthy","","","","decisionFB","","","null","","<div class='trialDiv'><img src='trustrating_stim/white_mw097.bmp'><br><font class='baseline'><strong>Gavin</strong><p>Choose number of points to send.</font><div class='respPicDiv'><img src='img/responseButtonOffersNo0L5.png' class='respPic'></div></div>","null","2","Gavin","3","Shared","0.35,0.8","8","0.35","trustrating_stim/white_mw097.bmp","1","20","5"
"html-keyboard-response","151","309870","0.0-19.0-3.4","5fee456f8929f014481adff9","bdp_trlrn","Wed Mar 15 2023 22:31:57 GMT-0400 (Eastern Daylight Time)","719532","Untrustworthy,Trustworthy","","","","feedback","","","null","","<div class='trialDiv'><img src='trustrating_stim/white_mw097.bmp'><br><font class='baseline'><strong>Gavin</strong><p>Received: <strong>20</strong></font> &nbsp; &nbsp; &nbsp; &nbsp; &nbsp; &nbsp;<font class='posOutcome'>Shared back: <strong>10</strong></font></font><div class='respPicDiv'><img src='img/responseButtonOffersNo0_wht.png' class='respPic'></div></div>","null","2","Gavin","3","Shared","0.35,0.8","8","0.35","trustrating_stim/white_mw097.bmp","1","30","5"
"html-keyboard-response","152","310344","0.0-19.0-1.5","5fee456f8929f014481adff9","bdp_trlrn","Wed Mar 15 2023 22:31:57 GMT-0400 (Eastern Daylight Time)","719532","Untrustworthy,Trustworthy","","","","decision","","","473","","<div class='trialDiv'><img src='trustrating_stim/white_mw053.bmp'><br><font class='baseline'><strong>Marcus</strong><p>Choose number of points to send.</font><div class='respPicDiv'><img src='img/responseButtonOffersNo0L.png' class='respPic'></div></div>","5","2","Marcus","4","Shared","0.65,0.2","8","0.65","trustrating_stim/white_mw053.bmp","3.5","35","6"
"html-keyboard-response","153","310595","0.0-19.0-2.5","5fee456f8929f014481adff9","bdp_trlrn","Wed Mar 15 2023 22:31:57 GMT-0400 (Eastern Daylight Time)","719532","Untrustworthy,Trustworthy","","","","decisionFB","","","null","","<div class='trialDiv'><img src='trustrating_stim/white_mw053.bmp'><br><font class='baseline'><strong>Marcus</strong><p>Choose number of points to send.</font><div class='respPicDiv'><img src='img/responseButtonOffersNo0L5.png' class='respPic'></div></div>","null","2","Marcus","4","Shared","0.65,0.2","8","0.65","trustrating_stim/white_mw053.bmp","3.5","30","6"
"html-keyboard-response","154","311597","0.0-19.0-3.5","5fee456f8929f014481adff9","bdp_trlrn","Wed Mar 15 2023 22:31:57 GMT-0400 (Eastern Daylight Time)","719532","Untrustworthy,Trustworthy","","","","feedback","","","null","","<div class='trialDiv'><img src='trustrating_stim/white_mw053.bmp'><br><font class='baseline'><strong>Marcus</strong><p>Received: <strong>20</strong></font> &nbsp; &nbsp; &nbsp; &nbsp; &nbsp; &nbsp;<font class='posOutcome'>Shared back: <strong>10</strong></font></font><div class='respPicDiv'><img src='img/responseButtonOffersNo0_wht.png' class='respPic'></div></div>","null","2","Marcus","4","Shared","0.65,0.2","8","0.65","trustrating_stim/white_mw053.bmp","3.5","40","6"
"html-keyboard-response","155","311662","0.0-19.0-1.6","5fee456f8929f014481adff9","bdp_trlrn","Wed Mar 15 2023 22:31:57 GMT-0400 (Eastern Daylight Time)","719532","Untrustworthy,Trustworthy","","","","decision","","","64","","<div class='trialDiv'><img src='trustrating_stim/white_00223_940128_fb_edt.bmp'><br><font class='baseline'><strong>Sebastian</strong><p>Choose number of points to send.</font><div class='respPicDiv'><img src='img/responseButtonOffersNo0L.png' class='respPic'></div></div>","5","3","Sebastian","9","Shared","0.35,0.65","8","0.35","trustrating_stim/white_00223_940128_fb_edt.bmp","6","45","7"
"html-keyboard-response","156","311914","0.0-19.0-2.6","5fee456f8929f014481adff9","bdp_trlrn","Wed Mar 15 2023 22:31:57 GMT-0400 (Eastern Daylight Time)","719532","Untrustworthy,Trustworthy","","","","decisionFB","","","null","","<div class='trialDiv'><img src='trustrating_stim/white_00223_940128_fb_edt.bmp'><br><font class='baseline'><strong>Sebastian</strong><p>Choose number of points to send.</font><div class='respPicDiv'><img src='img/responseButtonOffersNo0L5.png' class='respPic'></div></div>","null","3","Sebastian","9","Shared","0.35,0.65","8","0.35","trustrating_stim/white_00223_940128_fb_edt.bmp","6","40","7"
"html-keyboard-response","157","312916","0.0-19.0-3.6","5fee456f8929f014481adff9","bdp_trlrn","Wed Mar 15 2023 22:31:57 GMT-0400 (Eastern Daylight Time)","719532","Untrustworthy,Trustworthy","","","","feedback","","","null","","<div class='trialDiv'><img src='trustrating_stim/white_00223_940128_fb_edt.bmp'><br><font class='baseline'><strong>Sebastian</strong><p>Received: <strong>20</strong></font> &nbsp; &nbsp; &nbsp; &nbsp; &nbsp; &nbsp;<font class='posOutcome'>Shared back: <strong>10</strong></font></font><div class='respPicDiv'><img src='img/responseButtonOffersNo0_wht.png' class='respPic'></div></div>","null","3","Sebastian","9","Shared","0.35,0.65","8","0.35","trustrating_stim/white_00223_940128_fb_edt.bmp","6","50","7"
"html-keyboard-response","158","312975","0.0-19.0-1.7","5fee456f8929f014481adff9","bdp_trlrn","Wed Mar 15 2023 22:31:57 GMT-0400 (Eastern Daylight Time)","719532","Untrustworthy,Trustworthy","","","","decision","","","58","","<div class='trialDiv'><img src='trustrating_stim/white_mw097.bmp'><br><font class='baseline'><strong>Gavin</strong><p>Choose number of points to send.</font><div class='respPicDiv'><img src='img/responseButtonOffersNo0L.png' class='respPic'></div></div>","5","3","Gavin","3","Shared","0.35,0.8","8","0.35","trustrating_stim/white_mw097.bmp","1","55","8"
"html-keyboard-response","159","313227","0.0-19.0-2.7","5fee456f8929f014481adff9","bdp_trlrn","Wed Mar 15 2023 22:31:57 GMT-0400 (Eastern Daylight Time)","719532","Untrustworthy,Trustworthy","","","","decisionFB","","","null","","<div class='trialDiv'><img src='trustrating_stim/white_mw097.bmp'><br><font class='baseline'><strong>Gavin</strong><p>Choose number of points to send.</font><div class='respPicDiv'><img src='img/responseButtonOffersNo0L5.png' class='respPic'></div></div>","null","3","Gavin","3","Shared","0.35,0.8","8","0.35","trustrating_stim/white_mw097.bmp","1","50","8"
"html-keyboard-response","160","314229","0.0-19.0-3.7","5fee456f8929f014481adff9","bdp_trlrn","Wed Mar 15 2023 22:31:57 GMT-0400 (Eastern Daylight Time)","719532","Untrustworthy,Trustworthy","","","","feedback","","","null","","<div class='trialDiv'><img src='trustrating_stim/white_mw097.bmp'><br><font class='baseline'><strong>Gavin</strong><p>Received: <strong>20</strong></font> &nbsp; &nbsp; &nbsp; &nbsp; &nbsp; &nbsp;<font class='posOutcome'>Shared back: <strong>10</strong></font></font><div class='respPicDiv'><img src='img/responseButtonOffersNo0_wht.png' class='respPic'></div></div>","null","3","Gavin","3","Shared","0.35,0.8","8","0.35","trustrating_stim/white_mw097.bmp","1","60","8"
"html-keyboard-response","161","314317","0.0-19.0-1.8","5fee456f8929f014481adff9","bdp_trlrn","Wed Mar 15 2023 22:31:57 GMT-0400 (Eastern Daylight Time)","719532","Untrustworthy,Trustworthy","","","","decision","","","87","","<div class='trialDiv'><img src='trustrating_stim/white_mw053.bmp'><br><font class='baseline'><strong>Marcus</strong><p>Choose number of points to send.</font><div class='respPicDiv'><img src='img/responseButtonOffersNo0L.png' class='respPic'></div></div>","5","3","Marcus","4","Shared","0.65,0.2","8","0.65","trustrating_stim/white_mw053.bmp","3.5","65","9"
"html-keyboard-response","162","314569","0.0-19.0-2.8","5fee456f8929f014481adff9","bdp_trlrn","Wed Mar 15 2023 22:31:57 GMT-0400 (Eastern Daylight Time)","719532","Untrustworthy,Trustworthy","","","","decisionFB","","","null","","<div class='trialDiv'><img src='trustrating_stim/white_mw053.bmp'><br><font class='baseline'><strong>Marcus</strong><p>Choose number of points to send.</font><div class='respPicDiv'><img src='img/responseButtonOffersNo0L5.png' class='respPic'></div></div>","null","3","Marcus","4","Shared","0.65,0.2","8","0.65","trustrating_stim/white_mw053.bmp","3.5","60","9"
"html-keyboard-response","163","315571","0.0-19.0-3.8","5fee456f8929f014481adff9","bdp_trlrn","Wed Mar 15 2023 22:31:57 GMT-0400 (Eastern Daylight Time)","719532","Untrustworthy,Trustworthy","","","","feedback","","","null","","<div class='trialDiv'><img src='trustrating_stim/white_mw053.bmp'><br><font class='baseline'><strong>Marcus</strong><p>Received: <strong>20</strong></font> &nbsp; &nbsp; &nbsp; &nbsp; &nbsp; &nbsp;<font class='posOutcome'>Shared back: <strong>10</strong></font></font><div class='respPicDiv'><img src='img/responseButtonOffersNo0_wht.png' class='respPic'></div></div>","null","3","Marcus","4","Shared","0.65,0.2","8","0.65","trustrating_stim/white_mw053.bmp","3.5","70","9"
"html-keyboard-response","164","316061","0.0-19.0-1.9","5fee456f8929f014481adff9","bdp_trlrn","Wed Mar 15 2023 22:31:57 GMT-0400 (Eastern Daylight Time)","719532","Untrustworthy,Trustworthy","","","","decision","","","489","","<div class='trialDiv'><img src='trustrating_stim/white_mw097.bmp'><br><font class='baseline'><strong>Gavin</strong><p>Choose number of points to send.</font><div class='respPicDiv'><img src='img/responseButtonOffersNo0L.png' class='respPic'></div></div>","5","4","Gavin","3","Kept","0.35,0.8","8","0.35","trustrating_stim/white_mw097.bmp","1","75","10"
"html-keyboard-response","165","316313","0.0-19.0-2.9","5fee456f8929f014481adff9","bdp_trlrn","Wed Mar 15 2023 22:31:57 GMT-0400 (Eastern Daylight Time)","719532","Untrustworthy,Trustworthy","","","","decisionFB","","","null","","<div class='trialDiv'><img src='trustrating_stim/white_mw097.bmp'><br><font class='baseline'><strong>Gavin</strong><p>Choose number of points to send.</font><div class='respPicDiv'><img src='img/responseButtonOffersNo0L5.png' class='respPic'></div></div>","null","4","Gavin","3","Kept","0.35,0.8","8","0.35","trustrating_stim/white_mw097.bmp","1","70","10"
"html-keyboard-response","166","317315","0.0-19.0-3.9","5fee456f8929f014481adff9","bdp_trlrn","Wed Mar 15 2023 22:31:57 GMT-0400 (Eastern Daylight Time)","719532","Untrustworthy,Trustworthy","","","","feedback","","","null","","<div class='trialDiv'><img src='trustrating_stim/white_mw097.bmp'><br><font class='baseline'><strong>Gavin</strong><p>Received: <strong>20</strong></font> &nbsp; &nbsp; &nbsp; &nbsp; &nbsp; &nbsp;<font class='negOutcome'>Shared back: <strong>0</strong></font></font><div class='respPicDiv'><img src='img/responseButtonOffersNo0_wht.png' class='respPic'></div></div>","null","4","Gavin","3","Kept","0.35,0.8","8","0.35","trustrating_stim/white_mw097.bmp","1","70","10"
"html-keyboard-response","167","317412","0.0-19.0-1.10","5fee456f8929f014481adff9","bdp_trlrn","Wed Mar 15 2023 22:31:57 GMT-0400 (Eastern Daylight Time)","719532","Untrustworthy,Trustworthy","","","","decision","","","95","","<div class='trialDiv'><img src='trustrating_stim/white_mw053.bmp'><br><font class='baseline'><strong>Marcus</strong><p>Choose number of points to send.</font><div class='respPicDiv'><img src='img/responseButtonOffersNo0L.png' class='respPic'></div></div>","5","4","Marcus","4","Shared","0.65,0.2","8","0.65","trustrating_stim/white_mw053.bmp","3.5","75","11"
"html-keyboard-response","168","317663","0.0-19.0-2.10","5fee456f8929f014481adff9","bdp_trlrn","Wed Mar 15 2023 22:31:57 GMT-0400 (Eastern Daylight Time)","719532","Untrustworthy,Trustworthy","","","","decisionFB","","","null","","<div class='trialDiv'><img src='trustrating_stim/white_mw053.bmp'><br><font class='baseline'><strong>Marcus</strong><p>Choose number of points to send.</font><div class='respPicDiv'><img src='img/responseButtonOffersNo0L5.png' class='respPic'></div></div>","null","4","Marcus","4","Shared","0.65,0.2","8","0.65","trustrating_stim/white_mw053.bmp","3.5","70","11"
"html-keyboard-response","169","318665","0.0-19.0-3.10","5fee456f8929f014481adff9","bdp_trlrn","Wed Mar 15 2023 22:31:57 GMT-0400 (Eastern Daylight Time)","719532","Untrustworthy,Trustworthy","","","","feedback","","","null","","<div class='trialDiv'><img src='trustrating_stim/white_mw053.bmp'><br><font class='baseline'><strong>Marcus</strong><p>Received: <strong>20</strong></font> &nbsp; &nbsp; &nbsp; &nbsp; &nbsp; &nbsp;<font class='posOutcome'>Shared back: <strong>10</strong></font></font><div class='respPicDiv'><img src='img/responseButtonOffersNo0_wht.png' class='respPic'></div></div>","null","4","Marcus","4","Shared","0.65,0.2","8","0.65","trustrating_stim/white_mw053.bmp","3.5","80","11"
"html-keyboard-response","170","318810","0.0-19.0-1.11","5fee456f8929f014481adff9","bdp_trlrn","Wed Mar 15 2023 22:31:57 GMT-0400 (Eastern Daylight Time)","719532","Untrustworthy,Trustworthy","","","","decision","","","144","","<div class='trialDiv'><img src='trustrating_stim/white_00223_940128_fb_edt.bmp'><br><font class='baseline'><strong>Sebastian</strong><p>Choose number of points to send.</font><div class='respPicDiv'><img src='img/responseButtonOffersNo0L.png' class='respPic'></div></div>","5","4","Sebastian","9","Shared","0.35,0.65","8","0.35","trustrating_stim/white_00223_940128_fb_edt.bmp","6","85","12"
"html-keyboard-response","171","319062","0.0-19.0-2.11","5fee456f8929f014481adff9","bdp_trlrn","Wed Mar 15 2023 22:31:57 GMT-0400 (Eastern Daylight Time)","719532","Untrustworthy,Trustworthy","","","","decisionFB","","","null","","<div class='trialDiv'><img src='trustrating_stim/white_00223_940128_fb_edt.bmp'><br><font class='baseline'><strong>Sebastian</strong><p>Choose number of points to send.</font><div class='respPicDiv'><img src='img/responseButtonOffersNo0L5.png' class='respPic'></div></div>","null","4","Sebastian","9","Shared","0.35,0.65","8","0.35","trustrating_stim/white_00223_940128_fb_edt.bmp","6","80","12"
"html-keyboard-response","172","320065","0.0-19.0-3.11","5fee456f8929f014481adff9","bdp_trlrn","Wed Mar 15 2023 22:31:57 GMT-0400 (Eastern Daylight Time)","719532","Untrustworthy,Trustworthy","","","","feedback","","","null","","<div class='trialDiv'><img src='trustrating_stim/white_00223_940128_fb_edt.bmp'><br><font class='baseline'><strong>Sebastian</strong><p>Received: <strong>20</strong></font> &nbsp; &nbsp; &nbsp; &nbsp; &nbsp; &nbsp;<font class='posOutcome'>Shared back: <strong>10</strong></font></font><div class='respPicDiv'><img src='img/responseButtonOffersNo0_wht.png' class='respPic'></div></div>","null","4","Sebastian","9","Shared","0.35,0.65","8","0.35","trustrating_stim/white_00223_940128_fb_edt.bmp","6","90","12"
"html-keyboard-response","173","320929","0.0-19.0-1.12","5fee456f8929f014481adff9","bdp_trlrn","Wed Mar 15 2023 22:31:57 GMT-0400 (Eastern Daylight Time)","719532","Untrustworthy,Trustworthy","","","","decision","","","864","","<div class='trialDiv'><img src='trustrating_stim/white_mw053.bmp'><br><font class='baseline'><strong>Marcus</strong><p>Choose number of points to send.</font><div class='respPicDiv'><img src='img/responseButtonOffersNo0L.png' class='respPic'></div></div>","5","5","Marcus","4","Shared","0.65,0.2","8","0.65","trustrating_stim/white_mw053.bmp","3.5","95","13"
"html-keyboard-response","174","321181","0.0-19.0-2.12","5fee456f8929f014481adff9","bdp_trlrn","Wed Mar 15 2023 22:31:57 GMT-0400 (Eastern Daylight Time)","719532","Untrustworthy,Trustworthy","","","","decisionFB","","","null","","<div class='trialDiv'><img src='trustrating_stim/white_mw053.bmp'><br><font class='baseline'><strong>Marcus</strong><p>Choose number of points to send.</font><div class='respPicDiv'><img src='img/responseButtonOffersNo0L5.png' class='respPic'></div></div>","null","5","Marcus","4","Shared","0.65,0.2","8","0.65","trustrating_stim/white_mw053.bmp","3.5","90","13"
"html-keyboard-response","175","322183","0.0-19.0-3.12","5fee456f8929f014481adff9","bdp_trlrn","Wed Mar 15 2023 22:31:57 GMT-0400 (Eastern Daylight Time)","719532","Untrustworthy,Trustworthy","","","","feedback","","","null","","<div class='trialDiv'><img src='trustrating_stim/white_mw053.bmp'><br><font class='baseline'><strong>Marcus</strong><p>Received: <strong>20</strong></font> &nbsp; &nbsp; &nbsp; &nbsp; &nbsp; &nbsp;<font class='posOutcome'>Shared back: <strong>10</strong></font></font><div class='respPicDiv'><img src='img/responseButtonOffersNo0_wht.png' class='respPic'></div></div>","null","5","Marcus","4","Shared","0.65,0.2","8","0.65","trustrating_stim/white_mw053.bmp","3.5","100","13"
"html-keyboard-response","176","323249","0.0-19.0-1.13","5fee456f8929f014481adff9","bdp_trlrn","Wed Mar 15 2023 22:31:57 GMT-0400 (Eastern Daylight Time)","719532","Untrustworthy,Trustworthy","","","","decision","","","1065","","<div class='trialDiv'><img src='trustrating_stim/white_mw097.bmp'><br><font class='baseline'><strong>Gavin</strong><p>Choose number of points to send.</font><div class='respPicDiv'><img src='img/responseButtonOffersNo0L.png' class='respPic'></div></div>","1","5","Gavin","3","Kept","0.35,0.8","8","0.35","trustrating_stim/white_mw097.bmp","1","105","14"
"html-keyboard-response","177","323500","0.0-19.0-2.13","5fee456f8929f014481adff9","bdp_trlrn","Wed Mar 15 2023 22:31:57 GMT-0400 (Eastern Daylight Time)","719532","Untrustworthy,Trustworthy","","","","decisionFB","","","null","","<div class='trialDiv'><img src='trustrating_stim/white_mw097.bmp'><br><font class='baseline'><strong>Gavin</strong><p>Choose number of points to send.</font><div class='respPicDiv'><img src='img/responseButtonOffersNo0L1.png' class='respPic'></div></div>","null","5","Gavin","3","Kept","0.35,0.8","8","0.35","trustrating_stim/white_mw097.bmp","1","104","14"
"html-keyboard-response","178","324502","0.0-19.0-3.13","5fee456f8929f014481adff9","bdp_trlrn","Wed Mar 15 2023 22:31:57 GMT-0400 (Eastern Daylight Time)","719532","Untrustworthy,Trustworthy","","","","feedback","","","null","","<div class='trialDiv'><img src='trustrating_stim/white_mw097.bmp'><br><font class='baseline'><strong>Gavin</strong><p>Received: <strong>4</strong></font> &nbsp; &nbsp; &nbsp; &nbsp; &nbsp; &nbsp;<font class='negOutcome'>Shared back: <strong>0</strong></font></font><div class='respPicDiv'><img src='img/responseButtonOffersNo0_wht.png' class='respPic'></div></div>","null","5","Gavin","3","Kept","0.35,0.8","8","0.35","trustrating_stim/white_mw097.bmp","1","104","14"
"html-keyboard-response","179","325279","0.0-19.0-1.14","5fee456f8929f014481adff9","bdp_trlrn","Wed Mar 15 2023 22:31:57 GMT-0400 (Eastern Daylight Time)","719532","Untrustworthy,Trustworthy","","","","decision","","","776","","<div class='trialDiv'><img src='trustrating_stim/white_00223_940128_fb_edt.bmp'><br><font class='baseline'><strong>Sebastian</strong><p>Choose number of points to send.</font><div class='respPicDiv'><img src='img/responseButtonOffersNo0L.png' class='respPic'></div></div>","5","5","Sebastian","9","Kept","0.35,0.65","8","0.35","trustrating_stim/white_00223_940128_fb_edt.bmp","6","109","15"
"html-keyboard-response","180","325531","0.0-19.0-2.14","5fee456f8929f014481adff9","bdp_trlrn","Wed Mar 15 2023 22:31:57 GMT-0400 (Eastern Daylight Time)","719532","Untrustworthy,Trustworthy","","","","decisionFB","","","null","","<div class='trialDiv'><img src='trustrating_stim/white_00223_940128_fb_edt.bmp'><br><font class='baseline'><strong>Sebastian</strong><p>Choose number of points to send.</font><div class='respPicDiv'><img src='img/responseButtonOffersNo0L5.png' class='respPic'></div></div>","null","5","Sebastian","9","Kept","0.35,0.65","8","0.35","trustrating_stim/white_00223_940128_fb_edt.bmp","6","104","15"
"html-keyboard-response","181","326543","0.0-19.0-3.14","5fee456f8929f014481adff9","bdp_trlrn","Wed Mar 15 2023 22:31:57 GMT-0400 (Eastern Daylight Time)","719532","Untrustworthy,Trustworthy","","","","feedback","","","null","","<div class='trialDiv'><img src='trustrating_stim/white_00223_940128_fb_edt.bmp'><br><font class='baseline'><strong>Sebastian</strong><p>Received: <strong>20</strong></font> &nbsp; &nbsp; &nbsp; &nbsp; &nbsp; &nbsp;<font class='negOutcome'>Shared back: <strong>0</strong></font></font><div class='respPicDiv'><img src='img/responseButtonOffersNo0_wht.png' class='respPic'></div></div>","null","5","Sebastian","9","Kept","0.35,0.65","8","0.35","trustrating_stim/white_00223_940128_fb_edt.bmp","6","104","15"
"html-keyboard-response","182","326793","0.0-19.0-1.15","5fee456f8929f014481adff9","bdp_trlrn","Wed Mar 15 2023 22:31:57 GMT-0400 (Eastern Daylight Time)","719532","Untrustworthy,Trustworthy","","","","decision","","","249","","<div class='trialDiv'><img src='trustrating_stim/white_mw097.bmp'><br><font class='baseline'><strong>Gavin</strong><p>Choose number of points to send.</font><div class='respPicDiv'><img src='img/responseButtonOffersNo0L.png' class='respPic'></div></div>","5","6","Gavin","3","Kept","0.35,0.8","8","0.35","trustrating_stim/white_mw097.bmp","1","109","16"
"html-keyboard-response","183","327045","0.0-19.0-2.15","5fee456f8929f014481adff9","bdp_trlrn","Wed Mar 15 2023 22:31:57 GMT-0400 (Eastern Daylight Time)","719532","Untrustworthy,Trustworthy","","","","decisionFB","","","null","","<div class='trialDiv'><img src='trustrating_stim/white_mw097.bmp'><br><font class='baseline'><strong>Gavin</strong><p>Choose number of points to send.</font><div class='respPicDiv'><img src='img/responseButtonOffersNo0L5.png' class='respPic'></div></div>","null","6","Gavin","3","Kept","0.35,0.8","8","0.35","trustrating_stim/white_mw097.bmp","1","104","16"
"html-keyboard-response","184","328047","0.0-19.0-3.15","5fee456f8929f014481adff9","bdp_trlrn","Wed Mar 15 2023 22:31:57 GMT-0400 (Eastern Daylight Time)","719532","Untrustworthy,Trustworthy","","","","feedback","","","null","","<div class='trialDiv'><img src='trustrating_stim/white_mw097.bmp'><br><font class='baseline'><strong>Gavin</strong><p>Received: <strong>20</strong></font> &nbsp; &nbsp; &nbsp; &nbsp; &nbsp; &nbsp;<font class='negOutcome'>Shared back: <strong>0</strong></font></font><div class='respPicDiv'><img src='img/responseButtonOffersNo0_wht.png' class='respPic'></div></div>","null","6","Gavin","3","Kept","0.35,0.8","8","0.35","trustrating_stim/white_mw097.bmp","1","104","16"
"html-keyboard-response","185","328756","0.0-19.0-1.16","5fee456f8929f014481adff9","bdp_trlrn","Wed Mar 15 2023 22:31:57 GMT-0400 (Eastern Daylight Time)","719532","Untrustworthy,Trustworthy","","","","decision","","","708","","<div class='trialDiv'><img src='trustrating_stim/white_mw053.bmp'><br><font class='baseline'><strong>Marcus</strong><p>Choose number of points to send.</font><div class='respPicDiv'><img src='img/responseButtonOffersNo0L.png' class='respPic'></div></div>","5","6","Marcus","4","Shared","0.65,0.2","8","0.65","trustrating_stim/white_mw053.bmp","3.5","109","17"
"html-keyboard-response","186","329008","0.0-19.0-2.16","5fee456f8929f014481adff9","bdp_trlrn","Wed Mar 15 2023 22:31:57 GMT-0400 (Eastern Daylight Time)","719532","Untrustworthy,Trustworthy","","","","decisionFB","","","null","","<div class='trialDiv'><img src='trustrating_stim/white_mw053.bmp'><br><font class='baseline'><strong>Marcus</strong><p>Choose number of points to send.</font><div class='respPicDiv'><img src='img/responseButtonOffersNo0L5.png' class='respPic'></div></div>","null","6","Marcus","4","Shared","0.65,0.2","8","0.65","trustrating_stim/white_mw053.bmp","3.5","104","17"
"html-keyboard-response","187","330009","0.0-19.0-3.16","5fee456f8929f014481adff9","bdp_trlrn","Wed Mar 15 2023 22:31:57 GMT-0400 (Eastern Daylight Time)","719532","Untrustworthy,Trustworthy","","","","feedback","","","null","","<div class='trialDiv'><img src='trustrating_stim/white_mw053.bmp'><br><font class='baseline'><strong>Marcus</strong><p>Received: <strong>20</strong></font> &nbsp; &nbsp; &nbsp; &nbsp; &nbsp; &nbsp;<font class='posOutcome'>Shared back: <strong>10</strong></font></font><div class='respPicDiv'><img src='img/responseButtonOffersNo0_wht.png' class='respPic'></div></div>","null","6","Marcus","4","Shared","0.65,0.2","8","0.65","trustrating_stim/white_mw053.bmp","3.5","114","17"
"html-keyboard-response","188","330490","0.0-19.0-1.17","5fee456f8929f014481adff9","bdp_trlrn","Wed Mar 15 2023 22:31:57 GMT-0400 (Eastern Daylight Time)","719532","Untrustworthy,Trustworthy","","","","decision","","","479","","<div class='trialDiv'><img src='trustrating_stim/white_00223_940128_fb_edt.bmp'><br><font class='baseline'><strong>Sebastian</strong><p>Choose number of points to send.</font><div class='respPicDiv'><img src='img/responseButtonOffersNo0L.png' class='respPic'></div></div>","5","6","Sebastian","9","Kept","0.35,0.65","8","0.35","trustrating_stim/white_00223_940128_fb_edt.bmp","6","119","18"
"html-keyboard-response","189","330741","0.0-19.0-2.17","5fee456f8929f014481adff9","bdp_trlrn","Wed Mar 15 2023 22:31:57 GMT-0400 (Eastern Daylight Time)","719532","Untrustworthy,Trustworthy","","","","decisionFB","","","null","","<div class='trialDiv'><img src='trustrating_stim/white_00223_940128_fb_edt.bmp'><br><font class='baseline'><strong>Sebastian</strong><p>Choose number of points to send.</font><div class='respPicDiv'><img src='img/responseButtonOffersNo0L5.png' class='respPic'></div></div>","null","6","Sebastian","9","Kept","0.35,0.65","8","0.35","trustrating_stim/white_00223_940128_fb_edt.bmp","6","114","18"
"html-keyboard-response","190","331743","0.0-19.0-3.17","5fee456f8929f014481adff9","bdp_trlrn","Wed Mar 15 2023 22:31:57 GMT-0400 (Eastern Daylight Time)","719532","Untrustworthy,Trustworthy","","","","feedback","","","null","","<div class='trialDiv'><img src='trustrating_stim/white_00223_940128_fb_edt.bmp'><br><font class='baseline'><strong>Sebastian</strong><p>Received: <strong>20</strong></font> &nbsp; &nbsp; &nbsp; &nbsp; &nbsp; &nbsp;<font class='negOutcome'>Shared back: <strong>0</strong></font></font><div class='respPicDiv'><img src='img/responseButtonOffersNo0_wht.png' class='respPic'></div></div>","null","6","Sebastian","9","Kept","0.35,0.65","8","0.35","trustrating_stim/white_00223_940128_fb_edt.bmp","6","114","18"
"html-keyboard-response","191","332425","0.0-19.0-1.18","5fee456f8929f014481adff9","bdp_trlrn","Wed Mar 15 2023 22:31:57 GMT-0400 (Eastern Daylight Time)","719532","Untrustworthy,Trustworthy","","","","decision","","","681","","<div class='trialDiv'><img src='trustrating_stim/white_mw097.bmp'><br><font class='baseline'><strong>Gavin</strong><p>Choose number of points to send.</font><div class='respPicDiv'><img src='img/responseButtonOffersNo0L.png' class='respPic'></div></div>","5","7","Gavin","3","Kept","0.35,0.8","8","0.35","trustrating_stim/white_mw097.bmp","1","119","19"
"html-keyboard-response","192","332683","0.0-19.0-2.18","5fee456f8929f014481adff9","bdp_trlrn","Wed Mar 15 2023 22:31:57 GMT-0400 (Eastern Daylight Time)","719532","Untrustworthy,Trustworthy","","","","decisionFB","","","null","","<div class='trialDiv'><img src='trustrating_stim/white_mw097.bmp'><br><font class='baseline'><strong>Gavin</strong><p>Choose number of points to send.</font><div class='respPicDiv'><img src='img/responseButtonOffersNo0L5.png' class='respPic'></div></div>","null","7","Gavin","3","Kept","0.35,0.8","8","0.35","trustrating_stim/white_mw097.bmp","1","114","19"
"html-keyboard-response","193","333685","0.0-19.0-3.18","5fee456f8929f014481adff9","bdp_trlrn","Wed Mar 15 2023 22:31:57 GMT-0400 (Eastern Daylight Time)","719532","Untrustworthy,Trustworthy","","","","feedback","","","null","","<div class='trialDiv'><img src='trustrating_stim/white_mw097.bmp'><br><font class='baseline'><strong>Gavin</strong><p>Received: <strong>20</strong></font> &nbsp; &nbsp; &nbsp; &nbsp; &nbsp; &nbsp;<font class='negOutcome'>Shared back: <strong>0</strong></font></font><div class='respPicDiv'><img src='img/responseButtonOffersNo0_wht.png' class='respPic'></div></div>","null","7","Gavin","3","Kept","0.35,0.8","8","0.35","trustrating_stim/white_mw097.bmp","1","114","19"
"html-keyboard-response","194","334751","0.0-19.0-1.19","5fee456f8929f014481adff9","bdp_trlrn","Wed Mar 15 2023 22:31:57 GMT-0400 (Eastern Daylight Time)","719532","Untrustworthy,Trustworthy","","","","decision","","","1065","","<div class='trialDiv'><img src='trustrating_stim/white_00223_940128_fb_edt.bmp'><br><font class='baseline'><strong>Sebastian</strong><p>Choose number of points to send.</font><div class='respPicDiv'><img src='img/responseButtonOffersNo0L.png' class='respPic'></div></div>","1","7","Sebastian","9","Shared","0.35,0.65","8","0.35","trustrating_stim/white_00223_940128_fb_edt.bmp","6","119","20"
"html-keyboard-response","195","335003","0.0-19.0-2.19","5fee456f8929f014481adff9","bdp_trlrn","Wed Mar 15 2023 22:31:57 GMT-0400 (Eastern Daylight Time)","719532","Untrustworthy,Trustworthy","","","","decisionFB","","","null","","<div class='trialDiv'><img src='trustrating_stim/white_00223_940128_fb_edt.bmp'><br><font class='baseline'><strong>Sebastian</strong><p>Choose number of points to send.</font><div class='respPicDiv'><img src='img/responseButtonOffersNo0L1.png' class='respPic'></div></div>","null","7","Sebastian","9","Shared","0.35,0.65","8","0.35","trustrating_stim/white_00223_940128_fb_edt.bmp","6","118","20"
"html-keyboard-response","196","336005","0.0-19.0-3.19","5fee456f8929f014481adff9","bdp_trlrn","Wed Mar 15 2023 22:31:57 GMT-0400 (Eastern Daylight Time)","719532","Untrustworthy,Trustworthy","","","","feedback","","","null","","<div class='trialDiv'><img src='trustrating_stim/white_00223_940128_fb_edt.bmp'><br><font class='baseline'><strong>Sebastian</strong><p>Received: <strong>4</strong></font> &nbsp; &nbsp; &nbsp; &nbsp; &nbsp; &nbsp;<font class='posOutcome'>Shared back: <strong>2</strong></font></font><div class='respPicDiv'><img src='img/responseButtonOffersNo0_wht.png' class='respPic'></div></div>","null","7","Sebastian","9","Shared","0.35,0.65","8","0.35","trustrating_stim/white_00223_940128_fb_edt.bmp","6","120","20"
"html-keyboard-response","197","336954","0.0-19.0-1.20","5fee456f8929f014481adff9","bdp_trlrn","Wed Mar 15 2023 22:31:57 GMT-0400 (Eastern Daylight Time)","719532","Untrustworthy,Trustworthy","","","","decision","","","949","","<div class='trialDiv'><img src='trustrating_stim/white_mw053.bmp'><br><font class='baseline'><strong>Marcus</strong><p>Choose number of points to send.</font><div class='respPicDiv'><img src='img/responseButtonOffersNo0L.png' class='respPic'></div></div>","5","7","Marcus","4","Shared","0.65,0.2","8","0.65","trustrating_stim/white_mw053.bmp","3.5","125","21"
"html-keyboard-response","198","337206","0.0-19.0-2.20","5fee456f8929f014481adff9","bdp_trlrn","Wed Mar 15 2023 22:31:57 GMT-0400 (Eastern Daylight Time)","719532","Untrustworthy,Trustworthy","","","","decisionFB","","","null","","<div class='trialDiv'><img src='trustrating_stim/white_mw053.bmp'><br><font class='baseline'><strong>Marcus</strong><p>Choose number of points to send.</font><div class='respPicDiv'><img src='img/responseButtonOffersNo0L5.png' class='respPic'></div></div>","null","7","Marcus","4","Shared","0.65,0.2","8","0.65","trustrating_stim/white_mw053.bmp","3.5","120","21"
"html-keyboard-response","199","338209","0.0-19.0-3.20","5fee456f8929f014481adff9","bdp_trlrn","Wed Mar 15 2023 22:31:57 GMT-0400 (Eastern Daylight Time)","719532","Untrustworthy,Trustworthy","","","","feedback","","","null","","<div class='trialDiv'><img src='trustrating_stim/white_mw053.bmp'><br><font class='baseline'><strong>Marcus</strong><p>Received: <strong>20</strong></font> &nbsp; &nbsp; &nbsp; &nbsp; &nbsp; &nbsp;<font class='posOutcome'>Shared back: <strong>10</strong></font></font><div class='respPicDiv'><img src='img/responseButtonOffersNo0_wht.png' class='respPic'></div></div>","null","7","Marcus","4","Shared","0.65,0.2","8","0.65","trustrating_stim/white_mw053.bmp","3.5","130","21"
"html-keyboard-response","200","338765","0.0-19.0-1.21","5fee456f8929f014481adff9","bdp_trlrn","Wed Mar 15 2023 22:31:57 GMT-0400 (Eastern Daylight Time)","719532","Untrustworthy,Trustworthy","","","","decision","","","554","","<div class='trialDiv'><img src='trustrating_stim/white_00223_940128_fb_edt.bmp'><br><font class='baseline'><strong>Sebastian</strong><p>Choose number of points to send.</font><div class='respPicDiv'><img src='img/responseButtonOffersNo0L.png' class='respPic'></div></div>","1","8","Sebastian","9","Shared","0.35,0.65","8","0.35","trustrating_stim/white_00223_940128_fb_edt.bmp","6","135","22"
"html-keyboard-response","201","339016","0.0-19.0-2.21","5fee456f8929f014481adff9","bdp_trlrn","Wed Mar 15 2023 22:31:57 GMT-0400 (Eastern Daylight Time)","719532","Untrustworthy,Trustworthy","","","","decisionFB","","","null","","<div class='trialDiv'><img src='trustrating_stim/white_00223_940128_fb_edt.bmp'><br><font class='baseline'><strong>Sebastian</strong><p>Choose number of points to send.</font><div class='respPicDiv'><img src='img/responseButtonOffersNo0L1.png' class='respPic'></div></div>","null","8","Sebastian","9","Shared","0.35,0.65","8","0.35","trustrating_stim/white_00223_940128_fb_edt.bmp","6","134","22"
"html-keyboard-response","202","340018","0.0-19.0-3.21","5fee456f8929f014481adff9","bdp_trlrn","Wed Mar 15 2023 22:31:57 GMT-0400 (Eastern Daylight Time)","719532","Untrustworthy,Trustworthy","","","","feedback","","","null","","<div class='trialDiv'><img src='trustrating_stim/white_00223_940128_fb_edt.bmp'><br><font class='baseline'><strong>Sebastian</strong><p>Received: <strong>4</strong></font> &nbsp; &nbsp; &nbsp; &nbsp; &nbsp; &nbsp;<font class='posOutcome'>Shared back: <strong>2</strong></font></font><div class='respPicDiv'><img src='img/responseButtonOffersNo0_wht.png' class='respPic'></div></div>","null","8","Sebastian","9","Shared","0.35,0.65","8","0.35","trustrating_stim/white_00223_940128_fb_edt.bmp","6","136","22"
"html-keyboard-response","203","340857","0.0-19.0-1.22","5fee456f8929f014481adff9","bdp_trlrn","Wed Mar 15 2023 22:31:57 GMT-0400 (Eastern Daylight Time)","719532","Untrustworthy,Trustworthy","","","","decision","","","839","","<div class='trialDiv'><img src='trustrating_stim/white_mw053.bmp'><br><font class='baseline'><strong>Marcus</strong><p>Choose number of points to send.</font><div class='respPicDiv'><img src='img/responseButtonOffersNo0L.png' class='respPic'></div></div>","5","8","Marcus","4","Kept","0.65,0.2","8","0.65","trustrating_stim/white_mw053.bmp","3.5","141","23"
"html-keyboard-response","204","341109","0.0-19.0-2.22","5fee456f8929f014481adff9","bdp_trlrn","Wed Mar 15 2023 22:31:57 GMT-0400 (Eastern Daylight Time)","719532","Untrustworthy,Trustworthy","","","","decisionFB","","","null","","<div class='trialDiv'><img src='trustrating_stim/white_mw053.bmp'><br><font class='baseline'><strong>Marcus</strong><p>Choose number of points to send.</font><div class='respPicDiv'><img src='img/responseButtonOffersNo0L5.png' class='respPic'></div></div>","null","8","Marcus","4","Kept","0.65,0.2","8","0.65","trustrating_stim/white_mw053.bmp","3.5","136","23"
"html-keyboard-response","205","342111","0.0-19.0-3.22","5fee456f8929f014481adff9","bdp_trlrn","Wed Mar 15 2023 22:31:57 GMT-0400 (Eastern Daylight Time)","719532","Untrustworthy,Trustworthy","","","","feedback","","","null","","<div class='trialDiv'><img src='trustrating_stim/white_mw053.bmp'><br><font class='baseline'><strong>Marcus</strong><p>Received: <strong>20</strong></font> &nbsp; &nbsp; &nbsp; &nbsp; &nbsp; &nbsp;<font class='negOutcome'>Shared back: <strong>0</strong></font></font><div class='respPicDiv'><img src='img/responseButtonOffersNo0_wht.png' class='respPic'></div></div>","null","8","Marcus","4","Kept","0.65,0.2","8","0.65","trustrating_stim/white_mw053.bmp","3.5","136","23"
"html-keyboard-response","206","343185","0.0-19.0-1.23","5fee456f8929f014481adff9","bdp_trlrn","Wed Mar 15 2023 22:31:57 GMT-0400 (Eastern Daylight Time)","719532","Untrustworthy,Trustworthy","","","","decision","","","1073","","<div class='trialDiv'><img src='trustrating_stim/white_mw097.bmp'><br><font class='baseline'><strong>Gavin</strong><p>Choose number of points to send.</font><div class='respPicDiv'><img src='img/responseButtonOffersNo0L.png' class='respPic'></div></div>","5","8","Gavin","3","Shared","0.35,0.8","8","0.35","trustrating_stim/white_mw097.bmp","1","141","24"
"html-keyboard-response","207","343437","0.0-19.0-2.23","5fee456f8929f014481adff9","bdp_trlrn","Wed Mar 15 2023 22:31:57 GMT-0400 (Eastern Daylight Time)","719532","Untrustworthy,Trustworthy","","","","decisionFB","","","null","","<div class='trialDiv'><img src='trustrating_stim/white_mw097.bmp'><br><font class='baseline'><strong>Gavin</strong><p>Choose number of points to send.</font><div class='respPicDiv'><img src='img/responseButtonOffersNo0L5.png' class='respPic'></div></div>","null","8","Gavin","3","Shared","0.35,0.8","8","0.35","trustrating_stim/white_mw097.bmp","1","136","24"
"html-keyboard-response","208","344440","0.0-19.0-3.23","5fee456f8929f014481adff9","bdp_trlrn","Wed Mar 15 2023 22:31:57 GMT-0400 (Eastern Daylight Time)","719532","Untrustworthy,Trustworthy","","","","feedback","","","null","","<div class='trialDiv'><img src='trustrating_stim/white_mw097.bmp'><br><font class='baseline'><strong>Gavin</strong><p>Received: <strong>20</strong></font> &nbsp; &nbsp; &nbsp; &nbsp; &nbsp; &nbsp;<font class='posOutcome'>Shared back: <strong>10</strong></font></font><div class='respPicDiv'><img src='img/responseButtonOffersNo0_wht.png' class='respPic'></div></div>","null","8","Gavin","3","Shared","0.35,0.8","8","0.35","trustrating_stim/white_mw097.bmp","1","146","24"
"html-keyboard-response","209","345942","0.0-19.0-1.24","5fee456f8929f014481adff9","bdp_trlrn","Wed Mar 15 2023 22:31:57 GMT-0400 (Eastern Daylight Time)","719532","Untrustworthy,Trustworthy","","","","decision","","","1500","","<div class='trialDiv'><img src='trustrating_stim/white_00223_940128_fb_edt.bmp'><br><font class='baseline'><strong>Sebastian</strong><p>Choose number of points to send.</font><div class='respPicDiv'><img src='img/responseButtonOffersNo0L.png' class='respPic'></div></div>","5","9","Sebastian","9","Shared","0.35,0.65","8","0.35","trustrating_stim/white_00223_940128_fb_edt.bmp","6","151","25"
"html-keyboard-response","210","346193","0.0-19.0-2.24","5fee456f8929f014481adff9","bdp_trlrn","Wed Mar 15 2023 22:31:57 GMT-0400 (Eastern Daylight Time)","719532","Untrustworthy,Trustworthy","","","","decisionFB","","","null","","<div class='trialDiv'><img src='trustrating_stim/white_00223_940128_fb_edt.bmp'><br><font class='baseline'><strong>Sebastian</strong><p>Choose number of points to send.</font><div class='respPicDiv'><img src='img/responseButtonOffersNo0L5.png' class='respPic'></div></div>","null","9","Sebastian","9","Shared","0.35,0.65","8","0.35","trustrating_stim/white_00223_940128_fb_edt.bmp","6","146","25"
"html-keyboard-response","211","347206","0.0-19.0-3.24","5fee456f8929f014481adff9","bdp_trlrn","Wed Mar 15 2023 22:31:57 GMT-0400 (Eastern Daylight Time)","719532","Untrustworthy,Trustworthy","","","","feedback","","","null","","<div class='trialDiv'><img src='trustrating_stim/white_00223_940128_fb_edt.bmp'><br><font class='baseline'><strong>Sebastian</strong><p>Received: <strong>20</strong></font> &nbsp; &nbsp; &nbsp; &nbsp; &nbsp; &nbsp;<font class='posOutcome'>Shared back: <strong>10</strong></font></font><div class='respPicDiv'><img src='img/responseButtonOffersNo0_wht.png' class='respPic'></div></div>","null","9","Sebastian","9","Shared","0.35,0.65","8","0.35","trustrating_stim/white_00223_940128_fb_edt.bmp","6","156","25"
"html-keyboard-response","212","348025","0.0-19.0-1.25","5fee456f8929f014481adff9","bdp_trlrn","Wed Mar 15 2023 22:31:57 GMT-0400 (Eastern Daylight Time)","719532","Untrustworthy,Trustworthy","","","","decision","","","818","","<div class='trialDiv'><img src='trustrating_stim/white_mw097.bmp'><br><font class='baseline'><strong>Gavin</strong><p>Choose number of points to send.</font><div class='respPicDiv'><img src='img/responseButtonOffersNo0L.png' class='respPic'></div></div>","5","9","Gavin","3","Shared","0.35,0.8","8","0.35","trustrating_stim/white_mw097.bmp","1","161","26"
"html-keyboard-response","213","348278","0.0-19.0-2.25","5fee456f8929f014481adff9","bdp_trlrn","Wed Mar 15 2023 22:31:57 GMT-0400 (Eastern Daylight Time)","719532","Untrustworthy,Trustworthy","","","","decisionFB","","","null","","<div class='trialDiv'><img src='trustrating_stim/white_mw097.bmp'><br><font class='baseline'><strong>Gavin</strong><p>Choose number of points to send.</font><div class='respPicDiv'><img src='img/responseButtonOffersNo0L5.png' class='respPic'></div></div>","null","9","Gavin","3","Shared","0.35,0.8","8","0.35","trustrating_stim/white_mw097.bmp","1","156","26"
"html-keyboard-response","214","349279","0.0-19.0-3.25","5fee456f8929f014481adff9","bdp_trlrn","Wed Mar 15 2023 22:31:57 GMT-0400 (Eastern Daylight Time)","719532","Untrustworthy,Trustworthy","","","","feedback","","","null","","<div class='trialDiv'><img src='trustrating_stim/white_mw097.bmp'><br><font class='baseline'><strong>Gavin</strong><p>Received: <strong>20</strong></font> &nbsp; &nbsp; &nbsp; &nbsp; &nbsp; &nbsp;<font class='posOutcome'>Shared back: <strong>10</strong></font></font><div class='respPicDiv'><img src='img/responseButtonOffersNo0_wht.png' class='respPic'></div></div>","null","9","Gavin","3","Shared","0.35,0.8","8","0.35","trustrating_stim/white_mw097.bmp","1","166","26"
"html-keyboard-response","215","350145","0.0-19.0-1.26","5fee456f8929f014481adff9","bdp_trlrn","Wed Mar 15 2023 22:31:57 GMT-0400 (Eastern Daylight Time)","719532","Untrustworthy,Trustworthy","","","","decision","","","865","","<div class='trialDiv'><img src='trustrating_stim/white_mw053.bmp'><br><font class='baseline'><strong>Marcus</strong><p>Choose number of points to send.</font><div class='respPicDiv'><img src='img/responseButtonOffersNo0L.png' class='respPic'></div></div>","1","9","Marcus","4","Kept","0.65,0.2","8","0.65","trustrating_stim/white_mw053.bmp","3.5","171","27"
"html-keyboard-response","216","350397","0.0-19.0-2.26","5fee456f8929f014481adff9","bdp_trlrn","Wed Mar 15 2023 22:31:57 GMT-0400 (Eastern Daylight Time)","719532","Untrustworthy,Trustworthy","","","","decisionFB","","","null","","<div class='trialDiv'><img src='trustrating_stim/white_mw053.bmp'><br><font class='baseline'><strong>Marcus</strong><p>Choose number of points to send.</font><div class='respPicDiv'><img src='img/responseButtonOffersNo0L1.png' class='respPic'></div></div>","null","9","Marcus","4","Kept","0.65,0.2","8","0.65","trustrating_stim/white_mw053.bmp","3.5","170","27"
"html-keyboard-response","217","351399","0.0-19.0-3.26","5fee456f8929f014481adff9","bdp_trlrn","Wed Mar 15 2023 22:31:57 GMT-0400 (Eastern Daylight Time)","719532","Untrustworthy,Trustworthy","","","","feedback","","","null","","<div class='trialDiv'><img src='trustrating_stim/white_mw053.bmp'><br><font class='baseline'><strong>Marcus</strong><p>Received: <strong>4</strong></font> &nbsp; &nbsp; &nbsp; &nbsp; &nbsp; &nbsp;<font class='negOutcome'>Shared back: <strong>0</strong></font></font><div class='respPicDiv'><img src='img/responseButtonOffersNo0_wht.png' class='respPic'></div></div>","null","9","Marcus","4","Kept","0.65,0.2","8","0.65","trustrating_stim/white_mw053.bmp","3.5","170","27"
"html-keyboard-response","218","352159","0.0-19.0-1.27","5fee456f8929f014481adff9","bdp_trlrn","Wed Mar 15 2023 22:31:57 GMT-0400 (Eastern Daylight Time)","719532","Untrustworthy,Trustworthy","","","","decision","","","759","","<div class='trialDiv'><img src='trustrating_stim/white_mw097.bmp'><br><font class='baseline'><strong>Gavin</strong><p>Choose number of points to send.</font><div class='respPicDiv'><img src='img/responseButtonOffersNo0L.png' class='respPic'></div></div>","5","10","Gavin","3","Shared","0.35,0.8","8","0.35","trustrating_stim/white_mw097.bmp","1","175","28"
"html-keyboard-response","219","352411","0.0-19.0-2.27","5fee456f8929f014481adff9","bdp_trlrn","Wed Mar 15 2023 22:31:57 GMT-0400 (Eastern Daylight Time)","719532","Untrustworthy,Trustworthy","","","","decisionFB","","","null","","<div class='trialDiv'><img src='trustrating_stim/white_mw097.bmp'><br><font class='baseline'><strong>Gavin</strong><p>Choose number of points to send.</font><div class='respPicDiv'><img src='img/responseButtonOffersNo0L5.png' class='respPic'></div></div>","null","10","Gavin","3","Shared","0.35,0.8","8","0.35","trustrating_stim/white_mw097.bmp","1","170","28"
