"trial_type","trial_index","time_elapsed","internal_node_id","subject_id","task","startTime","totalTime","labels","event","trial","time","trialtype","numBlurs","view_history","rt","success","stimulus","key_press","aground","name","faceID","outcome","agenttype","agentswpt","agentcurrpshare","face","avgRating","point_total","round"
"pavlovia","0","3","0.0-0.0","6108cd48a97ffccb0e7e518c","bdp_trlrn","Wed Mar 15 2023 14:58:47 GMT-0400 (Eastern Daylight Time)","667932","Untrustworthy,Trustworthy","","","","","","","","","","","","","","","","","","","","",""
"","","","","6108cd48a97ffccb0e7e518c","bdp_trlrn","Wed Mar 15 2023 14:58:47 GMT-0400 (Eastern Daylight Time)","667932","Untrustworthy,Trustworthy","blur","1","1508","blurevent","1","","","","","","","","","","","","","","","",""
"","","","","6108cd48a97ffccb0e7e518c","bdp_trlrn","Wed Mar 15 2023 14:58:47 GMT-0400 (Eastern Daylight Time)","667932","Untrustworthy,Trustworthy","focus","1","3931","focusevent","","","","","","","","","","","","","","","","",""
"instructions","1","5108","0.0-1.0","6108cd48a97ffccb0e7e518c","bdp_trlrn","Wed Mar 15 2023 14:58:47 GMT-0400 (Eastern Daylight Time)","667932","Untrustworthy,Trustworthy","","","","","","[{""page_index"":0,""viewing_time"":5104}]","5105","","","","","","","","","","","","","",""
"","","","","6108cd48a97ffccb0e7e518c","bdp_trlrn","Wed Mar 15 2023 14:58:47 GMT-0400 (Eastern Daylight Time)","667932","Untrustworthy,Trustworthy","fullscreenenter","2","6186","fullscreenenter","","","","","","","","","","","","","","","","",""
"fullscreen","2","7190","0.0-2.0","6108cd48a97ffccb0e7e518c","bdp_trlrn","Wed Mar 15 2023 14:58:47 GMT-0400 (Eastern Daylight Time)","667932","Untrustworthy,Trustworthy","","","","","","","","true","","","","","","","","","","","","",""
"instructions","3","23346","0.0-4.0","6108cd48a97ffccb0e7e518c","bdp_trlrn","Wed Mar 15 2023 14:58:47 GMT-0400 (Eastern Daylight Time)","667932","Untrustworthy,Trustworthy","","","","","","[{""page_index"":0,""viewing_time"":15010},{""page_index"":1,""viewing_time"":1144}]","16154","","","","","","","","","","","","","",""
"instructions","4","23994","0.0-5.0","6108cd48a97ffccb0e7e518c","bdp_trlrn","Wed Mar 15 2023 14:58:47 GMT-0400 (Eastern Daylight Time)","667932","Untrustworthy,Trustworthy","","","","","","[{""page_index"":0,""viewing_time"":646}]","647","","","","","","","","","","","","","",""
"image-keyboard-response","5","29558","0.0-6.0-1.0","6108cd48a97ffccb0e7e518c","bdp_trlrn","Wed Mar 15 2023 14:58:47 GMT-0400 (Eastern Daylight Time)","667932","Untrustworthy,Trustworthy","","","","rating","","","5454","","trustrating_stim/white_00757_941201_fa_edt.bmp","3","","","","","","","","","","",""
"image-keyboard-response","6","29772","0.0-6.0-2.0","6108cd48a97ffccb0e7e518c","bdp_trlrn","Wed Mar 15 2023 14:58:47 GMT-0400 (Eastern Daylight Time)","667932","Untrustworthy,Trustworthy","","","","ratingFB","","","null","","trustrating_stim/white_00757_941201_fa_edt.bmp","null","","","","","","","","","","",""
"image-keyboard-response","7","31830","0.0-6.0-1.1","6108cd48a97ffccb0e7e518c","bdp_trlrn","Wed Mar 15 2023 14:58:47 GMT-0400 (Eastern Daylight Time)","667932","Untrustworthy,Trustworthy","","","","rating","","","1949","","trustrating_stim/white_mw099.bmp","3","","","","","","","","","","",""
"image-keyboard-response","8","32044","0.0-6.0-2.1","6108cd48a97ffccb0e7e518c","bdp_trlrn","Wed Mar 15 2023 14:58:47 GMT-0400 (Eastern Daylight Time)","667932","Untrustworthy,Trustworthy","","","","ratingFB","","","null","","trustrating_stim/white_mw099.bmp","null","","","","","","","","","","",""
"image-keyboard-response","9","33980","0.0-6.0-1.2","6108cd48a97ffccb0e7e518c","bdp_trlrn","Wed Mar 15 2023 14:58:47 GMT-0400 (Eastern Daylight Time)","667932","Untrustworthy,Trustworthy","","","","rating","","","1824","","trustrating_stim/white_00807_941205_fb_edt.bmp","3","","","","","","","","","","",""
"image-keyboard-response","10","34187","0.0-6.0-2.2","6108cd48a97ffccb0e7e518c","bdp_trlrn","Wed Mar 15 2023 14:58:47 GMT-0400 (Eastern Daylight Time)","667932","Untrustworthy,Trustworthy","","","","ratingFB","","","null","","trustrating_stim/white_00807_941205_fb_edt.bmp","null","","","","","","","","","","",""
"image-keyboard-response","11","36118","0.0-6.0-1.3","6108cd48a97ffccb0e7e518c","bdp_trlrn","Wed Mar 15 2023 14:58:47 GMT-0400 (Eastern Daylight Time)","667932","Untrustworthy,Trustworthy","","","","rating","","","1819","","trustrating_stim/white_mw033.bmp","5","","","","","","","","","","",""
"image-keyboard-response","12","36329","0.0-6.0-2.3","6108cd48a97ffccb0e7e518c","bdp_trlrn","Wed Mar 15 2023 14:58:47 GMT-0400 (Eastern Daylight Time)","667932","Untrustworthy,Trustworthy","","","","ratingFB","","","null","","trustrating_stim/white_mw033.bmp","null","","","","","","","","","","",""
"image-keyboard-response","13","43274","0.0-6.0-1.4","6108cd48a97ffccb0e7e518c","bdp_trlrn","Wed Mar 15 2023 14:58:47 GMT-0400 (Eastern Daylight Time)","667932","Untrustworthy,Trustworthy","","","","rating","","","6839","","trustrating_stim/white_00340_940422_fa_edt.bmp","4","","","","","","","","","","",""
"image-keyboard-response","14","43480","0.0-6.0-2.4","6108cd48a97ffccb0e7e518c","bdp_trlrn","Wed Mar 15 2023 14:58:47 GMT-0400 (Eastern Daylight Time)","667932","Untrustworthy,Trustworthy","","","","ratingFB","","","null","","trustrating_stim/white_00340_940422_fa_edt.bmp","null","","","","","","","","","","",""
"image-keyboard-response","15","45767","0.0-6.0-1.5","6108cd48a97ffccb0e7e518c","bdp_trlrn","Wed Mar 15 2023 14:58:47 GMT-0400 (Eastern Daylight Time)","667932","Untrustworthy,Trustworthy","","","","rating","","","2181","","trustrating_stim/white_00602_940928_fb_edt.bmp","9","","","","","","","","","","",""
"image-keyboard-response","16","45976","0.0-6.0-2.5","6108cd48a97ffccb0e7e518c","bdp_trlrn","Wed Mar 15 2023 14:58:47 GMT-0400 (Eastern Daylight Time)","667932","Untrustworthy,Trustworthy","","","","ratingFB","","","null","","trustrating_stim/white_00602_940928_fb_edt.bmp","null","","","","","","","","","","",""
"image-keyboard-response","17","47567","0.0-6.0-1.6","6108cd48a97ffccb0e7e518c","bdp_trlrn","Wed Mar 15 2023 14:58:47 GMT-0400 (Eastern Daylight Time)","667932","Untrustworthy,Trustworthy","","","","rating","","","1486","","trustrating_stim/white_mw049.bmp","9","","","","","","","","","","",""
"image-keyboard-response","18","47775","0.0-6.0-2.6","6108cd48a97ffccb0e7e518c","bdp_trlrn","Wed Mar 15 2023 14:58:47 GMT-0400 (Eastern Daylight Time)","667932","Untrustworthy,Trustworthy","","","","ratingFB","","","null","","trustrating_stim/white_mw049.bmp","null","","","","","","","","","","",""
"image-keyboard-response","19","49406","0.0-6.0-1.7","6108cd48a97ffccb0e7e518c","bdp_trlrn","Wed Mar 15 2023 14:58:47 GMT-0400 (Eastern Daylight Time)","667932","Untrustworthy,Trustworthy","","","","rating","","","1524","","trustrating_stim/white_00898_960530_fa_edt.bmp","9","","","","","","","","","","",""
"image-keyboard-response","20","49619","0.0-6.0-2.7","6108cd48a97ffccb0e7e518c","bdp_trlrn","Wed Mar 15 2023 14:58:47 GMT-0400 (Eastern Daylight Time)","667932","Untrustworthy,Trustworthy","","","","ratingFB","","","null","","trustrating_stim/white_00898_960530_fa_edt.bmp","null","","","","","","","","","","",""
"image-keyboard-response","21","51908","0.0-6.0-1.8","6108cd48a97ffccb0e7e518c","bdp_trlrn","Wed Mar 15 2023 14:58:47 GMT-0400 (Eastern Daylight Time)","667932","Untrustworthy,Trustworthy","","","","rating","","","2178","","trustrating_stim/white_00299_940422_fa_edt.bmp","5","","","","","","","","","","",""
"image-keyboard-response","22","52111","0.0-6.0-2.8","6108cd48a97ffccb0e7e518c","bdp_trlrn","Wed Mar 15 2023 14:58:47 GMT-0400 (Eastern Daylight Time)","667932","Untrustworthy,Trustworthy","","","","ratingFB","","","null","","trustrating_stim/white_00299_940422_fa_edt.bmp","null","","","","","","","","","","",""
"image-keyboard-response","23","56135","0.0-6.0-1.9","6108cd48a97ffccb0e7e518c","bdp_trlrn","Wed Mar 15 2023 14:58:47 GMT-0400 (Eastern Daylight Time)","667932","Untrustworthy,Trustworthy","","","","rating","","","3917","","trustrating_stim/white_mw046.bmp","4","","","","","","","","","","",""
"image-keyboard-response","24","56344","0.0-6.0-2.9","6108cd48a97ffccb0e7e518c","bdp_trlrn","Wed Mar 15 2023 14:58:47 GMT-0400 (Eastern Daylight Time)","667932","Untrustworthy,Trustworthy","","","","ratingFB","","","null","","trustrating_stim/white_mw046.bmp","null","","","","","","","","","","",""
"image-keyboard-response","25","58382","0.0-6.0-1.10","6108cd48a97ffccb0e7e518c","bdp_trlrn","Wed Mar 15 2023 14:58:47 GMT-0400 (Eastern Daylight Time)","667932","Untrustworthy,Trustworthy","","","","rating","","","1933","","trustrating_stim/white_00659_941121_fa_edt.bmp","5","","","","","","","","","","",""
"image-keyboard-response","26","58594","0.0-6.0-2.10","6108cd48a97ffccb0e7e518c","bdp_trlrn","Wed Mar 15 2023 14:58:47 GMT-0400 (Eastern Daylight Time)","667932","Untrustworthy,Trustworthy","","","","ratingFB","","","null","","trustrating_stim/white_00659_941121_fa_edt.bmp","null","","","","","","","","","","",""
"image-keyboard-response","27","60845","0.0-6.0-1.11","6108cd48a97ffccb0e7e518c","bdp_trlrn","Wed Mar 15 2023 14:58:47 GMT-0400 (Eastern Daylight Time)","667932","Untrustworthy,Trustworthy","","","","rating","","","2139","","trustrating_stim/white_00223_940128_fb_edt.bmp","3","","","","","","","","","","",""
"image-keyboard-response","28","61056","0.0-6.0-2.11","6108cd48a97ffccb0e7e518c","bdp_trlrn","Wed Mar 15 2023 14:58:47 GMT-0400 (Eastern Daylight Time)","667932","Untrustworthy,Trustworthy","","","","ratingFB","","","null","","trustrating_stim/white_00223_940128_fb_edt.bmp","null","","","","","","","","","","",""
"image-keyboard-response","29","63335","0.0-6.0-1.12","6108cd48a97ffccb0e7e518c","bdp_trlrn","Wed Mar 15 2023 14:58:47 GMT-0400 (Eastern Daylight Time)","667932","Untrustworthy,Trustworthy","","","","rating","","","2173","","trustrating_stim/white_mw063.bmp","6","","","","","","","","","","",""
"image-keyboard-response","30","63547","0.0-6.0-2.12","6108cd48a97ffccb0e7e518c","bdp_trlrn","Wed Mar 15 2023 14:58:47 GMT-0400 (Eastern Daylight Time)","667932","Untrustworthy,Trustworthy","","","","ratingFB","","","null","","trustrating_stim/white_mw063.bmp","null","","","","","","","","","","",""
"image-keyboard-response","31","65772","0.0-6.0-1.13","6108cd48a97ffccb0e7e518c","bdp_trlrn","Wed Mar 15 2023 14:58:47 GMT-0400 (Eastern Daylight Time)","667932","Untrustworthy,Trustworthy","","","","rating","","","2113","","trustrating_stim/white_mw089.bmp","5","","","","","","","","","","",""
"image-keyboard-response","32","65979","0.0-6.0-2.13","6108cd48a97ffccb0e7e518c","bdp_trlrn","Wed Mar 15 2023 14:58:47 GMT-0400 (Eastern Daylight Time)","667932","Untrustworthy,Trustworthy","","","","ratingFB","","","null","","trustrating_stim/white_mw089.bmp","null","","","","","","","","","","",""
"image-keyboard-response","33","70302","0.0-6.0-1.14","6108cd48a97ffccb0e7e518c","bdp_trlrn","Wed Mar 15 2023 14:58:47 GMT-0400 (Eastern Daylight Time)","667932","Untrustworthy,Trustworthy","","","","rating","","","4212","","trustrating_stim/white_mw097.bmp","4","","","","","","","","","","",""
"image-keyboard-response","34","70512","0.0-6.0-2.14","6108cd48a97ffccb0e7e518c","bdp_trlrn","Wed Mar 15 2023 14:58:47 GMT-0400 (Eastern Daylight Time)","667932","Untrustworthy,Trustworthy","","","","ratingFB","","","null","","trustrating_stim/white_mw097.bmp","null","","","","","","","","","","",""
"image-keyboard-response","35","72925","0.0-6.0-1.15","6108cd48a97ffccb0e7e518c","bdp_trlrn","Wed Mar 15 2023 14:58:47 GMT-0400 (Eastern Daylight Time)","667932","Untrustworthy,Trustworthy","","","","rating","","","2306","","trustrating_stim/white_mw053.bmp","7","","","","","","","","","","",""
"image-keyboard-response","36","73137","0.0-6.0-2.15","6108cd48a97ffccb0e7e518c","bdp_trlrn","Wed Mar 15 2023 14:58:47 GMT-0400 (Eastern Daylight Time)","667932","Untrustworthy,Trustworthy","","","","ratingFB","","","null","","trustrating_stim/white_mw053.bmp","null","","","","","","","","","","",""
"image-keyboard-response","37","75152","0.0-6.0-1.16","6108cd48a97ffccb0e7e518c","bdp_trlrn","Wed Mar 15 2023 14:58:47 GMT-0400 (Eastern Daylight Time)","667932","Untrustworthy,Trustworthy","","","","rating","","","1905","","trustrating_stim/white_mw035.bmp","7","","","","","","","","","","",""
"image-keyboard-response","38","75359","0.0-6.0-2.16","6108cd48a97ffccb0e7e518c","bdp_trlrn","Wed Mar 15 2023 14:58:47 GMT-0400 (Eastern Daylight Time)","667932","Untrustworthy,Trustworthy","","","","ratingFB","","","null","","trustrating_stim/white_mw035.bmp","null","","","","","","","","","","",""
"image-keyboard-response","39","77493","0.0-6.0-1.17","6108cd48a97ffccb0e7e518c","bdp_trlrn","Wed Mar 15 2023 14:58:47 GMT-0400 (Eastern Daylight Time)","667932","Untrustworthy,Trustworthy","","","","rating","","","2028","","trustrating_stim/white_00785_941205_fb_edt.bmp","5","","","","","","","","","","",""
"image-keyboard-response","40","77704","0.0-6.0-2.17","6108cd48a97ffccb0e7e518c","bdp_trlrn","Wed Mar 15 2023 14:58:47 GMT-0400 (Eastern Daylight Time)","667932","Untrustworthy,Trustworthy","","","","ratingFB","","","null","","trustrating_stim/white_00785_941205_fb_edt.bmp","null","","","","","","","","","","",""
"image-keyboard-response","41","80367","0.0-6.0-1.18","6108cd48a97ffccb0e7e518c","bdp_trlrn","Wed Mar 15 2023 14:58:47 GMT-0400 (Eastern Daylight Time)","667932","Untrustworthy,Trustworthy","","","","rating","","","2551","","trustrating_stim/white_mw066.bmp","8","","","","","","","","","","",""
"image-keyboard-response","42","80578","0.0-6.0-2.18","6108cd48a97ffccb0e7e518c","bdp_trlrn","Wed Mar 15 2023 14:58:47 GMT-0400 (Eastern Daylight Time)","667932","Untrustworthy,Trustworthy","","","","ratingFB","","","null","","trustrating_stim/white_mw066.bmp","null","","","","","","","","","","",""
"image-keyboard-response","43","81790","0.0-6.0-1.19","6108cd48a97ffccb0e7e518c","bdp_trlrn","Wed Mar 15 2023 14:58:47 GMT-0400 (Eastern Daylight Time)","667932","Untrustworthy,Trustworthy","","","","rating","","","1101","","trustrating_stim/white_00577_940928_fa_edt.bmp","6","","","","","","","","","","",""
"image-keyboard-response","44","82000","0.0-6.0-2.19","6108cd48a97ffccb0e7e518c","bdp_trlrn","Wed Mar 15 2023 14:58:47 GMT-0400 (Eastern Daylight Time)","667932","Untrustworthy,Trustworthy","","","","ratingFB","","","null","","trustrating_stim/white_00577_940928_fa_edt.bmp","null","","","","","","","","","","",""
"image-keyboard-response","45","83688","0.0-6.0-1.20","6108cd48a97ffccb0e7e518c","bdp_trlrn","Wed Mar 15 2023 14:58:47 GMT-0400 (Eastern Daylight Time)","667932","Untrustworthy,Trustworthy","","","","rating","","","1576","","trustrating_stim/white_00519_940519_fb_edt.bmp","9","","","","","","","","","","",""
"image-keyboard-response","46","83898","0.0-6.0-2.20","6108cd48a97ffccb0e7e518c","bdp_trlrn","Wed Mar 15 2023 14:58:47 GMT-0400 (Eastern Daylight Time)","667932","Untrustworthy,Trustworthy","","","","ratingFB","","","null","","trustrating_stim/white_00519_940519_fb_edt.bmp","null","","","","","","","","","","",""
"image-keyboard-response","47","86621","0.0-6.0-1.21","6108cd48a97ffccb0e7e518c","bdp_trlrn","Wed Mar 15 2023 14:58:47 GMT-0400 (Eastern Daylight Time)","667932","Untrustworthy,Trustworthy","","","","rating","","","2611","","trustrating_stim/white_00120_931230_fa_edt.bmp","8","","","","","","","","","","",""
"image-keyboard-response","48","86829","0.0-6.0-2.21","6108cd48a97ffccb0e7e518c","bdp_trlrn","Wed Mar 15 2023 14:58:47 GMT-0400 (Eastern Daylight Time)","667932","Untrustworthy,Trustworthy","","","","ratingFB","","","null","","trustrating_stim/white_00120_931230_fa_edt.bmp","null","","","","","","","","","","",""
"image-keyboard-response","49","88850","0.0-6.0-1.22","6108cd48a97ffccb0e7e518c","bdp_trlrn","Wed Mar 15 2023 14:58:47 GMT-0400 (Eastern Daylight Time)","667932","Untrustworthy,Trustworthy","","","","rating","","","1915","","trustrating_stim/white_00761_941201_fb_edt.bmp","9","","","","","","","","","","",""
"image-keyboard-response","50","89053","0.0-6.0-2.22","6108cd48a97ffccb0e7e518c","bdp_trlrn","Wed Mar 15 2023 14:58:47 GMT-0400 (Eastern Daylight Time)","667932","Untrustworthy,Trustworthy","","","","ratingFB","","","null","","trustrating_stim/white_00761_941201_fb_edt.bmp","null","","","","","","","","","","",""
"image-keyboard-response","51","90675","0.0-6.0-1.23","6108cd48a97ffccb0e7e518c","bdp_trlrn","Wed Mar 15 2023 14:58:47 GMT-0400 (Eastern Daylight Time)","667932","Untrustworthy,Trustworthy","","","","rating","","","1517","","trustrating_stim/white_mw056.bmp","1","","","","","","","","","","",""
"image-keyboard-response","52","90887","0.0-6.0-2.23","6108cd48a97ffccb0e7e518c","bdp_trlrn","Wed Mar 15 2023 14:58:47 GMT-0400 (Eastern Daylight Time)","667932","Untrustworthy,Trustworthy","","","","ratingFB","","","null","","trustrating_stim/white_mw056.bmp","null","","","","","","","","","","",""
"image-keyboard-response","53","92060","0.0-6.0-1.24","6108cd48a97ffccb0e7e518c","bdp_trlrn","Wed Mar 15 2023 14:58:47 GMT-0400 (Eastern Daylight Time)","667932","Untrustworthy,Trustworthy","","","","rating","","","1062","","trustrating_stim/white_mw060.bmp","1","","","","","","","","","","",""
"image-keyboard-response","54","92268","0.0-6.0-2.24","6108cd48a97ffccb0e7e518c","bdp_trlrn","Wed Mar 15 2023 14:58:47 GMT-0400 (Eastern Daylight Time)","667932","Untrustworthy,Trustworthy","","","","ratingFB","","","null","","trustrating_stim/white_mw060.bmp","null","","","","","","","","","","",""
"image-keyboard-response","55","93473","0.0-6.0-1.25","6108cd48a97ffccb0e7e518c","bdp_trlrn","Wed Mar 15 2023 14:58:47 GMT-0400 (Eastern Daylight Time)","667932","Untrustworthy,Trustworthy","","","","rating","","","1100","","trustrating_stim/white_00129_931230_fb_edt.bmp","6","","","","","","","","","","",""
"image-keyboard-response","56","93679","0.0-6.0-2.25","6108cd48a97ffccb0e7e518c","bdp_trlrn","Wed Mar 15 2023 14:58:47 GMT-0400 (Eastern Daylight Time)","667932","Untrustworthy,Trustworthy","","","","ratingFB","","","null","","trustrating_stim/white_00129_931230_fb_edt.bmp","null","","","","","","","","","","",""
"image-keyboard-response","57","95330","0.0-6.0-1.26","6108cd48a97ffccb0e7e518c","bdp_trlrn","Wed Mar 15 2023 14:58:47 GMT-0400 (Eastern Daylight Time)","667932","Untrustworthy,Trustworthy","","","","rating","","","1540","","trustrating_stim/white_00109_931230_fa_edt.bmp","5","","","","","","","","","","",""
"image-keyboard-response","58","95536","0.0-6.0-2.26","6108cd48a97ffccb0e7e518c","bdp_trlrn","Wed Mar 15 2023 14:58:47 GMT-0400 (Eastern Daylight Time)","667932","Untrustworthy,Trustworthy","","","","ratingFB","","","null","","trustrating_stim/white_00109_931230_fa_edt.bmp","null","","","","","","","","","","",""
"image-keyboard-response","59","97053","0.0-6.0-1.27","6108cd48a97ffccb0e7e518c","bdp_trlrn","Wed Mar 15 2023 14:58:47 GMT-0400 (Eastern Daylight Time)","667932","Untrustworthy,Trustworthy","","","","rating","","","1406","","trustrating_stim/white_mw084.bmp","4","","","","","","","","","","",""
"image-keyboard-response","60","97260","0.0-6.0-2.27","6108cd48a97ffccb0e7e518c","bdp_trlrn","Wed Mar 15 2023 14:58:47 GMT-0400 (Eastern Daylight Time)","667932","Untrustworthy,Trustworthy","","","","ratingFB","","","null","","trustrating_stim/white_mw084.bmp","null","","","","","","","","","","",""
"image-keyboard-response","61","99811","0.0-6.0-1.28","6108cd48a97ffccb0e7e518c","bdp_trlrn","Wed Mar 15 2023 14:58:47 GMT-0400 (Eastern Daylight Time)","667932","Untrustworthy,Trustworthy","","","","rating","","","2444","","trustrating_stim/white_mw048.bmp","7","","","","","","","","","","",""
"image-keyboard-response","62","100023","0.0-6.0-2.28","6108cd48a97ffccb0e7e518c","bdp_trlrn","Wed Mar 15 2023 14:58:47 GMT-0400 (Eastern Daylight Time)","667932","Untrustworthy,Trustworthy","","","","ratingFB","","","null","","trustrating_stim/white_mw048.bmp","null","","","","","","","","","","",""
"image-keyboard-response","63","103471","0.0-6.0-1.29","6108cd48a97ffccb0e7e518c","bdp_trlrn","Wed Mar 15 2023 14:58:47 GMT-0400 (Eastern Daylight Time)","667932","Untrustworthy,Trustworthy","","","","rating","","","3334","","trustrating_stim/white_mw071.bmp","5","","","","","","","","","","",""
"image-keyboard-response","64","103677","0.0-6.0-2.29","6108cd48a97ffccb0e7e518c","bdp_trlrn","Wed Mar 15 2023 14:58:47 GMT-0400 (Eastern Daylight Time)","667932","Untrustworthy,Trustworthy","","","","ratingFB","","","null","","trustrating_stim/white_mw071.bmp","null","","","","","","","","","","",""
"image-keyboard-response","65","110761","0.0-6.0-1.30","6108cd48a97ffccb0e7e518c","bdp_trlrn","Wed Mar 15 2023 14:58:47 GMT-0400 (Eastern Daylight Time)","667932","Untrustworthy,Trustworthy","","","","rating","","","6975","","trustrating_stim/white_00340_940422_fa_edt.bmp","4","","","","","","","","","","",""
"image-keyboard-response","66","110976","0.0-6.0-2.30","6108cd48a97ffccb0e7e518c","bdp_trlrn","Wed Mar 15 2023 14:58:47 GMT-0400 (Eastern Daylight Time)","667932","Untrustworthy,Trustworthy","","","","ratingFB","","","null","","trustrating_stim/white_00340_940422_fa_edt.bmp","null","","","","","","","","","","",""
"image-keyboard-response","67","112732","0.0-6.0-1.31","6108cd48a97ffccb0e7e518c","bdp_trlrn","Wed Mar 15 2023 14:58:47 GMT-0400 (Eastern Daylight Time)","667932","Untrustworthy,Trustworthy","","","","rating","","","1644","","trustrating_stim/white_00129_931230_fb_edt.bmp","5","","","","","","","","","","",""
"image-keyboard-response","68","112944","0.0-6.0-2.31","6108cd48a97ffccb0e7e518c","bdp_trlrn","Wed Mar 15 2023 14:58:47 GMT-0400 (Eastern Daylight Time)","667932","Untrustworthy,Trustworthy","","","","ratingFB","","","null","","trustrating_stim/white_00129_931230_fb_edt.bmp","null","","","","","","","","","","",""
"image-keyboard-response","69","114804","0.0-6.0-1.32","6108cd48a97ffccb0e7e518c","bdp_trlrn","Wed Mar 15 2023 14:58:47 GMT-0400 (Eastern Daylight Time)","667932","Untrustworthy,Trustworthy","","","","rating","","","1748","","trustrating_stim/white_00785_941205_fb_edt.bmp","4","","","","","","","","","","",""
"image-keyboard-response","70","115011","0.0-6.0-2.32","6108cd48a97ffccb0e7e518c","bdp_trlrn","Wed Mar 15 2023 14:58:47 GMT-0400 (Eastern Daylight Time)","667932","Untrustworthy,Trustworthy","","","","ratingFB","","","null","","trustrating_stim/white_00785_941205_fb_edt.bmp","null","","","","","","","","","","",""
"image-keyboard-response","71","116477","0.0-6.0-1.33","6108cd48a97ffccb0e7e518c","bdp_trlrn","Wed Mar 15 2023 14:58:47 GMT-0400 (Eastern Daylight Time)","667932","Untrustworthy,Trustworthy","","","","rating","","","1360","","trustrating_stim/white_mw063.bmp","4","","","","","","","","","","",""
"image-keyboard-response","72","116684","0.0-6.0-2.33","6108cd48a97ffccb0e7e518c","bdp_trlrn","Wed Mar 15 2023 14:58:47 GMT-0400 (Eastern Daylight Time)","667932","Untrustworthy,Trustworthy","","","","ratingFB","","","null","","trustrating_stim/white_mw063.bmp","null","","","","","","","","","","",""
"image-keyboard-response","73","117818","0.0-6.0-1.34","6108cd48a97ffccb0e7e518c","bdp_trlrn","Wed Mar 15 2023 14:58:47 GMT-0400 (Eastern Daylight Time)","667932","Untrustworthy,Trustworthy","","","","rating","","","1029","","trustrating_stim/white_00807_941205_fb_edt.bmp","4","","","","","","","","","","",""
"image-keyboard-response","74","118030","0.0-6.0-2.34","6108cd48a97ffccb0e7e518c","bdp_trlrn","Wed Mar 15 2023 14:58:47 GMT-0400 (Eastern Daylight Time)","667932","Untrustworthy,Trustworthy","","","","ratingFB","","","null","","trustrating_stim/white_00807_941205_fb_edt.bmp","null","","","","","","","","","","",""
"image-keyboard-response","75","119769","0.0-6.0-1.35","6108cd48a97ffccb0e7e518c","bdp_trlrn","Wed Mar 15 2023 14:58:47 GMT-0400 (Eastern Daylight Time)","667932","Untrustworthy,Trustworthy","","","","rating","","","1628","","trustrating_stim/white_00602_940928_fb_edt.bmp","9","","","","","","","","","","",""
"image-keyboard-response","76","119980","0.0-6.0-2.35","6108cd48a97ffccb0e7e518c","bdp_trlrn","Wed Mar 15 2023 14:58:47 GMT-0400 (Eastern Daylight Time)","667932","Untrustworthy,Trustworthy","","","","ratingFB","","","null","","trustrating_stim/white_00602_940928_fb_edt.bmp","null","","","","","","","","","","",""
"image-keyboard-response","77","124284","0.0-6.0-1.36","6108cd48a97ffccb0e7e518c","bdp_trlrn","Wed Mar 15 2023 14:58:47 GMT-0400 (Eastern Daylight Time)","667932","Untrustworthy,Trustworthy","","","","rating","","","4199","","trustrating_stim/white_00109_931230_fa_edt.bmp","8","","","","","","","","","","",""
"image-keyboard-response","78","124496","0.0-6.0-2.36","6108cd48a97ffccb0e7e518c","bdp_trlrn","Wed Mar 15 2023 14:58:47 GMT-0400 (Eastern Daylight Time)","667932","Untrustworthy,Trustworthy","","","","ratingFB","","","null","","trustrating_stim/white_00109_931230_fa_edt.bmp","null","","","","","","","","","","",""
"image-keyboard-response","79","125895","0.0-6.0-1.37","6108cd48a97ffccb0e7e518c","bdp_trlrn","Wed Mar 15 2023 14:58:47 GMT-0400 (Eastern Daylight Time)","667932","Untrustworthy,Trustworthy","","","","rating","","","1288","","trustrating_stim/white_00761_941201_fb_edt.bmp","9","","","","","","","","","","",""
"image-keyboard-response","80","126099","0.0-6.0-2.37","6108cd48a97ffccb0e7e518c","bdp_trlrn","Wed Mar 15 2023 14:58:47 GMT-0400 (Eastern Daylight Time)","667932","Untrustworthy,Trustworthy","","","","ratingFB","","","null","","trustrating_stim/white_00761_941201_fb_edt.bmp","null","","","","","","","","","","",""
"image-keyboard-response","81","127440","0.0-6.0-1.38","6108cd48a97ffccb0e7e518c","bdp_trlrn","Wed Mar 15 2023 14:58:47 GMT-0400 (Eastern Daylight Time)","667932","Untrustworthy,Trustworthy","","","","rating","","","1236","","trustrating_stim/white_00519_940519_fb_edt.bmp","9","","","","","","","","","","",""
"image-keyboard-response","82","127644","0.0-6.0-2.38","6108cd48a97ffccb0e7e518c","bdp_trlrn","Wed Mar 15 2023 14:58:47 GMT-0400 (Eastern Daylight Time)","667932","Untrustworthy,Trustworthy","","","","ratingFB","","","null","","trustrating_stim/white_00519_940519_fb_edt.bmp","null","","","","","","","","","","",""
"image-keyboard-response","83","129038","0.0-6.0-1.39","6108cd48a97ffccb0e7e518c","bdp_trlrn","Wed Mar 15 2023 14:58:47 GMT-0400 (Eastern Daylight Time)","667932","Untrustworthy,Trustworthy","","","","rating","","","1291","","trustrating_stim/white_00120_931230_fa_edt.bmp","9","","","","","","","","","","",""
"image-keyboard-response","84","129244","0.0-6.0-2.39","6108cd48a97ffccb0e7e518c","bdp_trlrn","Wed Mar 15 2023 14:58:47 GMT-0400 (Eastern Daylight Time)","667932","Untrustworthy,Trustworthy","","","","ratingFB","","","null","","trustrating_stim/white_00120_931230_fa_edt.bmp","null","","","","","","","","","","",""
"image-keyboard-response","85","131886","0.0-6.0-1.40","6108cd48a97ffccb0e7e518c","bdp_trlrn","Wed Mar 15 2023 14:58:47 GMT-0400 (Eastern Daylight Time)","667932","Untrustworthy,Trustworthy","","","","rating","","","2537","","trustrating_stim/white_mw071.bmp","5","","","","","","","","","","",""
"image-keyboard-response","86","132094","0.0-6.0-2.40","6108cd48a97ffccb0e7e518c","bdp_trlrn","Wed Mar 15 2023 14:58:47 GMT-0400 (Eastern Daylight Time)","667932","Untrustworthy,Trustworthy","","","","ratingFB","","","null","","trustrating_stim/white_mw071.bmp","null","","","","","","","","","","",""
"image-keyboard-response","87","135075","0.0-6.0-1.41","6108cd48a97ffccb0e7e518c","bdp_trlrn","Wed Mar 15 2023 14:58:47 GMT-0400 (Eastern Daylight Time)","667932","Untrustworthy,Trustworthy","","","","rating","","","2875","","trustrating_stim/white_mw048.bmp","5","","","","","","","","","","",""
"image-keyboard-response","88","135287","0.0-6.0-2.41","6108cd48a97ffccb0e7e518c","bdp_trlrn","Wed Mar 15 2023 14:58:47 GMT-0400 (Eastern Daylight Time)","667932","Untrustworthy,Trustworthy","","","","ratingFB","","","null","","trustrating_stim/white_mw048.bmp","null","","","","","","","","","","",""
"image-keyboard-response","89","136646","0.0-6.0-1.42","6108cd48a97ffccb0e7e518c","bdp_trlrn","Wed Mar 15 2023 14:58:47 GMT-0400 (Eastern Daylight Time)","667932","Untrustworthy,Trustworthy","","","","rating","","","1248","","trustrating_stim/white_mw066.bmp","5","","","","","","","","","","",""
"image-keyboard-response","90","136854","0.0-6.0-2.42","6108cd48a97ffccb0e7e518c","bdp_trlrn","Wed Mar 15 2023 14:58:47 GMT-0400 (Eastern Daylight Time)","667932","Untrustworthy,Trustworthy","","","","ratingFB","","","null","","trustrating_stim/white_mw066.bmp","null","","","","","","","","","","",""
"image-keyboard-response","91","138243","0.0-6.0-1.43","6108cd48a97ffccb0e7e518c","bdp_trlrn","Wed Mar 15 2023 14:58:47 GMT-0400 (Eastern Daylight Time)","667932","Untrustworthy,Trustworthy","","","","rating","","","1278","","trustrating_stim/white_mw060.bmp","5","","","","","","","","","","",""
"image-keyboard-response","92","138450","0.0-6.0-2.43","6108cd48a97ffccb0e7e518c","bdp_trlrn","Wed Mar 15 2023 14:58:47 GMT-0400 (Eastern Daylight Time)","667932","Untrustworthy,Trustworthy","","","","ratingFB","","","null","","trustrating_stim/white_mw060.bmp","null","","","","","","","","","","",""
"image-keyboard-response","93","141929","0.0-6.0-1.44","6108cd48a97ffccb0e7e518c","bdp_trlrn","Wed Mar 15 2023 14:58:47 GMT-0400 (Eastern Daylight Time)","667932","Untrustworthy,Trustworthy","","","","rating","","","3372","","trustrating_stim/white_mw033.bmp","7","","","","","","","","","","",""
"image-keyboard-response","94","142142","0.0-6.0-2.44","6108cd48a97ffccb0e7e518c","bdp_trlrn","Wed Mar 15 2023 14:58:47 GMT-0400 (Eastern Daylight Time)","667932","Untrustworthy,Trustworthy","","","","ratingFB","","","null","","trustrating_stim/white_mw033.bmp","null","","","","","","","","","","",""
"image-keyboard-response","95","143901","0.0-6.0-1.45","6108cd48a97ffccb0e7e518c","bdp_trlrn","Wed Mar 15 2023 14:58:47 GMT-0400 (Eastern Daylight Time)","667932","Untrustworthy,Trustworthy","","","","rating","","","1648","","trustrating_stim/white_mw084.bmp","6","","","","","","","","","","",""
"image-keyboard-response","96","144110","0.0-6.0-2.45","6108cd48a97ffccb0e7e518c","bdp_trlrn","Wed Mar 15 2023 14:58:47 GMT-0400 (Eastern Daylight Time)","667932","Untrustworthy,Trustworthy","","","","ratingFB","","","null","","trustrating_stim/white_mw084.bmp","null","","","","","","","","","","",""
"image-keyboard-response","97","145799","0.0-6.0-1.46","6108cd48a97ffccb0e7e518c","bdp_trlrn","Wed Mar 15 2023 14:58:47 GMT-0400 (Eastern Daylight Time)","667932","Untrustworthy,Trustworthy","","","","rating","","","1578","","trustrating_stim/white_00577_940928_fa_edt.bmp","6","","","","","","","","","","",""
"image-keyboard-response","98","146002","0.0-6.0-2.46","6108cd48a97ffccb0e7e518c","bdp_trlrn","Wed Mar 15 2023 14:58:47 GMT-0400 (Eastern Daylight Time)","667932","Untrustworthy,Trustworthy","","","","ratingFB","","","null","","trustrating_stim/white_00577_940928_fa_edt.bmp","null","","","","","","","","","","",""
"image-keyboard-response","99","147388","0.0-6.0-1.47","6108cd48a97ffccb0e7e518c","bdp_trlrn","Wed Mar 15 2023 14:58:47 GMT-0400 (Eastern Daylight Time)","667932","Untrustworthy,Trustworthy","","","","rating","","","1279","","trustrating_stim/white_mw035.bmp","6","","","","","","","","","","",""
"image-keyboard-response","100","147598","0.0-6.0-2.47","6108cd48a97ffccb0e7e518c","bdp_trlrn","Wed Mar 15 2023 14:58:47 GMT-0400 (Eastern Daylight Time)","667932","Untrustworthy,Trustworthy","","","","ratingFB","","","null","","trustrating_stim/white_mw035.bmp","null","","","","","","","","","","",""
"image-keyboard-response","101","149271","0.0-6.0-1.48","6108cd48a97ffccb0e7e518c","bdp_trlrn","Wed Mar 15 2023 14:58:47 GMT-0400 (Eastern Daylight Time)","667932","Untrustworthy,Trustworthy","","","","rating","","","1561","","trustrating_stim/white_mw049.bmp","7","","","","","","","","","","",""
"image-keyboard-response","102","149474","0.0-6.0-2.48","6108cd48a97ffccb0e7e518c","bdp_trlrn","Wed Mar 15 2023 14:58:47 GMT-0400 (Eastern Daylight Time)","667932","Untrustworthy,Trustworthy","","","","ratingFB","","","null","","trustrating_stim/white_mw049.bmp","null","","","","","","","","","","",""
"image-keyboard-response","103","151156","0.0-6.0-1.49","6108cd48a97ffccb0e7e518c","bdp_trlrn","Wed Mar 15 2023 14:58:47 GMT-0400 (Eastern Daylight Time)","667932","Untrustworthy,Trustworthy","","","","rating","","","1576","","trustrating_stim/white_00299_940422_fa_edt.bmp","7","","","","","","","","","","",""
"image-keyboard-response","104","151366","0.0-6.0-2.49","6108cd48a97ffccb0e7e518c","bdp_trlrn","Wed Mar 15 2023 14:58:47 GMT-0400 (Eastern Daylight Time)","667932","Untrustworthy,Trustworthy","","","","ratingFB","","","null","","trustrating_stim/white_00299_940422_fa_edt.bmp","null","","","","","","","","","","",""
"image-keyboard-response","105","153062","0.0-6.0-1.50","6108cd48a97ffccb0e7e518c","bdp_trlrn","Wed Mar 15 2023 14:58:47 GMT-0400 (Eastern Daylight Time)","667932","Untrustworthy,Trustworthy","","","","rating","","","1584","","trustrating_stim/white_mw089.bmp","5","","","","","","","","","","",""
"image-keyboard-response","106","153270","0.0-6.0-2.50","6108cd48a97ffccb0e7e518c","bdp_trlrn","Wed Mar 15 2023 14:58:47 GMT-0400 (Eastern Daylight Time)","667932","Untrustworthy,Trustworthy","","","","ratingFB","","","null","","trustrating_stim/white_mw089.bmp","null","","","","","","","","","","",""
"image-keyboard-response","107","155011","0.0-6.0-1.51","6108cd48a97ffccb0e7e518c","bdp_trlrn","Wed Mar 15 2023 14:58:47 GMT-0400 (Eastern Daylight Time)","667932","Untrustworthy,Trustworthy","","","","rating","","","1629","","trustrating_stim/white_mw099.bmp","4","","","","","","","","","","",""
"image-keyboard-response","108","155220","0.0-6.0-2.51","6108cd48a97ffccb0e7e518c","bdp_trlrn","Wed Mar 15 2023 14:58:47 GMT-0400 (Eastern Daylight Time)","667932","Untrustworthy,Trustworthy","","","","ratingFB","","","null","","trustrating_stim/white_mw099.bmp","null","","","","","","","","","","",""
"image-keyboard-response","109","156623","0.0-6.0-1.52","6108cd48a97ffccb0e7e518c","bdp_trlrn","Wed Mar 15 2023 14:58:47 GMT-0400 (Eastern Daylight Time)","667932","Untrustworthy,Trustworthy","","","","rating","","","1297","","trustrating_stim/white_mw056.bmp","5","","","","","","","","","","",""
"image-keyboard-response","110","156828","0.0-6.0-2.52","6108cd48a97ffccb0e7e518c","bdp_trlrn","Wed Mar 15 2023 14:58:47 GMT-0400 (Eastern Daylight Time)","667932","Untrustworthy,Trustworthy","","","","ratingFB","","","null","","trustrating_stim/white_mw056.bmp","null","","","","","","","","","","",""
"image-keyboard-response","111","158639","0.0-6.0-1.53","6108cd48a97ffccb0e7e518c","bdp_trlrn","Wed Mar 15 2023 14:58:47 GMT-0400 (Eastern Daylight Time)","667932","Untrustworthy,Trustworthy","","","","rating","","","1700","","trustrating_stim/white_mw097.bmp","5","","","","","","","","","","",""
"image-keyboard-response","112","158842","0.0-6.0-2.53","6108cd48a97ffccb0e7e518c","bdp_trlrn","Wed Mar 15 2023 14:58:47 GMT-0400 (Eastern Daylight Time)","667932","Untrustworthy,Trustworthy","","","","ratingFB","","","null","","trustrating_stim/white_mw097.bmp","null","","","","","","","","","","",""
"image-keyboard-response","113","161151","0.0-6.0-1.54","6108cd48a97ffccb0e7e518c","bdp_trlrn","Wed Mar 15 2023 14:58:47 GMT-0400 (Eastern Daylight Time)","667932","Untrustworthy,Trustworthy","","","","rating","","","2202","","trustrating_stim/white_mw046.bmp","6","","","","","","","","","","",""
"image-keyboard-response","114","161356","0.0-6.0-2.54","6108cd48a97ffccb0e7e518c","bdp_trlrn","Wed Mar 15 2023 14:58:47 GMT-0400 (Eastern Daylight Time)","667932","Untrustworthy,Trustworthy","","","","ratingFB","","","null","","trustrating_stim/white_mw046.bmp","null","","","","","","","","","","",""
"image-keyboard-response","115","163559","0.0-6.0-1.55","6108cd48a97ffccb0e7e518c","bdp_trlrn","Wed Mar 15 2023 14:58:47 GMT-0400 (Eastern Daylight Time)","667932","Untrustworthy,Trustworthy","","","","rating","","","2091","","trustrating_stim/white_00757_941201_fa_edt.bmp","3","","","","","","","","","","",""
"image-keyboard-response","116","163765","0.0-6.0-2.55","6108cd48a97ffccb0e7e518c","bdp_trlrn","Wed Mar 15 2023 14:58:47 GMT-0400 (Eastern Daylight Time)","667932","Untrustworthy,Trustworthy","","","","ratingFB","","","null","","trustrating_stim/white_00757_941201_fa_edt.bmp","null","","","","","","","","","","",""
"image-keyboard-response","117","165421","0.0-6.0-1.56","6108cd48a97ffccb0e7e518c","bdp_trlrn","Wed Mar 15 2023 14:58:47 GMT-0400 (Eastern Daylight Time)","667932","Untrustworthy,Trustworthy","","","","rating","","","1545","","trustrating_stim/white_00898_960530_fa_edt.bmp","9","","","","","","","","","","",""
"image-keyboard-response","118","165628","0.0-6.0-2.56","6108cd48a97ffccb0e7e518c","bdp_trlrn","Wed Mar 15 2023 14:58:47 GMT-0400 (Eastern Daylight Time)","667932","Untrustworthy,Trustworthy","","","","ratingFB","","","null","","trustrating_stim/white_00898_960530_fa_edt.bmp","null","","","","","","","","","","",""
"image-keyboard-response","119","167070","0.0-6.0-1.57","6108cd48a97ffccb0e7e518c","bdp_trlrn","Wed Mar 15 2023 14:58:47 GMT-0400 (Eastern Daylight Time)","667932","Untrustworthy,Trustworthy","","","","rating","","","1331","","trustrating_stim/white_00659_941121_fa_edt.bmp","5","","","","","","","","","","",""
"image-keyboard-response","120","167276","0.0-6.0-2.57","6108cd48a97ffccb0e7e518c","bdp_trlrn","Wed Mar 15 2023 14:58:47 GMT-0400 (Eastern Daylight Time)","667932","Untrustworthy,Trustworthy","","","","ratingFB","","","null","","trustrating_stim/white_00659_941121_fa_edt.bmp","null","","","","","","","","","","",""
"image-keyboard-response","121","168870","0.0-6.0-1.58","6108cd48a97ffccb0e7e518c","bdp_trlrn","Wed Mar 15 2023 14:58:47 GMT-0400 (Eastern Daylight Time)","667932","Untrustworthy,Trustworthy","","","","rating","","","1481","","trustrating_stim/white_mw053.bmp","7","","","","","","","","","","",""
"image-keyboard-response","122","169076","0.0-6.0-2.58","6108cd48a97ffccb0e7e518c","bdp_trlrn","Wed Mar 15 2023 14:58:47 GMT-0400 (Eastern Daylight Time)","667932","Untrustworthy,Trustworthy","","","","ratingFB","","","null","","trustrating_stim/white_mw053.bmp","null","","","","","","","","","","",""
"image-keyboard-response","123","171578","0.0-6.0-1.59","6108cd48a97ffccb0e7e518c","bdp_trlrn","Wed Mar 15 2023 14:58:47 GMT-0400 (Eastern Daylight Time)","667932","Untrustworthy,Trustworthy","","","","rating","","","2389","","trustrating_stim/white_00223_940128_fb_edt.bmp","4","","","","","","","","","","",""
"image-keyboard-response","124","171787","0.0-6.0-2.59","6108cd48a97ffccb0e7e518c","bdp_trlrn","Wed Mar 15 2023 14:58:47 GMT-0400 (Eastern Daylight Time)","667932","Untrustworthy,Trustworthy","","","","ratingFB","","","null","","trustrating_stim/white_00223_940128_fb_edt.bmp","null","","","","","","","","","","",""
"instructions","125","173396","0.0-7.0","6108cd48a97ffccb0e7e518c","bdp_trlrn","Wed Mar 15 2023 14:58:47 GMT-0400 (Eastern Daylight Time)","667932","Untrustworthy,Trustworthy","","","","","","[{""page_index"":0,""viewing_time"":1498}]","1499","","","","","","","","","","","","","",""
"instructions","126","227653","0.0-8.0","6108cd48a97ffccb0e7e518c","bdp_trlrn","Wed Mar 15 2023 14:58:47 GMT-0400 (Eastern Daylight Time)","667932","Untrustworthy,Trustworthy","","","","","","[{""page_index"":0,""viewing_time"":16525},{""page_index"":1,""viewing_time"":12673},{""page_index"":2,""viewing_time"":1213},{""page_index"":3,""viewing_time"":2756},{""page_index"":4,""viewing_time"":1273},{""page_index"":5,""viewing_time"":17839},{""page_index"":6,""viewing_time"":1215},{""page_index"":7,""viewing_time"":659}]","54153","","","","","","","","","","","","","",""
"html-keyboard-response","127","231382","0.0-9.0","6108cd48a97ffccb0e7e518c","bdp_trlrn","Wed Mar 15 2023 14:58:47 GMT-0400 (Eastern Daylight Time)","667932","Untrustworthy,Trustworthy","","","","","","","3726","","<div class='header' style='text-align:left; position: absolute; top: 5%; left: 5%;'><small>Task 3 of 5</small></div><div class='instruxDiv'><p><strong>1) What is the minimum number of points you can choose to send to your partner?</strong></p><p>a) 0</p><p>b) 1</p><p>c) 5</p>","C","","","","","","","","","","",""
"html-keyboard-response","128","234107","0.0-10.0","6108cd48a97ffccb0e7e518c","bdp_trlrn","Wed Mar 15 2023 14:58:47 GMT-0400 (Eastern Daylight Time)","667932","Untrustworthy,Trustworthy","","","","","","","2617","","<div class='header' style='text-align:left; position: absolute; top: 5%; left: 5%;'><small>Task 3 of 5</small></div><div class='instruxDiv'><p><strong>1) What is the minimum number of points you can choose to send to your partner?</strong></p><p>a) 1</p><p>b) 1</p><p style='color:#FF0000'>c) 5</p><h3 style='color:#FF0000'>Incorrect!</h3><h3 class='center-content'>The correct response is b).</h3><h3 class='center-content'>The minimum number of points you can choose to send to your partner is 1 point.</h3><p><em>Press SPACEBAR to continue</em></p></div>"," ","","","","","","","","","","",""
"html-keyboard-response","129","246372","0.0-11.0","6108cd48a97ffccb0e7e518c","bdp_trlrn","Wed Mar 15 2023 14:58:47 GMT-0400 (Eastern Daylight Time)","667932","Untrustworthy,Trustworthy","","","","","","","12155","","<div class='header' style='text-align:left; position: absolute; top: 5%; left: 5%;'><small>Task 3 of 5</small></div><div class='instruxDiv'><p><strong>2) What is the maximum number of points you can choose to send to your partner?</strong></p><p>a) 8</p><p>b) 5</p><p>c) 3</p>","A","","","","","","","","","","",""
"html-keyboard-response","130","246898","0.0-12.0","6108cd48a97ffccb0e7e518c","bdp_trlrn","Wed Mar 15 2023 14:58:47 GMT-0400 (Eastern Daylight Time)","667932","Untrustworthy,Trustworthy","","","","","","","420","","<div class='header' style='text-align:left; position: absolute; top: 5%; left: 5%;'><small>Task 3 of 5</small></div><div class='instruxDiv'><p><strong>2) What is the maximum number of points you can choose to send to your partner?</strong></p><p style='color:#FF0000'>a) 8</p><p>b) 5</p><p>c) 3</p><h3 style='color:#FF0000'>Incorrect!</h3><h3 class='center-content'>The correct response is b).</h3><h3 class='center-content'>The maximum number of points you can choose to send to your partner is 5 points.</h3><p><em>Press SPACEBAR to continue</em></p></div>"," ","","","","","","","","","","",""
"html-keyboard-response","131","249945","0.0-13.0","6108cd48a97ffccb0e7e518c","bdp_trlrn","Wed Mar 15 2023 14:58:47 GMT-0400 (Eastern Daylight Time)","667932","Untrustworthy,Trustworthy","","","","","","","2939","","<div class='header' style='text-align:left; position: absolute; top: 5%; left: 5%;'><small>Task 3 of 5</small></div><div class='instruxDiv'><p><strong>3) What happens to the amount of points you send to your partner?</strong></p><p>a) Nothing</p><p>b) It doubles</p><p>c) It quadruples</p>","C","","","","","","","","","","",""
"html-keyboard-response","132","250633","0.0-14.0","6108cd48a97ffccb0e7e518c","bdp_trlrn","Wed Mar 15 2023 14:58:47 GMT-0400 (Eastern Daylight Time)","667932","Untrustworthy,Trustworthy","","","","","","","574","","<div class='header' style='text-align:left; position: absolute; top: 5%; left: 5%;'><small>Task 3 of 5</small></div><div class='instruxDiv'><p><strong>3) What happens to the amount of points you send to your partner?</strong></p><p>a) Nothing</p><p>b) It doubles</p><p style='color:#00FF00'>c) It quadruples</p><h3 style='color:#00FF00'>Correct!</h3><h3 class='center-content'>The correct response is c).</h3><h3 class='center-content'>The amount of points you send to your partner quadruples.</h3><p><em>Press SPACEBAR to continue</em></p></div>"," ","","","","","","","","","","",""
"html-keyboard-response","133","310501","0.0-15.0","6108cd48a97ffccb0e7e518c","bdp_trlrn","Wed Mar 15 2023 14:58:47 GMT-0400 (Eastern Daylight Time)","667932","Untrustworthy,Trustworthy","","","","","","","59762","","<div class='header' style='text-align:left; position: absolute; top: 5%; left: 5%;'><small>Task 3 of 5</small></div><div class='instruxDiv'><p><strong>4) If you decided to share 4 out of 5 points with your partner, and they decided to share half of the amount they received with you, how many points would you receive back from them on this round?</strong></p><p>a) 16</p><p>b) 0</p><p>c) 8</p>","C","","","","","","","","","","",""
"html-keyboard-response","134","316777","0.0-16.0","6108cd48a97ffccb0e7e518c","bdp_trlrn","Wed Mar 15 2023 14:58:47 GMT-0400 (Eastern Daylight Time)","667932","Untrustworthy,Trustworthy","","","","","","","6164","","<div class='header' style='text-align:left; position: absolute; top: 5%; left: 5%;'><small>Task 3 of 5</small></div><div class='instruxDiv'><p><strong>4) If you decided to share 4 out of 5 points with your partner, and they decided to share half of the amount they received with you, how many points would you receive back from them on this round?</strong></p><p>a) 16</p><p>b) 0</p><p style='color:#00FF00'>c) 8</p><h3 style='color:#00FF00'>Correct!</h3><h3 class='center-content'>The correct response is c).</h3><h3 class='center-content'>If you shared 4 out of 5 points with your partner and they decided to share half of the amount they received with you, you would receive 8 points back (i.e. (4 x 4)/2 = 8).</h3><p><em>Press SPACEBAR to continue</em></p></div>"," ","","","","","","","","","","",""
"html-keyboard-response","135","321885","0.0-17.0","6108cd48a97ffccb0e7e518c","bdp_trlrn","Wed Mar 15 2023 14:58:47 GMT-0400 (Eastern Daylight Time)","667932","Untrustworthy,Trustworthy","","","","","","","null","","<div class='header' style='text-align:left; position: absolute; top: 5%; left: 5%;'><small>Task 3 of 5</small></div><div class='instruxDiv'><p>Thank you for completing the quiz<p>These are the actual partners you will be interacting with in the next block:<p><div class='tc' align='center'><img class='introPic' src='trustrating_stim/white_mw099.bmp'><br><strong>Ethan</strong></div><div class='bl' align='center'><img class='introPic' src='trustrating_stim/white_mw089.bmp'><br><strong>Jonathan</strong></div><div class='br' align='center'><img class='introPic' src='trustrating_stim/white_00898_960530_fa_edt.bmp'><br><strong>Jacob</strong></div></div><p>Across <strong>66 rounds</strong> you will interact with each partner <strong>22 times</strong> (in random order).<p style='align:center; color:white'><font <em>Press SPACEBAR to continue</em></p>","null","","","","","","","","","","",""
"instructions","136","323017","0.0-18.0","6108cd48a97ffccb0e7e518c","bdp_trlrn","Wed Mar 15 2023 14:58:47 GMT-0400 (Eastern Daylight Time)","667932","Untrustworthy,Trustworthy","","","","","","[{""page_index"":0,""viewing_time"":531},{""page_index"":1,""viewing_time"":600}]","1132","","","","","","","","","","","","","",""
"html-keyboard-response","137","327557","0.0-19.0-1.0","6108cd48a97ffccb0e7e518c","bdp_trlrn","Wed Mar 15 2023 14:58:47 GMT-0400 (Eastern Daylight Time)","667932","Untrustworthy,Trustworthy","","","","decision","","","4434","","<div class='trialDiv'><img src='trustrating_stim/white_00898_960530_fa_edt.bmp'><br><font class='baseline'><strong>Jacob</strong><p>Choose number of points to send.</font><div class='respPicDiv'><img src='img/responseButtonOffersNo0L.png' class='respPic'></div></div>","3","1","Jacob","10","Kept","0.65,0.2","13","0.65","trustrating_stim/white_00898_960530_fa_edt.bmp","9","5","1"
"html-keyboard-response","138","327817","0.0-19.0-2.0","6108cd48a97ffccb0e7e518c","bdp_trlrn","Wed Mar 15 2023 14:58:47 GMT-0400 (Eastern Daylight Time)","667932","Untrustworthy,Trustworthy","","","","decisionFB","","","null","","<div class='trialDiv'><img src='trustrating_stim/white_00898_960530_fa_edt.bmp'><br><font class='baseline'><strong>Jacob</strong><p>Choose number of points to send.</font><div class='respPicDiv'><img src='img/responseButtonOffersNo0L3.png' class='respPic'></div></div>","null","1","Jacob","10","Kept","0.65,0.2","13","0.65","trustrating_stim/white_00898_960530_fa_edt.bmp","9","2","1"
"html-keyboard-response","139","328827","0.0-19.0-3.0","6108cd48a97ffccb0e7e518c","bdp_trlrn","Wed Mar 15 2023 14:58:47 GMT-0400 (Eastern Daylight Time)","667932","Untrustworthy,Trustworthy","","","","feedback","","","null","","<div class='trialDiv'><img src='trustrating_stim/white_00898_960530_fa_edt.bmp'><br><font class='baseline'><strong>Jacob</strong><p>Received: <strong>12</strong></font> &nbsp; &nbsp; &nbsp; &nbsp; &nbsp; &nbsp;<font class='negOutcome'>Shared back: <strong>0</strong></font></font><div class='respPicDiv'><img src='img/responseButtonOffersNo0_wht.png' class='respPic'></div></div>","null","1","Jacob","10","Kept","0.65,0.2","13","0.65","trustrating_stim/white_00898_960530_fa_edt.bmp","9","2","1"
"html-keyboard-response","140","336718","0.0-19.0-1.1","6108cd48a97ffccb0e7e518c","bdp_trlrn","Wed Mar 15 2023 14:58:47 GMT-0400 (Eastern Daylight Time)","667932","Untrustworthy,Trustworthy","","","","decision","","","7889","","<div class='trialDiv'><img src='trustrating_stim/white_mw099.bmp'><br><font class='baseline'><strong>Ethan</strong><p>Choose number of points to send.</font><div class='respPicDiv'><img src='img/responseButtonOffersNo0L.png' class='respPic'></div></div>","3","1","Ethan","3","Shared","0.8,0.2","8","0.8","trustrating_stim/white_mw099.bmp","3.5","7","2"
"html-keyboard-response","141","336977","0.0-19.0-2.1","6108cd48a97ffccb0e7e518c","bdp_trlrn","Wed Mar 15 2023 14:58:47 GMT-0400 (Eastern Daylight Time)","667932","Untrustworthy,Trustworthy","","","","decisionFB","","","null","","<div class='trialDiv'><img src='trustrating_stim/white_mw099.bmp'><br><font class='baseline'><strong>Ethan</strong><p>Choose number of points to send.</font><div class='respPicDiv'><img src='img/responseButtonOffersNo0L3.png' class='respPic'></div></div>","null","1","Ethan","3","Shared","0.8,0.2","8","0.8","trustrating_stim/white_mw099.bmp","3.5","4","2"
"html-keyboard-response","142","337987","0.0-19.0-3.1","6108cd48a97ffccb0e7e518c","bdp_trlrn","Wed Mar 15 2023 14:58:47 GMT-0400 (Eastern Daylight Time)","667932","Untrustworthy,Trustworthy","","","","feedback","","","null","","<div class='trialDiv'><img src='trustrating_stim/white_mw099.bmp'><br><font class='baseline'><strong>Ethan</strong><p>Received: <strong>12</strong></font> &nbsp; &nbsp; &nbsp; &nbsp; &nbsp; &nbsp;<font class='posOutcome'>Shared back: <strong>6</strong></font></font><div class='respPicDiv'><img src='img/responseButtonOffersNo0_wht.png' class='respPic'></div></div>","null","1","Ethan","3","Shared","0.8,0.2","8","0.8","trustrating_stim/white_mw099.bmp","3.5","10","2"
"html-keyboard-response","143","339698","0.0-19.0-1.2","6108cd48a97ffccb0e7e518c","bdp_trlrn","Wed Mar 15 2023 14:58:47 GMT-0400 (Eastern Daylight Time)","667932","Untrustworthy,Trustworthy","","","","decision","","","1709","","<div class='trialDiv'><img src='trustrating_stim/white_mw089.bmp'><br><font class='baseline'><strong>Jonathan</strong><p>Choose number of points to send.</font><div class='respPicDiv'><img src='img/responseButtonOffersNo0L.png' class='respPic'></div></div>","5","1","Jonathan","4","Kept","0.2,0.65","8","0.2","trustrating_stim/white_mw089.bmp","5","15","3"
"html-keyboard-response","144","339954","0.0-19.0-2.2","6108cd48a97ffccb0e7e518c","bdp_trlrn","Wed Mar 15 2023 14:58:47 GMT-0400 (Eastern Daylight Time)","667932","Untrustworthy,Trustworthy","","","","decisionFB","","","null","","<div class='trialDiv'><img src='trustrating_stim/white_mw089.bmp'><br><font class='baseline'><strong>Jonathan</strong><p>Choose number of points to send.</font><div class='respPicDiv'><img src='img/responseButtonOffersNo0L5.png' class='respPic'></div></div>","null","1","Jonathan","4","Kept","0.2,0.65","8","0.2","trustrating_stim/white_mw089.bmp","5","10","3"
"html-keyboard-response","145","340964","0.0-19.0-3.2","6108cd48a97ffccb0e7e518c","bdp_trlrn","Wed Mar 15 2023 14:58:47 GMT-0400 (Eastern Daylight Time)","667932","Untrustworthy,Trustworthy","","","","feedback","","","null","","<div class='trialDiv'><img src='trustrating_stim/white_mw089.bmp'><br><font class='baseline'><strong>Jonathan</strong><p>Received: <strong>20</strong></font> &nbsp; &nbsp; &nbsp; &nbsp; &nbsp; &nbsp;<font class='negOutcome'>Shared back: <strong>0</strong></font></font><div class='respPicDiv'><img src='img/responseButtonOffersNo0_wht.png' class='respPic'></div></div>","null","1","Jonathan","4","Kept","0.2,0.65","8","0.2","trustrating_stim/white_mw089.bmp","5","10","3"
"html-keyboard-response","146","343496","0.0-19.0-1.3","6108cd48a97ffccb0e7e518c","bdp_trlrn","Wed Mar 15 2023 14:58:47 GMT-0400 (Eastern Daylight Time)","667932","Untrustworthy,Trustworthy","","","","decision","","","2530","","<div class='trialDiv'><img src='trustrating_stim/white_00898_960530_fa_edt.bmp'><br><font class='baseline'><strong>Jacob</strong><p>Choose number of points to send.</font><div class='respPicDiv'><img src='img/responseButtonOffersNo0L.png' class='respPic'></div></div>","1","2","Jacob","10","Kept","0.65,0.2","13","0.65","trustrating_stim/white_00898_960530_fa_edt.bmp","9","15","4"
"html-keyboard-response","147","343756","0.0-19.0-2.3","6108cd48a97ffccb0e7e518c","bdp_trlrn","Wed Mar 15 2023 14:58:47 GMT-0400 (Eastern Daylight Time)","667932","Untrustworthy,Trustworthy","","","","decisionFB","","","null","","<div class='trialDiv'><img src='trustrating_stim/white_00898_960530_fa_edt.bmp'><br><font class='baseline'><strong>Jacob</strong><p>Choose number of points to send.</font><div class='respPicDiv'><img src='img/responseButtonOffersNo0L1.png' class='respPic'></div></div>","null","2","Jacob","10","Kept","0.65,0.2","13","0.65","trustrating_stim/white_00898_960530_fa_edt.bmp","9","14","4"
"html-keyboard-response","148","344760","0.0-19.0-3.3","6108cd48a97ffccb0e7e518c","bdp_trlrn","Wed Mar 15 2023 14:58:47 GMT-0400 (Eastern Daylight Time)","667932","Untrustworthy,Trustworthy","","","","feedback","","","null","","<div class='trialDiv'><img src='trustrating_stim/white_00898_960530_fa_edt.bmp'><br><font class='baseline'><strong>Jacob</strong><p>Received: <strong>4</strong></font> &nbsp; &nbsp; &nbsp; &nbsp; &nbsp; &nbsp;<font class='negOutcome'>Shared back: <strong>0</strong></font></font><div class='respPicDiv'><img src='img/responseButtonOffersNo0_wht.png' class='respPic'></div></div>","null","2","Jacob","10","Kept","0.65,0.2","13","0.65","trustrating_stim/white_00898_960530_fa_edt.bmp","9","14","4"
"html-keyboard-response","149","347944","0.0-19.0-1.4","6108cd48a97ffccb0e7e518c","bdp_trlrn","Wed Mar 15 2023 14:58:47 GMT-0400 (Eastern Daylight Time)","667932","Untrustworthy,Trustworthy","","","","decision","","","3182","","<div class='trialDiv'><img src='trustrating_stim/white_mw099.bmp'><br><font class='baseline'><strong>Ethan</strong><p>Choose number of points to send.</font><div class='respPicDiv'><img src='img/responseButtonOffersNo0L.png' class='respPic'></div></div>","5","2","Ethan","3","Shared","0.8,0.2","8","0.8","trustrating_stim/white_mw099.bmp","3.5","19","5"
"html-keyboard-response","150","348203","0.0-19.0-2.4","6108cd48a97ffccb0e7e518c","bdp_trlrn","Wed Mar 15 2023 14:58:47 GMT-0400 (Eastern Daylight Time)","667932","Untrustworthy,Trustworthy","","","","decisionFB","","","null","","<div class='trialDiv'><img src='trustrating_stim/white_mw099.bmp'><br><font class='baseline'><strong>Ethan</strong><p>Choose number of points to send.</font><div class='respPicDiv'><img src='img/responseButtonOffersNo0L5.png' class='respPic'></div></div>","null","2","Ethan","3","Shared","0.8,0.2","8","0.8","trustrating_stim/white_mw099.bmp","3.5","14","5"
"html-keyboard-response","151","349207","0.0-19.0-3.4","6108cd48a97ffccb0e7e518c","bdp_trlrn","Wed Mar 15 2023 14:58:47 GMT-0400 (Eastern Daylight Time)","667932","Untrustworthy,Trustworthy","","","","feedback","","","null","","<div class='trialDiv'><img src='trustrating_stim/white_mw099.bmp'><br><font class='baseline'><strong>Ethan</strong><p>Received: <strong>20</strong></font> &nbsp; &nbsp; &nbsp; &nbsp; &nbsp; &nbsp;<font class='posOutcome'>Shared back: <strong>10</strong></font></font><div class='respPicDiv'><img src='img/responseButtonOffersNo0_wht.png' class='respPic'></div></div>","null","2","Ethan","3","Shared","0.8,0.2","8","0.8","trustrating_stim/white_mw099.bmp","3.5","24","5"
"html-keyboard-response","152","351393","0.0-19.0-1.5","6108cd48a97ffccb0e7e518c","bdp_trlrn","Wed Mar 15 2023 14:58:47 GMT-0400 (Eastern Daylight Time)","667932","Untrustworthy,Trustworthy","","","","decision","","","2184","","<div class='trialDiv'><img src='trustrating_stim/white_mw089.bmp'><br><font class='baseline'><strong>Jonathan</strong><p>Choose number of points to send.</font><div class='respPicDiv'><img src='img/responseButtonOffersNo0L.png' class='respPic'></div></div>","1","2","Jonathan","4","Kept","0.2,0.65","8","0.2","trustrating_stim/white_mw089.bmp","5","29","6"
"html-keyboard-response","153","351651","0.0-19.0-2.5","6108cd48a97ffccb0e7e518c","bdp_trlrn","Wed Mar 15 2023 14:58:47 GMT-0400 (Eastern Daylight Time)","667932","Untrustworthy,Trustworthy","","","","decisionFB","","","null","","<div class='trialDiv'><img src='trustrating_stim/white_mw089.bmp'><br><font class='baseline'><strong>Jonathan</strong><p>Choose number of points to send.</font><div class='respPicDiv'><img src='img/responseButtonOffersNo0L1.png' class='respPic'></div></div>","null","2","Jonathan","4","Kept","0.2,0.65","8","0.2","trustrating_stim/white_mw089.bmp","5","28","6"
"html-keyboard-response","154","352655","0.0-19.0-3.5","6108cd48a97ffccb0e7e518c","bdp_trlrn","Wed Mar 15 2023 14:58:47 GMT-0400 (Eastern Daylight Time)","667932","Untrustworthy,Trustworthy","","","","feedback","","","null","","<div class='trialDiv'><img src='trustrating_stim/white_mw089.bmp'><br><font class='baseline'><strong>Jonathan</strong><p>Received: <strong>4</strong></font> &nbsp; &nbsp; &nbsp; &nbsp; &nbsp; &nbsp;<font class='negOutcome'>Shared back: <strong>0</strong></font></font><div class='respPicDiv'><img src='img/responseButtonOffersNo0_wht.png' class='respPic'></div></div>","null","2","Jonathan","4","Kept","0.2,0.65","8","0.2","trustrating_stim/white_mw089.bmp","5","28","6"
"html-keyboard-response","155","353270","0.0-19.0-1.6","6108cd48a97ffccb0e7e518c","bdp_trlrn","Wed Mar 15 2023 14:58:47 GMT-0400 (Eastern Daylight Time)","667932","Untrustworthy,Trustworthy","","","","decision","","","613","","<div class='trialDiv'><img src='trustrating_stim/white_mw099.bmp'><br><font class='baseline'><strong>Ethan</strong><p>Choose number of points to send.</font><div class='respPicDiv'><img src='img/responseButtonOffersNo0L.png' class='respPic'></div></div>","5","3","Ethan","3","Shared","0.8,0.2","8","0.8","trustrating_stim/white_mw099.bmp","3.5","33","7"
"html-keyboard-response","156","353532","0.0-19.0-2.6","6108cd48a97ffccb0e7e518c","bdp_trlrn","Wed Mar 15 2023 14:58:47 GMT-0400 (Eastern Daylight Time)","667932","Untrustworthy,Trustworthy","","","","decisionFB","","","null","","<div class='trialDiv'><img src='trustrating_stim/white_mw099.bmp'><br><font class='baseline'><strong>Ethan</strong><p>Choose number of points to send.</font><div class='respPicDiv'><img src='img/responseButtonOffersNo0L5.png' class='respPic'></div></div>","null","3","Ethan","3","Shared","0.8,0.2","8","0.8","trustrating_stim/white_mw099.bmp","3.5","28","7"
"html-keyboard-response","157","354536","0.0-19.0-3.6","6108cd48a97ffccb0e7e518c","bdp_trlrn","Wed Mar 15 2023 14:58:47 GMT-0400 (Eastern Daylight Time)","667932","Untrustworthy,Trustworthy","","","","feedback","","","null","","<div class='trialDiv'><img src='trustrating_stim/white_mw099.bmp'><br><font class='baseline'><strong>Ethan</strong><p>Received: <strong>20</strong></font> &nbsp; &nbsp; &nbsp; &nbsp; &nbsp; &nbsp;<font class='posOutcome'>Shared back: <strong>10</strong></font></font><div class='respPicDiv'><img src='img/responseButtonOffersNo0_wht.png' class='respPic'></div></div>","null","3","Ethan","3","Shared","0.8,0.2","8","0.8","trustrating_stim/white_mw099.bmp","3.5","38","7"
"html-keyboard-response","158","355699","0.0-19.0-1.7","6108cd48a97ffccb0e7e518c","bdp_trlrn","Wed Mar 15 2023 14:58:47 GMT-0400 (Eastern Daylight Time)","667932","Untrustworthy,Trustworthy","","","","decision","","","1160","","<div class='trialDiv'><img src='trustrating_stim/white_mw089.bmp'><br><font class='baseline'><strong>Jonathan</strong><p>Choose number of points to send.</font><div class='respPicDiv'><img src='img/responseButtonOffersNo0L.png' class='respPic'></div></div>","4","3","Jonathan","4","Kept","0.2,0.65","8","0.2","trustrating_stim/white_mw089.bmp","5","43","8"
"html-keyboard-response","159","355952","0.0-19.0-2.7","6108cd48a97ffccb0e7e518c","bdp_trlrn","Wed Mar 15 2023 14:58:47 GMT-0400 (Eastern Daylight Time)","667932","Untrustworthy,Trustworthy","","","","decisionFB","","","null","","<div class='trialDiv'><img src='trustrating_stim/white_mw089.bmp'><br><font class='baseline'><strong>Jonathan</strong><p>Choose number of points to send.</font><div class='respPicDiv'><img src='img/responseButtonOffersNo0L4.png' class='respPic'></div></div>","null","3","Jonathan","4","Kept","0.2,0.65","8","0.2","trustrating_stim/white_mw089.bmp","5","39","8"
"html-keyboard-response","160","356962","0.0-19.0-3.7","6108cd48a97ffccb0e7e518c","bdp_trlrn","Wed Mar 15 2023 14:58:47 GMT-0400 (Eastern Daylight Time)","667932","Untrustworthy,Trustworthy","","","","feedback","","","null","","<div class='trialDiv'><img src='trustrating_stim/white_mw089.bmp'><br><font class='baseline'><strong>Jonathan</strong><p>Received: <strong>16</strong></font> &nbsp; &nbsp; &nbsp; &nbsp; &nbsp; &nbsp;<font class='negOutcome'>Shared back: <strong>0</strong></font></font><div class='respPicDiv'><img src='img/responseButtonOffersNo0_wht.png' class='respPic'></div></div>","null","3","Jonathan","4","Kept","0.2,0.65","8","0.2","trustrating_stim/white_mw089.bmp","5","39","8"
"html-keyboard-response","161","357742","0.0-19.0-1.8","6108cd48a97ffccb0e7e518c","bdp_trlrn","Wed Mar 15 2023 14:58:47 GMT-0400 (Eastern Daylight Time)","667932","Untrustworthy,Trustworthy","","","","decision","","","778","","<div class='trialDiv'><img src='trustrating_stim/white_00898_960530_fa_edt.bmp'><br><font class='baseline'><strong>Jacob</strong><p>Choose number of points to send.</font><div class='respPicDiv'><img src='img/responseButtonOffersNo0L.png' class='respPic'></div></div>","3","3","Jacob","10","Kept","0.65,0.2","13","0.65","trustrating_stim/white_00898_960530_fa_edt.bmp","9","44","9"
"html-keyboard-response","162","358001","0.0-19.0-2.8","6108cd48a97ffccb0e7e518c","bdp_trlrn","Wed Mar 15 2023 14:58:47 GMT-0400 (Eastern Daylight Time)","667932","Untrustworthy,Trustworthy","","","","decisionFB","","","null","","<div class='trialDiv'><img src='trustrating_stim/white_00898_960530_fa_edt.bmp'><br><font class='baseline'><strong>Jacob</strong><p>Choose number of points to send.</font><div class='respPicDiv'><img src='img/responseButtonOffersNo0L3.png' class='respPic'></div></div>","null","3","Jacob","10","Kept","0.65,0.2","13","0.65","trustrating_stim/white_00898_960530_fa_edt.bmp","9","41","9"
"html-keyboard-response","163","359011","0.0-19.0-3.8","6108cd48a97ffccb0e7e518c","bdp_trlrn","Wed Mar 15 2023 14:58:47 GMT-0400 (Eastern Daylight Time)","667932","Untrustworthy,Trustworthy","","","","feedback","","","null","","<div class='trialDiv'><img src='trustrating_stim/white_00898_960530_fa_edt.bmp'><br><font class='baseline'><strong>Jacob</strong><p>Received: <strong>12</strong></font> &nbsp; &nbsp; &nbsp; &nbsp; &nbsp; &nbsp;<font class='negOutcome'>Shared back: <strong>0</strong></font></font><div class='respPicDiv'><img src='img/responseButtonOffersNo0_wht.png' class='respPic'></div></div>","null","3","Jacob","10","Kept","0.65,0.2","13","0.65","trustrating_stim/white_00898_960530_fa_edt.bmp","9","41","9"
"html-keyboard-response","164","359974","0.0-19.0-1.9","6108cd48a97ffccb0e7e518c","bdp_trlrn","Wed Mar 15 2023 14:58:47 GMT-0400 (Eastern Daylight Time)","667932","Untrustworthy,Trustworthy","","","","decision","","","961","","<div class='trialDiv'><img src='trustrating_stim/white_mw089.bmp'><br><font class='baseline'><strong>Jonathan</strong><p>Choose number of points to send.</font><div class='respPicDiv'><img src='img/responseButtonOffersNo0L.png' class='respPic'></div></div>","2","4","Jonathan","4","Shared","0.2,0.65","8","0.2","trustrating_stim/white_mw089.bmp","5","46","10"
"html-keyboard-response","165","360235","0.0-19.0-2.9","6108cd48a97ffccb0e7e518c","bdp_trlrn","Wed Mar 15 2023 14:58:47 GMT-0400 (Eastern Daylight Time)","667932","Untrustworthy,Trustworthy","","","","decisionFB","","","null","","<div class='trialDiv'><img src='trustrating_stim/white_mw089.bmp'><br><font class='baseline'><strong>Jonathan</strong><p>Choose number of points to send.</font><div class='respPicDiv'><img src='img/responseButtonOffersNo0L2.png' class='respPic'></div></div>","null","4","Jonathan","4","Shared","0.2,0.65","8","0.2","trustrating_stim/white_mw089.bmp","5","44","10"
"html-keyboard-response","166","361240","0.0-19.0-3.9","6108cd48a97ffccb0e7e518c","bdp_trlrn","Wed Mar 15 2023 14:58:47 GMT-0400 (Eastern Daylight Time)","667932","Untrustworthy,Trustworthy","","","","feedback","","","null","","<div class='trialDiv'><img src='trustrating_stim/white_mw089.bmp'><br><font class='baseline'><strong>Jonathan</strong><p>Received: <strong>8</strong></font> &nbsp; &nbsp; &nbsp; &nbsp; &nbsp; &nbsp;<font class='posOutcome'>Shared back: <strong>4</strong></font></font><div class='respPicDiv'><img src='img/responseButtonOffersNo0_wht.png' class='respPic'></div></div>","null","4","Jonathan","4","Shared","0.2,0.65","8","0.2","trustrating_stim/white_mw089.bmp","5","48","10"
"html-keyboard-response","167","361749","0.0-19.0-1.10","6108cd48a97ffccb0e7e518c","bdp_trlrn","Wed Mar 15 2023 14:58:47 GMT-0400 (Eastern Daylight Time)","667932","Untrustworthy,Trustworthy","","","","decision","","","507","","<div class='trialDiv'><img src='trustrating_stim/white_mw099.bmp'><br><font class='baseline'><strong>Ethan</strong><p>Choose number of points to send.</font><div class='respPicDiv'><img src='img/responseButtonOffersNo0L.png' class='respPic'></div></div>","5","4","Ethan","3","Shared","0.8,0.2","8","0.8","trustrating_stim/white_mw099.bmp","3.5","53","11"
"html-keyboard-response","168","362007","0.0-19.0-2.10","6108cd48a97ffccb0e7e518c","bdp_trlrn","Wed Mar 15 2023 14:58:47 GMT-0400 (Eastern Daylight Time)","667932","Untrustworthy,Trustworthy","","","","decisionFB","","","null","","<div class='trialDiv'><img src='trustrating_stim/white_mw099.bmp'><br><font class='baseline'><strong>Ethan</strong><p>Choose number of points to send.</font><div class='respPicDiv'><img src='img/responseButtonOffersNo0L5.png' class='respPic'></div></div>","null","4","Ethan","3","Shared","0.8,0.2","8","0.8","trustrating_stim/white_mw099.bmp","3.5","48","11"
"html-keyboard-response","169","363017","0.0-19.0-3.10","6108cd48a97ffccb0e7e518c","bdp_trlrn","Wed Mar 15 2023 14:58:47 GMT-0400 (Eastern Daylight Time)","667932","Untrustworthy,Trustworthy","","","","feedback","","","null","","<div class='trialDiv'><img src='trustrating_stim/white_mw099.bmp'><br><font class='baseline'><strong>Ethan</strong><p>Received: <strong>20</strong></font> &nbsp; &nbsp; &nbsp; &nbsp; &nbsp; &nbsp;<font class='posOutcome'>Shared back: <strong>10</strong></font></font><div class='respPicDiv'><img src='img/responseButtonOffersNo0_wht.png' class='respPic'></div></div>","null","4","Ethan","3","Shared","0.8,0.2","8","0.8","trustrating_stim/white_mw099.bmp","3.5","58","11"
"html-keyboard-response","170","363658","0.0-19.0-1.11","6108cd48a97ffccb0e7e518c","bdp_trlrn","Wed Mar 15 2023 14:58:47 GMT-0400 (Eastern Daylight Time)","667932","Untrustworthy,Trustworthy","","","","decision","","","640","","<div class='trialDiv'><img src='trustrating_stim/white_00898_960530_fa_edt.bmp'><br><font class='baseline'><strong>Jacob</strong><p>Choose number of points to send.</font><div class='respPicDiv'><img src='img/responseButtonOffersNo0L.png' class='respPic'></div></div>","1","4","Jacob","10","Kept","0.65,0.2","13","0.65","trustrating_stim/white_00898_960530_fa_edt.bmp","9","63","12"
"html-keyboard-response","171","363910","0.0-19.0-2.11","6108cd48a97ffccb0e7e518c","bdp_trlrn","Wed Mar 15 2023 14:58:47 GMT-0400 (Eastern Daylight Time)","667932","Untrustworthy,Trustworthy","","","","decisionFB","","","null","","<div class='trialDiv'><img src='trustrating_stim/white_00898_960530_fa_edt.bmp'><br><font class='baseline'><strong>Jacob</strong><p>Choose number of points to send.</font><div class='respPicDiv'><img src='img/responseButtonOffersNo0L1.png' class='respPic'></div></div>","null","4","Jacob","10","Kept","0.65,0.2","13","0.65","trustrating_stim/white_00898_960530_fa_edt.bmp","9","62","12"
"html-keyboard-response","172","364921","0.0-19.0-3.11","6108cd48a97ffccb0e7e518c","bdp_trlrn","Wed Mar 15 2023 14:58:47 GMT-0400 (Eastern Daylight Time)","667932","Untrustworthy,Trustworthy","","","","feedback","","","null","","<div class='trialDiv'><img src='trustrating_stim/white_00898_960530_fa_edt.bmp'><br><font class='baseline'><strong>Jacob</strong><p>Received: <strong>4</strong></font> &nbsp; &nbsp; &nbsp; &nbsp; &nbsp; &nbsp;<font class='negOutcome'>Shared back: <strong>0</strong></font></font><div class='respPicDiv'><img src='img/responseButtonOffersNo0_wht.png' class='respPic'></div></div>","null","4","Jacob","10","Kept","0.65,0.2","13","0.65","trustrating_stim/white_00898_960530_fa_edt.bmp","9","62","12"
"html-keyboard-response","173","366500","0.0-19.0-1.12","6108cd48a97ffccb0e7e518c","bdp_trlrn","Wed Mar 15 2023 14:58:47 GMT-0400 (Eastern Daylight Time)","667932","Untrustworthy,Trustworthy","","","","decision","","","1577","","<div class='trialDiv'><img src='trustrating_stim/white_mw089.bmp'><br><font class='baseline'><strong>Jonathan</strong><p>Choose number of points to send.</font><div class='respPicDiv'><img src='img/responseButtonOffersNo0L.png' class='respPic'></div></div>","4","5","Jonathan","4","Kept","0.2,0.65","8","0.2","trustrating_stim/white_mw089.bmp","5","67","13"
"html-keyboard-response","174","366761","0.0-19.0-2.12","6108cd48a97ffccb0e7e518c","bdp_trlrn","Wed Mar 15 2023 14:58:47 GMT-0400 (Eastern Daylight Time)","667932","Untrustworthy,Trustworthy","","","","decisionFB","","","null","","<div class='trialDiv'><img src='trustrating_stim/white_mw089.bmp'><br><font class='baseline'><strong>Jonathan</strong><p>Choose number of points to send.</font><div class='respPicDiv'><img src='img/responseButtonOffersNo0L4.png' class='respPic'></div></div>","null","5","Jonathan","4","Kept","0.2,0.65","8","0.2","trustrating_stim/white_mw089.bmp","5","63","13"
"html-keyboard-response","175","367771","0.0-19.0-3.12","6108cd48a97ffccb0e7e518c","bdp_trlrn","Wed Mar 15 2023 14:58:47 GMT-0400 (Eastern Daylight Time)","667932","Untrustworthy,Trustworthy","","","","feedback","","","null","","<div class='trialDiv'><img src='trustrating_stim/white_mw089.bmp'><br><font class='baseline'><strong>Jonathan</strong><p>Received: <strong>16</strong></font> &nbsp; &nbsp; &nbsp; &nbsp; &nbsp; &nbsp;<font class='negOutcome'>Shared back: <strong>0</strong></font></font><div class='respPicDiv'><img src='img/responseButtonOffersNo0_wht.png' class='respPic'></div></div>","null","5","Jonathan","4","Kept","0.2,0.65","8","0.2","trustrating_stim/white_mw089.bmp","5","63","13"
"html-keyboard-response","176","368607","0.0-19.0-1.13","6108cd48a97ffccb0e7e518c","bdp_trlrn","Wed Mar 15 2023 14:58:47 GMT-0400 (Eastern Daylight Time)","667932","Untrustworthy,Trustworthy","","","","decision","","","834","","<div class='trialDiv'><img src='trustrating_stim/white_00898_960530_fa_edt.bmp'><br><font class='baseline'><strong>Jacob</strong><p>Choose number of points to send.</font><div class='respPicDiv'><img src='img/responseButtonOffersNo0L.png' class='respPic'></div></div>","2","5","Jacob","10","Shared","0.65,0.2","13","0.65","trustrating_stim/white_00898_960530_fa_edt.bmp","9","68","14"
"html-keyboard-response","177","368867","0.0-19.0-2.13","6108cd48a97ffccb0e7e518c","bdp_trlrn","Wed Mar 15 2023 14:58:47 GMT-0400 (Eastern Daylight Time)","667932","Untrustworthy,Trustworthy","","","","decisionFB","","","null","","<div class='trialDiv'><img src='trustrating_stim/white_00898_960530_fa_edt.bmp'><br><font class='baseline'><strong>Jacob</strong><p>Choose number of points to send.</font><div class='respPicDiv'><img src='img/responseButtonOffersNo0L2.png' class='respPic'></div></div>","null","5","Jacob","10","Shared","0.65,0.2","13","0.65","trustrating_stim/white_00898_960530_fa_edt.bmp","9","66","14"
"html-keyboard-response","178","369872","0.0-19.0-3.13","6108cd48a97ffccb0e7e518c","bdp_trlrn","Wed Mar 15 2023 14:58:47 GMT-0400 (Eastern Daylight Time)","667932","Untrustworthy,Trustworthy","","","","feedback","","","null","","<div class='trialDiv'><img src='trustrating_stim/white_00898_960530_fa_edt.bmp'><br><font class='baseline'><strong>Jacob</strong><p>Received: <strong>8</strong></font> &nbsp; &nbsp; &nbsp; &nbsp; &nbsp; &nbsp;<font class='posOutcome'>Shared back: <strong>4</strong></font></font><div class='respPicDiv'><img src='img/responseButtonOffersNo0_wht.png' class='respPic'></div></div>","null","5","Jacob","10","Shared","0.65,0.2","13","0.65","trustrating_stim/white_00898_960530_fa_edt.bmp","9","70","14"
"html-keyboard-response","179","370392","0.0-19.0-1.14","6108cd48a97ffccb0e7e518c","bdp_trlrn","Wed Mar 15 2023 14:58:47 GMT-0400 (Eastern Daylight Time)","667932","Untrustworthy,Trustworthy","","","","decision","","","519","","<div class='trialDiv'><img src='trustrating_stim/white_mw099.bmp'><br><font class='baseline'><strong>Ethan</strong><p>Choose number of points to send.</font><div class='respPicDiv'><img src='img/responseButtonOffersNo0L.png' class='respPic'></div></div>","5","5","Ethan","3","Shared","0.8,0.2","8","0.8","trustrating_stim/white_mw099.bmp","3.5","75","15"
"html-keyboard-response","180","370648","0.0-19.0-2.14","6108cd48a97ffccb0e7e518c","bdp_trlrn","Wed Mar 15 2023 14:58:47 GMT-0400 (Eastern Daylight Time)","667932","Untrustworthy,Trustworthy","","","","decisionFB","","","null","","<div class='trialDiv'><img src='trustrating_stim/white_mw099.bmp'><br><font class='baseline'><strong>Ethan</strong><p>Choose number of points to send.</font><div class='respPicDiv'><img src='img/responseButtonOffersNo0L5.png' class='respPic'></div></div>","null","5","Ethan","3","Shared","0.8,0.2","8","0.8","trustrating_stim/white_mw099.bmp","3.5","70","15"
"html-keyboard-response","181","371655","0.0-19.0-3.14","6108cd48a97ffccb0e7e518c","bdp_trlrn","Wed Mar 15 2023 14:58:47 GMT-0400 (Eastern Daylight Time)","667932","Untrustworthy,Trustworthy","","","","feedback","","","null","","<div class='trialDiv'><img src='trustrating_stim/white_mw099.bmp'><br><font class='baseline'><strong>Ethan</strong><p>Received: <strong>20</strong></font> &nbsp; &nbsp; &nbsp; &nbsp; &nbsp; &nbsp;<font class='posOutcome'>Shared back: <strong>10</strong></font></font><div class='respPicDiv'><img src='img/responseButtonOffersNo0_wht.png' class='respPic'></div></div>","null","5","Ethan","3","Shared","0.8,0.2","8","0.8","trustrating_stim/white_mw099.bmp","3.5","80","15"
"html-keyboard-response","182","373079","0.0-19.0-1.15","6108cd48a97ffccb0e7e518c","bdp_trlrn","Wed Mar 15 2023 14:58:47 GMT-0400 (Eastern Daylight Time)","667932","Untrustworthy,Trustworthy","","","","decision","","","1422","","<div class='trialDiv'><img src='trustrating_stim/white_mw089.bmp'><br><font class='baseline'><strong>Jonathan</strong><p>Choose number of points to send.</font><div class='respPicDiv'><img src='img/responseButtonOffersNo0L.png' class='respPic'></div></div>","3","6","Jonathan","4","Kept","0.2,0.65","8","0.2","trustrating_stim/white_mw089.bmp","5","85","16"
"html-keyboard-response","183","373337","0.0-19.0-2.15","6108cd48a97ffccb0e7e518c","bdp_trlrn","Wed Mar 15 2023 14:58:47 GMT-0400 (Eastern Daylight Time)","667932","Untrustworthy,Trustworthy","","","","decisionFB","","","null","","<div class='trialDiv'><img src='trustrating_stim/white_mw089.bmp'><br><font class='baseline'><strong>Jonathan</strong><p>Choose number of points to send.</font><div class='respPicDiv'><img src='img/responseButtonOffersNo0L3.png' class='respPic'></div></div>","null","6","Jonathan","4","Kept","0.2,0.65","8","0.2","trustrating_stim/white_mw089.bmp","5","82","16"
"html-keyboard-response","184","374343","0.0-19.0-3.15","6108cd48a97ffccb0e7e518c","bdp_trlrn","Wed Mar 15 2023 14:58:47 GMT-0400 (Eastern Daylight Time)","667932","Untrustworthy,Trustworthy","","","","feedback","","","null","","<div class='trialDiv'><img src='trustrating_stim/white_mw089.bmp'><br><font class='baseline'><strong>Jonathan</strong><p>Received: <strong>12</strong></font> &nbsp; &nbsp; &nbsp; &nbsp; &nbsp; &nbsp;<font class='negOutcome'>Shared back: <strong>0</strong></font></font><div class='respPicDiv'><img src='img/responseButtonOffersNo0_wht.png' class='respPic'></div></div>","null","6","Jonathan","4","Kept","0.2,0.65","8","0.2","trustrating_stim/white_mw089.bmp","5","82","16"
"html-keyboard-response","185","374914","0.0-19.0-1.16","6108cd48a97ffccb0e7e518c","bdp_trlrn","Wed Mar 15 2023 14:58:47 GMT-0400 (Eastern Daylight Time)","667932","Untrustworthy,Trustworthy","","","","decision","","","569","","<div class='trialDiv'><img src='trustrating_stim/white_00898_960530_fa_edt.bmp'><br><font class='baseline'><strong>Jacob</strong><p>Choose number of points to send.</font><div class='respPicDiv'><img src='img/responseButtonOffersNo0L.png' class='respPic'></div></div>","2","6","Jacob","10","Shared","0.65,0.2","13","0.65","trustrating_stim/white_00898_960530_fa_edt.bmp","9","87","17"
"html-keyboard-response","186","375177","0.0-19.0-2.16","6108cd48a97ffccb0e7e518c","bdp_trlrn","Wed Mar 15 2023 14:58:47 GMT-0400 (Eastern Daylight Time)","667932","Untrustworthy,Trustworthy","","","","decisionFB","","","null","","<div class='trialDiv'><img src='trustrating_stim/white_00898_960530_fa_edt.bmp'><br><font class='baseline'><strong>Jacob</strong><p>Choose number of points to send.</font><div class='respPicDiv'><img src='img/responseButtonOffersNo0L2.png' class='respPic'></div></div>","null","6","Jacob","10","Shared","0.65,0.2","13","0.65","trustrating_stim/white_00898_960530_fa_edt.bmp","9","85","17"
"html-keyboard-response","187","376187","0.0-19.0-3.16","6108cd48a97ffccb0e7e518c","bdp_trlrn","Wed Mar 15 2023 14:58:47 GMT-0400 (Eastern Daylight Time)","667932","Untrustworthy,Trustworthy","","","","feedback","","","null","","<div class='trialDiv'><img src='trustrating_stim/white_00898_960530_fa_edt.bmp'><br><font class='baseline'><strong>Jacob</strong><p>Received: <strong>8</strong></font> &nbsp; &nbsp; &nbsp; &nbsp; &nbsp; &nbsp;<font class='posOutcome'>Shared back: <strong>4</strong></font></font><div class='respPicDiv'><img src='img/responseButtonOffersNo0_wht.png' class='respPic'></div></div>","null","6","Jacob","10","Shared","0.65,0.2","13","0.65","trustrating_stim/white_00898_960530_fa_edt.bmp","9","89","17"
"html-keyboard-response","188","376697","0.0-19.0-1.17","6108cd48a97ffccb0e7e518c","bdp_trlrn","Wed Mar 15 2023 14:58:47 GMT-0400 (Eastern Daylight Time)","667932","Untrustworthy,Trustworthy","","","","decision","","","509","","<div class='trialDiv'><img src='trustrating_stim/white_mw099.bmp'><br><font class='baseline'><strong>Ethan</strong><p>Choose number of points to send.</font><div class='respPicDiv'><img src='img/responseButtonOffersNo0L.png' class='respPic'></div></div>","5","6","Ethan","3","Shared","0.8,0.2","8","0.8","trustrating_stim/white_mw099.bmp","3.5","94","18"
"html-keyboard-response","189","376954","0.0-19.0-2.17","6108cd48a97ffccb0e7e518c","bdp_trlrn","Wed Mar 15 2023 14:58:47 GMT-0400 (Eastern Daylight Time)","667932","Untrustworthy,Trustworthy","","","","decisionFB","","","null","","<div class='trialDiv'><img src='trustrating_stim/white_mw099.bmp'><br><font class='baseline'><strong>Ethan</strong><p>Choose number of points to send.</font><div class='respPicDiv'><img src='img/responseButtonOffersNo0L5.png' class='respPic'></div></div>","null","6","Ethan","3","Shared","0.8,0.2","8","0.8","trustrating_stim/white_mw099.bmp","3.5","89","18"
"html-keyboard-response","190","377958","0.0-19.0-3.17","6108cd48a97ffccb0e7e518c","bdp_trlrn","Wed Mar 15 2023 14:58:47 GMT-0400 (Eastern Daylight Time)","667932","Untrustworthy,Trustworthy","","","","feedback","","","null","","<div class='trialDiv'><img src='trustrating_stim/white_mw099.bmp'><br><font class='baseline'><strong>Ethan</strong><p>Received: <strong>20</strong></font> &nbsp; &nbsp; &nbsp; &nbsp; &nbsp; &nbsp;<font class='posOutcome'>Shared back: <strong>10</strong></font></font><div class='respPicDiv'><img src='img/responseButtonOffersNo0_wht.png' class='respPic'></div></div>","null","6","Ethan","3","Shared","0.8,0.2","8","0.8","trustrating_stim/white_mw099.bmp","3.5","99","18"
"html-keyboard-response","191","379729","0.0-19.0-1.18","6108cd48a97ffccb0e7e518c","bdp_trlrn","Wed Mar 15 2023 14:58:47 GMT-0400 (Eastern Daylight Time)","667932","Untrustworthy,Trustworthy","","","","decision","","","1771","","<div class='trialDiv'><img src='trustrating_stim/white_00898_960530_fa_edt.bmp'><br><font class='baseline'><strong>Jacob</strong><p>Choose number of points to send.</font><div class='respPicDiv'><img src='img/responseButtonOffersNo0L.png' class='respPic'></div></div>","3","7","Jacob","10","Shared","0.65,0.2","13","0.65","trustrating_stim/white_00898_960530_fa_edt.bmp","9","104","19"
"html-keyboard-response","192","379984","0.0-19.0-2.18","6108cd48a97ffccb0e7e518c","bdp_trlrn","Wed Mar 15 2023 14:58:47 GMT-0400 (Eastern Daylight Time)","667932","Untrustworthy,Trustworthy","","","","decisionFB","","","null","","<div class='trialDiv'><img src='trustrating_stim/white_00898_960530_fa_edt.bmp'><br><font class='baseline'><strong>Jacob</strong><p>Choose number of points to send.</font><div class='respPicDiv'><img src='img/responseButtonOffersNo0L3.png' class='respPic'></div></div>","null","7","Jacob","10","Shared","0.65,0.2","13","0.65","trustrating_stim/white_00898_960530_fa_edt.bmp","9","101","19"
"html-keyboard-response","193","380993","0.0-19.0-3.18","6108cd48a97ffccb0e7e518c","bdp_trlrn","Wed Mar 15 2023 14:58:47 GMT-0400 (Eastern Daylight Time)","667932","Untrustworthy,Trustworthy","","","","feedback","","","null","","<div class='trialDiv'><img src='trustrating_stim/white_00898_960530_fa_edt.bmp'><br><font class='baseline'><strong>Jacob</strong><p>Received: <strong>12</strong></font> &nbsp; &nbsp; &nbsp; &nbsp; &nbsp; &nbsp;<font class='posOutcome'>Shared back: <strong>6</strong></font></font><div class='respPicDiv'><img src='img/responseButtonOffersNo0_wht.png' class='respPic'></div></div>","null","7","Jacob","10","Shared","0.65,0.2","13","0.65","trustrating_stim/white_00898_960530_fa_edt.bmp","9","107","19"
"html-keyboard-response","194","381532","0.0-19.0-1.19","6108cd48a97ffccb0e7e518c","bdp_trlrn","Wed Mar 15 2023 14:58:47 GMT-0400 (Eastern Daylight Time)","667932","Untrustworthy,Trustworthy","","","","decision","","","537","","<div class='trialDiv'><img src='trustrating_stim/white_mw089.bmp'><br><font class='baseline'><strong>Jonathan</strong><p>Choose number of points to send.</font><div class='respPicDiv'><img src='img/responseButtonOffersNo0L.png' class='respPic'></div></div>","2","7","Jonathan","4","Shared","0.2,0.65","8","0.2","trustrating_stim/white_mw089.bmp","5","112","20"
"html-keyboard-response","195","381790","0.0-19.0-2.19","6108cd48a97ffccb0e7e518c","bdp_trlrn","Wed Mar 15 2023 14:58:47 GMT-0400 (Eastern Daylight Time)","667932","Untrustworthy,Trustworthy","","","","decisionFB","","","null","","<div class='trialDiv'><img src='trustrating_stim/white_mw089.bmp'><br><font class='baseline'><strong>Jonathan</strong><p>Choose number of points to send.</font><div class='respPicDiv'><img src='img/responseButtonOffersNo0L2.png' class='respPic'></div></div>","null","7","Jonathan","4","Shared","0.2,0.65","8","0.2","trustrating_stim/white_mw089.bmp","5","110","20"
"html-keyboard-response","196","382799","0.0-19.0-3.19","6108cd48a97ffccb0e7e518c","bdp_trlrn","Wed Mar 15 2023 14:58:47 GMT-0400 (Eastern Daylight Time)","667932","Untrustworthy,Trustworthy","","","","feedback","","","null","","<div class='trialDiv'><img src='trustrating_stim/white_mw089.bmp'><br><font class='baseline'><strong>Jonathan</strong><p>Received: <strong>8</strong></font> &nbsp; &nbsp; &nbsp; &nbsp; &nbsp; &nbsp;<font class='posOutcome'>Shared back: <strong>4</strong></font></font><div class='respPicDiv'><img src='img/responseButtonOffersNo0_wht.png' class='respPic'></div></div>","null","7","Jonathan","4","Shared","0.2,0.65","8","0.2","trustrating_stim/white_mw089.bmp","5","114","20"
"html-keyboard-response","197","383344","0.0-19.0-1.20","6108cd48a97ffccb0e7e518c","bdp_trlrn","Wed Mar 15 2023 14:58:47 GMT-0400 (Eastern Daylight Time)","667932","Untrustworthy,Trustworthy","","","","decision","","","543","","<div class='trialDiv'><img src='trustrating_stim/white_mw099.bmp'><br><font class='baseline'><strong>Ethan</strong><p>Choose number of points to send.</font><div class='respPicDiv'><img src='img/responseButtonOffersNo0L.png' class='respPic'></div></div>","5","7","Ethan","3","Shared","0.8,0.2","8","0.8","trustrating_stim/white_mw099.bmp","3.5","119","21"
"html-keyboard-response","198","383598","0.0-19.0-2.20","6108cd48a97ffccb0e7e518c","bdp_trlrn","Wed Mar 15 2023 14:58:47 GMT-0400 (Eastern Daylight Time)","667932","Untrustworthy,Trustworthy","","","","decisionFB","","","null","","<div class='trialDiv'><img src='trustrating_stim/white_mw099.bmp'><br><font class='baseline'><strong>Ethan</strong><p>Choose number of points to send.</font><div class='respPicDiv'><img src='img/responseButtonOffersNo0L5.png' class='respPic'></div></div>","null","7","Ethan","3","Shared","0.8,0.2","8","0.8","trustrating_stim/white_mw099.bmp","3.5","114","21"
"html-keyboard-response","199","384605","0.0-19.0-3.20","6108cd48a97ffccb0e7e518c","bdp_trlrn","Wed Mar 15 2023 14:58:47 GMT-0400 (Eastern Daylight Time)","667932","Untrustworthy,Trustworthy","","","","feedback","","","null","","<div class='trialDiv'><img src='trustrating_stim/white_mw099.bmp'><br><font class='baseline'><strong>Ethan</strong><p>Received: <strong>20</strong></font> &nbsp; &nbsp; &nbsp; &nbsp; &nbsp; &nbsp;<font class='posOutcome'>Shared back: <strong>10</strong></font></font><div class='respPicDiv'><img src='img/responseButtonOffersNo0_wht.png' class='respPic'></div></div>","null","7","Ethan","3","Shared","0.8,0.2","8","0.8","trustrating_stim/white_mw099.bmp","3.5","124","21"
"html-keyboard-response","200","387362","0.0-19.0-1.21","6108cd48a97ffccb0e7e518c","bdp_trlrn","Wed Mar 15 2023 14:58:47 GMT-0400 (Eastern Daylight Time)","667932","Untrustworthy,Trustworthy","","","","decision","","","2755","","<div class='trialDiv'><img src='trustrating_stim/white_mw089.bmp'><br><font class='baseline'><strong>Jonathan</strong><p>Choose number of points to send.</font><div class='respPicDiv'><img src='img/responseButtonOffersNo0L.png' class='respPic'></div></div>","3","8","Jonathan","4","Shared","0.2,0.65","8","0.2","trustrating_stim/white_mw089.bmp","5","129","22"
"html-keyboard-response","201","387623","0.0-19.0-2.21","6108cd48a97ffccb0e7e518c","bdp_trlrn","Wed Mar 15 2023 14:58:47 GMT-0400 (Eastern Daylight Time)","667932","Untrustworthy,Trustworthy","","","","decisionFB","","","null","","<div class='trialDiv'><img src='trustrating_stim/white_mw089.bmp'><br><font class='baseline'><strong>Jonathan</strong><p>Choose number of points to send.</font><div class='respPicDiv'><img src='img/responseButtonOffersNo0L3.png' class='respPic'></div></div>","null","8","Jonathan","4","Shared","0.2,0.65","8","0.2","trustrating_stim/white_mw089.bmp","5","126","22"
"html-keyboard-response","202","388632","0.0-19.0-3.21","6108cd48a97ffccb0e7e518c","bdp_trlrn","Wed Mar 15 2023 14:58:47 GMT-0400 (Eastern Daylight Time)","667932","Untrustworthy,Trustworthy","","","","feedback","","","null","","<div class='trialDiv'><img src='trustrating_stim/white_mw089.bmp'><br><font class='baseline'><strong>Jonathan</strong><p>Received: <strong>12</strong></font> &nbsp; &nbsp; &nbsp; &nbsp; &nbsp; &nbsp;<font class='posOutcome'>Shared back: <strong>6</strong></font></font><div class='respPicDiv'><img src='img/responseButtonOffersNo0_wht.png' class='respPic'></div></div>","null","8","Jonathan","4","Shared","0.2,0.65","8","0.2","trustrating_stim/white_mw089.bmp","5","132","22"
"html-keyboard-response","203","389186","0.0-19.0-1.22","6108cd48a97ffccb0e7e518c","bdp_trlrn","Wed Mar 15 2023 14:58:47 GMT-0400 (Eastern Daylight Time)","667932","Untrustworthy,Trustworthy","","","","decision","","","552","","<div class='trialDiv'><img src='trustrating_stim/white_mw099.bmp'><br><font class='baseline'><strong>Ethan</strong><p>Choose number of points to send.</font><div class='respPicDiv'><img src='img/responseButtonOffersNo0L.png' class='respPic'></div></div>","5","8","Ethan","3","Kept","0.8,0.2","8","0.8","trustrating_stim/white_mw099.bmp","3.5","137","23"
"html-keyboard-response","204","389445","0.0-19.0-2.22","6108cd48a97ffccb0e7e518c","bdp_trlrn","Wed Mar 15 2023 14:58:47 GMT-0400 (Eastern Daylight Time)","667932","Untrustworthy,Trustworthy","","","","decisionFB","","","null","","<div class='trialDiv'><img src='trustrating_stim/white_mw099.bmp'><br><font class='baseline'><strong>Ethan</strong><p>Choose number of points to send.</font><div class='respPicDiv'><img src='img/responseButtonOffersNo0L5.png' class='respPic'></div></div>","null","8","Ethan","3","Kept","0.8,0.2","8","0.8","trustrating_stim/white_mw099.bmp","3.5","132","23"
"html-keyboard-response","205","390455","0.0-19.0-3.22","6108cd48a97ffccb0e7e518c","bdp_trlrn","Wed Mar 15 2023 14:58:47 GMT-0400 (Eastern Daylight Time)","667932","Untrustworthy,Trustworthy","","","","feedback","","","null","","<div class='trialDiv'><img src='trustrating_stim/white_mw099.bmp'><br><font class='baseline'><strong>Ethan</strong><p>Received: <strong>20</strong></font> &nbsp; &nbsp; &nbsp; &nbsp; &nbsp; &nbsp;<font class='negOutcome'>Shared back: <strong>0</strong></font></font><div class='respPicDiv'><img src='img/responseButtonOffersNo0_wht.png' class='respPic'></div></div>","null","8","Ethan","3","Kept","0.8,0.2","8","0.8","trustrating_stim/white_mw099.bmp","3.5","132","23"
"html-keyboard-response","206","390905","0.0-19.0-1.23","6108cd48a97ffccb0e7e518c","bdp_trlrn","Wed Mar 15 2023 14:58:47 GMT-0400 (Eastern Daylight Time)","667932","Untrustworthy,Trustworthy","","","","decision","","","447","","<div class='trialDiv'><img src='trustrating_stim/white_00898_960530_fa_edt.bmp'><br><font class='baseline'><strong>Jacob</strong><p>Choose number of points to send.</font><div class='respPicDiv'><img src='img/responseButtonOffersNo0L.png' class='respPic'></div></div>","2","8","Jacob","10","Kept","0.65,0.2","13","0.65","trustrating_stim/white_00898_960530_fa_edt.bmp","9","137","24"
"html-keyboard-response","207","391158","0.0-19.0-2.23","6108cd48a97ffccb0e7e518c","bdp_trlrn","Wed Mar 15 2023 14:58:47 GMT-0400 (Eastern Daylight Time)","667932","Untrustworthy,Trustworthy","","","","decisionFB","","","null","","<div class='trialDiv'><img src='trustrating_stim/white_00898_960530_fa_edt.bmp'><br><font class='baseline'><strong>Jacob</strong><p>Choose number of points to send.</font><div class='respPicDiv'><img src='img/responseButtonOffersNo0L2.png' class='respPic'></div></div>","null","8","Jacob","10","Kept","0.65,0.2","13","0.65","trustrating_stim/white_00898_960530_fa_edt.bmp","9","135","24"
"html-keyboard-response","208","392168","0.0-19.0-3.23","6108cd48a97ffccb0e7e518c","bdp_trlrn","Wed Mar 15 2023 14:58:47 GMT-0400 (Eastern Daylight Time)","667932","Untrustworthy,Trustworthy","","","","feedback","","","null","","<div class='trialDiv'><img src='trustrating_stim/white_00898_960530_fa_edt.bmp'><br><font class='baseline'><strong>Jacob</strong><p>Received: <strong>8</strong></font> &nbsp; &nbsp; &nbsp; &nbsp; &nbsp; &nbsp;<font class='negOutcome'>Shared back: <strong>0</strong></font></font><div class='respPicDiv'><img src='img/responseButtonOffersNo0_wht.png' class='respPic'></div></div>","null","8","Jacob","10","Kept","0.65,0.2","13","0.65","trustrating_stim/white_00898_960530_fa_edt.bmp","9","135","24"
"html-keyboard-response","209","392628","0.0-19.0-1.24","6108cd48a97ffccb0e7e518c","bdp_trlrn","Wed Mar 15 2023 14:58:47 GMT-0400 (Eastern Daylight Time)","667932","Untrustworthy,Trustworthy","","","","decision","","","459","","<div class='trialDiv'><img src='trustrating_stim/white_mw099.bmp'><br><font class='baseline'><strong>Ethan</strong><p>Choose number of points to send.</font><div class='respPicDiv'><img src='img/responseButtonOffersNo0L.png' class='respPic'></div></div>","5","9","Ethan","3","Kept","0.8,0.2","8","0.8","trustrating_stim/white_mw099.bmp","3.5","140","25"
"html-keyboard-response","210","392882","0.0-19.0-2.24","6108cd48a97ffccb0e7e518c","bdp_trlrn","Wed Mar 15 2023 14:58:47 GMT-0400 (Eastern Daylight Time)","667932","Untrustworthy,Trustworthy","","","","decisionFB","","","null","","<div class='trialDiv'><img src='trustrating_stim/white_mw099.bmp'><br><font class='baseline'><strong>Ethan</strong><p>Choose number of points to send.</font><div class='respPicDiv'><img src='img/responseButtonOffersNo0L5.png' class='respPic'></div></div>","null","9","Ethan","3","Kept","0.8,0.2","8","0.8","trustrating_stim/white_mw099.bmp","3.5","135","25"
"html-keyboard-response","211","393886","0.0-19.0-3.24","6108cd48a97ffccb0e7e518c","bdp_trlrn","Wed Mar 15 2023 14:58:47 GMT-0400 (Eastern Daylight Time)","667932","Untrustworthy,Trustworthy","","","","feedback","","","null","","<div class='trialDiv'><img src='trustrating_stim/white_mw099.bmp'><br><font class='baseline'><strong>Ethan</strong><p>Received: <strong>20</strong></font> &nbsp; &nbsp; &nbsp; &nbsp; &nbsp; &nbsp;<font class='negOutcome'>Shared back: <strong>0</strong></font></font><div class='respPicDiv'><img src='img/responseButtonOffersNo0_wht.png' class='respPic'></div></div>","null","9","Ethan","3","Kept","0.8,0.2","8","0.8","trustrating_stim/white_mw099.bmp","3.5","135","25"
"html-keyboard-response","212","394306","0.0-19.0-1.25","6108cd48a97ffccb0e7e518c","bdp_trlrn","Wed Mar 15 2023 14:58:47 GMT-0400 (Eastern Daylight Time)","667932","Untrustworthy,Trustworthy","","","","decision","","","418","","<div class='trialDiv'><img src='trustrating_stim/white_00898_960530_fa_edt.bmp'><br><font class='baseline'><strong>Jacob</strong><p>Choose number of points to send.</font><div class='respPicDiv'><img src='img/responseButtonOffersNo0L.png' class='respPic'></div></div>","2","9","Jacob","10","Shared","0.65,0.2","13","0.65","trustrating_stim/white_00898_960530_fa_edt.bmp","9","140","26"
"html-keyboard-response","213","394565","0.0-19.0-2.25","6108cd48a97ffccb0e7e518c","bdp_trlrn","Wed Mar 15 2023 14:58:47 GMT-0400 (Eastern Daylight Time)","667932","Untrustworthy,Trustworthy","","","","decisionFB","","","null","","<div class='trialDiv'><img src='trustrating_stim/white_00898_960530_fa_edt.bmp'><br><font class='baseline'><strong>Jacob</strong><p>Choose number of points to send.</font><div class='respPicDiv'><img src='img/responseButtonOffersNo0L2.png' class='respPic'></div></div>","null","9","Jacob","10","Shared","0.65,0.2","13","0.65","trustrating_stim/white_00898_960530_fa_edt.bmp","9","138","26"
"html-keyboard-response","214","395575","0.0-19.0-3.25","6108cd48a97ffccb0e7e518c","bdp_trlrn","Wed Mar 15 2023 14:58:47 GMT-0400 (Eastern Daylight Time)","667932","Untrustworthy,Trustworthy","","","","feedback","","","null","","<div class='trialDiv'><img src='trustrating_stim/white_00898_960530_fa_edt.bmp'><br><font class='baseline'><strong>Jacob</strong><p>Received: <strong>8</strong></font> &nbsp; &nbsp; &nbsp; &nbsp; &nbsp; &nbsp;<font class='posOutcome'>Shared back: <strong>4</strong></font></font><div class='respPicDiv'><img src='img/responseButtonOffersNo0_wht.png' class='respPic'></div></div>","null","9","Jacob","10","Shared","0.65,0.2","13","0.65","trustrating_stim/white_00898_960530_fa_edt.bmp","9","142","26"
"html-keyboard-response","215","396603","0.0-19.0-1.26","6108cd48a97ffccb0e7e518c","bdp_trlrn","Wed Mar 15 2023 14:58:47 GMT-0400 (Eastern Daylight Time)","667932","Untrustworthy,Trustworthy","","","","decision","","","1025","","<div class='trialDiv'><img src='trustrating_stim/white_mw089.bmp'><br><font class='baseline'><strong>Jonathan</strong><p>Choose number of points to send.</font><div class='respPicDiv'><img src='img/responseButtonOffersNo0L.png' class='respPic'></div></div>","4","9","Jonathan","4","Shared","0.2,0.65","8","0.2","trustrating_stim/white_mw089.bmp","5","147","27"
"html-keyboard-response","216","396864","0.0-19.0-2.26","6108cd48a97ffccb0e7e518c","bdp_trlrn","Wed Mar 15 2023 14:58:47 GMT-0400 (Eastern Daylight Time)","667932","Untrustworthy,Trustworthy","","","","decisionFB","","","null","","<div class='trialDiv'><img src='trustrating_stim/white_mw089.bmp'><br><font class='baseline'><strong>Jonathan</strong><p>Choose number of points to send.</font><div class='respPicDiv'><img src='img/responseButtonOffersNo0L4.png' class='respPic'></div></div>","null","9","Jonathan","4","Shared","0.2,0.65","8","0.2","trustrating_stim/white_mw089.bmp","5","143","27"
"html-keyboard-response","217","397870","0.0-19.0-3.26","6108cd48a97ffccb0e7e518c","bdp_trlrn","Wed Mar 15 2023 14:58:47 GMT-0400 (Eastern Daylight Time)","667932","Untrustworthy,Trustworthy","","","","feedback","","","null","","<div class='trialDiv'><img src='trustrating_stim/white_mw089.bmp'><br><font class='baseline'><strong>Jonathan</strong><p>Received: <strong>16</strong></font> &nbsp; &nbsp; &nbsp; &nbsp; &nbsp; &nbsp;<font class='posOutcome'>Shared back: <strong>8</strong></font></font><div class='respPicDiv'><img src='img/responseButtonOffersNo0_wht.png' class='respPic'></div></div>","null","9","Jonathan","4","Shared","0.2,0.65","8","0.2","trustrating_stim/white_mw089.bmp","5","151","27"
"html-keyboard-response","218","398050","0.0-19.0-1.27","6108cd48a97ffccb0e7e518c","bdp_trlrn","Wed Mar 15 2023 14:58:47 GMT-0400 (Eastern Daylight Time)","667932","Untrustworthy,Trustworthy","","","","decision","","","178","","<div class='trialDiv'><img src='trustrating_stim/white_00898_960530_fa_edt.bmp'><br><font class='baseline'><strong>Jacob</strong><p>Choose number of points to send.</font><div class='respPicDiv'><img src='img/responseButtonOffersNo0L.png' class='respPic'></div></div>","5","10","Jacob","10","Kept","0.65,0.2","13","0.65","trustrating_stim/white_00898_960530_fa_edt.bmp","9","156","28"
"html-keyboard-response","219","398309","0.0-19.0-2.27","6108cd48a97ffccb0e7e518c","bdp_trlrn","Wed Mar 15 2023 14:58:47 GMT-0400 (Eastern Daylight Time)","667932","Untrustworthy,Trustworthy","","","","decisionFB","","","null","","<div class='trialDiv'><img src='trustrating_stim/white_00898_960530_fa_edt.bmp'><br><font class='baseline'><strong>Jacob</strong><p>Choose number of points to send.</font><div class='respPicDiv'><img src='img/responseButtonOffersNo0L5.png' class='respPic'></div></div>","null","10","Jacob","10","Kept","0.65,0.2","13","0.65","trustrating_stim/white_00898_960530_fa_edt.bmp","9","151","28"
