"event","trial","time","trialtype","subject_id","task","startTime","totalTime","labels","trial_type","trial_index","time_elapsed","internal_node_id","view_history","rt","success","stimulus","key_press","aground","name","faceID","outcome","agenttype","agentswpt","agentcurrpshare","face","avgRating","point_total","round"
"focus","0","0","focusevent","63ea4301f63c1d26f0ff83e9","bdp_trlrn","Wed Mar 15 2023 15:43:42 GMT-0400 (Eastern Daylight Time)","508513","Untrustworthy,Trustworthy","","","","","","","","","","","","","","","","","","","",""
"","","","","63ea4301f63c1d26f0ff83e9","bdp_trlrn","Wed Mar 15 2023 15:43:42 GMT-0400 (Eastern Daylight Time)","508513","Untrustworthy,Trustworthy","pavlovia","0","10","0.0-0.0","","","","","","","","","","","","","","","",""
"","","","","63ea4301f63c1d26f0ff83e9","bdp_trlrn","Wed Mar 15 2023 15:43:42 GMT-0400 (Eastern Daylight Time)","508513","Untrustworthy,Trustworthy","instructions","1","2911","0.0-1.0","[{""page_index"":0,""viewing_time"":2900}]","2900","","","","","","","","","","","","","",""
"fullscreenexit","2","8200","fullscreenexit","63ea4301f63c1d26f0ff83e9","bdp_trlrn","Wed Mar 15 2023 15:43:42 GMT-0400 (Eastern Daylight Time)","508513","Untrustworthy,Trustworthy","","","","","","","","","","","","","","","","","","","",""
"","","","","63ea4301f63c1d26f0ff83e9","bdp_trlrn","Wed Mar 15 2023 15:43:42 GMT-0400 (Eastern Daylight Time)","508513","Untrustworthy,Trustworthy","fullscreen","2","8979","0.0-2.0","","","true","","","","","","","","","","","","",""
"","","","fullscreenfail","63ea4301f63c1d26f0ff83e9","bdp_trlrn","Wed Mar 15 2023 15:43:42 GMT-0400 (Eastern Daylight Time)","508513","Untrustworthy,Trustworthy","image-keyboard-response","3","10701","0.0-3.0-0.0","","1716","","","32","","","","","","","","","","",""
"","","","","63ea4301f63c1d26f0ff83e9","bdp_trlrn","Wed Mar 15 2023 15:43:42 GMT-0400 (Eastern Daylight Time)","508513","Untrustworthy,Trustworthy","instructions","4","20940","0.0-4.0","[{""page_index"":0,""viewing_time"":7235},{""page_index"":1,""viewing_time"":2746}]","9981","","","","","","","","","","","","","",""
"","","","","63ea4301f63c1d26f0ff83e9","bdp_trlrn","Wed Mar 15 2023 15:43:42 GMT-0400 (Eastern Daylight Time)","508513","Untrustworthy,Trustworthy","instructions","5","22714","0.0-5.0","[{""page_index"":0,""viewing_time"":1772}]","1772","","","","","","","","","","","","","",""
"","","","rating","63ea4301f63c1d26f0ff83e9","bdp_trlrn","Wed Mar 15 2023 15:43:42 GMT-0400 (Eastern Daylight Time)","508513","Untrustworthy,Trustworthy","image-keyboard-response","6","23980","0.0-6.0-1.0","","1157","","trustrating_stim/white_mw035.bmp","2","","","","","","","","","","",""
"","","","ratingFB","63ea4301f63c1d26f0ff83e9","bdp_trlrn","Wed Mar 15 2023 15:43:42 GMT-0400 (Eastern Daylight Time)","508513","Untrustworthy,Trustworthy","image-keyboard-response","7","24191","0.0-6.0-2.0","","null","","trustrating_stim/white_mw035.bmp","null","","","","","","","","","","",""
"","","","rating","63ea4301f63c1d26f0ff83e9","bdp_trlrn","Wed Mar 15 2023 15:43:42 GMT-0400 (Eastern Daylight Time)","508513","Untrustworthy,Trustworthy","image-keyboard-response","8","25983","0.0-6.0-1.1","","1680","","trustrating_stim/white_mw099.bmp","1","","","","","","","","","","",""
"","","","ratingFB","63ea4301f63c1d26f0ff83e9","bdp_trlrn","Wed Mar 15 2023 15:43:42 GMT-0400 (Eastern Daylight Time)","508513","Untrustworthy,Trustworthy","image-keyboard-response","9","26191","0.0-6.0-2.1","","null","","trustrating_stim/white_mw099.bmp","null","","","","","","","","","","",""
"","","","rating","63ea4301f63c1d26f0ff83e9","bdp_trlrn","Wed Mar 15 2023 15:43:42 GMT-0400 (Eastern Daylight Time)","508513","Untrustworthy,Trustworthy","image-keyboard-response","10","27281","0.0-6.0-1.2","","978","","trustrating_stim/white_00299_940422_fa_edt.bmp","3","","","","","","","","","","",""
"","","","ratingFB","63ea4301f63c1d26f0ff83e9","bdp_trlrn","Wed Mar 15 2023 15:43:42 GMT-0400 (Eastern Daylight Time)","508513","Untrustworthy,Trustworthy","image-keyboard-response","11","27490","0.0-6.0-2.2","","null","","trustrating_stim/white_00299_940422_fa_edt.bmp","null","","","","","","","","","","",""
"","","","rating","63ea4301f63c1d26f0ff83e9","bdp_trlrn","Wed Mar 15 2023 15:43:42 GMT-0400 (Eastern Daylight Time)","508513","Untrustworthy,Trustworthy","image-keyboard-response","12","28699","0.0-6.0-1.3","","1096","","trustrating_stim/white_00602_940928_fb_edt.bmp","5","","","","","","","","","","",""
"","","","ratingFB","63ea4301f63c1d26f0ff83e9","bdp_trlrn","Wed Mar 15 2023 15:43:42 GMT-0400 (Eastern Daylight Time)","508513","Untrustworthy,Trustworthy","image-keyboard-response","13","28902","0.0-6.0-2.3","","null","","trustrating_stim/white_00602_940928_fb_edt.bmp","null","","","","","","","","","","",""
"","","","rating","63ea4301f63c1d26f0ff83e9","bdp_trlrn","Wed Mar 15 2023 15:43:42 GMT-0400 (Eastern Daylight Time)","508513","Untrustworthy,Trustworthy","image-keyboard-response","14","30079","0.0-6.0-1.4","","1067","","trustrating_stim/white_mw056.bmp","3","","","","","","","","","","",""
"","","","ratingFB","63ea4301f63c1d26f0ff83e9","bdp_trlrn","Wed Mar 15 2023 15:43:42 GMT-0400 (Eastern Daylight Time)","508513","Untrustworthy,Trustworthy","image-keyboard-response","15","30281","0.0-6.0-2.4","","null","","trustrating_stim/white_mw056.bmp","null","","","","","","","","","","",""
"","","","rating","63ea4301f63c1d26f0ff83e9","bdp_trlrn","Wed Mar 15 2023 15:43:42 GMT-0400 (Eastern Daylight Time)","508513","Untrustworthy,Trustworthy","image-keyboard-response","16","31844","0.0-6.0-1.5","","1452","","trustrating_stim/white_00898_960530_fa_edt.bmp","5","","","","","","","","","","",""
"","","","ratingFB","63ea4301f63c1d26f0ff83e9","bdp_trlrn","Wed Mar 15 2023 15:43:42 GMT-0400 (Eastern Daylight Time)","508513","Untrustworthy,Trustworthy","image-keyboard-response","17","32051","0.0-6.0-2.5","","null","","trustrating_stim/white_00898_960530_fa_edt.bmp","null","","","","","","","","","","",""
"","","","rating","63ea4301f63c1d26f0ff83e9","bdp_trlrn","Wed Mar 15 2023 15:43:42 GMT-0400 (Eastern Daylight Time)","508513","Untrustworthy,Trustworthy","image-keyboard-response","18","33908","0.0-6.0-1.6","","1745","","trustrating_stim/white_00519_940519_fb_edt.bmp","6","","","","","","","","","","",""
"","","","ratingFB","63ea4301f63c1d26f0ff83e9","bdp_trlrn","Wed Mar 15 2023 15:43:42 GMT-0400 (Eastern Daylight Time)","508513","Untrustworthy,Trustworthy","image-keyboard-response","19","34112","0.0-6.0-2.6","","null","","trustrating_stim/white_00519_940519_fb_edt.bmp","null","","","","","","","","","","",""
"","","","rating","63ea4301f63c1d26f0ff83e9","bdp_trlrn","Wed Mar 15 2023 15:43:42 GMT-0400 (Eastern Daylight Time)","508513","Untrustworthy,Trustworthy","image-keyboard-response","20","35292","0.0-6.0-1.7","","1069","","trustrating_stim/white_mw033.bmp","3","","","","","","","","","","",""
"","","","ratingFB","63ea4301f63c1d26f0ff83e9","bdp_trlrn","Wed Mar 15 2023 15:43:42 GMT-0400 (Eastern Daylight Time)","508513","Untrustworthy,Trustworthy","image-keyboard-response","21","35502","0.0-6.0-2.7","","null","","trustrating_stim/white_mw033.bmp","null","","","","","","","","","","",""
"","","","rating","63ea4301f63c1d26f0ff83e9","bdp_trlrn","Wed Mar 15 2023 15:43:42 GMT-0400 (Eastern Daylight Time)","508513","Untrustworthy,Trustworthy","image-keyboard-response","22","37298","0.0-6.0-1.8","","1684","","trustrating_stim/white_mw053.bmp","6","","","","","","","","","","",""
"","","","ratingFB","63ea4301f63c1d26f0ff83e9","bdp_trlrn","Wed Mar 15 2023 15:43:42 GMT-0400 (Eastern Daylight Time)","508513","Untrustworthy,Trustworthy","image-keyboard-response","23","37503","0.0-6.0-2.8","","null","","trustrating_stim/white_mw053.bmp","null","","","","","","","","","","",""
"","","","rating","63ea4301f63c1d26f0ff83e9","bdp_trlrn","Wed Mar 15 2023 15:43:42 GMT-0400 (Eastern Daylight Time)","508513","Untrustworthy,Trustworthy","image-keyboard-response","24","39178","0.0-6.0-1.9","","1564","","trustrating_stim/white_00659_941121_fa_edt.bmp","5","","","","","","","","","","",""
"","","","ratingFB","63ea4301f63c1d26f0ff83e9","bdp_trlrn","Wed Mar 15 2023 15:43:42 GMT-0400 (Eastern Daylight Time)","508513","Untrustworthy,Trustworthy","image-keyboard-response","25","39382","0.0-6.0-2.9","","null","","trustrating_stim/white_00659_941121_fa_edt.bmp","null","","","","","","","","","","",""
"","","","rating","63ea4301f63c1d26f0ff83e9","bdp_trlrn","Wed Mar 15 2023 15:43:42 GMT-0400 (Eastern Daylight Time)","508513","Untrustworthy,Trustworthy","image-keyboard-response","26","40457","0.0-6.0-1.10","","963","","trustrating_stim/white_mw063.bmp","2","","","","","","","","","","",""
"","","","ratingFB","63ea4301f63c1d26f0ff83e9","bdp_trlrn","Wed Mar 15 2023 15:43:42 GMT-0400 (Eastern Daylight Time)","508513","Untrustworthy,Trustworthy","image-keyboard-response","27","40663","0.0-6.0-2.10","","null","","trustrating_stim/white_mw063.bmp","null","","","","","","","","","","",""
"","","","rating","63ea4301f63c1d26f0ff83e9","bdp_trlrn","Wed Mar 15 2023 15:43:42 GMT-0400 (Eastern Daylight Time)","508513","Untrustworthy,Trustworthy","image-keyboard-response","28","41568","0.0-6.0-1.11","","795","","trustrating_stim/white_mw049.bmp","3","","","","","","","","","","",""
"","","","ratingFB","63ea4301f63c1d26f0ff83e9","bdp_trlrn","Wed Mar 15 2023 15:43:42 GMT-0400 (Eastern Daylight Time)","508513","Untrustworthy,Trustworthy","image-keyboard-response","29","41772","0.0-6.0-2.11","","null","","trustrating_stim/white_mw049.bmp","null","","","","","","","","","","",""
"","","","rating","63ea4301f63c1d26f0ff83e9","bdp_trlrn","Wed Mar 15 2023 15:43:42 GMT-0400 (Eastern Daylight Time)","508513","Untrustworthy,Trustworthy","image-keyboard-response","30","44310","0.0-6.0-1.12","","2426","","trustrating_stim/white_mw097.bmp","1","","","","","","","","","","",""
"","","","ratingFB","63ea4301f63c1d26f0ff83e9","bdp_trlrn","Wed Mar 15 2023 15:43:42 GMT-0400 (Eastern Daylight Time)","508513","Untrustworthy,Trustworthy","image-keyboard-response","31","44513","0.0-6.0-2.12","","null","","trustrating_stim/white_mw097.bmp","null","","","","","","","","","","",""
"","","","rating","63ea4301f63c1d26f0ff83e9","bdp_trlrn","Wed Mar 15 2023 15:43:42 GMT-0400 (Eastern Daylight Time)","508513","Untrustworthy,Trustworthy","image-keyboard-response","32","45579","0.0-6.0-1.13","","955","","trustrating_stim/white_mw084.bmp","2","","","","","","","","","","",""
"","","","ratingFB","63ea4301f63c1d26f0ff83e9","bdp_trlrn","Wed Mar 15 2023 15:43:42 GMT-0400 (Eastern Daylight Time)","508513","Untrustworthy,Trustworthy","image-keyboard-response","33","45784","0.0-6.0-2.13","","null","","trustrating_stim/white_mw084.bmp","null","","","","","","","","","","",""
"","","","rating","63ea4301f63c1d26f0ff83e9","bdp_trlrn","Wed Mar 15 2023 15:43:42 GMT-0400 (Eastern Daylight Time)","508513","Untrustworthy,Trustworthy","image-keyboard-response","34","46896","0.0-6.0-1.14","","1001","","trustrating_stim/white_mw048.bmp","1","","","","","","","","","","",""
"","","","ratingFB","63ea4301f63c1d26f0ff83e9","bdp_trlrn","Wed Mar 15 2023 15:43:42 GMT-0400 (Eastern Daylight Time)","508513","Untrustworthy,Trustworthy","image-keyboard-response","35","47103","0.0-6.0-2.14","","null","","trustrating_stim/white_mw048.bmp","null","","","","","","","","","","",""
"","","","rating","63ea4301f63c1d26f0ff83e9","bdp_trlrn","Wed Mar 15 2023 15:43:42 GMT-0400 (Eastern Daylight Time)","508513","Untrustworthy,Trustworthy","image-keyboard-response","36","49002","0.0-6.0-1.15","","1788","","trustrating_stim/white_mw071.bmp","5","","","","","","","","","","",""
"","","","ratingFB","63ea4301f63c1d26f0ff83e9","bdp_trlrn","Wed Mar 15 2023 15:43:42 GMT-0400 (Eastern Daylight Time)","508513","Untrustworthy,Trustworthy","image-keyboard-response","37","49213","0.0-6.0-2.15","","null","","trustrating_stim/white_mw071.bmp","null","","","","","","","","","","",""
"","","","rating","63ea4301f63c1d26f0ff83e9","bdp_trlrn","Wed Mar 15 2023 15:43:42 GMT-0400 (Eastern Daylight Time)","508513","Untrustworthy,Trustworthy","image-keyboard-response","38","51031","0.0-6.0-1.16","","1706","","trustrating_stim/white_00109_931230_fa_edt.bmp","7","","","","","","","","","","",""
"","","","ratingFB","63ea4301f63c1d26f0ff83e9","bdp_trlrn","Wed Mar 15 2023 15:43:42 GMT-0400 (Eastern Daylight Time)","508513","Untrustworthy,Trustworthy","image-keyboard-response","39","51235","0.0-6.0-2.16","","null","","trustrating_stim/white_00109_931230_fa_edt.bmp","null","","","","","","","","","","",""
"","","","rating","63ea4301f63c1d26f0ff83e9","bdp_trlrn","Wed Mar 15 2023 15:43:42 GMT-0400 (Eastern Daylight Time)","508513","Untrustworthy,Trustworthy","image-keyboard-response","40","52923","0.0-6.0-1.17","","1577","","trustrating_stim/white_00807_941205_fb_edt.bmp","3","","","","","","","","","","",""
"","","","ratingFB","63ea4301f63c1d26f0ff83e9","bdp_trlrn","Wed Mar 15 2023 15:43:42 GMT-0400 (Eastern Daylight Time)","508513","Untrustworthy,Trustworthy","image-keyboard-response","41","53126","0.0-6.0-2.17","","null","","trustrating_stim/white_00807_941205_fb_edt.bmp","null","","","","","","","","","","",""
"","","","rating","63ea4301f63c1d26f0ff83e9","bdp_trlrn","Wed Mar 15 2023 15:43:42 GMT-0400 (Eastern Daylight Time)","508513","Untrustworthy,Trustworthy","image-keyboard-response","42","54762","0.0-6.0-1.18","","1525","","trustrating_stim/white_00761_941201_fb_edt.bmp","1","","","","","","","","","","",""
"","","","ratingFB","63ea4301f63c1d26f0ff83e9","bdp_trlrn","Wed Mar 15 2023 15:43:42 GMT-0400 (Eastern Daylight Time)","508513","Untrustworthy,Trustworthy","image-keyboard-response","43","54965","0.0-6.0-2.18","","null","","trustrating_stim/white_00761_941201_fb_edt.bmp","null","","","","","","","","","","",""
"","","","rating","63ea4301f63c1d26f0ff83e9","bdp_trlrn","Wed Mar 15 2023 15:43:42 GMT-0400 (Eastern Daylight Time)","508513","Untrustworthy,Trustworthy","image-keyboard-response","44","56373","0.0-6.0-1.19","","1295","","trustrating_stim/white_00120_931230_fa_edt.bmp","8","","","","","","","","","","",""
"","","","ratingFB","63ea4301f63c1d26f0ff83e9","bdp_trlrn","Wed Mar 15 2023 15:43:42 GMT-0400 (Eastern Daylight Time)","508513","Untrustworthy,Trustworthy","image-keyboard-response","45","56586","0.0-6.0-2.19","","null","","trustrating_stim/white_00120_931230_fa_edt.bmp","null","","","","","","","","","","",""
"","","","rating","63ea4301f63c1d26f0ff83e9","bdp_trlrn","Wed Mar 15 2023 15:43:42 GMT-0400 (Eastern Daylight Time)","508513","Untrustworthy,Trustworthy","image-keyboard-response","46","58479","0.0-6.0-1.20","","1780","","trustrating_stim/white_00785_941205_fb_edt.bmp","1","","","","","","","","","","",""
"","","","ratingFB","63ea4301f63c1d26f0ff83e9","bdp_trlrn","Wed Mar 15 2023 15:43:42 GMT-0400 (Eastern Daylight Time)","508513","Untrustworthy,Trustworthy","image-keyboard-response","47","58685","0.0-6.0-2.20","","null","","trustrating_stim/white_00785_941205_fb_edt.bmp","null","","","","","","","","","","",""
"","","","rating","63ea4301f63c1d26f0ff83e9","bdp_trlrn","Wed Mar 15 2023 15:43:42 GMT-0400 (Eastern Daylight Time)","508513","Untrustworthy,Trustworthy","image-keyboard-response","48","60365","0.0-6.0-1.21","","1568","","trustrating_stim/white_mw089.bmp","5","","","","","","","","","","",""
"","","","ratingFB","63ea4301f63c1d26f0ff83e9","bdp_trlrn","Wed Mar 15 2023 15:43:42 GMT-0400 (Eastern Daylight Time)","508513","Untrustworthy,Trustworthy","image-keyboard-response","49","60576","0.0-6.0-2.21","","null","","trustrating_stim/white_mw089.bmp","null","","","","","","","","","","",""
"","","","rating","63ea4301f63c1d26f0ff83e9","bdp_trlrn","Wed Mar 15 2023 15:43:42 GMT-0400 (Eastern Daylight Time)","508513","Untrustworthy,Trustworthy","image-keyboard-response","50","61706","0.0-6.0-1.22","","1018","","trustrating_stim/white_mw066.bmp","6","","","","","","","","","","",""
"","","","ratingFB","63ea4301f63c1d26f0ff83e9","bdp_trlrn","Wed Mar 15 2023 15:43:42 GMT-0400 (Eastern Daylight Time)","508513","Untrustworthy,Trustworthy","image-keyboard-response","51","61916","0.0-6.0-2.22","","null","","trustrating_stim/white_mw066.bmp","null","","","","","","","","","","",""
"","","","rating","63ea4301f63c1d26f0ff83e9","bdp_trlrn","Wed Mar 15 2023 15:43:42 GMT-0400 (Eastern Daylight Time)","508513","Untrustworthy,Trustworthy","image-keyboard-response","52","62933","0.0-6.0-1.23","","905","","trustrating_stim/white_mw046.bmp","5","","","","","","","","","","",""
"","","","ratingFB","63ea4301f63c1d26f0ff83e9","bdp_trlrn","Wed Mar 15 2023 15:43:42 GMT-0400 (Eastern Daylight Time)","508513","Untrustworthy,Trustworthy","image-keyboard-response","53","63136","0.0-6.0-2.23","","null","","trustrating_stim/white_mw046.bmp","null","","","","","","","","","","",""
"","","","rating","63ea4301f63c1d26f0ff83e9","bdp_trlrn","Wed Mar 15 2023 15:43:42 GMT-0400 (Eastern Daylight Time)","508513","Untrustworthy,Trustworthy","image-keyboard-response","54","64950","0.0-6.0-1.24","","1702","","trustrating_stim/white_mw060.bmp","2","","","","","","","","","","",""
"","","","ratingFB","63ea4301f63c1d26f0ff83e9","bdp_trlrn","Wed Mar 15 2023 15:43:42 GMT-0400 (Eastern Daylight Time)","508513","Untrustworthy,Trustworthy","image-keyboard-response","55","65157","0.0-6.0-2.24","","null","","trustrating_stim/white_mw060.bmp","null","","","","","","","","","","",""
"","","","rating","63ea4301f63c1d26f0ff83e9","bdp_trlrn","Wed Mar 15 2023 15:43:42 GMT-0400 (Eastern Daylight Time)","508513","Untrustworthy,Trustworthy","image-keyboard-response","56","65992","0.0-6.0-1.25","","725","","trustrating_stim/white_00757_941201_fa_edt.bmp","1","","","","","","","","","","",""
"","","","ratingFB","63ea4301f63c1d26f0ff83e9","bdp_trlrn","Wed Mar 15 2023 15:43:42 GMT-0400 (Eastern Daylight Time)","508513","Untrustworthy,Trustworthy","image-keyboard-response","57","66196","0.0-6.0-2.25","","null","","trustrating_stim/white_00757_941201_fa_edt.bmp","null","","","","","","","","","","",""
"","","","rating","63ea4301f63c1d26f0ff83e9","bdp_trlrn","Wed Mar 15 2023 15:43:42 GMT-0400 (Eastern Daylight Time)","508513","Untrustworthy,Trustworthy","image-keyboard-response","58","67601","0.0-6.0-1.26","","1293","","trustrating_stim/white_00129_931230_fb_edt.bmp","6","","","","","","","","","","",""
"","","","ratingFB","63ea4301f63c1d26f0ff83e9","bdp_trlrn","Wed Mar 15 2023 15:43:42 GMT-0400 (Eastern Daylight Time)","508513","Untrustworthy,Trustworthy","image-keyboard-response","59","67807","0.0-6.0-2.26","","null","","trustrating_stim/white_00129_931230_fb_edt.bmp","null","","","","","","","","","","",""
"","","","rating","63ea4301f63c1d26f0ff83e9","bdp_trlrn","Wed Mar 15 2023 15:43:42 GMT-0400 (Eastern Daylight Time)","508513","Untrustworthy,Trustworthy","image-keyboard-response","60","69759","0.0-6.0-1.27","","1841","","trustrating_stim/white_00223_940128_fb_edt.bmp","2","","","","","","","","","","",""
"","","","ratingFB","63ea4301f63c1d26f0ff83e9","bdp_trlrn","Wed Mar 15 2023 15:43:42 GMT-0400 (Eastern Daylight Time)","508513","Untrustworthy,Trustworthy","image-keyboard-response","61","69967","0.0-6.0-2.27","","null","","trustrating_stim/white_00223_940128_fb_edt.bmp","null","","","","","","","","","","",""
"","","","rating","63ea4301f63c1d26f0ff83e9","bdp_trlrn","Wed Mar 15 2023 15:43:42 GMT-0400 (Eastern Daylight Time)","508513","Untrustworthy,Trustworthy","image-keyboard-response","62","71272","0.0-6.0-1.28","","1193","","trustrating_stim/white_00340_940422_fa_edt.bmp","2","","","","","","","","","","",""
"","","","ratingFB","63ea4301f63c1d26f0ff83e9","bdp_trlrn","Wed Mar 15 2023 15:43:42 GMT-0400 (Eastern Daylight Time)","508513","Untrustworthy,Trustworthy","image-keyboard-response","63","71477","0.0-6.0-2.28","","null","","trustrating_stim/white_00340_940422_fa_edt.bmp","null","","","","","","","","","","",""
"","","","rating","63ea4301f63c1d26f0ff83e9","bdp_trlrn","Wed Mar 15 2023 15:43:42 GMT-0400 (Eastern Daylight Time)","508513","Untrustworthy,Trustworthy","image-keyboard-response","64","73429","0.0-6.0-1.29","","1841","","trustrating_stim/white_00577_940928_fa_edt.bmp","4","","","","","","","","","","",""
"","","","ratingFB","63ea4301f63c1d26f0ff83e9","bdp_trlrn","Wed Mar 15 2023 15:43:42 GMT-0400 (Eastern Daylight Time)","508513","Untrustworthy,Trustworthy","image-keyboard-response","65","73637","0.0-6.0-2.29","","null","","trustrating_stim/white_00577_940928_fa_edt.bmp","null","","","","","","","","","","",""
"","","","rating","63ea4301f63c1d26f0ff83e9","bdp_trlrn","Wed Mar 15 2023 15:43:42 GMT-0400 (Eastern Daylight Time)","508513","Untrustworthy,Trustworthy","image-keyboard-response","66","74981","0.0-6.0-1.30","","1232","","trustrating_stim/white_00340_940422_fa_edt.bmp","3","","","","","","","","","","",""
"","","","ratingFB","63ea4301f63c1d26f0ff83e9","bdp_trlrn","Wed Mar 15 2023 15:43:42 GMT-0400 (Eastern Daylight Time)","508513","Untrustworthy,Trustworthy","image-keyboard-response","67","75188","0.0-6.0-2.30","","null","","trustrating_stim/white_00340_940422_fa_edt.bmp","null","","","","","","","","","","",""
"","","","rating","63ea4301f63c1d26f0ff83e9","bdp_trlrn","Wed Mar 15 2023 15:43:42 GMT-0400 (Eastern Daylight Time)","508513","Untrustworthy,Trustworthy","image-keyboard-response","68","76242","0.0-6.0-1.31","","943","","trustrating_stim/white_00659_941121_fa_edt.bmp","2","","","","","","","","","","",""
"","","","ratingFB","63ea4301f63c1d26f0ff83e9","bdp_trlrn","Wed Mar 15 2023 15:43:42 GMT-0400 (Eastern Daylight Time)","508513","Untrustworthy,Trustworthy","image-keyboard-response","69","76448","0.0-6.0-2.31","","null","","trustrating_stim/white_00659_941121_fa_edt.bmp","null","","","","","","","","","","",""
"","","","rating","63ea4301f63c1d26f0ff83e9","bdp_trlrn","Wed Mar 15 2023 15:43:42 GMT-0400 (Eastern Daylight Time)","508513","Untrustworthy,Trustworthy","image-keyboard-response","70","77873","0.0-6.0-1.32","","1314","","trustrating_stim/white_mw053.bmp","6","","","","","","","","","","",""
"","","","ratingFB","63ea4301f63c1d26f0ff83e9","bdp_trlrn","Wed Mar 15 2023 15:43:42 GMT-0400 (Eastern Daylight Time)","508513","Untrustworthy,Trustworthy","image-keyboard-response","71","78078","0.0-6.0-2.32","","null","","trustrating_stim/white_mw053.bmp","null","","","","","","","","","","",""
"","","","rating","63ea4301f63c1d26f0ff83e9","bdp_trlrn","Wed Mar 15 2023 15:43:42 GMT-0400 (Eastern Daylight Time)","508513","Untrustworthy,Trustworthy","image-keyboard-response","72","79342","0.0-6.0-1.33","","1152","","trustrating_stim/white_mw035.bmp","6","","","","","","","","","","",""
"","","","ratingFB","63ea4301f63c1d26f0ff83e9","bdp_trlrn","Wed Mar 15 2023 15:43:42 GMT-0400 (Eastern Daylight Time)","508513","Untrustworthy,Trustworthy","image-keyboard-response","73","79548","0.0-6.0-2.33","","null","","trustrating_stim/white_mw035.bmp","null","","","","","","","","","","",""
"","","","rating","63ea4301f63c1d26f0ff83e9","bdp_trlrn","Wed Mar 15 2023 15:43:42 GMT-0400 (Eastern Daylight Time)","508513","Untrustworthy,Trustworthy","image-keyboard-response","74","80819","0.0-6.0-1.34","","1159","","trustrating_stim/white_mw071.bmp","3","","","","","","","","","","",""
"","","","ratingFB","63ea4301f63c1d26f0ff83e9","bdp_trlrn","Wed Mar 15 2023 15:43:42 GMT-0400 (Eastern Daylight Time)","508513","Untrustworthy,Trustworthy","image-keyboard-response","75","81028","0.0-6.0-2.34","","null","","trustrating_stim/white_mw071.bmp","null","","","","","","","","","","",""
"","","","rating","63ea4301f63c1d26f0ff83e9","bdp_trlrn","Wed Mar 15 2023 15:43:42 GMT-0400 (Eastern Daylight Time)","508513","Untrustworthy,Trustworthy","image-keyboard-response","76","82219","0.0-6.0-1.35","","1079","","trustrating_stim/white_mw097.bmp","1","","","","","","","","","","",""
"","","","ratingFB","63ea4301f63c1d26f0ff83e9","bdp_trlrn","Wed Mar 15 2023 15:43:42 GMT-0400 (Eastern Daylight Time)","508513","Untrustworthy,Trustworthy","image-keyboard-response","77","82428","0.0-6.0-2.35","","null","","trustrating_stim/white_mw097.bmp","null","","","","","","","","","","",""
"","","","rating","63ea4301f63c1d26f0ff83e9","bdp_trlrn","Wed Mar 15 2023 15:43:42 GMT-0400 (Eastern Daylight Time)","508513","Untrustworthy,Trustworthy","image-keyboard-response","78","83746","0.0-6.0-1.36","","1206","","trustrating_stim/white_mw099.bmp","2","","","","","","","","","","",""
"","","","ratingFB","63ea4301f63c1d26f0ff83e9","bdp_trlrn","Wed Mar 15 2023 15:43:42 GMT-0400 (Eastern Daylight Time)","508513","Untrustworthy,Trustworthy","image-keyboard-response","79","83949","0.0-6.0-2.36","","null","","trustrating_stim/white_mw099.bmp","null","","","","","","","","","","",""
"","","","rating","63ea4301f63c1d26f0ff83e9","bdp_trlrn","Wed Mar 15 2023 15:43:42 GMT-0400 (Eastern Daylight Time)","508513","Untrustworthy,Trustworthy","image-keyboard-response","80","85321","0.0-6.0-1.37","","1261","","trustrating_stim/white_00519_940519_fb_edt.bmp","7","","","","","","","","","","",""
"","","","ratingFB","63ea4301f63c1d26f0ff83e9","bdp_trlrn","Wed Mar 15 2023 15:43:42 GMT-0400 (Eastern Daylight Time)","508513","Untrustworthy,Trustworthy","image-keyboard-response","81","85529","0.0-6.0-2.37","","null","","trustrating_stim/white_00519_940519_fb_edt.bmp","null","","","","","","","","","","",""
"","","","rating","63ea4301f63c1d26f0ff83e9","bdp_trlrn","Wed Mar 15 2023 15:43:42 GMT-0400 (Eastern Daylight Time)","508513","Untrustworthy,Trustworthy","image-keyboard-response","82","86943","0.0-6.0-1.38","","1302","","trustrating_stim/white_00602_940928_fb_edt.bmp","7","","","","","","","","","","",""
"","","","ratingFB","63ea4301f63c1d26f0ff83e9","bdp_trlrn","Wed Mar 15 2023 15:43:42 GMT-0400 (Eastern Daylight Time)","508513","Untrustworthy,Trustworthy","image-keyboard-response","83","87149","0.0-6.0-2.38","","null","","trustrating_stim/white_00602_940928_fb_edt.bmp","null","","","","","","","","","","",""
"","","","rating","63ea4301f63c1d26f0ff83e9","bdp_trlrn","Wed Mar 15 2023 15:43:42 GMT-0400 (Eastern Daylight Time)","508513","Untrustworthy,Trustworthy","image-keyboard-response","84","88613","0.0-6.0-1.39","","1354","","trustrating_stim/white_00299_940422_fa_edt.bmp","4","","","","","","","","","","",""
"","","","ratingFB","63ea4301f63c1d26f0ff83e9","bdp_trlrn","Wed Mar 15 2023 15:43:42 GMT-0400 (Eastern Daylight Time)","508513","Untrustworthy,Trustworthy","image-keyboard-response","85","88819","0.0-6.0-2.39","","null","","trustrating_stim/white_00299_940422_fa_edt.bmp","null","","","","","","","","","","",""
"","","","rating","63ea4301f63c1d26f0ff83e9","bdp_trlrn","Wed Mar 15 2023 15:43:42 GMT-0400 (Eastern Daylight Time)","508513","Untrustworthy,Trustworthy","image-keyboard-response","86","89897","0.0-6.0-1.40","","967","","trustrating_stim/white_mw049.bmp","5","","","","","","","","","","",""
"","","","ratingFB","63ea4301f63c1d26f0ff83e9","bdp_trlrn","Wed Mar 15 2023 15:43:42 GMT-0400 (Eastern Daylight Time)","508513","Untrustworthy,Trustworthy","image-keyboard-response","87","90100","0.0-6.0-2.40","","null","","trustrating_stim/white_mw049.bmp","null","","","","","","","","","","",""
"","","","rating","63ea4301f63c1d26f0ff83e9","bdp_trlrn","Wed Mar 15 2023 15:43:42 GMT-0400 (Eastern Daylight Time)","508513","Untrustworthy,Trustworthy","image-keyboard-response","88","91570","0.0-6.0-1.41","","1358","","trustrating_stim/white_00785_941205_fb_edt.bmp","2","","","","","","","","","","",""
"","","","ratingFB","63ea4301f63c1d26f0ff83e9","bdp_trlrn","Wed Mar 15 2023 15:43:42 GMT-0400 (Eastern Daylight Time)","508513","Untrustworthy,Trustworthy","image-keyboard-response","89","91780","0.0-6.0-2.41","","null","","trustrating_stim/white_00785_941205_fb_edt.bmp","null","","","","","","","","","","",""
"","","","rating","63ea4301f63c1d26f0ff83e9","bdp_trlrn","Wed Mar 15 2023 15:43:42 GMT-0400 (Eastern Daylight Time)","508513","Untrustworthy,Trustworthy","image-keyboard-response","90","92586","0.0-6.0-1.42","","695","","trustrating_stim/white_00757_941201_fa_edt.bmp","1","","","","","","","","","","",""
"","","","ratingFB","63ea4301f63c1d26f0ff83e9","bdp_trlrn","Wed Mar 15 2023 15:43:42 GMT-0400 (Eastern Daylight Time)","508513","Untrustworthy,Trustworthy","image-keyboard-response","91","92790","0.0-6.0-2.42","","null","","trustrating_stim/white_00757_941201_fa_edt.bmp","null","","","","","","","","","","",""
"","","","rating","63ea4301f63c1d26f0ff83e9","bdp_trlrn","Wed Mar 15 2023 15:43:42 GMT-0400 (Eastern Daylight Time)","508513","Untrustworthy,Trustworthy","image-keyboard-response","92","94005","0.0-6.0-1.43","","1105","","trustrating_stim/white_00807_941205_fb_edt.bmp","1","","","","","","","","","","",""
"","","","ratingFB","63ea4301f63c1d26f0ff83e9","bdp_trlrn","Wed Mar 15 2023 15:43:42 GMT-0400 (Eastern Daylight Time)","508513","Untrustworthy,Trustworthy","image-keyboard-response","93","94210","0.0-6.0-2.43","","null","","trustrating_stim/white_00807_941205_fb_edt.bmp","null","","","","","","","","","","",""
"","","","rating","63ea4301f63c1d26f0ff83e9","bdp_trlrn","Wed Mar 15 2023 15:43:42 GMT-0400 (Eastern Daylight Time)","508513","Untrustworthy,Trustworthy","image-keyboard-response","94","95163","0.0-6.0-1.44","","841","","trustrating_stim/white_mw084.bmp","4","","","","","","","","","","",""
"","","","ratingFB","63ea4301f63c1d26f0ff83e9","bdp_trlrn","Wed Mar 15 2023 15:43:42 GMT-0400 (Eastern Daylight Time)","508513","Untrustworthy,Trustworthy","image-keyboard-response","95","95370","0.0-6.0-2.44","","null","","trustrating_stim/white_mw084.bmp","null","","","","","","","","","","",""
"","","","rating","63ea4301f63c1d26f0ff83e9","bdp_trlrn","Wed Mar 15 2023 15:43:42 GMT-0400 (Eastern Daylight Time)","508513","Untrustworthy,Trustworthy","image-keyboard-response","96","96377","0.0-6.0-1.45","","897","","trustrating_stim/white_mw046.bmp","2","","","","","","","","","","",""
"","","","ratingFB","63ea4301f63c1d26f0ff83e9","bdp_trlrn","Wed Mar 15 2023 15:43:42 GMT-0400 (Eastern Daylight Time)","508513","Untrustworthy,Trustworthy","image-keyboard-response","97","96579","0.0-6.0-2.45","","null","","trustrating_stim/white_mw046.bmp","null","","","","","","","","","","",""
"","","","rating","63ea4301f63c1d26f0ff83e9","bdp_trlrn","Wed Mar 15 2023 15:43:42 GMT-0400 (Eastern Daylight Time)","508513","Untrustworthy,Trustworthy","image-keyboard-response","98","97465","0.0-6.0-1.46","","774","","trustrating_stim/white_mw060.bmp","2","","","","","","","","","","",""
"","","","ratingFB","63ea4301f63c1d26f0ff83e9","bdp_trlrn","Wed Mar 15 2023 15:43:42 GMT-0400 (Eastern Daylight Time)","508513","Untrustworthy,Trustworthy","image-keyboard-response","99","97671","0.0-6.0-2.46","","null","","trustrating_stim/white_mw060.bmp","null","","","","","","","","","","",""
"","","","rating","63ea4301f63c1d26f0ff83e9","bdp_trlrn","Wed Mar 15 2023 15:43:42 GMT-0400 (Eastern Daylight Time)","508513","Untrustworthy,Trustworthy","image-keyboard-response","100","98645","0.0-6.0-1.47","","864","","trustrating_stim/white_mw048.bmp","2","","","","","","","","","","",""
"","","","ratingFB","63ea4301f63c1d26f0ff83e9","bdp_trlrn","Wed Mar 15 2023 15:43:42 GMT-0400 (Eastern Daylight Time)","508513","Untrustworthy,Trustworthy","image-keyboard-response","101","98851","0.0-6.0-2.47","","null","","trustrating_stim/white_mw048.bmp","null","","","","","","","","","","",""
"","","","rating","63ea4301f63c1d26f0ff83e9","bdp_trlrn","Wed Mar 15 2023 15:43:42 GMT-0400 (Eastern Daylight Time)","508513","Untrustworthy,Trustworthy","image-keyboard-response","102","99843","0.0-6.0-1.48","","881","","trustrating_stim/white_00577_940928_fa_edt.bmp","6","","","","","","","","","","",""
"","","","ratingFB","63ea4301f63c1d26f0ff83e9","bdp_trlrn","Wed Mar 15 2023 15:43:42 GMT-0400 (Eastern Daylight Time)","508513","Untrustworthy,Trustworthy","image-keyboard-response","103","100050","0.0-6.0-2.48","","null","","trustrating_stim/white_00577_940928_fa_edt.bmp","null","","","","","","","","","","",""
"","","","rating","63ea4301f63c1d26f0ff83e9","bdp_trlrn","Wed Mar 15 2023 15:43:42 GMT-0400 (Eastern Daylight Time)","508513","Untrustworthy,Trustworthy","image-keyboard-response","104","100903","0.0-6.0-1.49","","741","","trustrating_stim/white_00898_960530_fa_edt.bmp","4","","","","","","","","","","",""
"","","","ratingFB","63ea4301f63c1d26f0ff83e9","bdp_trlrn","Wed Mar 15 2023 15:43:42 GMT-0400 (Eastern Daylight Time)","508513","Untrustworthy,Trustworthy","image-keyboard-response","105","101111","0.0-6.0-2.49","","null","","trustrating_stim/white_00898_960530_fa_edt.bmp","null","","","","","","","","","","",""
"","","","rating","63ea4301f63c1d26f0ff83e9","bdp_trlrn","Wed Mar 15 2023 15:43:42 GMT-0400 (Eastern Daylight Time)","508513","Untrustworthy,Trustworthy","image-keyboard-response","106","102816","0.0-6.0-1.50","","1594","","trustrating_stim/white_mw033.bmp","5","","","","","","","","","","",""
"","","","ratingFB","63ea4301f63c1d26f0ff83e9","bdp_trlrn","Wed Mar 15 2023 15:43:42 GMT-0400 (Eastern Daylight Time)","508513","Untrustworthy,Trustworthy","image-keyboard-response","107","103020","0.0-6.0-2.50","","null","","trustrating_stim/white_mw033.bmp","null","","","","","","","","","","",""
"","","","rating","63ea4301f63c1d26f0ff83e9","bdp_trlrn","Wed Mar 15 2023 15:43:42 GMT-0400 (Eastern Daylight Time)","508513","Untrustworthy,Trustworthy","image-keyboard-response","108","104381","0.0-6.0-1.51","","1249","","trustrating_stim/white_mw056.bmp","6","","","","","","","","","","",""
"","","","ratingFB","63ea4301f63c1d26f0ff83e9","bdp_trlrn","Wed Mar 15 2023 15:43:42 GMT-0400 (Eastern Daylight Time)","508513","Untrustworthy,Trustworthy","image-keyboard-response","109","104591","0.0-6.0-2.51","","null","","trustrating_stim/white_mw056.bmp","null","","","","","","","","","","",""
"","","","rating","63ea4301f63c1d26f0ff83e9","bdp_trlrn","Wed Mar 15 2023 15:43:42 GMT-0400 (Eastern Daylight Time)","508513","Untrustworthy,Trustworthy","image-keyboard-response","110","105658","0.0-6.0-1.52","","955","","trustrating_stim/white_00223_940128_fb_edt.bmp","4","","","","","","","","","","",""
"","","","ratingFB","63ea4301f63c1d26f0ff83e9","bdp_trlrn","Wed Mar 15 2023 15:43:42 GMT-0400 (Eastern Daylight Time)","508513","Untrustworthy,Trustworthy","image-keyboard-response","111","105863","0.0-6.0-2.52","","null","","trustrating_stim/white_00223_940128_fb_edt.bmp","null","","","","","","","","","","",""
"","","","rating","63ea4301f63c1d26f0ff83e9","bdp_trlrn","Wed Mar 15 2023 15:43:42 GMT-0400 (Eastern Daylight Time)","508513","Untrustworthy,Trustworthy","image-keyboard-response","112","107901","0.0-6.0-1.53","","1928","","trustrating_stim/white_00109_931230_fa_edt.bmp","7","","","","","","","","","","",""
"","","","ratingFB","63ea4301f63c1d26f0ff83e9","bdp_trlrn","Wed Mar 15 2023 15:43:42 GMT-0400 (Eastern Daylight Time)","508513","Untrustworthy,Trustworthy","image-keyboard-response","113","108111","0.0-6.0-2.53","","null","","trustrating_stim/white_00109_931230_fa_edt.bmp","null","","","","","","","","","","",""
"","","","rating","63ea4301f63c1d26f0ff83e9","bdp_trlrn","Wed Mar 15 2023 15:43:42 GMT-0400 (Eastern Daylight Time)","508513","Untrustworthy,Trustworthy","image-keyboard-response","114","110049","0.0-6.0-1.54","","1826","","trustrating_stim/white_mw063.bmp","1","","","","","","","","","","",""
"","","","ratingFB","63ea4301f63c1d26f0ff83e9","bdp_trlrn","Wed Mar 15 2023 15:43:42 GMT-0400 (Eastern Daylight Time)","508513","Untrustworthy,Trustworthy","image-keyboard-response","115","110252","0.0-6.0-2.54","","null","","trustrating_stim/white_mw063.bmp","null","","","","","","","","","","",""
"","","","rating","63ea4301f63c1d26f0ff83e9","bdp_trlrn","Wed Mar 15 2023 15:43:42 GMT-0400 (Eastern Daylight Time)","508513","Untrustworthy,Trustworthy","image-keyboard-response","116","111450","0.0-6.0-1.55","","1088","","trustrating_stim/white_00129_931230_fb_edt.bmp","6","","","","","","","","","","",""
"","","","ratingFB","63ea4301f63c1d26f0ff83e9","bdp_trlrn","Wed Mar 15 2023 15:43:42 GMT-0400 (Eastern Daylight Time)","508513","Untrustworthy,Trustworthy","image-keyboard-response","117","111662","0.0-6.0-2.55","","null","","trustrating_stim/white_00129_931230_fb_edt.bmp","null","","","","","","","","","","",""
"","","","rating","63ea4301f63c1d26f0ff83e9","bdp_trlrn","Wed Mar 15 2023 15:43:42 GMT-0400 (Eastern Daylight Time)","508513","Untrustworthy,Trustworthy","image-keyboard-response","118","113560","0.0-6.0-1.56","","1787","","trustrating_stim/white_mw089.bmp","7","","","","","","","","","","",""
"","","","ratingFB","63ea4301f63c1d26f0ff83e9","bdp_trlrn","Wed Mar 15 2023 15:43:42 GMT-0400 (Eastern Daylight Time)","508513","Untrustworthy,Trustworthy","image-keyboard-response","119","113763","0.0-6.0-2.56","","null","","trustrating_stim/white_mw089.bmp","null","","","","","","","","","","",""
"","","","rating","63ea4301f63c1d26f0ff83e9","bdp_trlrn","Wed Mar 15 2023 15:43:42 GMT-0400 (Eastern Daylight Time)","508513","Untrustworthy,Trustworthy","image-keyboard-response","120","115261","0.0-6.0-1.57","","1385","","trustrating_stim/white_00761_941201_fb_edt.bmp","1","","","","","","","","","","",""
"","","","ratingFB","63ea4301f63c1d26f0ff83e9","bdp_trlrn","Wed Mar 15 2023 15:43:42 GMT-0400 (Eastern Daylight Time)","508513","Untrustworthy,Trustworthy","image-keyboard-response","121","115462","0.0-6.0-2.57","","null","","trustrating_stim/white_00761_941201_fb_edt.bmp","null","","","","","","","","","","",""
"","","","rating","63ea4301f63c1d26f0ff83e9","bdp_trlrn","Wed Mar 15 2023 15:43:42 GMT-0400 (Eastern Daylight Time)","508513","Untrustworthy,Trustworthy","image-keyboard-response","122","116700","0.0-6.0-1.58","","1125","","trustrating_stim/white_00120_931230_fa_edt.bmp","7","","","","","","","","","","",""
"","","","ratingFB","63ea4301f63c1d26f0ff83e9","bdp_trlrn","Wed Mar 15 2023 15:43:42 GMT-0400 (Eastern Daylight Time)","508513","Untrustworthy,Trustworthy","image-keyboard-response","123","116903","0.0-6.0-2.58","","null","","trustrating_stim/white_00120_931230_fa_edt.bmp","null","","","","","","","","","","",""
"","","","rating","63ea4301f63c1d26f0ff83e9","bdp_trlrn","Wed Mar 15 2023 15:43:42 GMT-0400 (Eastern Daylight Time)","508513","Untrustworthy,Trustworthy","image-keyboard-response","124","118122","0.0-6.0-1.59","","1107","","trustrating_stim/white_mw066.bmp","6","","","","","","","","","","",""
"","","","ratingFB","63ea4301f63c1d26f0ff83e9","bdp_trlrn","Wed Mar 15 2023 15:43:42 GMT-0400 (Eastern Daylight Time)","508513","Untrustworthy,Trustworthy","image-keyboard-response","125","118332","0.0-6.0-2.59","","null","","trustrating_stim/white_mw066.bmp","null","","","","","","","","","","",""
"","","","","63ea4301f63c1d26f0ff83e9","bdp_trlrn","Wed Mar 15 2023 15:43:42 GMT-0400 (Eastern Daylight Time)","508513","Untrustworthy,Trustworthy","instructions","126","121975","0.0-7.0","[{""page_index"":0,""viewing_time"":3531}]","3532","","","","","","","","","","","","","",""
"","","","","63ea4301f63c1d26f0ff83e9","bdp_trlrn","Wed Mar 15 2023 15:43:42 GMT-0400 (Eastern Daylight Time)","508513","Untrustworthy,Trustworthy","instructions","127","169601","0.0-8.0","[{""page_index"":0,""viewing_time"":8179},{""page_index"":1,""viewing_time"":18746},{""page_index"":2,""viewing_time"":2549},{""page_index"":3,""viewing_time"":7639},{""page_index"":4,""viewing_time"":2023},{""page_index"":5,""viewing_time"":4249},{""page_index"":6,""viewing_time"":2287},{""page_index"":7,""viewing_time"":1844}]","47516","","","","","","","","","","","","","",""
"","","","","63ea4301f63c1d26f0ff83e9","bdp_trlrn","Wed Mar 15 2023 15:43:42 GMT-0400 (Eastern Daylight Time)","508513","Untrustworthy,Trustworthy","html-keyboard-response","128","173996","0.0-9.0","","4392","","<div class='header' style='text-align:left; position: absolute; top: 5%; left: 5%;'><small>Task 3 of 5</small></div><div class='instruxDiv'><p><strong>1) What is the minimum number of points you can choose to send to your partner?</strong></p><p>a) 0</p><p>b) 1</p><p>c) 5</p>","C","","","","","","","","","","",""
"","","","","63ea4301f63c1d26f0ff83e9","bdp_trlrn","Wed Mar 15 2023 15:43:42 GMT-0400 (Eastern Daylight Time)","508513","Untrustworthy,Trustworthy","html-keyboard-response","129","177497","0.0-10.0","","3396","","<div class='header' style='text-align:left; position: absolute; top: 5%; left: 5%;'><small>Task 3 of 5</small></div><div class='instruxDiv'><p><strong>1) What is the minimum number of points you can choose to send to your partner?</strong></p><p>a) 1</p><p>b) 1</p><p style='color:#FF0000'>c) 5</p><h3 style='color:#FF0000'>Incorrect!</h3><h3 class='center-content'>The correct response is b).</h3><h3 class='center-content'>The minimum number of points you can choose to send to your partner is 1 point.</h3><p><em>Press SPACEBAR to continue</em></p></div>"," ","","","","","","","","","","",""
"","","","","63ea4301f63c1d26f0ff83e9","bdp_trlrn","Wed Mar 15 2023 15:43:42 GMT-0400 (Eastern Daylight Time)","508513","Untrustworthy,Trustworthy","html-keyboard-response","130","182064","0.0-11.0","","4464","","<div class='header' style='text-align:left; position: absolute; top: 5%; left: 5%;'><small>Task 3 of 5</small></div><div class='instruxDiv'><p><strong>2) What is the maximum number of points you can choose to send to your partner?</strong></p><p>a) 8</p><p>b) 5</p><p>c) 3</p>","A","","","","","","","","","","",""
"","","","","63ea4301f63c1d26f0ff83e9","bdp_trlrn","Wed Mar 15 2023 15:43:42 GMT-0400 (Eastern Daylight Time)","508513","Untrustworthy,Trustworthy","html-keyboard-response","131","183484","0.0-12.0","","1312","","<div class='header' style='text-align:left; position: absolute; top: 5%; left: 5%;'><small>Task 3 of 5</small></div><div class='instruxDiv'><p><strong>2) What is the maximum number of points you can choose to send to your partner?</strong></p><p style='color:#FF0000'>a) 8</p><p>b) 5</p><p>c) 3</p><h3 style='color:#FF0000'>Incorrect!</h3><h3 class='center-content'>The correct response is b).</h3><h3 class='center-content'>The maximum number of points you can choose to send to your partner is 5 points.</h3><p><em>Press SPACEBAR to continue</em></p></div>"," ","","","","","","","","","","",""
"","","","","63ea4301f63c1d26f0ff83e9","bdp_trlrn","Wed Mar 15 2023 15:43:42 GMT-0400 (Eastern Daylight Time)","508513","Untrustworthy,Trustworthy","html-keyboard-response","132","186883","0.0-13.0","","3291","","<div class='header' style='text-align:left; position: absolute; top: 5%; left: 5%;'><small>Task 3 of 5</small></div><div class='instruxDiv'><p><strong>3) What happens to the amount of points you send to your partner?</strong></p><p>a) Nothing</p><p>b) It doubles</p><p>c) It quadruples</p>","B","","","","","","","","","","",""
"","","","","63ea4301f63c1d26f0ff83e9","bdp_trlrn","Wed Mar 15 2023 15:43:42 GMT-0400 (Eastern Daylight Time)","508513","Untrustworthy,Trustworthy","html-keyboard-response","133","190619","0.0-14.0","","3625","","<div class='header' style='text-align:left; position: absolute; top: 5%; left: 5%;'><small>Task 3 of 5</small></div><div class='instruxDiv'><p><strong>3) What happens to the amount of points you send to your partner?</strong></p><p>a) Nothing</p><p style='color:#FF0000'>b) It doubles</p><p>c) It quadruples</p><h3 style='color:#FF0000'>Incorrect!</h3><h3 class='center-content'>The correct response is c).</h3><h3 class='center-content'>The amount of points you send to your partner quadruples.</h3><p><em>Press SPACEBAR to continue</em></p></div>"," ","","","","","","","","","","",""
"","","","","63ea4301f63c1d26f0ff83e9","bdp_trlrn","Wed Mar 15 2023 15:43:42 GMT-0400 (Eastern Daylight Time)","508513","Untrustworthy,Trustworthy","html-keyboard-response","134","197993","0.0-15.0","","7269","","<div class='header' style='text-align:left; position: absolute; top: 5%; left: 5%;'><small>Task 3 of 5</small></div><div class='instruxDiv'><p><strong>4) If you decided to share 4 out of 5 points with your partner, and they decided to share half of the amount they received with you, how many points would you receive back from them on this round?</strong></p><p>a) 16</p><p>b) 0</p><p>c) 8</p>","C","","","","","","","","","","",""
"","","","","63ea4301f63c1d26f0ff83e9","bdp_trlrn","Wed Mar 15 2023 15:43:42 GMT-0400 (Eastern Daylight Time)","508513","Untrustworthy,Trustworthy","html-keyboard-response","135","199878","0.0-16.0","","1773","","<div class='header' style='text-align:left; position: absolute; top: 5%; left: 5%;'><small>Task 3 of 5</small></div><div class='instruxDiv'><p><strong>4) If you decided to share 4 out of 5 points with your partner, and they decided to share half of the amount they received with you, how many points would you receive back from them on this round?</strong></p><p>a) 16</p><p>b) 0</p><p style='color:#00FF00'>c) 8</p><h3 style='color:#00FF00'>Correct!</h3><h3 class='center-content'>The correct response is c).</h3><h3 class='center-content'>If you shared 4 out of 5 points with your partner and they decided to share half of the amount they received with you, you would receive 8 points back (i.e. (4 x 4)/2 = 8).</h3><p><em>Press SPACEBAR to continue</em></p></div>"," ","","","","","","","","","","",""
"","","","","63ea4301f63c1d26f0ff83e9","bdp_trlrn","Wed Mar 15 2023 15:43:42 GMT-0400 (Eastern Daylight Time)","508513","Untrustworthy,Trustworthy","html-keyboard-response","136","204995","0.0-17.0","","null","","<div class='header' style='text-align:left; position: absolute; top: 5%; left: 5%;'><small>Task 3 of 5</small></div><div class='instruxDiv'><p>Thank you for completing the quiz<p>These are the actual partners you will be interacting with in the next block:<p><div class='tc' align='center'><img class='introPic' src='trustrating_stim/white_00757_941201_fa_edt.bmp'><br><strong>Joseph</strong></div><div class='bl' align='center'><img class='introPic' src='trustrating_stim/white_mw035.bmp'><br><strong>Jacob</strong></div><div class='br' align='center'><img class='introPic' src='trustrating_stim/white_00519_940519_fb_edt.bmp'><br><strong>Ethan</strong></div></div><p>Across <strong>66 rounds</strong> you will interact with each partner <strong>22 times</strong> (in random order).<p style='align:center; color:white'><font <em>Press SPACEBAR to continue</em></p>","null","","","","","","","","","","",""
"","","","","63ea4301f63c1d26f0ff83e9","bdp_trlrn","Wed Mar 15 2023 15:43:42 GMT-0400 (Eastern Daylight Time)","508513","Untrustworthy,Trustworthy","instructions","137","207165","0.0-18.0","[{""page_index"":0,""viewing_time"":1214},{""page_index"":1,""viewing_time"":954}]","2169","","","","","","","","","","","","","",""
"","","","decision","63ea4301f63c1d26f0ff83e9","bdp_trlrn","Wed Mar 15 2023 15:43:42 GMT-0400 (Eastern Daylight Time)","508513","Untrustworthy,Trustworthy","html-keyboard-response","138","209037","0.0-19.0-1.0","","1761","","<div class='trialDiv'><img src='trustrating_stim/white_00757_941201_fa_edt.bmp'><br><font class='baseline'><strong>Joseph</strong><p>Choose number of points to send.</font><div class='respPicDiv'><img src='img/responseButtonOffersNo0L.png' class='respPic'></div></div>","2","1","Joseph","0","Kept","0.35,0.8","9","0.35","trustrating_stim/white_00757_941201_fa_edt.bmp","1","5","1"
"","","","decisionFB","63ea4301f63c1d26f0ff83e9","bdp_trlrn","Wed Mar 15 2023 15:43:42 GMT-0400 (Eastern Daylight Time)","508513","Untrustworthy,Trustworthy","html-keyboard-response","139","209294","0.0-19.0-2.0","","null","","<div class='trialDiv'><img src='trustrating_stim/white_00757_941201_fa_edt.bmp'><br><font class='baseline'><strong>Joseph</strong><p>Choose number of points to send.</font><div class='respPicDiv'><img src='img/responseButtonOffersNo0L2.png' class='respPic'></div></div>","null","1","Joseph","0","Kept","0.35,0.8","9","0.35","trustrating_stim/white_00757_941201_fa_edt.bmp","1","3","1"
"","","","feedback","63ea4301f63c1d26f0ff83e9","bdp_trlrn","Wed Mar 15 2023 15:43:42 GMT-0400 (Eastern Daylight Time)","508513","Untrustworthy,Trustworthy","html-keyboard-response","140","210305","0.0-19.0-3.0","","null","","<div class='trialDiv'><img src='trustrating_stim/white_00757_941201_fa_edt.bmp'><br><font class='baseline'><strong>Joseph</strong><p>Received: <strong>8</strong></font> &nbsp; &nbsp; &nbsp; &nbsp; &nbsp; &nbsp;<font class='negOutcome'>Shared back: <strong>0</strong></font></font><div class='respPicDiv'><img src='img/responseButtonOffersNo0_wht.png' class='respPic'></div></div>","null","1","Joseph","0","Kept","0.35,0.8","9","0.35","trustrating_stim/white_00757_941201_fa_edt.bmp","1","3","1"
"","","","decision","63ea4301f63c1d26f0ff83e9","bdp_trlrn","Wed Mar 15 2023 15:43:42 GMT-0400 (Eastern Daylight Time)","508513","Untrustworthy,Trustworthy","html-keyboard-response","141","211466","0.0-19.0-1.1","","1159","","<div class='trialDiv'><img src='trustrating_stim/white_00519_940519_fb_edt.bmp'><br><font class='baseline'><strong>Ethan</strong><p>Choose number of points to send.</font><div class='respPicDiv'><img src='img/responseButtonOffersNo0L.png' class='respPic'></div></div>","1","1","Ethan","9","Kept","0.2,0.8","14","0.2","trustrating_stim/white_00519_940519_fb_edt.bmp","6.5","8","2"
"","","","decisionFB","63ea4301f63c1d26f0ff83e9","bdp_trlrn","Wed Mar 15 2023 15:43:42 GMT-0400 (Eastern Daylight Time)","508513","Untrustworthy,Trustworthy","html-keyboard-response","142","211725","0.0-19.0-2.1","","null","","<div class='trialDiv'><img src='trustrating_stim/white_00519_940519_fb_edt.bmp'><br><font class='baseline'><strong>Ethan</strong><p>Choose number of points to send.</font><div class='respPicDiv'><img src='img/responseButtonOffersNo0L1.png' class='respPic'></div></div>","null","1","Ethan","9","Kept","0.2,0.8","14","0.2","trustrating_stim/white_00519_940519_fb_edt.bmp","6.5","7","2"
"","","","feedback","63ea4301f63c1d26f0ff83e9","bdp_trlrn","Wed Mar 15 2023 15:43:42 GMT-0400 (Eastern Daylight Time)","508513","Untrustworthy,Trustworthy","html-keyboard-response","143","212735","0.0-19.0-3.1","","null","","<div class='trialDiv'><img src='trustrating_stim/white_00519_940519_fb_edt.bmp'><br><font class='baseline'><strong>Ethan</strong><p>Received: <strong>4</strong></font> &nbsp; &nbsp; &nbsp; &nbsp; &nbsp; &nbsp;<font class='negOutcome'>Shared back: <strong>0</strong></font></font><div class='respPicDiv'><img src='img/responseButtonOffersNo0_wht.png' class='respPic'></div></div>","null","1","Ethan","9","Kept","0.2,0.8","14","0.2","trustrating_stim/white_00519_940519_fb_edt.bmp","6.5","7","2"
"","","","decision","63ea4301f63c1d26f0ff83e9","bdp_trlrn","Wed Mar 15 2023 15:43:42 GMT-0400 (Eastern Daylight Time)","508513","Untrustworthy,Trustworthy","html-keyboard-response","144","215033","0.0-19.0-1.2","","2296","","<div class='trialDiv'><img src='trustrating_stim/white_mw035.bmp'><br><font class='baseline'><strong>Jacob</strong><p>Choose number of points to send.</font><div class='respPicDiv'><img src='img/responseButtonOffersNo0L.png' class='respPic'></div></div>","4","1","Jacob","6","Shared","0.8,0.35","12","0.8","trustrating_stim/white_mw035.bmp","4","12","3"
"","","","decisionFB","63ea4301f63c1d26f0ff83e9","bdp_trlrn","Wed Mar 15 2023 15:43:42 GMT-0400 (Eastern Daylight Time)","508513","Untrustworthy,Trustworthy","html-keyboard-response","145","215285","0.0-19.0-2.2","","null","","<div class='trialDiv'><img src='trustrating_stim/white_mw035.bmp'><br><font class='baseline'><strong>Jacob</strong><p>Choose number of points to send.</font><div class='respPicDiv'><img src='img/responseButtonOffersNo0L4.png' class='respPic'></div></div>","null","1","Jacob","6","Shared","0.8,0.35","12","0.8","trustrating_stim/white_mw035.bmp","4","8","3"
"","","","feedback","63ea4301f63c1d26f0ff83e9","bdp_trlrn","Wed Mar 15 2023 15:43:42 GMT-0400 (Eastern Daylight Time)","508513","Untrustworthy,Trustworthy","html-keyboard-response","146","216295","0.0-19.0-3.2","","null","","<div class='trialDiv'><img src='trustrating_stim/white_mw035.bmp'><br><font class='baseline'><strong>Jacob</strong><p>Received: <strong>16</strong></font> &nbsp; &nbsp; &nbsp; &nbsp; &nbsp; &nbsp;<font class='posOutcome'>Shared back: <strong>8</strong></font></font><div class='respPicDiv'><img src='img/responseButtonOffersNo0_wht.png' class='respPic'></div></div>","null","1","Jacob","6","Shared","0.8,0.35","12","0.8","trustrating_stim/white_mw035.bmp","4","16","3"
"","","","decision","63ea4301f63c1d26f0ff83e9","bdp_trlrn","Wed Mar 15 2023 15:43:42 GMT-0400 (Eastern Daylight Time)","508513","Untrustworthy,Trustworthy","html-keyboard-response","147","217270","0.0-19.0-1.3","","972","","<div class='trialDiv'><img src='trustrating_stim/white_00757_941201_fa_edt.bmp'><br><font class='baseline'><strong>Joseph</strong><p>Choose number of points to send.</font><div class='respPicDiv'><img src='img/responseButtonOffersNo0L.png' class='respPic'></div></div>","1","2","Joseph","0","Kept","0.35,0.8","9","0.35","trustrating_stim/white_00757_941201_fa_edt.bmp","1","21","4"
"","","","decisionFB","63ea4301f63c1d26f0ff83e9","bdp_trlrn","Wed Mar 15 2023 15:43:42 GMT-0400 (Eastern Daylight Time)","508513","Untrustworthy,Trustworthy","html-keyboard-response","148","217525","0.0-19.0-2.3","","null","","<div class='trialDiv'><img src='trustrating_stim/white_00757_941201_fa_edt.bmp'><br><font class='baseline'><strong>Joseph</strong><p>Choose number of points to send.</font><div class='respPicDiv'><img src='img/responseButtonOffersNo0L1.png' class='respPic'></div></div>","null","2","Joseph","0","Kept","0.35,0.8","9","0.35","trustrating_stim/white_00757_941201_fa_edt.bmp","1","20","4"
"","","","feedback","63ea4301f63c1d26f0ff83e9","bdp_trlrn","Wed Mar 15 2023 15:43:42 GMT-0400 (Eastern Daylight Time)","508513","Untrustworthy,Trustworthy","html-keyboard-response","149","218536","0.0-19.0-3.3","","null","","<div class='trialDiv'><img src='trustrating_stim/white_00757_941201_fa_edt.bmp'><br><font class='baseline'><strong>Joseph</strong><p>Received: <strong>4</strong></font> &nbsp; &nbsp; &nbsp; &nbsp; &nbsp; &nbsp;<font class='negOutcome'>Shared back: <strong>0</strong></font></font><div class='respPicDiv'><img src='img/responseButtonOffersNo0_wht.png' class='respPic'></div></div>","null","2","Joseph","0","Kept","0.35,0.8","9","0.35","trustrating_stim/white_00757_941201_fa_edt.bmp","1","20","4"
"","","","decision","63ea4301f63c1d26f0ff83e9","bdp_trlrn","Wed Mar 15 2023 15:43:42 GMT-0400 (Eastern Daylight Time)","508513","Untrustworthy,Trustworthy","html-keyboard-response","150","219053","0.0-19.0-1.4","","515","","<div class='trialDiv'><img src='trustrating_stim/white_00519_940519_fb_edt.bmp'><br><font class='baseline'><strong>Ethan</strong><p>Choose number of points to send.</font><div class='respPicDiv'><img src='img/responseButtonOffersNo0L.png' class='respPic'></div></div>","3","2","Ethan","9","Shared","0.2,0.8","14","0.2","trustrating_stim/white_00519_940519_fb_edt.bmp","6.5","25","5"
"","","","decisionFB","63ea4301f63c1d26f0ff83e9","bdp_trlrn","Wed Mar 15 2023 15:43:42 GMT-0400 (Eastern Daylight Time)","508513","Untrustworthy,Trustworthy","html-keyboard-response","151","219306","0.0-19.0-2.4","","null","","<div class='trialDiv'><img src='trustrating_stim/white_00519_940519_fb_edt.bmp'><br><font class='baseline'><strong>Ethan</strong><p>Choose number of points to send.</font><div class='respPicDiv'><img src='img/responseButtonOffersNo0L3.png' class='respPic'></div></div>","null","2","Ethan","9","Shared","0.2,0.8","14","0.2","trustrating_stim/white_00519_940519_fb_edt.bmp","6.5","22","5"
"","","","feedback","63ea4301f63c1d26f0ff83e9","bdp_trlrn","Wed Mar 15 2023 15:43:42 GMT-0400 (Eastern Daylight Time)","508513","Untrustworthy,Trustworthy","html-keyboard-response","152","220316","0.0-19.0-3.4","","null","","<div class='trialDiv'><img src='trustrating_stim/white_00519_940519_fb_edt.bmp'><br><font class='baseline'><strong>Ethan</strong><p>Received: <strong>12</strong></font> &nbsp; &nbsp; &nbsp; &nbsp; &nbsp; &nbsp;<font class='posOutcome'>Shared back: <strong>6</strong></font></font><div class='respPicDiv'><img src='img/responseButtonOffersNo0_wht.png' class='respPic'></div></div>","null","2","Ethan","9","Shared","0.2,0.8","14","0.2","trustrating_stim/white_00519_940519_fb_edt.bmp","6.5","28","5"
"","","","decision","63ea4301f63c1d26f0ff83e9","bdp_trlrn","Wed Mar 15 2023 15:43:42 GMT-0400 (Eastern Daylight Time)","508513","Untrustworthy,Trustworthy","html-keyboard-response","153","221008","0.0-19.0-1.5","","691","","<div class='trialDiv'><img src='trustrating_stim/white_mw035.bmp'><br><font class='baseline'><strong>Jacob</strong><p>Choose number of points to send.</font><div class='respPicDiv'><img src='img/responseButtonOffersNo0L.png' class='respPic'></div></div>","2","2","Jacob","6","Shared","0.8,0.35","12","0.8","trustrating_stim/white_mw035.bmp","4","33","6"
"","","","decisionFB","63ea4301f63c1d26f0ff83e9","bdp_trlrn","Wed Mar 15 2023 15:43:42 GMT-0400 (Eastern Daylight Time)","508513","Untrustworthy,Trustworthy","html-keyboard-response","154","221266","0.0-19.0-2.5","","null","","<div class='trialDiv'><img src='trustrating_stim/white_mw035.bmp'><br><font class='baseline'><strong>Jacob</strong><p>Choose number of points to send.</font><div class='respPicDiv'><img src='img/responseButtonOffersNo0L2.png' class='respPic'></div></div>","null","2","Jacob","6","Shared","0.8,0.35","12","0.8","trustrating_stim/white_mw035.bmp","4","31","6"
"","","","feedback","63ea4301f63c1d26f0ff83e9","bdp_trlrn","Wed Mar 15 2023 15:43:42 GMT-0400 (Eastern Daylight Time)","508513","Untrustworthy,Trustworthy","html-keyboard-response","155","222276","0.0-19.0-3.5","","null","","<div class='trialDiv'><img src='trustrating_stim/white_mw035.bmp'><br><font class='baseline'><strong>Jacob</strong><p>Received: <strong>8</strong></font> &nbsp; &nbsp; &nbsp; &nbsp; &nbsp; &nbsp;<font class='posOutcome'>Shared back: <strong>4</strong></font></font><div class='respPicDiv'><img src='img/responseButtonOffersNo0_wht.png' class='respPic'></div></div>","null","2","Jacob","6","Shared","0.8,0.35","12","0.8","trustrating_stim/white_mw035.bmp","4","35","6"
"","","","decision","63ea4301f63c1d26f0ff83e9","bdp_trlrn","Wed Mar 15 2023 15:43:42 GMT-0400 (Eastern Daylight Time)","508513","Untrustworthy,Trustworthy","html-keyboard-response","156","224521","0.0-19.0-1.6","","2243","","<div class='trialDiv'><img src='trustrating_stim/white_00519_940519_fb_edt.bmp'><br><font class='baseline'><strong>Ethan</strong><p>Choose number of points to send.</font><div class='respPicDiv'><img src='img/responseButtonOffersNo0L.png' class='respPic'></div></div>","4","3","Ethan","9","Kept","0.2,0.8","14","0.2","trustrating_stim/white_00519_940519_fb_edt.bmp","6.5","40","7"
"","","","decisionFB","63ea4301f63c1d26f0ff83e9","bdp_trlrn","Wed Mar 15 2023 15:43:42 GMT-0400 (Eastern Daylight Time)","508513","Untrustworthy,Trustworthy","html-keyboard-response","157","224776","0.0-19.0-2.6","","null","","<div class='trialDiv'><img src='trustrating_stim/white_00519_940519_fb_edt.bmp'><br><font class='baseline'><strong>Ethan</strong><p>Choose number of points to send.</font><div class='respPicDiv'><img src='img/responseButtonOffersNo0L4.png' class='respPic'></div></div>","null","3","Ethan","9","Kept","0.2,0.8","14","0.2","trustrating_stim/white_00519_940519_fb_edt.bmp","6.5","36","7"
"","","","feedback","63ea4301f63c1d26f0ff83e9","bdp_trlrn","Wed Mar 15 2023 15:43:42 GMT-0400 (Eastern Daylight Time)","508513","Untrustworthy,Trustworthy","html-keyboard-response","158","225787","0.0-19.0-3.6","","null","","<div class='trialDiv'><img src='trustrating_stim/white_00519_940519_fb_edt.bmp'><br><font class='baseline'><strong>Ethan</strong><p>Received: <strong>16</strong></font> &nbsp; &nbsp; &nbsp; &nbsp; &nbsp; &nbsp;<font class='negOutcome'>Shared back: <strong>0</strong></font></font><div class='respPicDiv'><img src='img/responseButtonOffersNo0_wht.png' class='respPic'></div></div>","null","3","Ethan","9","Kept","0.2,0.8","14","0.2","trustrating_stim/white_00519_940519_fb_edt.bmp","6.5","36","7"
"","","","decision","63ea4301f63c1d26f0ff83e9","bdp_trlrn","Wed Mar 15 2023 15:43:42 GMT-0400 (Eastern Daylight Time)","508513","Untrustworthy,Trustworthy","html-keyboard-response","159","226750","0.0-19.0-1.7","","960","","<div class='trialDiv'><img src='trustrating_stim/white_00757_941201_fa_edt.bmp'><br><font class='baseline'><strong>Joseph</strong><p>Choose number of points to send.</font><div class='respPicDiv'><img src='img/responseButtonOffersNo0L.png' class='respPic'></div></div>","4","3","Joseph","0","Kept","0.35,0.8","9","0.35","trustrating_stim/white_00757_941201_fa_edt.bmp","1","41","8"
"","","","decisionFB","63ea4301f63c1d26f0ff83e9","bdp_trlrn","Wed Mar 15 2023 15:43:42 GMT-0400 (Eastern Daylight Time)","508513","Untrustworthy,Trustworthy","html-keyboard-response","160","227007","0.0-19.0-2.7","","null","","<div class='trialDiv'><img src='trustrating_stim/white_00757_941201_fa_edt.bmp'><br><font class='baseline'><strong>Joseph</strong><p>Choose number of points to send.</font><div class='respPicDiv'><img src='img/responseButtonOffersNo0L4.png' class='respPic'></div></div>","null","3","Joseph","0","Kept","0.35,0.8","9","0.35","trustrating_stim/white_00757_941201_fa_edt.bmp","1","37","8"
"","","","feedback","63ea4301f63c1d26f0ff83e9","bdp_trlrn","Wed Mar 15 2023 15:43:42 GMT-0400 (Eastern Daylight Time)","508513","Untrustworthy,Trustworthy","html-keyboard-response","161","228017","0.0-19.0-3.7","","null","","<div class='trialDiv'><img src='trustrating_stim/white_00757_941201_fa_edt.bmp'><br><font class='baseline'><strong>Joseph</strong><p>Received: <strong>16</strong></font> &nbsp; &nbsp; &nbsp; &nbsp; &nbsp; &nbsp;<font class='negOutcome'>Shared back: <strong>0</strong></font></font><div class='respPicDiv'><img src='img/responseButtonOffersNo0_wht.png' class='respPic'></div></div>","null","3","Joseph","0","Kept","0.35,0.8","9","0.35","trustrating_stim/white_00757_941201_fa_edt.bmp","1","37","8"
"","","","decision","63ea4301f63c1d26f0ff83e9","bdp_trlrn","Wed Mar 15 2023 15:43:42 GMT-0400 (Eastern Daylight Time)","508513","Untrustworthy,Trustworthy","html-keyboard-response","162","228690","0.0-19.0-1.8","","671","","<div class='trialDiv'><img src='trustrating_stim/white_mw035.bmp'><br><font class='baseline'><strong>Jacob</strong><p>Choose number of points to send.</font><div class='respPicDiv'><img src='img/responseButtonOffersNo0L.png' class='respPic'></div></div>","3","3","Jacob","6","Kept","0.8,0.35","12","0.8","trustrating_stim/white_mw035.bmp","4","42","9"
"","","","decisionFB","63ea4301f63c1d26f0ff83e9","bdp_trlrn","Wed Mar 15 2023 15:43:42 GMT-0400 (Eastern Daylight Time)","508513","Untrustworthy,Trustworthy","html-keyboard-response","163","228947","0.0-19.0-2.8","","null","","<div class='trialDiv'><img src='trustrating_stim/white_mw035.bmp'><br><font class='baseline'><strong>Jacob</strong><p>Choose number of points to send.</font><div class='respPicDiv'><img src='img/responseButtonOffersNo0L3.png' class='respPic'></div></div>","null","3","Jacob","6","Kept","0.8,0.35","12","0.8","trustrating_stim/white_mw035.bmp","4","39","9"
"","","","feedback","63ea4301f63c1d26f0ff83e9","bdp_trlrn","Wed Mar 15 2023 15:43:42 GMT-0400 (Eastern Daylight Time)","508513","Untrustworthy,Trustworthy","html-keyboard-response","164","229957","0.0-19.0-3.8","","null","","<div class='trialDiv'><img src='trustrating_stim/white_mw035.bmp'><br><font class='baseline'><strong>Jacob</strong><p>Received: <strong>12</strong></font> &nbsp; &nbsp; &nbsp; &nbsp; &nbsp; &nbsp;<font class='negOutcome'>Shared back: <strong>0</strong></font></font><div class='respPicDiv'><img src='img/responseButtonOffersNo0_wht.png' class='respPic'></div></div>","null","3","Jacob","6","Kept","0.8,0.35","12","0.8","trustrating_stim/white_mw035.bmp","4","39","9"
"","","","decision","63ea4301f63c1d26f0ff83e9","bdp_trlrn","Wed Mar 15 2023 15:43:42 GMT-0400 (Eastern Daylight Time)","508513","Untrustworthy,Trustworthy","html-keyboard-response","165","230408","0.0-19.0-1.9","","450","","<div class='trialDiv'><img src='trustrating_stim/white_00757_941201_fa_edt.bmp'><br><font class='baseline'><strong>Joseph</strong><p>Choose number of points to send.</font><div class='respPicDiv'><img src='img/responseButtonOffersNo0L.png' class='respPic'></div></div>","2","4","Joseph","0","Kept","0.35,0.8","9","0.35","trustrating_stim/white_00757_941201_fa_edt.bmp","1","44","10"
"","","","decisionFB","63ea4301f63c1d26f0ff83e9","bdp_trlrn","Wed Mar 15 2023 15:43:42 GMT-0400 (Eastern Daylight Time)","508513","Untrustworthy,Trustworthy","html-keyboard-response","166","230666","0.0-19.0-2.9","","null","","<div class='trialDiv'><img src='trustrating_stim/white_00757_941201_fa_edt.bmp'><br><font class='baseline'><strong>Joseph</strong><p>Choose number of points to send.</font><div class='respPicDiv'><img src='img/responseButtonOffersNo0L2.png' class='respPic'></div></div>","null","4","Joseph","0","Kept","0.35,0.8","9","0.35","trustrating_stim/white_00757_941201_fa_edt.bmp","1","42","10"
"","","","feedback","63ea4301f63c1d26f0ff83e9","bdp_trlrn","Wed Mar 15 2023 15:43:42 GMT-0400 (Eastern Daylight Time)","508513","Untrustworthy,Trustworthy","html-keyboard-response","167","231677","0.0-19.0-3.9","","null","","<div class='trialDiv'><img src='trustrating_stim/white_00757_941201_fa_edt.bmp'><br><font class='baseline'><strong>Joseph</strong><p>Received: <strong>8</strong></font> &nbsp; &nbsp; &nbsp; &nbsp; &nbsp; &nbsp;<font class='negOutcome'>Shared back: <strong>0</strong></font></font><div class='respPicDiv'><img src='img/responseButtonOffersNo0_wht.png' class='respPic'></div></div>","null","4","Joseph","0","Kept","0.35,0.8","9","0.35","trustrating_stim/white_00757_941201_fa_edt.bmp","1","42","10"
"","","","decision","63ea4301f63c1d26f0ff83e9","bdp_trlrn","Wed Mar 15 2023 15:43:42 GMT-0400 (Eastern Daylight Time)","508513","Untrustworthy,Trustworthy","html-keyboard-response","168","232318","0.0-19.0-1.10","","638","","<div class='trialDiv'><img src='trustrating_stim/white_00519_940519_fb_edt.bmp'><br><font class='baseline'><strong>Ethan</strong><p>Choose number of points to send.</font><div class='respPicDiv'><img src='img/responseButtonOffersNo0L.png' class='respPic'></div></div>","1","4","Ethan","9","Shared","0.2,0.8","14","0.2","trustrating_stim/white_00519_940519_fb_edt.bmp","6.5","47","11"
"","","","decisionFB","63ea4301f63c1d26f0ff83e9","bdp_trlrn","Wed Mar 15 2023 15:43:42 GMT-0400 (Eastern Daylight Time)","508513","Untrustworthy,Trustworthy","html-keyboard-response","169","232577","0.0-19.0-2.10","","null","","<div class='trialDiv'><img src='trustrating_stim/white_00519_940519_fb_edt.bmp'><br><font class='baseline'><strong>Ethan</strong><p>Choose number of points to send.</font><div class='respPicDiv'><img src='img/responseButtonOffersNo0L1.png' class='respPic'></div></div>","null","4","Ethan","9","Shared","0.2,0.8","14","0.2","trustrating_stim/white_00519_940519_fb_edt.bmp","6.5","46","11"
"","","","feedback","63ea4301f63c1d26f0ff83e9","bdp_trlrn","Wed Mar 15 2023 15:43:42 GMT-0400 (Eastern Daylight Time)","508513","Untrustworthy,Trustworthy","html-keyboard-response","170","233588","0.0-19.0-3.10","","null","","<div class='trialDiv'><img src='trustrating_stim/white_00519_940519_fb_edt.bmp'><br><font class='baseline'><strong>Ethan</strong><p>Received: <strong>4</strong></font> &nbsp; &nbsp; &nbsp; &nbsp; &nbsp; &nbsp;<font class='posOutcome'>Shared back: <strong>2</strong></font></font><div class='respPicDiv'><img src='img/responseButtonOffersNo0_wht.png' class='respPic'></div></div>","null","4","Ethan","9","Shared","0.2,0.8","14","0.2","trustrating_stim/white_00519_940519_fb_edt.bmp","6.5","48","11"
"","","","decision","63ea4301f63c1d26f0ff83e9","bdp_trlrn","Wed Mar 15 2023 15:43:42 GMT-0400 (Eastern Daylight Time)","508513","Untrustworthy,Trustworthy","html-keyboard-response","171","234054","0.0-19.0-1.11","","465","","<div class='trialDiv'><img src='trustrating_stim/white_mw035.bmp'><br><font class='baseline'><strong>Jacob</strong><p>Choose number of points to send.</font><div class='respPicDiv'><img src='img/responseButtonOffersNo0L.png' class='respPic'></div></div>","1","4","Jacob","6","Shared","0.8,0.35","12","0.8","trustrating_stim/white_mw035.bmp","4","53","12"
"","","","decisionFB","63ea4301f63c1d26f0ff83e9","bdp_trlrn","Wed Mar 15 2023 15:43:42 GMT-0400 (Eastern Daylight Time)","508513","Untrustworthy,Trustworthy","html-keyboard-response","172","234308","0.0-19.0-2.11","","null","","<div class='trialDiv'><img src='trustrating_stim/white_mw035.bmp'><br><font class='baseline'><strong>Jacob</strong><p>Choose number of points to send.</font><div class='respPicDiv'><img src='img/responseButtonOffersNo0L1.png' class='respPic'></div></div>","null","4","Jacob","6","Shared","0.8,0.35","12","0.8","trustrating_stim/white_mw035.bmp","4","52","12"
"","","","feedback","63ea4301f63c1d26f0ff83e9","bdp_trlrn","Wed Mar 15 2023 15:43:42 GMT-0400 (Eastern Daylight Time)","508513","Untrustworthy,Trustworthy","html-keyboard-response","173","235318","0.0-19.0-3.11","","null","","<div class='trialDiv'><img src='trustrating_stim/white_mw035.bmp'><br><font class='baseline'><strong>Jacob</strong><p>Received: <strong>4</strong></font> &nbsp; &nbsp; &nbsp; &nbsp; &nbsp; &nbsp;<font class='posOutcome'>Shared back: <strong>2</strong></font></font><div class='respPicDiv'><img src='img/responseButtonOffersNo0_wht.png' class='respPic'></div></div>","null","4","Jacob","6","Shared","0.8,0.35","12","0.8","trustrating_stim/white_mw035.bmp","4","54","12"
"","","","decision","63ea4301f63c1d26f0ff83e9","bdp_trlrn","Wed Mar 15 2023 15:43:42 GMT-0400 (Eastern Daylight Time)","508513","Untrustworthy,Trustworthy","html-keyboard-response","174","235644","0.0-19.0-1.12","","324","","<div class='trialDiv'><img src='trustrating_stim/white_00757_941201_fa_edt.bmp'><br><font class='baseline'><strong>Joseph</strong><p>Choose number of points to send.</font><div class='respPicDiv'><img src='img/responseButtonOffersNo0L.png' class='respPic'></div></div>","1","5","Joseph","0","Kept","0.35,0.8","9","0.35","trustrating_stim/white_00757_941201_fa_edt.bmp","1","59","13"
"","","","decisionFB","63ea4301f63c1d26f0ff83e9","bdp_trlrn","Wed Mar 15 2023 15:43:42 GMT-0400 (Eastern Daylight Time)","508513","Untrustworthy,Trustworthy","html-keyboard-response","175","235898","0.0-19.0-2.12","","null","","<div class='trialDiv'><img src='trustrating_stim/white_00757_941201_fa_edt.bmp'><br><font class='baseline'><strong>Joseph</strong><p>Choose number of points to send.</font><div class='respPicDiv'><img src='img/responseButtonOffersNo0L1.png' class='respPic'></div></div>","null","5","Joseph","0","Kept","0.35,0.8","9","0.35","trustrating_stim/white_00757_941201_fa_edt.bmp","1","58","13"
"","","","feedback","63ea4301f63c1d26f0ff83e9","bdp_trlrn","Wed Mar 15 2023 15:43:42 GMT-0400 (Eastern Daylight Time)","508513","Untrustworthy,Trustworthy","html-keyboard-response","176","236908","0.0-19.0-3.12","","null","","<div class='trialDiv'><img src='trustrating_stim/white_00757_941201_fa_edt.bmp'><br><font class='baseline'><strong>Joseph</strong><p>Received: <strong>4</strong></font> &nbsp; &nbsp; &nbsp; &nbsp; &nbsp; &nbsp;<font class='negOutcome'>Shared back: <strong>0</strong></font></font><div class='respPicDiv'><img src='img/responseButtonOffersNo0_wht.png' class='respPic'></div></div>","null","5","Joseph","0","Kept","0.35,0.8","9","0.35","trustrating_stim/white_00757_941201_fa_edt.bmp","1","58","13"
"","","","decision","63ea4301f63c1d26f0ff83e9","bdp_trlrn","Wed Mar 15 2023 15:43:42 GMT-0400 (Eastern Daylight Time)","508513","Untrustworthy,Trustworthy","html-keyboard-response","177","237277","0.0-19.0-1.13","","367","","<div class='trialDiv'><img src='trustrating_stim/white_mw035.bmp'><br><font class='baseline'><strong>Jacob</strong><p>Choose number of points to send.</font><div class='respPicDiv'><img src='img/responseButtonOffersNo0L.png' class='respPic'></div></div>","1","5","Jacob","6","Shared","0.8,0.35","12","0.8","trustrating_stim/white_mw035.bmp","4","63","14"
"","","","decisionFB","63ea4301f63c1d26f0ff83e9","bdp_trlrn","Wed Mar 15 2023 15:43:42 GMT-0400 (Eastern Daylight Time)","508513","Untrustworthy,Trustworthy","html-keyboard-response","178","237538","0.0-19.0-2.13","","null","","<div class='trialDiv'><img src='trustrating_stim/white_mw035.bmp'><br><font class='baseline'><strong>Jacob</strong><p>Choose number of points to send.</font><div class='respPicDiv'><img src='img/responseButtonOffersNo0L1.png' class='respPic'></div></div>","null","5","Jacob","6","Shared","0.8,0.35","12","0.8","trustrating_stim/white_mw035.bmp","4","62","14"
"","","","feedback","63ea4301f63c1d26f0ff83e9","bdp_trlrn","Wed Mar 15 2023 15:43:42 GMT-0400 (Eastern Daylight Time)","508513","Untrustworthy,Trustworthy","html-keyboard-response","179","238549","0.0-19.0-3.13","","null","","<div class='trialDiv'><img src='trustrating_stim/white_mw035.bmp'><br><font class='baseline'><strong>Jacob</strong><p>Received: <strong>4</strong></font> &nbsp; &nbsp; &nbsp; &nbsp; &nbsp; &nbsp;<font class='posOutcome'>Shared back: <strong>2</strong></font></font><div class='respPicDiv'><img src='img/responseButtonOffersNo0_wht.png' class='respPic'></div></div>","null","5","Jacob","6","Shared","0.8,0.35","12","0.8","trustrating_stim/white_mw035.bmp","4","64","14"
"","","","decision","63ea4301f63c1d26f0ff83e9","bdp_trlrn","Wed Mar 15 2023 15:43:42 GMT-0400 (Eastern Daylight Time)","508513","Untrustworthy,Trustworthy","html-keyboard-response","180","238928","0.0-19.0-1.14","","376","","<div class='trialDiv'><img src='trustrating_stim/white_00519_940519_fb_edt.bmp'><br><font class='baseline'><strong>Ethan</strong><p>Choose number of points to send.</font><div class='respPicDiv'><img src='img/responseButtonOffersNo0L.png' class='respPic'></div></div>","5","5","Ethan","9","Kept","0.2,0.8","14","0.2","trustrating_stim/white_00519_940519_fb_edt.bmp","6.5","69","15"
"","","","decisionFB","63ea4301f63c1d26f0ff83e9","bdp_trlrn","Wed Mar 15 2023 15:43:42 GMT-0400 (Eastern Daylight Time)","508513","Untrustworthy,Trustworthy","html-keyboard-response","181","239189","0.0-19.0-2.14","","null","","<div class='trialDiv'><img src='trustrating_stim/white_00519_940519_fb_edt.bmp'><br><font class='baseline'><strong>Ethan</strong><p>Choose number of points to send.</font><div class='respPicDiv'><img src='img/responseButtonOffersNo0L5.png' class='respPic'></div></div>","null","5","Ethan","9","Kept","0.2,0.8","14","0.2","trustrating_stim/white_00519_940519_fb_edt.bmp","6.5","64","15"
"","","","feedback","63ea4301f63c1d26f0ff83e9","bdp_trlrn","Wed Mar 15 2023 15:43:42 GMT-0400 (Eastern Daylight Time)","508513","Untrustworthy,Trustworthy","html-keyboard-response","182","240199","0.0-19.0-3.14","","null","","<div class='trialDiv'><img src='trustrating_stim/white_00519_940519_fb_edt.bmp'><br><font class='baseline'><strong>Ethan</strong><p>Received: <strong>20</strong></font> &nbsp; &nbsp; &nbsp; &nbsp; &nbsp; &nbsp;<font class='negOutcome'>Shared back: <strong>0</strong></font></font><div class='respPicDiv'><img src='img/responseButtonOffersNo0_wht.png' class='respPic'></div></div>","null","5","Ethan","9","Kept","0.2,0.8","14","0.2","trustrating_stim/white_00519_940519_fb_edt.bmp","6.5","64","15"
"","","","decision","63ea4301f63c1d26f0ff83e9","bdp_trlrn","Wed Mar 15 2023 15:43:42 GMT-0400 (Eastern Daylight Time)","508513","Untrustworthy,Trustworthy","html-keyboard-response","183","240672","0.0-19.0-1.15","","471","","<div class='trialDiv'><img src='trustrating_stim/white_00757_941201_fa_edt.bmp'><br><font class='baseline'><strong>Joseph</strong><p>Choose number of points to send.</font><div class='respPicDiv'><img src='img/responseButtonOffersNo0L.png' class='respPic'></div></div>","1","6","Joseph","0","Kept","0.35,0.8","9","0.35","trustrating_stim/white_00757_941201_fa_edt.bmp","1","69","16"
"","","","decisionFB","63ea4301f63c1d26f0ff83e9","bdp_trlrn","Wed Mar 15 2023 15:43:42 GMT-0400 (Eastern Daylight Time)","508513","Untrustworthy,Trustworthy","html-keyboard-response","184","240929","0.0-19.0-2.15","","null","","<div class='trialDiv'><img src='trustrating_stim/white_00757_941201_fa_edt.bmp'><br><font class='baseline'><strong>Joseph</strong><p>Choose number of points to send.</font><div class='respPicDiv'><img src='img/responseButtonOffersNo0L1.png' class='respPic'></div></div>","null","6","Joseph","0","Kept","0.35,0.8","9","0.35","trustrating_stim/white_00757_941201_fa_edt.bmp","1","68","16"
"","","","feedback","63ea4301f63c1d26f0ff83e9","bdp_trlrn","Wed Mar 15 2023 15:43:42 GMT-0400 (Eastern Daylight Time)","508513","Untrustworthy,Trustworthy","html-keyboard-response","185","241939","0.0-19.0-3.15","","null","","<div class='trialDiv'><img src='trustrating_stim/white_00757_941201_fa_edt.bmp'><br><font class='baseline'><strong>Joseph</strong><p>Received: <strong>4</strong></font> &nbsp; &nbsp; &nbsp; &nbsp; &nbsp; &nbsp;<font class='negOutcome'>Shared back: <strong>0</strong></font></font><div class='respPicDiv'><img src='img/responseButtonOffersNo0_wht.png' class='respPic'></div></div>","null","6","Joseph","0","Kept","0.35,0.8","9","0.35","trustrating_stim/white_00757_941201_fa_edt.bmp","1","68","16"
"","","","decision","63ea4301f63c1d26f0ff83e9","bdp_trlrn","Wed Mar 15 2023 15:43:42 GMT-0400 (Eastern Daylight Time)","508513","Untrustworthy,Trustworthy","html-keyboard-response","186","242912","0.0-19.0-1.16","","971","","<div class='trialDiv'><img src='trustrating_stim/white_mw035.bmp'><br><font class='baseline'><strong>Jacob</strong><p>Choose number of points to send.</font><div class='respPicDiv'><img src='img/responseButtonOffersNo0L.png' class='respPic'></div></div>","2","6","Jacob","6","Shared","0.8,0.35","12","0.8","trustrating_stim/white_mw035.bmp","4","73","17"
"","","","decisionFB","63ea4301f63c1d26f0ff83e9","bdp_trlrn","Wed Mar 15 2023 15:43:42 GMT-0400 (Eastern Daylight Time)","508513","Untrustworthy,Trustworthy","html-keyboard-response","187","243169","0.0-19.0-2.16","","null","","<div class='trialDiv'><img src='trustrating_stim/white_mw035.bmp'><br><font class='baseline'><strong>Jacob</strong><p>Choose number of points to send.</font><div class='respPicDiv'><img src='img/responseButtonOffersNo0L2.png' class='respPic'></div></div>","null","6","Jacob","6","Shared","0.8,0.35","12","0.8","trustrating_stim/white_mw035.bmp","4","71","17"
"","","","feedback","63ea4301f63c1d26f0ff83e9","bdp_trlrn","Wed Mar 15 2023 15:43:42 GMT-0400 (Eastern Daylight Time)","508513","Untrustworthy,Trustworthy","html-keyboard-response","188","244179","0.0-19.0-3.16","","null","","<div class='trialDiv'><img src='trustrating_stim/white_mw035.bmp'><br><font class='baseline'><strong>Jacob</strong><p>Received: <strong>8</strong></font> &nbsp; &nbsp; &nbsp; &nbsp; &nbsp; &nbsp;<font class='posOutcome'>Shared back: <strong>4</strong></font></font><div class='respPicDiv'><img src='img/responseButtonOffersNo0_wht.png' class='respPic'></div></div>","null","6","Jacob","6","Shared","0.8,0.35","12","0.8","trustrating_stim/white_mw035.bmp","4","75","17"
"","","","decision","63ea4301f63c1d26f0ff83e9","bdp_trlrn","Wed Mar 15 2023 15:43:42 GMT-0400 (Eastern Daylight Time)","508513","Untrustworthy,Trustworthy","html-keyboard-response","189","244633","0.0-19.0-1.17","","451","","<div class='trialDiv'><img src='trustrating_stim/white_00519_940519_fb_edt.bmp'><br><font class='baseline'><strong>Ethan</strong><p>Choose number of points to send.</font><div class='respPicDiv'><img src='img/responseButtonOffersNo0L.png' class='respPic'></div></div>","2","6","Ethan","9","Kept","0.2,0.8","14","0.2","trustrating_stim/white_00519_940519_fb_edt.bmp","6.5","80","18"
"","","","decisionFB","63ea4301f63c1d26f0ff83e9","bdp_trlrn","Wed Mar 15 2023 15:43:42 GMT-0400 (Eastern Daylight Time)","508513","Untrustworthy,Trustworthy","html-keyboard-response","190","244889","0.0-19.0-2.17","","null","","<div class='trialDiv'><img src='trustrating_stim/white_00519_940519_fb_edt.bmp'><br><font class='baseline'><strong>Ethan</strong><p>Choose number of points to send.</font><div class='respPicDiv'><img src='img/responseButtonOffersNo0L2.png' class='respPic'></div></div>","null","6","Ethan","9","Kept","0.2,0.8","14","0.2","trustrating_stim/white_00519_940519_fb_edt.bmp","6.5","78","18"
"","","","feedback","63ea4301f63c1d26f0ff83e9","bdp_trlrn","Wed Mar 15 2023 15:43:42 GMT-0400 (Eastern Daylight Time)","508513","Untrustworthy,Trustworthy","html-keyboard-response","191","245900","0.0-19.0-3.17","","null","","<div class='trialDiv'><img src='trustrating_stim/white_00519_940519_fb_edt.bmp'><br><font class='baseline'><strong>Ethan</strong><p>Received: <strong>8</strong></font> &nbsp; &nbsp; &nbsp; &nbsp; &nbsp; &nbsp;<font class='negOutcome'>Shared back: <strong>0</strong></font></font><div class='respPicDiv'><img src='img/responseButtonOffersNo0_wht.png' class='respPic'></div></div>","null","6","Ethan","9","Kept","0.2,0.8","14","0.2","trustrating_stim/white_00519_940519_fb_edt.bmp","6.5","78","18"
"","","","decision","63ea4301f63c1d26f0ff83e9","bdp_trlrn","Wed Mar 15 2023 15:43:42 GMT-0400 (Eastern Daylight Time)","508513","Untrustworthy,Trustworthy","html-keyboard-response","192","246349","0.0-19.0-1.18","","447","","<div class='trialDiv'><img src='trustrating_stim/white_mw035.bmp'><br><font class='baseline'><strong>Jacob</strong><p>Choose number of points to send.</font><div class='respPicDiv'><img src='img/responseButtonOffersNo0L.png' class='respPic'></div></div>","2","7","Jacob","6","Shared","0.8,0.35","12","0.8","trustrating_stim/white_mw035.bmp","4","83","19"
"","","","decisionFB","63ea4301f63c1d26f0ff83e9","bdp_trlrn","Wed Mar 15 2023 15:43:42 GMT-0400 (Eastern Daylight Time)","508513","Untrustworthy,Trustworthy","html-keyboard-response","193","246610","0.0-19.0-2.18","","null","","<div class='trialDiv'><img src='trustrating_stim/white_mw035.bmp'><br><font class='baseline'><strong>Jacob</strong><p>Choose number of points to send.</font><div class='respPicDiv'><img src='img/responseButtonOffersNo0L2.png' class='respPic'></div></div>","null","7","Jacob","6","Shared","0.8,0.35","12","0.8","trustrating_stim/white_mw035.bmp","4","81","19"
"","","","feedback","63ea4301f63c1d26f0ff83e9","bdp_trlrn","Wed Mar 15 2023 15:43:42 GMT-0400 (Eastern Daylight Time)","508513","Untrustworthy,Trustworthy","html-keyboard-response","194","247620","0.0-19.0-3.18","","null","","<div class='trialDiv'><img src='trustrating_stim/white_mw035.bmp'><br><font class='baseline'><strong>Jacob</strong><p>Received: <strong>8</strong></font> &nbsp; &nbsp; &nbsp; &nbsp; &nbsp; &nbsp;<font class='posOutcome'>Shared back: <strong>4</strong></font></font><div class='respPicDiv'><img src='img/responseButtonOffersNo0_wht.png' class='respPic'></div></div>","null","7","Jacob","6","Shared","0.8,0.35","12","0.8","trustrating_stim/white_mw035.bmp","4","85","19"
"","","","decision","63ea4301f63c1d26f0ff83e9","bdp_trlrn","Wed Mar 15 2023 15:43:42 GMT-0400 (Eastern Daylight Time)","508513","Untrustworthy,Trustworthy","html-keyboard-response","195","248090","0.0-19.0-1.19","","467","","<div class='trialDiv'><img src='trustrating_stim/white_00757_941201_fa_edt.bmp'><br><font class='baseline'><strong>Joseph</strong><p>Choose number of points to send.</font><div class='respPicDiv'><img src='img/responseButtonOffersNo0L.png' class='respPic'></div></div>","1","7","Joseph","0","Kept","0.35,0.8","9","0.35","trustrating_stim/white_00757_941201_fa_edt.bmp","1","90","20"
"","","","decisionFB","63ea4301f63c1d26f0ff83e9","bdp_trlrn","Wed Mar 15 2023 15:43:42 GMT-0400 (Eastern Daylight Time)","508513","Untrustworthy,Trustworthy","html-keyboard-response","196","248349","0.0-19.0-2.19","","null","","<div class='trialDiv'><img src='trustrating_stim/white_00757_941201_fa_edt.bmp'><br><font class='baseline'><strong>Joseph</strong><p>Choose number of points to send.</font><div class='respPicDiv'><img src='img/responseButtonOffersNo0L1.png' class='respPic'></div></div>","null","7","Joseph","0","Kept","0.35,0.8","9","0.35","trustrating_stim/white_00757_941201_fa_edt.bmp","1","89","20"
"","","","feedback","63ea4301f63c1d26f0ff83e9","bdp_trlrn","Wed Mar 15 2023 15:43:42 GMT-0400 (Eastern Daylight Time)","508513","Untrustworthy,Trustworthy","html-keyboard-response","197","249360","0.0-19.0-3.19","","null","","<div class='trialDiv'><img src='trustrating_stim/white_00757_941201_fa_edt.bmp'><br><font class='baseline'><strong>Joseph</strong><p>Received: <strong>4</strong></font> &nbsp; &nbsp; &nbsp; &nbsp; &nbsp; &nbsp;<font class='negOutcome'>Shared back: <strong>0</strong></font></font><div class='respPicDiv'><img src='img/responseButtonOffersNo0_wht.png' class='respPic'></div></div>","null","7","Joseph","0","Kept","0.35,0.8","9","0.35","trustrating_stim/white_00757_941201_fa_edt.bmp","1","89","20"
"","","","decision","63ea4301f63c1d26f0ff83e9","bdp_trlrn","Wed Mar 15 2023 15:43:42 GMT-0400 (Eastern Daylight Time)","508513","Untrustworthy,Trustworthy","html-keyboard-response","198","251519","0.0-19.0-1.20","","2156","","<div class='trialDiv'><img src='trustrating_stim/white_00519_940519_fb_edt.bmp'><br><font class='baseline'><strong>Ethan</strong><p>Choose number of points to send.</font><div class='respPicDiv'><img src='img/responseButtonOffersNo0L.png' class='respPic'></div></div>","5","7","Ethan","9","Kept","0.2,0.8","14","0.2","trustrating_stim/white_00519_940519_fb_edt.bmp","6.5","94","21"
"","","","decisionFB","63ea4301f63c1d26f0ff83e9","bdp_trlrn","Wed Mar 15 2023 15:43:42 GMT-0400 (Eastern Daylight Time)","508513","Untrustworthy,Trustworthy","html-keyboard-response","199","251780","0.0-19.0-2.20","","null","","<div class='trialDiv'><img src='trustrating_stim/white_00519_940519_fb_edt.bmp'><br><font class='baseline'><strong>Ethan</strong><p>Choose number of points to send.</font><div class='respPicDiv'><img src='img/responseButtonOffersNo0L5.png' class='respPic'></div></div>","null","7","Ethan","9","Kept","0.2,0.8","14","0.2","trustrating_stim/white_00519_940519_fb_edt.bmp","6.5","89","21"
"","","","feedback","63ea4301f63c1d26f0ff83e9","bdp_trlrn","Wed Mar 15 2023 15:43:42 GMT-0400 (Eastern Daylight Time)","508513","Untrustworthy,Trustworthy","html-keyboard-response","200","252791","0.0-19.0-3.20","","null","","<div class='trialDiv'><img src='trustrating_stim/white_00519_940519_fb_edt.bmp'><br><font class='baseline'><strong>Ethan</strong><p>Received: <strong>20</strong></font> &nbsp; &nbsp; &nbsp; &nbsp; &nbsp; &nbsp;<font class='negOutcome'>Shared back: <strong>0</strong></font></font><div class='respPicDiv'><img src='img/responseButtonOffersNo0_wht.png' class='respPic'></div></div>","null","7","Ethan","9","Kept","0.2,0.8","14","0.2","trustrating_stim/white_00519_940519_fb_edt.bmp","6.5","89","21"
"","","","decision","63ea4301f63c1d26f0ff83e9","bdp_trlrn","Wed Mar 15 2023 15:43:42 GMT-0400 (Eastern Daylight Time)","508513","Untrustworthy,Trustworthy","html-keyboard-response","201","254781","0.0-19.0-1.21","","1988","","<div class='trialDiv'><img src='trustrating_stim/white_00757_941201_fa_edt.bmp'><br><font class='baseline'><strong>Joseph</strong><p>Choose number of points to send.</font><div class='respPicDiv'><img src='img/responseButtonOffersNo0L.png' class='respPic'></div></div>","3","8","Joseph","0","Kept","0.35,0.8","9","0.35","trustrating_stim/white_00757_941201_fa_edt.bmp","1","94","22"
"","","","decisionFB","63ea4301f63c1d26f0ff83e9","bdp_trlrn","Wed Mar 15 2023 15:43:42 GMT-0400 (Eastern Daylight Time)","508513","Untrustworthy,Trustworthy","html-keyboard-response","202","255040","0.0-19.0-2.21","","null","","<div class='trialDiv'><img src='trustrating_stim/white_00757_941201_fa_edt.bmp'><br><font class='baseline'><strong>Joseph</strong><p>Choose number of points to send.</font><div class='respPicDiv'><img src='img/responseButtonOffersNo0L3.png' class='respPic'></div></div>","null","8","Joseph","0","Kept","0.35,0.8","9","0.35","trustrating_stim/white_00757_941201_fa_edt.bmp","1","91","22"
"","","","feedback","63ea4301f63c1d26f0ff83e9","bdp_trlrn","Wed Mar 15 2023 15:43:42 GMT-0400 (Eastern Daylight Time)","508513","Untrustworthy,Trustworthy","html-keyboard-response","203","256051","0.0-19.0-3.21","","null","","<div class='trialDiv'><img src='trustrating_stim/white_00757_941201_fa_edt.bmp'><br><font class='baseline'><strong>Joseph</strong><p>Received: <strong>12</strong></font> &nbsp; &nbsp; &nbsp; &nbsp; &nbsp; &nbsp;<font class='negOutcome'>Shared back: <strong>0</strong></font></font><div class='respPicDiv'><img src='img/responseButtonOffersNo0_wht.png' class='respPic'></div></div>","null","8","Joseph","0","Kept","0.35,0.8","9","0.35","trustrating_stim/white_00757_941201_fa_edt.bmp","1","91","22"
"","","","decision","63ea4301f63c1d26f0ff83e9","bdp_trlrn","Wed Mar 15 2023 15:43:42 GMT-0400 (Eastern Daylight Time)","508513","Untrustworthy,Trustworthy","html-keyboard-response","204","258078","0.0-19.0-1.22","","2025","","<div class='trialDiv'><img src='trustrating_stim/white_00519_940519_fb_edt.bmp'><br><font class='baseline'><strong>Ethan</strong><p>Choose number of points to send.</font><div class='respPicDiv'><img src='img/responseButtonOffersNo0L.png' class='respPic'></div></div>","5","8","Ethan","9","Shared","0.2,0.8","14","0.2","trustrating_stim/white_00519_940519_fb_edt.bmp","6.5","96","23"
"","","","decisionFB","63ea4301f63c1d26f0ff83e9","bdp_trlrn","Wed Mar 15 2023 15:43:42 GMT-0400 (Eastern Daylight Time)","508513","Untrustworthy,Trustworthy","html-keyboard-response","205","258332","0.0-19.0-2.22","","null","","<div class='trialDiv'><img src='trustrating_stim/white_00519_940519_fb_edt.bmp'><br><font class='baseline'><strong>Ethan</strong><p>Choose number of points to send.</font><div class='respPicDiv'><img src='img/responseButtonOffersNo0L5.png' class='respPic'></div></div>","null","8","Ethan","9","Shared","0.2,0.8","14","0.2","trustrating_stim/white_00519_940519_fb_edt.bmp","6.5","91","23"
"","","","feedback","63ea4301f63c1d26f0ff83e9","bdp_trlrn","Wed Mar 15 2023 15:43:42 GMT-0400 (Eastern Daylight Time)","508513","Untrustworthy,Trustworthy","html-keyboard-response","206","259342","0.0-19.0-3.22","","null","","<div class='trialDiv'><img src='trustrating_stim/white_00519_940519_fb_edt.bmp'><br><font class='baseline'><strong>Ethan</strong><p>Received: <strong>20</strong></font> &nbsp; &nbsp; &nbsp; &nbsp; &nbsp; &nbsp;<font class='posOutcome'>Shared back: <strong>10</strong></font></font><div class='respPicDiv'><img src='img/responseButtonOffersNo0_wht.png' class='respPic'></div></div>","null","8","Ethan","9","Shared","0.2,0.8","14","0.2","trustrating_stim/white_00519_940519_fb_edt.bmp","6.5","101","23"
"","","","decision","63ea4301f63c1d26f0ff83e9","bdp_trlrn","Wed Mar 15 2023 15:43:42 GMT-0400 (Eastern Daylight Time)","508513","Untrustworthy,Trustworthy","html-keyboard-response","207","260280","0.0-19.0-1.23","","936","","<div class='trialDiv'><img src='trustrating_stim/white_mw035.bmp'><br><font class='baseline'><strong>Jacob</strong><p>Choose number of points to send.</font><div class='respPicDiv'><img src='img/responseButtonOffersNo0L.png' class='respPic'></div></div>","2","8","Jacob","6","Shared","0.8,0.35","12","0.8","trustrating_stim/white_mw035.bmp","4","106","24"
"","","","decisionFB","63ea4301f63c1d26f0ff83e9","bdp_trlrn","Wed Mar 15 2023 15:43:42 GMT-0400 (Eastern Daylight Time)","508513","Untrustworthy,Trustworthy","html-keyboard-response","208","260542","0.0-19.0-2.23","","null","","<div class='trialDiv'><img src='trustrating_stim/white_mw035.bmp'><br><font class='baseline'><strong>Jacob</strong><p>Choose number of points to send.</font><div class='respPicDiv'><img src='img/responseButtonOffersNo0L2.png' class='respPic'></div></div>","null","8","Jacob","6","Shared","0.8,0.35","12","0.8","trustrating_stim/white_mw035.bmp","4","104","24"
"","","","feedback","63ea4301f63c1d26f0ff83e9","bdp_trlrn","Wed Mar 15 2023 15:43:42 GMT-0400 (Eastern Daylight Time)","508513","Untrustworthy,Trustworthy","html-keyboard-response","209","261552","0.0-19.0-3.23","","null","","<div class='trialDiv'><img src='trustrating_stim/white_mw035.bmp'><br><font class='baseline'><strong>Jacob</strong><p>Received: <strong>8</strong></font> &nbsp; &nbsp; &nbsp; &nbsp; &nbsp; &nbsp;<font class='posOutcome'>Shared back: <strong>4</strong></font></font><div class='respPicDiv'><img src='img/responseButtonOffersNo0_wht.png' class='respPic'></div></div>","null","8","Jacob","6","Shared","0.8,0.35","12","0.8","trustrating_stim/white_mw035.bmp","4","108","24"
"","","","decision","63ea4301f63c1d26f0ff83e9","bdp_trlrn","Wed Mar 15 2023 15:43:42 GMT-0400 (Eastern Daylight Time)","508513","Untrustworthy,Trustworthy","html-keyboard-response","210","263406","0.0-19.0-1.24","","1853","","<div class='trialDiv'><img src='trustrating_stim/white_00519_940519_fb_edt.bmp'><br><font class='baseline'><strong>Ethan</strong><p>Choose number of points to send.</font><div class='respPicDiv'><img src='img/responseButtonOffersNo0L.png' class='respPic'></div></div>","4","9","Ethan","9","Kept","0.2,0.8","14","0.2","trustrating_stim/white_00519_940519_fb_edt.bmp","6.5","113","25"
"","","","decisionFB","63ea4301f63c1d26f0ff83e9","bdp_trlrn","Wed Mar 15 2023 15:43:42 GMT-0400 (Eastern Daylight Time)","508513","Untrustworthy,Trustworthy","html-keyboard-response","211","263662","0.0-19.0-2.24","","null","","<div class='trialDiv'><img src='trustrating_stim/white_00519_940519_fb_edt.bmp'><br><font class='baseline'><strong>Ethan</strong><p>Choose number of points to send.</font><div class='respPicDiv'><img src='img/responseButtonOffersNo0L4.png' class='respPic'></div></div>","null","9","Ethan","9","Kept","0.2,0.8","14","0.2","trustrating_stim/white_00519_940519_fb_edt.bmp","6.5","109","25"
"","","","feedback","63ea4301f63c1d26f0ff83e9","bdp_trlrn","Wed Mar 15 2023 15:43:42 GMT-0400 (Eastern Daylight Time)","508513","Untrustworthy,Trustworthy","html-keyboard-response","212","264672","0.0-19.0-3.24","","null","","<div class='trialDiv'><img src='trustrating_stim/white_00519_940519_fb_edt.bmp'><br><font class='baseline'><strong>Ethan</strong><p>Received: <strong>16</strong></font> &nbsp; &nbsp; &nbsp; &nbsp; &nbsp; &nbsp;<font class='negOutcome'>Shared back: <strong>0</strong></font></font><div class='respPicDiv'><img src='img/responseButtonOffersNo0_wht.png' class='respPic'></div></div>","null","9","Ethan","9","Kept","0.2,0.8","14","0.2","trustrating_stim/white_00519_940519_fb_edt.bmp","6.5","109","25"
"","","","decision","63ea4301f63c1d26f0ff83e9","bdp_trlrn","Wed Mar 15 2023 15:43:42 GMT-0400 (Eastern Daylight Time)","508513","Untrustworthy,Trustworthy","html-keyboard-response","213","265901","0.0-19.0-1.25","","1227","","<div class='trialDiv'><img src='trustrating_stim/white_00757_941201_fa_edt.bmp'><br><font class='baseline'><strong>Joseph</strong><p>Choose number of points to send.</font><div class='respPicDiv'><img src='img/responseButtonOffersNo0L.png' class='respPic'></div></div>","5","9","Joseph","0","Shared","0.35,0.8","9","0.35","trustrating_stim/white_00757_941201_fa_edt.bmp","1","114","26"
"","","","decisionFB","63ea4301f63c1d26f0ff83e9","bdp_trlrn","Wed Mar 15 2023 15:43:42 GMT-0400 (Eastern Daylight Time)","508513","Untrustworthy,Trustworthy","html-keyboard-response","214","266163","0.0-19.0-2.25","","null","","<div class='trialDiv'><img src='trustrating_stim/white_00757_941201_fa_edt.bmp'><br><font class='baseline'><strong>Joseph</strong><p>Choose number of points to send.</font><div class='respPicDiv'><img src='img/responseButtonOffersNo0L5.png' class='respPic'></div></div>","null","9","Joseph","0","Shared","0.35,0.8","9","0.35","trustrating_stim/white_00757_941201_fa_edt.bmp","1","109","26"
"","","","feedback","63ea4301f63c1d26f0ff83e9","bdp_trlrn","Wed Mar 15 2023 15:43:42 GMT-0400 (Eastern Daylight Time)","508513","Untrustworthy,Trustworthy","html-keyboard-response","215","267173","0.0-19.0-3.25","","null","","<div class='trialDiv'><img src='trustrating_stim/white_00757_941201_fa_edt.bmp'><br><font class='baseline'><strong>Joseph</strong><p>Received: <strong>20</strong></font> &nbsp; &nbsp; &nbsp; &nbsp; &nbsp; &nbsp;<font class='posOutcome'>Shared back: <strong>10</strong></font></font><div class='respPicDiv'><img src='img/responseButtonOffersNo0_wht.png' class='respPic'></div></div>","null","9","Joseph","0","Shared","0.35,0.8","9","0.35","trustrating_stim/white_00757_941201_fa_edt.bmp","1","119","26"
"","","","decision","63ea4301f63c1d26f0ff83e9","bdp_trlrn","Wed Mar 15 2023 15:43:42 GMT-0400 (Eastern Daylight Time)","508513","Untrustworthy,Trustworthy","html-keyboard-response","216","267859","0.0-19.0-1.26","","684","","<div class='trialDiv'><img src='trustrating_stim/white_mw035.bmp'><br><font class='baseline'><strong>Jacob</strong><p>Choose number of points to send.</font><div class='respPicDiv'><img src='img/responseButtonOffersNo0L.png' class='respPic'></div></div>","1","9","Jacob","6","Shared","0.8,0.35","12","0.8","trustrating_stim/white_mw035.bmp","4","124","27"
"","","","decisionFB","63ea4301f63c1d26f0ff83e9","bdp_trlrn","Wed Mar 15 2023 15:43:42 GMT-0400 (Eastern Daylight Time)","508513","Untrustworthy,Trustworthy","html-keyboard-response","217","268112","0.0-19.0-2.26","","null","","<div class='trialDiv'><img src='trustrating_stim/white_mw035.bmp'><br><font class='baseline'><strong>Jacob</strong><p>Choose number of points to send.</font><div class='respPicDiv'><img src='img/responseButtonOffersNo0L1.png' class='respPic'></div></div>","null","9","Jacob","6","Shared","0.8,0.35","12","0.8","trustrating_stim/white_mw035.bmp","4","123","27"
"","","","feedback","63ea4301f63c1d26f0ff83e9","bdp_trlrn","Wed Mar 15 2023 15:43:42 GMT-0400 (Eastern Daylight Time)","508513","Untrustworthy,Trustworthy","html-keyboard-response","218","269122","0.0-19.0-3.26","","null","","<div class='trialDiv'><img src='trustrating_stim/white_mw035.bmp'><br><font class='baseline'><strong>Jacob</strong><p>Received: <strong>4</strong></font> &nbsp; &nbsp; &nbsp; &nbsp; &nbsp; &nbsp;<font class='posOutcome'>Shared back: <strong>2</strong></font></font><div class='respPicDiv'><img src='img/responseButtonOffersNo0_wht.png' class='respPic'></div></div>","null","9","Jacob","6","Shared","0.8,0.35","12","0.8","trustrating_stim/white_mw035.bmp","4","125","27"
"","","","decision","63ea4301f63c1d26f0ff83e9","bdp_trlrn","Wed Mar 15 2023 15:43:42 GMT-0400 (Eastern Daylight Time)","508513","Untrustworthy,Trustworthy","html-keyboard-response","219","269650","0.0-19.0-1.27","","525","","<div class='trialDiv'><img src='trustrating_stim/white_00757_941201_fa_edt.bmp'><br><font class='baseline'><strong>Joseph</strong><p>Choose number of points to send.</font><div class='respPicDiv'><img src='img/responseButtonOffersNo0L.png' class='respPic'></div></div>","3","10","Joseph","0","Shared","0.35,0.8","9","0.35","trustrating_stim/white_00757_941201_fa_edt.bmp","1","130","28"
"","","","decisionFB","63ea4301f63c1d26f0ff83e9","bdp_trlrn","Wed Mar 15 2023 15:43:42 GMT-0400 (Eastern Daylight Time)","508513","Untrustworthy,Trustworthy","html-keyboard-response","220","269902","0.0-19.0-2.27","","null","","<div class='trialDiv'><img src='trustrating_stim/white_00757_941201_fa_edt.bmp'><br><font class='baseline'><strong>Joseph</strong><p>Choose number of points to send.</font><div class='respPicDiv'><img src='img/responseButtonOffersNo0L3.png' class='respPic'></div></div>","null","10","Joseph","0","Shared","0.35,0.8","9","0.35","trustrating_stim/white_00757_941201_fa_edt.bmp","1","127","28"
