"trial_type","trial_index","time_elapsed","internal_node_id","subject_id","task","startTime","totalTime","labels","view_history","rt","event","trial","time","trialtype","success","stimulus","key_press","aground","name","faceID","outcome","agenttype","agentswpt","agentcurrpshare","face","avgRating","point_total","round"
"pavlovia","0","5","0.0-0.0","5cd10012174fc60016c10ffd","bdp_trlrn","Sat Apr 08 2023 12:42:25 GMT-0400 (Eastern Daylight Time)","662909","Untrustworthy,Trustworthy","","","","","","","","","","","","","","","","","","","",""
"instructions","1","2998","0.0-1.0","5cd10012174fc60016c10ffd","bdp_trlrn","Sat Apr 08 2023 12:42:25 GMT-0400 (Eastern Daylight Time)","662909","Untrustworthy,Trustworthy","[{""page_index"":0,""viewing_time"":2992}]","2992","","","","","","","","","","","","","","","","","",""
"","","","","5cd10012174fc60016c10ffd","bdp_trlrn","Sat Apr 08 2023 12:42:25 GMT-0400 (Eastern Daylight Time)","662909","Untrustworthy,Trustworthy","","","fullscreenenter","2","8158","fullscreenenter","","","","","","","","","","","","","",""
"fullscreen","2","9160","0.0-2.0","5cd10012174fc60016c10ffd","bdp_trlrn","Sat Apr 08 2023 12:42:25 GMT-0400 (Eastern Daylight Time)","662909","Untrustworthy,Trustworthy","","","","","","","true","","","","","","","","","","","","",""
"instructions","3","16991","0.0-4.0","5cd10012174fc60016c10ffd","bdp_trlrn","Sat Apr 08 2023 12:42:25 GMT-0400 (Eastern Daylight Time)","662909","Untrustworthy,Trustworthy","[{""page_index"":0,""viewing_time"":5995},{""page_index"":1,""viewing_time"":1830}]","7826","","","","","","","","","","","","","","","","","",""
"instructions","4","18567","0.0-5.0","5cd10012174fc60016c10ffd","bdp_trlrn","Sat Apr 08 2023 12:42:25 GMT-0400 (Eastern Daylight Time)","662909","Untrustworthy,Trustworthy","[{""page_index"":0,""viewing_time"":1575}]","1575","","","","","","","","","","","","","","","","","",""
"image-keyboard-response","5","22208","0.0-6.0-1.0","5cd10012174fc60016c10ffd","bdp_trlrn","Sat Apr 08 2023 12:42:25 GMT-0400 (Eastern Daylight Time)","662909","Untrustworthy,Trustworthy","","3528","","","","rating","","trustrating_stim/white_00807_941205_fb_edt.bmp","1","","","","","","","","","","",""
"image-keyboard-response","6","22424","0.0-6.0-2.0","5cd10012174fc60016c10ffd","bdp_trlrn","Sat Apr 08 2023 12:42:25 GMT-0400 (Eastern Daylight Time)","662909","Untrustworthy,Trustworthy","","null","","","","ratingFB","","trustrating_stim/white_00807_941205_fb_edt.bmp","null","","","","","","","","","","",""
"image-keyboard-response","7","24061","0.0-6.0-1.1","5cd10012174fc60016c10ffd","bdp_trlrn","Sat Apr 08 2023 12:42:25 GMT-0400 (Eastern Daylight Time)","662909","Untrustworthy,Trustworthy","","1525","","","","rating","","trustrating_stim/white_mw035.bmp","3","","","","","","","","","","",""
"image-keyboard-response","8","24274","0.0-6.0-2.1","5cd10012174fc60016c10ffd","bdp_trlrn","Sat Apr 08 2023 12:42:25 GMT-0400 (Eastern Daylight Time)","662909","Untrustworthy,Trustworthy","","null","","","","ratingFB","","trustrating_stim/white_mw035.bmp","null","","","","","","","","","","",""
"image-keyboard-response","9","25383","0.0-6.0-1.2","5cd10012174fc60016c10ffd","bdp_trlrn","Sat Apr 08 2023 12:42:25 GMT-0400 (Eastern Daylight Time)","662909","Untrustworthy,Trustworthy","","996","","","","rating","","trustrating_stim/white_00120_931230_fa_edt.bmp","8","","","","","","","","","","",""
"image-keyboard-response","10","25600","0.0-6.0-2.2","5cd10012174fc60016c10ffd","bdp_trlrn","Sat Apr 08 2023 12:42:25 GMT-0400 (Eastern Daylight Time)","662909","Untrustworthy,Trustworthy","","null","","","","ratingFB","","trustrating_stim/white_00120_931230_fa_edt.bmp","null","","","","","","","","","","",""
"image-keyboard-response","11","26855","0.0-6.0-1.3","5cd10012174fc60016c10ffd","bdp_trlrn","Sat Apr 08 2023 12:42:25 GMT-0400 (Eastern Daylight Time)","662909","Untrustworthy,Trustworthy","","1142","","","","rating","","trustrating_stim/white_mw060.bmp","1","","","","","","","","","","",""
"image-keyboard-response","12","27070","0.0-6.0-2.3","5cd10012174fc60016c10ffd","bdp_trlrn","Sat Apr 08 2023 12:42:25 GMT-0400 (Eastern Daylight Time)","662909","Untrustworthy,Trustworthy","","null","","","","ratingFB","","trustrating_stim/white_mw060.bmp","null","","","","","","","","","","",""
"image-keyboard-response","13","28124","0.0-6.0-1.4","5cd10012174fc60016c10ffd","bdp_trlrn","Sat Apr 08 2023 12:42:25 GMT-0400 (Eastern Daylight Time)","662909","Untrustworthy,Trustworthy","","943","","","","rating","","trustrating_stim/white_mw048.bmp","1","","","","","","","","","","",""
"image-keyboard-response","14","28335","0.0-6.0-2.4","5cd10012174fc60016c10ffd","bdp_trlrn","Sat Apr 08 2023 12:42:25 GMT-0400 (Eastern Daylight Time)","662909","Untrustworthy,Trustworthy","","null","","","","ratingFB","","trustrating_stim/white_mw048.bmp","null","","","","","","","","","","",""
"image-keyboard-response","15","29861","0.0-6.0-1.5","5cd10012174fc60016c10ffd","bdp_trlrn","Sat Apr 08 2023 12:42:25 GMT-0400 (Eastern Daylight Time)","662909","Untrustworthy,Trustworthy","","1415","","","","rating","","trustrating_stim/white_00519_940519_fb_edt.bmp","7","","","","","","","","","","",""
"image-keyboard-response","16","30079","0.0-6.0-2.5","5cd10012174fc60016c10ffd","bdp_trlrn","Sat Apr 08 2023 12:42:25 GMT-0400 (Eastern Daylight Time)","662909","Untrustworthy,Trustworthy","","null","","","","ratingFB","","trustrating_stim/white_00519_940519_fb_edt.bmp","null","","","","","","","","","","",""
"image-keyboard-response","17","31527","0.0-6.0-1.6","5cd10012174fc60016c10ffd","bdp_trlrn","Sat Apr 08 2023 12:42:25 GMT-0400 (Eastern Daylight Time)","662909","Untrustworthy,Trustworthy","","1337","","","","rating","","trustrating_stim/white_00898_960530_fa_edt.bmp","8","","","","","","","","","","",""
"image-keyboard-response","18","31744","0.0-6.0-2.6","5cd10012174fc60016c10ffd","bdp_trlrn","Sat Apr 08 2023 12:42:25 GMT-0400 (Eastern Daylight Time)","662909","Untrustworthy,Trustworthy","","null","","","","ratingFB","","trustrating_stim/white_00898_960530_fa_edt.bmp","null","","","","","","","","","","",""
"image-keyboard-response","19","33766","0.0-6.0-1.7","5cd10012174fc60016c10ffd","bdp_trlrn","Sat Apr 08 2023 12:42:25 GMT-0400 (Eastern Daylight Time)","662909","Untrustworthy,Trustworthy","","1910","","","","rating","","trustrating_stim/white_mw071.bmp","6","","","","","","","","","","",""
"image-keyboard-response","20","33982","0.0-6.0-2.7","5cd10012174fc60016c10ffd","bdp_trlrn","Sat Apr 08 2023 12:42:25 GMT-0400 (Eastern Daylight Time)","662909","Untrustworthy,Trustworthy","","null","","","","ratingFB","","trustrating_stim/white_mw071.bmp","null","","","","","","","","","","",""
"image-keyboard-response","21","35386","0.0-6.0-1.8","5cd10012174fc60016c10ffd","bdp_trlrn","Sat Apr 08 2023 12:42:25 GMT-0400 (Eastern Daylight Time)","662909","Untrustworthy,Trustworthy","","1292","","","","rating","","trustrating_stim/white_00757_941201_fa_edt.bmp","2","","","","","","","","","","",""
"image-keyboard-response","22","35592","0.0-6.0-2.8","5cd10012174fc60016c10ffd","bdp_trlrn","Sat Apr 08 2023 12:42:25 GMT-0400 (Eastern Daylight Time)","662909","Untrustworthy,Trustworthy","","null","","","","ratingFB","","trustrating_stim/white_00757_941201_fa_edt.bmp","null","","","","","","","","","","",""
"image-keyboard-response","23","37351","0.0-6.0-1.9","5cd10012174fc60016c10ffd","bdp_trlrn","Sat Apr 08 2023 12:42:25 GMT-0400 (Eastern Daylight Time)","662909","Untrustworthy,Trustworthy","","1648","","","","rating","","trustrating_stim/white_00223_940128_fb_edt.bmp","2","","","","","","","","","","",""
"image-keyboard-response","24","37561","0.0-6.0-2.9","5cd10012174fc60016c10ffd","bdp_trlrn","Sat Apr 08 2023 12:42:25 GMT-0400 (Eastern Daylight Time)","662909","Untrustworthy,Trustworthy","","null","","","","ratingFB","","trustrating_stim/white_00223_940128_fb_edt.bmp","null","","","","","","","","","","",""
"image-keyboard-response","25","40092","0.0-6.0-1.10","5cd10012174fc60016c10ffd","bdp_trlrn","Sat Apr 08 2023 12:42:25 GMT-0400 (Eastern Daylight Time)","662909","Untrustworthy,Trustworthy","","2422","","","","rating","","trustrating_stim/white_mw053.bmp","7","","","","","","","","","","",""
"image-keyboard-response","26","40295","0.0-6.0-2.10","5cd10012174fc60016c10ffd","bdp_trlrn","Sat Apr 08 2023 12:42:25 GMT-0400 (Eastern Daylight Time)","662909","Untrustworthy,Trustworthy","","null","","","","ratingFB","","trustrating_stim/white_mw053.bmp","null","","","","","","","","","","",""
"image-keyboard-response","27","47211","0.0-6.0-1.11","5cd10012174fc60016c10ffd","bdp_trlrn","Sat Apr 08 2023 12:42:25 GMT-0400 (Eastern Daylight Time)","662909","Untrustworthy,Trustworthy","","6805","","","","rating","","trustrating_stim/white_00785_941205_fb_edt.bmp","5","","","","","","","","","","",""
"image-keyboard-response","28","47422","0.0-6.0-2.11","5cd10012174fc60016c10ffd","bdp_trlrn","Sat Apr 08 2023 12:42:25 GMT-0400 (Eastern Daylight Time)","662909","Untrustworthy,Trustworthy","","null","","","","ratingFB","","trustrating_stim/white_00785_941205_fb_edt.bmp","null","","","","","","","","","","",""
"image-keyboard-response","29","49040","0.0-6.0-1.12","5cd10012174fc60016c10ffd","bdp_trlrn","Sat Apr 08 2023 12:42:25 GMT-0400 (Eastern Daylight Time)","662909","Untrustworthy,Trustworthy","","1507","","","","rating","","trustrating_stim/white_00659_941121_fa_edt.bmp","2","","","","","","","","","","",""
"image-keyboard-response","30","49251","0.0-6.0-2.12","5cd10012174fc60016c10ffd","bdp_trlrn","Sat Apr 08 2023 12:42:25 GMT-0400 (Eastern Daylight Time)","662909","Untrustworthy,Trustworthy","","null","","","","ratingFB","","trustrating_stim/white_00659_941121_fa_edt.bmp","null","","","","","","","","","","",""
"image-keyboard-response","31","51163","0.0-6.0-1.13","5cd10012174fc60016c10ffd","bdp_trlrn","Sat Apr 08 2023 12:42:25 GMT-0400 (Eastern Daylight Time)","662909","Untrustworthy,Trustworthy","","1801","","","","rating","","trustrating_stim/white_mw033.bmp","7","","","","","","","","","","",""
"image-keyboard-response","32","51376","0.0-6.0-2.13","5cd10012174fc60016c10ffd","bdp_trlrn","Sat Apr 08 2023 12:42:25 GMT-0400 (Eastern Daylight Time)","662909","Untrustworthy,Trustworthy","","null","","","","ratingFB","","trustrating_stim/white_mw033.bmp","null","","","","","","","","","","",""
"image-keyboard-response","33","53108","0.0-6.0-1.14","5cd10012174fc60016c10ffd","bdp_trlrn","Sat Apr 08 2023 12:42:25 GMT-0400 (Eastern Daylight Time)","662909","Untrustworthy,Trustworthy","","1621","","","","rating","","trustrating_stim/white_mw056.bmp","8","","","","","","","","","","",""
"image-keyboard-response","34","53314","0.0-6.0-2.14","5cd10012174fc60016c10ffd","bdp_trlrn","Sat Apr 08 2023 12:42:25 GMT-0400 (Eastern Daylight Time)","662909","Untrustworthy,Trustworthy","","null","","","","ratingFB","","trustrating_stim/white_mw056.bmp","null","","","","","","","","","","",""
"image-keyboard-response","35","55335","0.0-6.0-1.15","5cd10012174fc60016c10ffd","bdp_trlrn","Sat Apr 08 2023 12:42:25 GMT-0400 (Eastern Daylight Time)","662909","Untrustworthy,Trustworthy","","1909","","","","rating","","trustrating_stim/white_mw089.bmp","7","","","","","","","","","","",""
"image-keyboard-response","36","55548","0.0-6.0-2.15","5cd10012174fc60016c10ffd","bdp_trlrn","Sat Apr 08 2023 12:42:25 GMT-0400 (Eastern Daylight Time)","662909","Untrustworthy,Trustworthy","","null","","","","ratingFB","","trustrating_stim/white_mw089.bmp","null","","","","","","","","","","",""
"image-keyboard-response","37","56753","0.0-6.0-1.16","5cd10012174fc60016c10ffd","bdp_trlrn","Sat Apr 08 2023 12:42:25 GMT-0400 (Eastern Daylight Time)","662909","Untrustworthy,Trustworthy","","1094","","","","rating","","trustrating_stim/white_00340_940422_fa_edt.bmp","1","","","","","","","","","","",""
"image-keyboard-response","38","56955","0.0-6.0-2.16","5cd10012174fc60016c10ffd","bdp_trlrn","Sat Apr 08 2023 12:42:25 GMT-0400 (Eastern Daylight Time)","662909","Untrustworthy,Trustworthy","","null","","","","ratingFB","","trustrating_stim/white_00340_940422_fa_edt.bmp","null","","","","","","","","","","",""
"image-keyboard-response","39","59103","0.0-6.0-1.17","5cd10012174fc60016c10ffd","bdp_trlrn","Sat Apr 08 2023 12:42:25 GMT-0400 (Eastern Daylight Time)","662909","Untrustworthy,Trustworthy","","2037","","","","rating","","trustrating_stim/white_mw099.bmp","7","","","","","","","","","","",""
"image-keyboard-response","40","59317","0.0-6.0-2.17","5cd10012174fc60016c10ffd","bdp_trlrn","Sat Apr 08 2023 12:42:25 GMT-0400 (Eastern Daylight Time)","662909","Untrustworthy,Trustworthy","","null","","","","ratingFB","","trustrating_stim/white_mw099.bmp","null","","","","","","","","","","",""
"image-keyboard-response","41","60474","0.0-6.0-1.18","5cd10012174fc60016c10ffd","bdp_trlrn","Sat Apr 08 2023 12:42:25 GMT-0400 (Eastern Daylight Time)","662909","Untrustworthy,Trustworthy","","1047","","","","rating","","trustrating_stim/white_mw084.bmp","2","","","","","","","","","","",""
"image-keyboard-response","42","60690","0.0-6.0-2.18","5cd10012174fc60016c10ffd","bdp_trlrn","Sat Apr 08 2023 12:42:25 GMT-0400 (Eastern Daylight Time)","662909","Untrustworthy,Trustworthy","","null","","","","ratingFB","","trustrating_stim/white_mw084.bmp","null","","","","","","","","","","",""
"image-keyboard-response","43","61949","0.0-6.0-1.19","5cd10012174fc60016c10ffd","bdp_trlrn","Sat Apr 08 2023 12:42:25 GMT-0400 (Eastern Daylight Time)","662909","Untrustworthy,Trustworthy","","1148","","","","rating","","trustrating_stim/white_mw066.bmp","8","","","","","","","","","","",""
"image-keyboard-response","44","62159","0.0-6.0-2.19","5cd10012174fc60016c10ffd","bdp_trlrn","Sat Apr 08 2023 12:42:25 GMT-0400 (Eastern Daylight Time)","662909","Untrustworthy,Trustworthy","","null","","","","ratingFB","","trustrating_stim/white_mw066.bmp","null","","","","","","","","","","",""
"image-keyboard-response","45","63916","0.0-6.0-1.20","5cd10012174fc60016c10ffd","bdp_trlrn","Sat Apr 08 2023 12:42:25 GMT-0400 (Eastern Daylight Time)","662909","Untrustworthy,Trustworthy","","1646","","","","rating","","trustrating_stim/white_00299_940422_fa_edt.bmp","8","","","","","","","","","","",""
"image-keyboard-response","46","64145","0.0-6.0-2.20","5cd10012174fc60016c10ffd","bdp_trlrn","Sat Apr 08 2023 12:42:25 GMT-0400 (Eastern Daylight Time)","662909","Untrustworthy,Trustworthy","","null","","","","ratingFB","","trustrating_stim/white_00299_940422_fa_edt.bmp","null","","","","","","","","","","",""
"image-keyboard-response","47","65898","0.0-6.0-1.21","5cd10012174fc60016c10ffd","bdp_trlrn","Sat Apr 08 2023 12:42:25 GMT-0400 (Eastern Daylight Time)","662909","Untrustworthy,Trustworthy","","1642","","","","rating","","trustrating_stim/white_mw049.bmp","9","","","","","","","","","","",""
"image-keyboard-response","48","66114","0.0-6.0-2.21","5cd10012174fc60016c10ffd","bdp_trlrn","Sat Apr 08 2023 12:42:25 GMT-0400 (Eastern Daylight Time)","662909","Untrustworthy,Trustworthy","","null","","","","ratingFB","","trustrating_stim/white_mw049.bmp","null","","","","","","","","","","",""
"image-keyboard-response","49","67336","0.0-6.0-1.22","5cd10012174fc60016c10ffd","bdp_trlrn","Sat Apr 08 2023 12:42:25 GMT-0400 (Eastern Daylight Time)","662909","Untrustworthy,Trustworthy","","1111","","","","rating","","trustrating_stim/white_00602_940928_fb_edt.bmp","9","","","","","","","","","","",""
"image-keyboard-response","50","67551","0.0-6.0-2.22","5cd10012174fc60016c10ffd","bdp_trlrn","Sat Apr 08 2023 12:42:25 GMT-0400 (Eastern Daylight Time)","662909","Untrustworthy,Trustworthy","","null","","","","ratingFB","","trustrating_stim/white_00602_940928_fb_edt.bmp","null","","","","","","","","","","",""
"image-keyboard-response","51","70777","0.0-6.0-1.23","5cd10012174fc60016c10ffd","bdp_trlrn","Sat Apr 08 2023 12:42:25 GMT-0400 (Eastern Daylight Time)","662909","Untrustworthy,Trustworthy","","3113","","","","rating","","trustrating_stim/white_00109_931230_fa_edt.bmp","6","","","","","","","","","","",""
"image-keyboard-response","52","70991","0.0-6.0-2.23","5cd10012174fc60016c10ffd","bdp_trlrn","Sat Apr 08 2023 12:42:25 GMT-0400 (Eastern Daylight Time)","662909","Untrustworthy,Trustworthy","","null","","","","ratingFB","","trustrating_stim/white_00109_931230_fa_edt.bmp","null","","","","","","","","","","",""
"image-keyboard-response","53","72321","0.0-6.0-1.24","5cd10012174fc60016c10ffd","bdp_trlrn","Sat Apr 08 2023 12:42:25 GMT-0400 (Eastern Daylight Time)","662909","Untrustworthy,Trustworthy","","1220","","","","rating","","trustrating_stim/white_mw063.bmp","2","","","","","","","","","","",""
"image-keyboard-response","54","72539","0.0-6.0-2.24","5cd10012174fc60016c10ffd","bdp_trlrn","Sat Apr 08 2023 12:42:25 GMT-0400 (Eastern Daylight Time)","662909","Untrustworthy,Trustworthy","","null","","","","ratingFB","","trustrating_stim/white_mw063.bmp","null","","","","","","","","","","",""
"image-keyboard-response","55","74614","0.0-6.0-1.25","5cd10012174fc60016c10ffd","bdp_trlrn","Sat Apr 08 2023 12:42:25 GMT-0400 (Eastern Daylight Time)","662909","Untrustworthy,Trustworthy","","1965","","","","rating","","trustrating_stim/white_00577_940928_fa_edt.bmp","4","","","","","","","","","","",""
"image-keyboard-response","56","74822","0.0-6.0-2.25","5cd10012174fc60016c10ffd","bdp_trlrn","Sat Apr 08 2023 12:42:25 GMT-0400 (Eastern Daylight Time)","662909","Untrustworthy,Trustworthy","","null","","","","ratingFB","","trustrating_stim/white_00577_940928_fa_edt.bmp","null","","","","","","","","","","",""
"image-keyboard-response","57","76217","0.0-6.0-1.26","5cd10012174fc60016c10ffd","bdp_trlrn","Sat Apr 08 2023 12:42:25 GMT-0400 (Eastern Daylight Time)","662909","Untrustworthy,Trustworthy","","1284","","","","rating","","trustrating_stim/white_mw097.bmp","2","","","","","","","","","","",""
"image-keyboard-response","58","76432","0.0-6.0-2.26","5cd10012174fc60016c10ffd","bdp_trlrn","Sat Apr 08 2023 12:42:25 GMT-0400 (Eastern Daylight Time)","662909","Untrustworthy,Trustworthy","","null","","","","ratingFB","","trustrating_stim/white_mw097.bmp","null","","","","","","","","","","",""
"image-keyboard-response","59","78100","0.0-6.0-1.27","5cd10012174fc60016c10ffd","bdp_trlrn","Sat Apr 08 2023 12:42:25 GMT-0400 (Eastern Daylight Time)","662909","Untrustworthy,Trustworthy","","1557","","","","rating","","trustrating_stim/white_00761_941201_fb_edt.bmp","9","","","","","","","","","","",""
"image-keyboard-response","60","78307","0.0-6.0-2.27","5cd10012174fc60016c10ffd","bdp_trlrn","Sat Apr 08 2023 12:42:25 GMT-0400 (Eastern Daylight Time)","662909","Untrustworthy,Trustworthy","","null","","","","ratingFB","","trustrating_stim/white_00761_941201_fb_edt.bmp","null","","","","","","","","","","",""
"image-keyboard-response","61","80166","0.0-6.0-1.28","5cd10012174fc60016c10ffd","bdp_trlrn","Sat Apr 08 2023 12:42:25 GMT-0400 (Eastern Daylight Time)","662909","Untrustworthy,Trustworthy","","1746","","","","rating","","trustrating_stim/white_mw046.bmp","2","","","","","","","","","","",""
"image-keyboard-response","62","80371","0.0-6.0-2.28","5cd10012174fc60016c10ffd","bdp_trlrn","Sat Apr 08 2023 12:42:25 GMT-0400 (Eastern Daylight Time)","662909","Untrustworthy,Trustworthy","","null","","","","ratingFB","","trustrating_stim/white_mw046.bmp","null","","","","","","","","","","",""
"image-keyboard-response","63","81647","0.0-6.0-1.29","5cd10012174fc60016c10ffd","bdp_trlrn","Sat Apr 08 2023 12:42:25 GMT-0400 (Eastern Daylight Time)","662909","Untrustworthy,Trustworthy","","1166","","","","rating","","trustrating_stim/white_00129_931230_fb_edt.bmp","9","","","","","","","","","","",""
"image-keyboard-response","64","81855","0.0-6.0-2.29","5cd10012174fc60016c10ffd","bdp_trlrn","Sat Apr 08 2023 12:42:25 GMT-0400 (Eastern Daylight Time)","662909","Untrustworthy,Trustworthy","","null","","","","ratingFB","","trustrating_stim/white_00129_931230_fb_edt.bmp","null","","","","","","","","","","",""
"image-keyboard-response","65","84074","0.0-6.0-1.30","5cd10012174fc60016c10ffd","bdp_trlrn","Sat Apr 08 2023 12:42:25 GMT-0400 (Eastern Daylight Time)","662909","Untrustworthy,Trustworthy","","2108","","","","rating","","trustrating_stim/white_mw053.bmp","3","","","","","","","","","","",""
"image-keyboard-response","66","84279","0.0-6.0-2.30","5cd10012174fc60016c10ffd","bdp_trlrn","Sat Apr 08 2023 12:42:25 GMT-0400 (Eastern Daylight Time)","662909","Untrustworthy,Trustworthy","","null","","","","ratingFB","","trustrating_stim/white_mw053.bmp","null","","","","","","","","","","",""
"image-keyboard-response","67","85983","0.0-6.0-1.31","5cd10012174fc60016c10ffd","bdp_trlrn","Sat Apr 08 2023 12:42:25 GMT-0400 (Eastern Daylight Time)","662909","Untrustworthy,Trustworthy","","1594","","","","rating","","trustrating_stim/white_00577_940928_fa_edt.bmp","2","","","","","","","","","","",""
"image-keyboard-response","68","86201","0.0-6.0-2.31","5cd10012174fc60016c10ffd","bdp_trlrn","Sat Apr 08 2023 12:42:25 GMT-0400 (Eastern Daylight Time)","662909","Untrustworthy,Trustworthy","","null","","","","ratingFB","","trustrating_stim/white_00577_940928_fa_edt.bmp","null","","","","","","","","","","",""
"image-keyboard-response","69","87840","0.0-6.0-1.32","5cd10012174fc60016c10ffd","bdp_trlrn","Sat Apr 08 2023 12:42:25 GMT-0400 (Eastern Daylight Time)","662909","Untrustworthy,Trustworthy","","1528","","","","rating","","trustrating_stim/white_00223_940128_fb_edt.bmp","2","","","","","","","","","","",""
"image-keyboard-response","70","88045","0.0-6.0-2.32","5cd10012174fc60016c10ffd","bdp_trlrn","Sat Apr 08 2023 12:42:25 GMT-0400 (Eastern Daylight Time)","662909","Untrustworthy,Trustworthy","","null","","","","ratingFB","","trustrating_stim/white_00223_940128_fb_edt.bmp","null","","","","","","","","","","",""
"image-keyboard-response","71","89060","0.0-6.0-1.33","5cd10012174fc60016c10ffd","bdp_trlrn","Sat Apr 08 2023 12:42:25 GMT-0400 (Eastern Daylight Time)","662909","Untrustworthy,Trustworthy","","904","","","","rating","","trustrating_stim/white_mw063.bmp","1","","","","","","","","","","",""
"image-keyboard-response","72","89266","0.0-6.0-2.33","5cd10012174fc60016c10ffd","bdp_trlrn","Sat Apr 08 2023 12:42:25 GMT-0400 (Eastern Daylight Time)","662909","Untrustworthy,Trustworthy","","null","","","","ratingFB","","trustrating_stim/white_mw063.bmp","null","","","","","","","","","","",""
"image-keyboard-response","73","94093","0.0-6.0-1.34","5cd10012174fc60016c10ffd","bdp_trlrn","Sat Apr 08 2023 12:42:25 GMT-0400 (Eastern Daylight Time)","662909","Untrustworthy,Trustworthy","","4717","","","","rating","","trustrating_stim/white_00120_931230_fa_edt.bmp","6","","","","","","","","","","",""
"image-keyboard-response","74","94297","0.0-6.0-2.34","5cd10012174fc60016c10ffd","bdp_trlrn","Sat Apr 08 2023 12:42:25 GMT-0400 (Eastern Daylight Time)","662909","Untrustworthy,Trustworthy","","null","","","","ratingFB","","trustrating_stim/white_00120_931230_fa_edt.bmp","null","","","","","","","","","","",""
"image-keyboard-response","75","95708","0.0-6.0-1.35","5cd10012174fc60016c10ffd","bdp_trlrn","Sat Apr 08 2023 12:42:25 GMT-0400 (Eastern Daylight Time)","662909","Untrustworthy,Trustworthy","","1300","","","","rating","","trustrating_stim/white_mw056.bmp","5","","","","","","","","","","",""
"image-keyboard-response","76","95922","0.0-6.0-2.35","5cd10012174fc60016c10ffd","bdp_trlrn","Sat Apr 08 2023 12:42:25 GMT-0400 (Eastern Daylight Time)","662909","Untrustworthy,Trustworthy","","null","","","","ratingFB","","trustrating_stim/white_mw056.bmp","null","","","","","","","","","","",""
"image-keyboard-response","77","97926","0.0-6.0-1.36","5cd10012174fc60016c10ffd","bdp_trlrn","Sat Apr 08 2023 12:42:25 GMT-0400 (Eastern Daylight Time)","662909","Untrustworthy,Trustworthy","","1893","","","","rating","","trustrating_stim/white_mw089.bmp","3","","","","","","","","","","",""
"image-keyboard-response","78","98141","0.0-6.0-2.36","5cd10012174fc60016c10ffd","bdp_trlrn","Sat Apr 08 2023 12:42:25 GMT-0400 (Eastern Daylight Time)","662909","Untrustworthy,Trustworthy","","null","","","","ratingFB","","trustrating_stim/white_mw089.bmp","null","","","","","","","","","","",""
"image-keyboard-response","79","102479","0.0-6.0-1.37","5cd10012174fc60016c10ffd","bdp_trlrn","Sat Apr 08 2023 12:42:25 GMT-0400 (Eastern Daylight Time)","662909","Untrustworthy,Trustworthy","","4227","","","","rating","","trustrating_stim/white_00299_940422_fa_edt.bmp","4","","","","","","","","","","",""
"image-keyboard-response","80","102689","0.0-6.0-2.37","5cd10012174fc60016c10ffd","bdp_trlrn","Sat Apr 08 2023 12:42:25 GMT-0400 (Eastern Daylight Time)","662909","Untrustworthy,Trustworthy","","null","","","","ratingFB","","trustrating_stim/white_00299_940422_fa_edt.bmp","null","","","","","","","","","","",""
"image-keyboard-response","81","104412","0.0-6.0-1.38","5cd10012174fc60016c10ffd","bdp_trlrn","Sat Apr 08 2023 12:42:25 GMT-0400 (Eastern Daylight Time)","662909","Untrustworthy,Trustworthy","","1612","","","","rating","","trustrating_stim/white_00898_960530_fa_edt.bmp","9","","","","","","","","","","",""
"image-keyboard-response","82","104628","0.0-6.0-2.38","5cd10012174fc60016c10ffd","bdp_trlrn","Sat Apr 08 2023 12:42:25 GMT-0400 (Eastern Daylight Time)","662909","Untrustworthy,Trustworthy","","null","","","","ratingFB","","trustrating_stim/white_00898_960530_fa_edt.bmp","null","","","","","","","","","","",""
"image-keyboard-response","83","106232","0.0-6.0-1.39","5cd10012174fc60016c10ffd","bdp_trlrn","Sat Apr 08 2023 12:42:25 GMT-0400 (Eastern Daylight Time)","662909","Untrustworthy,Trustworthy","","1493","","","","rating","","trustrating_stim/white_00129_931230_fb_edt.bmp","8","","","","","","","","","","",""
"image-keyboard-response","84","106441","0.0-6.0-2.39","5cd10012174fc60016c10ffd","bdp_trlrn","Sat Apr 08 2023 12:42:25 GMT-0400 (Eastern Daylight Time)","662909","Untrustworthy,Trustworthy","","null","","","","ratingFB","","trustrating_stim/white_00129_931230_fb_edt.bmp","null","","","","","","","","","","",""
"image-keyboard-response","85","108060","0.0-6.0-1.40","5cd10012174fc60016c10ffd","bdp_trlrn","Sat Apr 08 2023 12:42:25 GMT-0400 (Eastern Daylight Time)","662909","Untrustworthy,Trustworthy","","1508","","","","rating","","trustrating_stim/white_00807_941205_fb_edt.bmp","1","","","","","","","","","","",""
"image-keyboard-response","86","108270","0.0-6.0-2.40","5cd10012174fc60016c10ffd","bdp_trlrn","Sat Apr 08 2023 12:42:25 GMT-0400 (Eastern Daylight Time)","662909","Untrustworthy,Trustworthy","","null","","","","ratingFB","","trustrating_stim/white_00807_941205_fb_edt.bmp","null","","","","","","","","","","",""
"image-keyboard-response","87","109558","0.0-6.0-1.41","5cd10012174fc60016c10ffd","bdp_trlrn","Sat Apr 08 2023 12:42:25 GMT-0400 (Eastern Daylight Time)","662909","Untrustworthy,Trustworthy","","1178","","","","rating","","trustrating_stim/white_00519_940519_fb_edt.bmp","8","","","","","","","","","","",""
"image-keyboard-response","88","109770","0.0-6.0-2.41","5cd10012174fc60016c10ffd","bdp_trlrn","Sat Apr 08 2023 12:42:25 GMT-0400 (Eastern Daylight Time)","662909","Untrustworthy,Trustworthy","","null","","","","ratingFB","","trustrating_stim/white_00519_940519_fb_edt.bmp","null","","","","","","","","","","",""
"image-keyboard-response","89","111082","0.0-6.0-1.42","5cd10012174fc60016c10ffd","bdp_trlrn","Sat Apr 08 2023 12:42:25 GMT-0400 (Eastern Daylight Time)","662909","Untrustworthy,Trustworthy","","1202","","","","rating","","trustrating_stim/white_mw060.bmp","1","","","","","","","","","","",""
"image-keyboard-response","90","111300","0.0-6.0-2.42","5cd10012174fc60016c10ffd","bdp_trlrn","Sat Apr 08 2023 12:42:25 GMT-0400 (Eastern Daylight Time)","662909","Untrustworthy,Trustworthy","","null","","","","ratingFB","","trustrating_stim/white_mw060.bmp","null","","","","","","","","","","",""
"image-keyboard-response","91","112661","0.0-6.0-1.43","5cd10012174fc60016c10ffd","bdp_trlrn","Sat Apr 08 2023 12:42:25 GMT-0400 (Eastern Daylight Time)","662909","Untrustworthy,Trustworthy","","1249","","","","rating","","trustrating_stim/white_mw084.bmp","8","","","","","","","","","","",""
"image-keyboard-response","92","112864","0.0-6.0-2.43","5cd10012174fc60016c10ffd","bdp_trlrn","Sat Apr 08 2023 12:42:25 GMT-0400 (Eastern Daylight Time)","662909","Untrustworthy,Trustworthy","","null","","","","ratingFB","","trustrating_stim/white_mw084.bmp","null","","","","","","","","","","",""
"image-keyboard-response","93","114118","0.0-6.0-1.44","5cd10012174fc60016c10ffd","bdp_trlrn","Sat Apr 08 2023 12:42:25 GMT-0400 (Eastern Daylight Time)","662909","Untrustworthy,Trustworthy","","1142","","","","rating","","trustrating_stim/white_mw033.bmp","7","","","","","","","","","","",""
"image-keyboard-response","94","114334","0.0-6.0-2.44","5cd10012174fc60016c10ffd","bdp_trlrn","Sat Apr 08 2023 12:42:25 GMT-0400 (Eastern Daylight Time)","662909","Untrustworthy,Trustworthy","","null","","","","ratingFB","","trustrating_stim/white_mw033.bmp","null","","","","","","","","","","",""
"image-keyboard-response","95","115473","0.0-6.0-1.45","5cd10012174fc60016c10ffd","bdp_trlrn","Sat Apr 08 2023 12:42:25 GMT-0400 (Eastern Daylight Time)","662909","Untrustworthy,Trustworthy","","1027","","","","rating","","trustrating_stim/white_mw048.bmp","2","","","","","","","","","","",""
"image-keyboard-response","96","115677","0.0-6.0-2.45","5cd10012174fc60016c10ffd","bdp_trlrn","Sat Apr 08 2023 12:42:25 GMT-0400 (Eastern Daylight Time)","662909","Untrustworthy,Trustworthy","","null","","","","ratingFB","","trustrating_stim/white_mw048.bmp","null","","","","","","","","","","",""
"image-keyboard-response","97","117910","0.0-6.0-1.46","5cd10012174fc60016c10ffd","bdp_trlrn","Sat Apr 08 2023 12:42:25 GMT-0400 (Eastern Daylight Time)","662909","Untrustworthy,Trustworthy","","2121","","","","rating","","trustrating_stim/white_mw099.bmp","4","","","","","","","","","","",""
"image-keyboard-response","98","118116","0.0-6.0-2.46","5cd10012174fc60016c10ffd","bdp_trlrn","Sat Apr 08 2023 12:42:25 GMT-0400 (Eastern Daylight Time)","662909","Untrustworthy,Trustworthy","","null","","","","ratingFB","","trustrating_stim/white_mw099.bmp","null","","","","","","","","","","",""
"image-keyboard-response","99","119296","0.0-6.0-1.47","5cd10012174fc60016c10ffd","bdp_trlrn","Sat Apr 08 2023 12:42:25 GMT-0400 (Eastern Daylight Time)","662909","Untrustworthy,Trustworthy","","1068","","","","rating","","trustrating_stim/white_00602_940928_fb_edt.bmp","5","","","","","","","","","","",""
"image-keyboard-response","100","119507","0.0-6.0-2.47","5cd10012174fc60016c10ffd","bdp_trlrn","Sat Apr 08 2023 12:42:25 GMT-0400 (Eastern Daylight Time)","662909","Untrustworthy,Trustworthy","","null","","","","ratingFB","","trustrating_stim/white_00602_940928_fb_edt.bmp","null","","","","","","","","","","",""
"image-keyboard-response","101","120855","0.0-6.0-1.48","5cd10012174fc60016c10ffd","bdp_trlrn","Sat Apr 08 2023 12:42:25 GMT-0400 (Eastern Daylight Time)","662909","Untrustworthy,Trustworthy","","1237","","","","rating","","trustrating_stim/white_00659_941121_fa_edt.bmp","2","","","","","","","","","","",""
"image-keyboard-response","102","121069","0.0-6.0-2.48","5cd10012174fc60016c10ffd","bdp_trlrn","Sat Apr 08 2023 12:42:25 GMT-0400 (Eastern Daylight Time)","662909","Untrustworthy,Trustworthy","","null","","","","ratingFB","","trustrating_stim/white_00659_941121_fa_edt.bmp","null","","","","","","","","","","",""
"image-keyboard-response","103","122464","0.0-6.0-1.49","5cd10012174fc60016c10ffd","bdp_trlrn","Sat Apr 08 2023 12:42:25 GMT-0400 (Eastern Daylight Time)","662909","Untrustworthy,Trustworthy","","1283","","","","rating","","trustrating_stim/white_mw046.bmp","2","","","","","","","","","","",""
"image-keyboard-response","104","122680","0.0-6.0-2.49","5cd10012174fc60016c10ffd","bdp_trlrn","Sat Apr 08 2023 12:42:25 GMT-0400 (Eastern Daylight Time)","662909","Untrustworthy,Trustworthy","","null","","","","ratingFB","","trustrating_stim/white_mw046.bmp","null","","","","","","","","","","",""
"image-keyboard-response","105","124480","0.0-6.0-1.50","5cd10012174fc60016c10ffd","bdp_trlrn","Sat Apr 08 2023 12:42:25 GMT-0400 (Eastern Daylight Time)","662909","Untrustworthy,Trustworthy","","1689","","","","rating","","trustrating_stim/white_mw071.bmp","7","","","","","","","","","","",""
"image-keyboard-response","106","124694","0.0-6.0-2.50","5cd10012174fc60016c10ffd","bdp_trlrn","Sat Apr 08 2023 12:42:25 GMT-0400 (Eastern Daylight Time)","662909","Untrustworthy,Trustworthy","","null","","","","ratingFB","","trustrating_stim/white_mw071.bmp","null","","","","","","","","","","",""
"image-keyboard-response","107","126498","0.0-6.0-1.51","5cd10012174fc60016c10ffd","bdp_trlrn","Sat Apr 08 2023 12:42:25 GMT-0400 (Eastern Daylight Time)","662909","Untrustworthy,Trustworthy","","1693","","","","rating","","trustrating_stim/white_mw049.bmp","8","","","","","","","","","","",""
"image-keyboard-response","108","126710","0.0-6.0-2.51","5cd10012174fc60016c10ffd","bdp_trlrn","Sat Apr 08 2023 12:42:25 GMT-0400 (Eastern Daylight Time)","662909","Untrustworthy,Trustworthy","","null","","","","ratingFB","","trustrating_stim/white_mw049.bmp","null","","","","","","","","","","",""
"image-keyboard-response","109","128467","0.0-6.0-1.52","5cd10012174fc60016c10ffd","bdp_trlrn","Sat Apr 08 2023 12:42:25 GMT-0400 (Eastern Daylight Time)","662909","Untrustworthy,Trustworthy","","1646","","","","rating","","trustrating_stim/white_mw097.bmp","6","","","","","","","","","","",""
"image-keyboard-response","110","128679","0.0-6.0-2.52","5cd10012174fc60016c10ffd","bdp_trlrn","Sat Apr 08 2023 12:42:25 GMT-0400 (Eastern Daylight Time)","662909","Untrustworthy,Trustworthy","","null","","","","ratingFB","","trustrating_stim/white_mw097.bmp","null","","","","","","","","","","",""
"image-keyboard-response","111","130431","0.0-6.0-1.53","5cd10012174fc60016c10ffd","bdp_trlrn","Sat Apr 08 2023 12:42:25 GMT-0400 (Eastern Daylight Time)","662909","Untrustworthy,Trustworthy","","1641","","","","rating","","trustrating_stim/white_00340_940422_fa_edt.bmp","1","","","","","","","","","","",""
"image-keyboard-response","112","130648","0.0-6.0-2.53","5cd10012174fc60016c10ffd","bdp_trlrn","Sat Apr 08 2023 12:42:25 GMT-0400 (Eastern Daylight Time)","662909","Untrustworthy,Trustworthy","","null","","","","ratingFB","","trustrating_stim/white_00340_940422_fa_edt.bmp","null","","","","","","","","","","",""
"image-keyboard-response","113","132227","0.0-6.0-1.54","5cd10012174fc60016c10ffd","bdp_trlrn","Sat Apr 08 2023 12:42:25 GMT-0400 (Eastern Daylight Time)","662909","Untrustworthy,Trustworthy","","1469","","","","rating","","trustrating_stim/white_00109_931230_fa_edt.bmp","8","","","","","","","","","","",""
"image-keyboard-response","114","132445","0.0-6.0-2.54","5cd10012174fc60016c10ffd","bdp_trlrn","Sat Apr 08 2023 12:42:25 GMT-0400 (Eastern Daylight Time)","662909","Untrustworthy,Trustworthy","","null","","","","ratingFB","","trustrating_stim/white_00109_931230_fa_edt.bmp","null","","","","","","","","","","",""
"image-keyboard-response","115","134878","0.0-6.0-1.55","5cd10012174fc60016c10ffd","bdp_trlrn","Sat Apr 08 2023 12:42:25 GMT-0400 (Eastern Daylight Time)","662909","Untrustworthy,Trustworthy","","2321","","","","rating","","trustrating_stim/white_mw066.bmp","7","","","","","","","","","","",""
"image-keyboard-response","116","135088","0.0-6.0-2.55","5cd10012174fc60016c10ffd","bdp_trlrn","Sat Apr 08 2023 12:42:25 GMT-0400 (Eastern Daylight Time)","662909","Untrustworthy,Trustworthy","","null","","","","ratingFB","","trustrating_stim/white_mw066.bmp","null","","","","","","","","","","",""
"image-keyboard-response","117","136624","0.0-6.0-1.56","5cd10012174fc60016c10ffd","bdp_trlrn","Sat Apr 08 2023 12:42:25 GMT-0400 (Eastern Daylight Time)","662909","Untrustworthy,Trustworthy","","1425","","","","rating","","trustrating_stim/white_mw035.bmp","4","","","","","","","","","","",""
"image-keyboard-response","118","136839","0.0-6.0-2.56","5cd10012174fc60016c10ffd","bdp_trlrn","Sat Apr 08 2023 12:42:25 GMT-0400 (Eastern Daylight Time)","662909","Untrustworthy,Trustworthy","","null","","","","ratingFB","","trustrating_stim/white_mw035.bmp","null","","","","","","","","","","",""
"image-keyboard-response","119","138367","0.0-6.0-1.57","5cd10012174fc60016c10ffd","bdp_trlrn","Sat Apr 08 2023 12:42:25 GMT-0400 (Eastern Daylight Time)","662909","Untrustworthy,Trustworthy","","1418","","","","rating","","trustrating_stim/white_00757_941201_fa_edt.bmp","2","","","","","","","","","","",""
"image-keyboard-response","120","138575","0.0-6.0-2.57","5cd10012174fc60016c10ffd","bdp_trlrn","Sat Apr 08 2023 12:42:25 GMT-0400 (Eastern Daylight Time)","662909","Untrustworthy,Trustworthy","","null","","","","ratingFB","","trustrating_stim/white_00757_941201_fa_edt.bmp","null","","","","","","","","","","",""
"image-keyboard-response","121","140212","0.0-6.0-1.58","5cd10012174fc60016c10ffd","bdp_trlrn","Sat Apr 08 2023 12:42:25 GMT-0400 (Eastern Daylight Time)","662909","Untrustworthy,Trustworthy","","1526","","","","rating","","trustrating_stim/white_00761_941201_fb_edt.bmp","9","","","","","","","","","","",""
"image-keyboard-response","122","140419","0.0-6.0-2.58","5cd10012174fc60016c10ffd","bdp_trlrn","Sat Apr 08 2023 12:42:25 GMT-0400 (Eastern Daylight Time)","662909","Untrustworthy,Trustworthy","","null","","","","ratingFB","","trustrating_stim/white_00761_941201_fb_edt.bmp","null","","","","","","","","","","",""
"image-keyboard-response","123","141943","0.0-6.0-1.59","5cd10012174fc60016c10ffd","bdp_trlrn","Sat Apr 08 2023 12:42:25 GMT-0400 (Eastern Daylight Time)","662909","Untrustworthy,Trustworthy","","1413","","","","rating","","trustrating_stim/white_00785_941205_fb_edt.bmp","8","","","","","","","","","","",""
"image-keyboard-response","124","142154","0.0-6.0-2.59","5cd10012174fc60016c10ffd","bdp_trlrn","Sat Apr 08 2023 12:42:25 GMT-0400 (Eastern Daylight Time)","662909","Untrustworthy,Trustworthy","","null","","","","ratingFB","","trustrating_stim/white_00785_941205_fb_edt.bmp","null","","","","","","","","","","",""
"instructions","125","143874","0.0-7.0","5cd10012174fc60016c10ffd","bdp_trlrn","Sat Apr 08 2023 12:42:25 GMT-0400 (Eastern Daylight Time)","662909","Untrustworthy,Trustworthy","[{""page_index"":0,""viewing_time"":1611}]","1611","","","","","","","","","","","","","","","","","",""
"instructions","126","229033","0.0-8.0","5cd10012174fc60016c10ffd","bdp_trlrn","Sat Apr 08 2023 12:42:25 GMT-0400 (Eastern Daylight Time)","662909","Untrustworthy,Trustworthy","[{""page_index"":0,""viewing_time"":18802},{""page_index"":1,""viewing_time"":12823},{""page_index"":2,""viewing_time"":9934},{""page_index"":3,""viewing_time"":13643},{""page_index"":4,""viewing_time"":12192},{""page_index"":5,""viewing_time"":8487},{""page_index"":6,""viewing_time"":5642},{""page_index"":7,""viewing_time"":3524}]","85048","","","","","","","","","","","","","","","","","",""
"html-keyboard-response","127","235186","0.0-9.0","5cd10012174fc60016c10ffd","bdp_trlrn","Sat Apr 08 2023 12:42:25 GMT-0400 (Eastern Daylight Time)","662909","Untrustworthy,Trustworthy","","6151","","","","","","<div class='header' style='text-align:left; position: absolute; top: 5%; left: 5%;'><small>Task 3 of 5</small></div><div class='instruxDiv'><p><strong>1) What is the minimum number of points you can choose to send to your partner?</strong></p><p>a) 0</p><p>b) 1</p><p>c) 5</p>","B","","","","","","","","","","",""
"html-keyboard-response","128","236671","0.0-10.0","5cd10012174fc60016c10ffd","bdp_trlrn","Sat Apr 08 2023 12:42:25 GMT-0400 (Eastern Daylight Time)","662909","Untrustworthy,Trustworthy","","1374","","","","","","<div class='header' style='text-align:left; position: absolute; top: 5%; left: 5%;'><small>Task 3 of 5</small></div><div class='instruxDiv'><p><strong>1) What is the minimum number of points you can choose to send to your partner?</strong></p><p>a) 0</p><p style='color:#00FF00'>b) 1</p><p>c) 5</p><h3 style='color:#00FF00'>Correct!</h3><h3 class='center-content'>The correct response is b).</h3><h3 class='center-content'>The minimum number of points you can choose to send to your partner is 1 point.</h3><p><em>Press SPACEBAR to continue</em></p></div>"," ","","","","","","","","","","",""
"html-keyboard-response","129","240099","0.0-11.0","5cd10012174fc60016c10ffd","bdp_trlrn","Sat Apr 08 2023 12:42:25 GMT-0400 (Eastern Daylight Time)","662909","Untrustworthy,Trustworthy","","3321","","","","","","<div class='header' style='text-align:left; position: absolute; top: 5%; left: 5%;'><small>Task 3 of 5</small></div><div class='instruxDiv'><p><strong>2) What is the maximum number of points you can choose to send to your partner?</strong></p><p>a) 8</p><p>b) 5</p><p>c) 3</p>","B","","","","","","","","","","",""
"html-keyboard-response","130","241218","0.0-12.0","5cd10012174fc60016c10ffd","bdp_trlrn","Sat Apr 08 2023 12:42:25 GMT-0400 (Eastern Daylight Time)","662909","Untrustworthy,Trustworthy","","1015","","","","","","<div class='header' style='text-align:left; position: absolute; top: 5%; left: 5%;'><small>Task 3 of 5</small></div><div class='instruxDiv'><p><strong>2) What is the maximum number of points you can choose to send to your partner?</strong></p><p>a) 8</p><p style='color:#00FF00'>b) 5</p><p>c) 3</p><h3 style='color:#00FF00'>Correct!</h3><h3 class='center-content'>The correct response is b).</h3><h3 class='center-content'>The maximum number of points you can choose to send to your partner is 5 points.</h3><p><em>Press SPACEBAR to continue</em></p></div>"," ","","","","","","","","","","",""
"html-keyboard-response","131","245595","0.0-13.0","5cd10012174fc60016c10ffd","bdp_trlrn","Sat Apr 08 2023 12:42:25 GMT-0400 (Eastern Daylight Time)","662909","Untrustworthy,Trustworthy","","4267","","","","","","<div class='header' style='text-align:left; position: absolute; top: 5%; left: 5%;'><small>Task 3 of 5</small></div><div class='instruxDiv'><p><strong>3) What happens to the amount of points you send to your partner?</strong></p><p>a) Nothing</p><p>b) It doubles</p><p>c) It quadruples</p>","C","","","","","","","","","","",""
"html-keyboard-response","132","246559","0.0-14.0","5cd10012174fc60016c10ffd","bdp_trlrn","Sat Apr 08 2023 12:42:25 GMT-0400 (Eastern Daylight Time)","662909","Untrustworthy,Trustworthy","","854","","","","","","<div class='header' style='text-align:left; position: absolute; top: 5%; left: 5%;'><small>Task 3 of 5</small></div><div class='instruxDiv'><p><strong>3) What happens to the amount of points you send to your partner?</strong></p><p>a) Nothing</p><p>b) It doubles</p><p style='color:#00FF00'>c) It quadruples</p><h3 style='color:#00FF00'>Correct!</h3><h3 class='center-content'>The correct response is c).</h3><h3 class='center-content'>The amount of points you send to your partner quadruples.</h3><p><em>Press SPACEBAR to continue</em></p></div>"," ","","","","","","","","","","",""
"html-keyboard-response","133","280662","0.0-15.0","5cd10012174fc60016c10ffd","bdp_trlrn","Sat Apr 08 2023 12:42:25 GMT-0400 (Eastern Daylight Time)","662909","Untrustworthy,Trustworthy","","33989","","","","","","<div class='header' style='text-align:left; position: absolute; top: 5%; left: 5%;'><small>Task 3 of 5</small></div><div class='instruxDiv'><p><strong>4) If you decided to share 4 out of 5 points with your partner, and they decided to share half of the amount they received with you, how many points would you receive back from them on this round?</strong></p><p>a) 16</p><p>b) 0</p><p>c) 8</p>","C","","","","","","","","","","",""
"html-keyboard-response","134","282239","0.0-16.0","5cd10012174fc60016c10ffd","bdp_trlrn","Sat Apr 08 2023 12:42:25 GMT-0400 (Eastern Daylight Time)","662909","Untrustworthy,Trustworthy","","1471","","","","","","<div class='header' style='text-align:left; position: absolute; top: 5%; left: 5%;'><small>Task 3 of 5</small></div><div class='instruxDiv'><p><strong>4) If you decided to share 4 out of 5 points with your partner, and they decided to share half of the amount they received with you, how many points would you receive back from them on this round?</strong></p><p>a) 16</p><p>b) 0</p><p style='color:#00FF00'>c) 8</p><h3 style='color:#00FF00'>Correct!</h3><h3 class='center-content'>The correct response is c).</h3><h3 class='center-content'>If you shared 4 out of 5 points with your partner and they decided to share half of the amount they received with you, you would receive 8 points back (i.e. (4 x 4)/2 = 8).</h3><p><em>Press SPACEBAR to continue</em></p></div>"," ","","","","","","","","","","",""
"html-keyboard-response","135","287369","0.0-17.0","5cd10012174fc60016c10ffd","bdp_trlrn","Sat Apr 08 2023 12:42:25 GMT-0400 (Eastern Daylight Time)","662909","Untrustworthy,Trustworthy","","null","","","","","","<div class='header' style='text-align:left; position: absolute; top: 5%; left: 5%;'><small>Task 3 of 5</small></div><div class='instruxDiv'><p>Thank you for completing the quiz<p>These are the actual partners you will be interacting with in the next block:<p><div class='tc' align='center'><img class='introPic' src='trustrating_stim/white_mw060.bmp'><br><strong>Timothy</strong></div><div class='bl' align='center'><img class='introPic' src='trustrating_stim/white_00299_940422_fa_edt.bmp'><br><strong>Benjamin</strong></div><div class='br' align='center'><img class='introPic' src='trustrating_stim/white_00898_960530_fa_edt.bmp'><br><strong>Jonathan</strong></div></div><p>Across <strong>66 rounds</strong> you will interact with each partner <strong>22 times</strong> (in random order).<p style='align:center; color:white'><font <em>Press SPACEBAR to continue</em></p>","null","","","","","","","","","","",""
"instructions","136","290665","0.0-18.0","5cd10012174fc60016c10ffd","bdp_trlrn","Sat Apr 08 2023 12:42:25 GMT-0400 (Eastern Daylight Time)","662909","Untrustworthy,Trustworthy","[{""page_index"":0,""viewing_time"":1163},{""page_index"":1,""viewing_time"":2131}]","3295","","","","","","","","","","","","","","","","","",""
"html-keyboard-response","137","292136","0.0-19.0-1.0","5cd10012174fc60016c10ffd","bdp_trlrn","Sat Apr 08 2023 12:42:25 GMT-0400 (Eastern Daylight Time)","662909","Untrustworthy,Trustworthy","","1358","","","","decision","","<div class='trialDiv'><img src='trustrating_stim/white_mw060.bmp'><br><font class='baseline'><strong>Timothy</strong><p>Choose number of points to send.</font><div class='respPicDiv'><img src='img/responseButtonOffersNo0L.png' class='respPic'></div></div>","3","1","Timothy","1","Kept","0.2,0.65","13","0.2","trustrating_stim/white_mw060.bmp","1","5","1"
"html-keyboard-response","138","292401","0.0-19.0-2.0","5cd10012174fc60016c10ffd","bdp_trlrn","Sat Apr 08 2023 12:42:25 GMT-0400 (Eastern Daylight Time)","662909","Untrustworthy,Trustworthy","","null","","","","decisionFB","","<div class='trialDiv'><img src='trustrating_stim/white_mw060.bmp'><br><font class='baseline'><strong>Timothy</strong><p>Choose number of points to send.</font><div class='respPicDiv'><img src='img/responseButtonOffersNo0L3.png' class='respPic'></div></div>","null","1","Timothy","1","Kept","0.2,0.65","13","0.2","trustrating_stim/white_mw060.bmp","1","2","1"
"html-keyboard-response","139","293417","0.0-19.0-3.0","5cd10012174fc60016c10ffd","bdp_trlrn","Sat Apr 08 2023 12:42:25 GMT-0400 (Eastern Daylight Time)","662909","Untrustworthy,Trustworthy","","null","","","","feedback","","<div class='trialDiv'><img src='trustrating_stim/white_mw060.bmp'><br><font class='baseline'><strong>Timothy</strong><p>Received: <strong>12</strong></font> &nbsp; &nbsp; &nbsp; &nbsp; &nbsp; &nbsp;<font class='negOutcome'>Shared back: <strong>0</strong></font></font><div class='respPicDiv'><img src='img/responseButtonOffersNo0_wht.png' class='respPic'></div></div>","null","1","Timothy","1","Kept","0.2,0.65","13","0.2","trustrating_stim/white_mw060.bmp","1","2","1"
"html-keyboard-response","140","298091","0.0-19.0-1.1","5cd10012174fc60016c10ffd","bdp_trlrn","Sat Apr 08 2023 12:42:25 GMT-0400 (Eastern Daylight Time)","662909","Untrustworthy,Trustworthy","","4670","","","","decision","","<div class='trialDiv'><img src='trustrating_stim/white_00299_940422_fa_edt.bmp'><br><font class='baseline'><strong>Benjamin</strong><p>Choose number of points to send.</font><div class='respPicDiv'><img src='img/responseButtonOffersNo0L.png' class='respPic'></div></div>","5","1","Benjamin","7","Shared","0.65,0.2","9","0.65","trustrating_stim/white_00299_940422_fa_edt.bmp","6","7","2"
"html-keyboard-response","141","298356","0.0-19.0-2.1","5cd10012174fc60016c10ffd","bdp_trlrn","Sat Apr 08 2023 12:42:25 GMT-0400 (Eastern Daylight Time)","662909","Untrustworthy,Trustworthy","","null","","","","decisionFB","","<div class='trialDiv'><img src='trustrating_stim/white_00299_940422_fa_edt.bmp'><br><font class='baseline'><strong>Benjamin</strong><p>Choose number of points to send.</font><div class='respPicDiv'><img src='img/responseButtonOffersNo0L5.png' class='respPic'></div></div>","null","1","Benjamin","7","Shared","0.65,0.2","9","0.65","trustrating_stim/white_00299_940422_fa_edt.bmp","6","2","2"
"html-keyboard-response","142","299372","0.0-19.0-3.1","5cd10012174fc60016c10ffd","bdp_trlrn","Sat Apr 08 2023 12:42:25 GMT-0400 (Eastern Daylight Time)","662909","Untrustworthy,Trustworthy","","null","","","","feedback","","<div class='trialDiv'><img src='trustrating_stim/white_00299_940422_fa_edt.bmp'><br><font class='baseline'><strong>Benjamin</strong><p>Received: <strong>20</strong></font> &nbsp; &nbsp; &nbsp; &nbsp; &nbsp; &nbsp;<font class='posOutcome'>Shared back: <strong>10</strong></font></font><div class='respPicDiv'><img src='img/responseButtonOffersNo0_wht.png' class='respPic'></div></div>","null","1","Benjamin","7","Shared","0.65,0.2","9","0.65","trustrating_stim/white_00299_940422_fa_edt.bmp","6","12","2"
"html-keyboard-response","143","301513","0.0-19.0-1.2","5cd10012174fc60016c10ffd","bdp_trlrn","Sat Apr 08 2023 12:42:25 GMT-0400 (Eastern Daylight Time)","662909","Untrustworthy,Trustworthy","","2136","","","","decision","","<div class='trialDiv'><img src='trustrating_stim/white_00898_960530_fa_edt.bmp'><br><font class='baseline'><strong>Jonathan</strong><p>Choose number of points to send.</font><div class='respPicDiv'><img src='img/responseButtonOffersNo0L.png' class='respPic'></div></div>","5","1","Jonathan","8","Shared","0.8,0.2","8","0.8","trustrating_stim/white_00898_960530_fa_edt.bmp","8.5","17","3"
"html-keyboard-response","144","301779","0.0-19.0-2.2","5cd10012174fc60016c10ffd","bdp_trlrn","Sat Apr 08 2023 12:42:25 GMT-0400 (Eastern Daylight Time)","662909","Untrustworthy,Trustworthy","","null","","","","decisionFB","","<div class='trialDiv'><img src='trustrating_stim/white_00898_960530_fa_edt.bmp'><br><font class='baseline'><strong>Jonathan</strong><p>Choose number of points to send.</font><div class='respPicDiv'><img src='img/responseButtonOffersNo0L5.png' class='respPic'></div></div>","null","1","Jonathan","8","Shared","0.8,0.2","8","0.8","trustrating_stim/white_00898_960530_fa_edt.bmp","8.5","12","3"
"html-keyboard-response","145","302795","0.0-19.0-3.2","5cd10012174fc60016c10ffd","bdp_trlrn","Sat Apr 08 2023 12:42:25 GMT-0400 (Eastern Daylight Time)","662909","Untrustworthy,Trustworthy","","null","","","","feedback","","<div class='trialDiv'><img src='trustrating_stim/white_00898_960530_fa_edt.bmp'><br><font class='baseline'><strong>Jonathan</strong><p>Received: <strong>20</strong></font> &nbsp; &nbsp; &nbsp; &nbsp; &nbsp; &nbsp;<font class='posOutcome'>Shared back: <strong>10</strong></font></font><div class='respPicDiv'><img src='img/responseButtonOffersNo0_wht.png' class='respPic'></div></div>","null","1","Jonathan","8","Shared","0.8,0.2","8","0.8","trustrating_stim/white_00898_960530_fa_edt.bmp","8.5","22","3"
"html-keyboard-response","146","303880","0.0-19.0-1.3","5cd10012174fc60016c10ffd","bdp_trlrn","Sat Apr 08 2023 12:42:25 GMT-0400 (Eastern Daylight Time)","662909","Untrustworthy,Trustworthy","","1081","","","","decision","","<div class='trialDiv'><img src='trustrating_stim/white_mw060.bmp'><br><font class='baseline'><strong>Timothy</strong><p>Choose number of points to send.</font><div class='respPicDiv'><img src='img/responseButtonOffersNo0L.png' class='respPic'></div></div>","2","2","Timothy","1","Kept","0.2,0.65","13","0.2","trustrating_stim/white_mw060.bmp","1","27","4"
"html-keyboard-response","147","304142","0.0-19.0-2.3","5cd10012174fc60016c10ffd","bdp_trlrn","Sat Apr 08 2023 12:42:25 GMT-0400 (Eastern Daylight Time)","662909","Untrustworthy,Trustworthy","","null","","","","decisionFB","","<div class='trialDiv'><img src='trustrating_stim/white_mw060.bmp'><br><font class='baseline'><strong>Timothy</strong><p>Choose number of points to send.</font><div class='respPicDiv'><img src='img/responseButtonOffersNo0L2.png' class='respPic'></div></div>","null","2","Timothy","1","Kept","0.2,0.65","13","0.2","trustrating_stim/white_mw060.bmp","1","25","4"
"html-keyboard-response","148","305156","0.0-19.0-3.3","5cd10012174fc60016c10ffd","bdp_trlrn","Sat Apr 08 2023 12:42:25 GMT-0400 (Eastern Daylight Time)","662909","Untrustworthy,Trustworthy","","null","","","","feedback","","<div class='trialDiv'><img src='trustrating_stim/white_mw060.bmp'><br><font class='baseline'><strong>Timothy</strong><p>Received: <strong>8</strong></font> &nbsp; &nbsp; &nbsp; &nbsp; &nbsp; &nbsp;<font class='negOutcome'>Shared back: <strong>0</strong></font></font><div class='respPicDiv'><img src='img/responseButtonOffersNo0_wht.png' class='respPic'></div></div>","null","2","Timothy","1","Kept","0.2,0.65","13","0.2","trustrating_stim/white_mw060.bmp","1","25","4"
"html-keyboard-response","149","306913","0.0-19.0-1.4","5cd10012174fc60016c10ffd","bdp_trlrn","Sat Apr 08 2023 12:42:25 GMT-0400 (Eastern Daylight Time)","662909","Untrustworthy,Trustworthy","","1754","","","","decision","","<div class='trialDiv'><img src='trustrating_stim/white_00898_960530_fa_edt.bmp'><br><font class='baseline'><strong>Jonathan</strong><p>Choose number of points to send.</font><div class='respPicDiv'><img src='img/responseButtonOffersNo0L.png' class='respPic'></div></div>","4","2","Jonathan","8","Shared","0.8,0.2","8","0.8","trustrating_stim/white_00898_960530_fa_edt.bmp","8.5","30","5"
"html-keyboard-response","150","307171","0.0-19.0-2.4","5cd10012174fc60016c10ffd","bdp_trlrn","Sat Apr 08 2023 12:42:25 GMT-0400 (Eastern Daylight Time)","662909","Untrustworthy,Trustworthy","","null","","","","decisionFB","","<div class='trialDiv'><img src='trustrating_stim/white_00898_960530_fa_edt.bmp'><br><font class='baseline'><strong>Jonathan</strong><p>Choose number of points to send.</font><div class='respPicDiv'><img src='img/responseButtonOffersNo0L4.png' class='respPic'></div></div>","null","2","Jonathan","8","Shared","0.8,0.2","8","0.8","trustrating_stim/white_00898_960530_fa_edt.bmp","8.5","26","5"
"html-keyboard-response","151","308186","0.0-19.0-3.4","5cd10012174fc60016c10ffd","bdp_trlrn","Sat Apr 08 2023 12:42:25 GMT-0400 (Eastern Daylight Time)","662909","Untrustworthy,Trustworthy","","null","","","","feedback","","<div class='trialDiv'><img src='trustrating_stim/white_00898_960530_fa_edt.bmp'><br><font class='baseline'><strong>Jonathan</strong><p>Received: <strong>16</strong></font> &nbsp; &nbsp; &nbsp; &nbsp; &nbsp; &nbsp;<font class='posOutcome'>Shared back: <strong>8</strong></font></font><div class='respPicDiv'><img src='img/responseButtonOffersNo0_wht.png' class='respPic'></div></div>","null","2","Jonathan","8","Shared","0.8,0.2","8","0.8","trustrating_stim/white_00898_960530_fa_edt.bmp","8.5","34","5"
"html-keyboard-response","152","309533","0.0-19.0-1.5","5cd10012174fc60016c10ffd","bdp_trlrn","Sat Apr 08 2023 12:42:25 GMT-0400 (Eastern Daylight Time)","662909","Untrustworthy,Trustworthy","","1343","","","","decision","","<div class='trialDiv'><img src='trustrating_stim/white_00299_940422_fa_edt.bmp'><br><font class='baseline'><strong>Benjamin</strong><p>Choose number of points to send.</font><div class='respPicDiv'><img src='img/responseButtonOffersNo0L.png' class='respPic'></div></div>","3","2","Benjamin","7","Shared","0.65,0.2","9","0.65","trustrating_stim/white_00299_940422_fa_edt.bmp","6","39","6"
"html-keyboard-response","153","309796","0.0-19.0-2.5","5cd10012174fc60016c10ffd","bdp_trlrn","Sat Apr 08 2023 12:42:25 GMT-0400 (Eastern Daylight Time)","662909","Untrustworthy,Trustworthy","","null","","","","decisionFB","","<div class='trialDiv'><img src='trustrating_stim/white_00299_940422_fa_edt.bmp'><br><font class='baseline'><strong>Benjamin</strong><p>Choose number of points to send.</font><div class='respPicDiv'><img src='img/responseButtonOffersNo0L3.png' class='respPic'></div></div>","null","2","Benjamin","7","Shared","0.65,0.2","9","0.65","trustrating_stim/white_00299_940422_fa_edt.bmp","6","36","6"
"html-keyboard-response","154","310812","0.0-19.0-3.5","5cd10012174fc60016c10ffd","bdp_trlrn","Sat Apr 08 2023 12:42:25 GMT-0400 (Eastern Daylight Time)","662909","Untrustworthy,Trustworthy","","null","","","","feedback","","<div class='trialDiv'><img src='trustrating_stim/white_00299_940422_fa_edt.bmp'><br><font class='baseline'><strong>Benjamin</strong><p>Received: <strong>12</strong></font> &nbsp; &nbsp; &nbsp; &nbsp; &nbsp; &nbsp;<font class='posOutcome'>Shared back: <strong>6</strong></font></font><div class='respPicDiv'><img src='img/responseButtonOffersNo0_wht.png' class='respPic'></div></div>","null","2","Benjamin","7","Shared","0.65,0.2","9","0.65","trustrating_stim/white_00299_940422_fa_edt.bmp","6","42","6"
"html-keyboard-response","155","312344","0.0-19.0-1.6","5cd10012174fc60016c10ffd","bdp_trlrn","Sat Apr 08 2023 12:42:25 GMT-0400 (Eastern Daylight Time)","662909","Untrustworthy,Trustworthy","","1529","","","","decision","","<div class='trialDiv'><img src='trustrating_stim/white_mw060.bmp'><br><font class='baseline'><strong>Timothy</strong><p>Choose number of points to send.</font><div class='respPicDiv'><img src='img/responseButtonOffersNo0L.png' class='respPic'></div></div>","1","3","Timothy","1","Kept","0.2,0.65","13","0.2","trustrating_stim/white_mw060.bmp","1","47","7"
"html-keyboard-response","156","312610","0.0-19.0-2.6","5cd10012174fc60016c10ffd","bdp_trlrn","Sat Apr 08 2023 12:42:25 GMT-0400 (Eastern Daylight Time)","662909","Untrustworthy,Trustworthy","","null","","","","decisionFB","","<div class='trialDiv'><img src='trustrating_stim/white_mw060.bmp'><br><font class='baseline'><strong>Timothy</strong><p>Choose number of points to send.</font><div class='respPicDiv'><img src='img/responseButtonOffersNo0L1.png' class='respPic'></div></div>","null","3","Timothy","1","Kept","0.2,0.65","13","0.2","trustrating_stim/white_mw060.bmp","1","46","7"
"html-keyboard-response","157","313626","0.0-19.0-3.6","5cd10012174fc60016c10ffd","bdp_trlrn","Sat Apr 08 2023 12:42:25 GMT-0400 (Eastern Daylight Time)","662909","Untrustworthy,Trustworthy","","null","","","","feedback","","<div class='trialDiv'><img src='trustrating_stim/white_mw060.bmp'><br><font class='baseline'><strong>Timothy</strong><p>Received: <strong>4</strong></font> &nbsp; &nbsp; &nbsp; &nbsp; &nbsp; &nbsp;<font class='negOutcome'>Shared back: <strong>0</strong></font></font><div class='respPicDiv'><img src='img/responseButtonOffersNo0_wht.png' class='respPic'></div></div>","null","3","Timothy","1","Kept","0.2,0.65","13","0.2","trustrating_stim/white_mw060.bmp","1","46","7"
"html-keyboard-response","158","314816","0.0-19.0-1.7","5cd10012174fc60016c10ffd","bdp_trlrn","Sat Apr 08 2023 12:42:25 GMT-0400 (Eastern Daylight Time)","662909","Untrustworthy,Trustworthy","","1185","","","","decision","","<div class='trialDiv'><img src='trustrating_stim/white_00898_960530_fa_edt.bmp'><br><font class='baseline'><strong>Jonathan</strong><p>Choose number of points to send.</font><div class='respPicDiv'><img src='img/responseButtonOffersNo0L.png' class='respPic'></div></div>","5","3","Jonathan","8","Shared","0.8,0.2","8","0.8","trustrating_stim/white_00898_960530_fa_edt.bmp","8.5","51","8"
"html-keyboard-response","159","315080","0.0-19.0-2.7","5cd10012174fc60016c10ffd","bdp_trlrn","Sat Apr 08 2023 12:42:25 GMT-0400 (Eastern Daylight Time)","662909","Untrustworthy,Trustworthy","","null","","","","decisionFB","","<div class='trialDiv'><img src='trustrating_stim/white_00898_960530_fa_edt.bmp'><br><font class='baseline'><strong>Jonathan</strong><p>Choose number of points to send.</font><div class='respPicDiv'><img src='img/responseButtonOffersNo0L5.png' class='respPic'></div></div>","null","3","Jonathan","8","Shared","0.8,0.2","8","0.8","trustrating_stim/white_00898_960530_fa_edt.bmp","8.5","46","8"
"html-keyboard-response","160","316096","0.0-19.0-3.7","5cd10012174fc60016c10ffd","bdp_trlrn","Sat Apr 08 2023 12:42:25 GMT-0400 (Eastern Daylight Time)","662909","Untrustworthy,Trustworthy","","null","","","","feedback","","<div class='trialDiv'><img src='trustrating_stim/white_00898_960530_fa_edt.bmp'><br><font class='baseline'><strong>Jonathan</strong><p>Received: <strong>20</strong></font> &nbsp; &nbsp; &nbsp; &nbsp; &nbsp; &nbsp;<font class='posOutcome'>Shared back: <strong>10</strong></font></font><div class='respPicDiv'><img src='img/responseButtonOffersNo0_wht.png' class='respPic'></div></div>","null","3","Jonathan","8","Shared","0.8,0.2","8","0.8","trustrating_stim/white_00898_960530_fa_edt.bmp","8.5","56","8"
"html-keyboard-response","161","316802","0.0-19.0-1.8","5cd10012174fc60016c10ffd","bdp_trlrn","Sat Apr 08 2023 12:42:25 GMT-0400 (Eastern Daylight Time)","662909","Untrustworthy,Trustworthy","","703","","","","decision","","<div class='trialDiv'><img src='trustrating_stim/white_00299_940422_fa_edt.bmp'><br><font class='baseline'><strong>Benjamin</strong><p>Choose number of points to send.</font><div class='respPicDiv'><img src='img/responseButtonOffersNo0L.png' class='respPic'></div></div>","5","3","Benjamin","7","Kept","0.65,0.2","9","0.65","trustrating_stim/white_00299_940422_fa_edt.bmp","6","61","9"
"html-keyboard-response","162","317067","0.0-19.0-2.8","5cd10012174fc60016c10ffd","bdp_trlrn","Sat Apr 08 2023 12:42:25 GMT-0400 (Eastern Daylight Time)","662909","Untrustworthy,Trustworthy","","null","","","","decisionFB","","<div class='trialDiv'><img src='trustrating_stim/white_00299_940422_fa_edt.bmp'><br><font class='baseline'><strong>Benjamin</strong><p>Choose number of points to send.</font><div class='respPicDiv'><img src='img/responseButtonOffersNo0L5.png' class='respPic'></div></div>","null","3","Benjamin","7","Kept","0.65,0.2","9","0.65","trustrating_stim/white_00299_940422_fa_edt.bmp","6","56","9"
"html-keyboard-response","163","318081","0.0-19.0-3.8","5cd10012174fc60016c10ffd","bdp_trlrn","Sat Apr 08 2023 12:42:25 GMT-0400 (Eastern Daylight Time)","662909","Untrustworthy,Trustworthy","","null","","","","feedback","","<div class='trialDiv'><img src='trustrating_stim/white_00299_940422_fa_edt.bmp'><br><font class='baseline'><strong>Benjamin</strong><p>Received: <strong>20</strong></font> &nbsp; &nbsp; &nbsp; &nbsp; &nbsp; &nbsp;<font class='negOutcome'>Shared back: <strong>0</strong></font></font><div class='respPicDiv'><img src='img/responseButtonOffersNo0_wht.png' class='respPic'></div></div>","null","3","Benjamin","7","Kept","0.65,0.2","9","0.65","trustrating_stim/white_00299_940422_fa_edt.bmp","6","56","9"
"html-keyboard-response","164","319357","0.0-19.0-1.9","5cd10012174fc60016c10ffd","bdp_trlrn","Sat Apr 08 2023 12:42:25 GMT-0400 (Eastern Daylight Time)","662909","Untrustworthy,Trustworthy","","1273","","","","decision","","<div class='trialDiv'><img src='trustrating_stim/white_00898_960530_fa_edt.bmp'><br><font class='baseline'><strong>Jonathan</strong><p>Choose number of points to send.</font><div class='respPicDiv'><img src='img/responseButtonOffersNo0L.png' class='respPic'></div></div>","5","4","Jonathan","8","Shared","0.8,0.2","8","0.8","trustrating_stim/white_00898_960530_fa_edt.bmp","8.5","61","10"
"html-keyboard-response","165","319612","0.0-19.0-2.9","5cd10012174fc60016c10ffd","bdp_trlrn","Sat Apr 08 2023 12:42:25 GMT-0400 (Eastern Daylight Time)","662909","Untrustworthy,Trustworthy","","null","","","","decisionFB","","<div class='trialDiv'><img src='trustrating_stim/white_00898_960530_fa_edt.bmp'><br><font class='baseline'><strong>Jonathan</strong><p>Choose number of points to send.</font><div class='respPicDiv'><img src='img/responseButtonOffersNo0L5.png' class='respPic'></div></div>","null","4","Jonathan","8","Shared","0.8,0.2","8","0.8","trustrating_stim/white_00898_960530_fa_edt.bmp","8.5","56","10"
"html-keyboard-response","166","320643","0.0-19.0-3.9","5cd10012174fc60016c10ffd","bdp_trlrn","Sat Apr 08 2023 12:42:25 GMT-0400 (Eastern Daylight Time)","662909","Untrustworthy,Trustworthy","","null","","","","feedback","","<div class='trialDiv'><img src='trustrating_stim/white_00898_960530_fa_edt.bmp'><br><font class='baseline'><strong>Jonathan</strong><p>Received: <strong>20</strong></font> &nbsp; &nbsp; &nbsp; &nbsp; &nbsp; &nbsp;<font class='posOutcome'>Shared back: <strong>10</strong></font></font><div class='respPicDiv'><img src='img/responseButtonOffersNo0_wht.png' class='respPic'></div></div>","null","4","Jonathan","8","Shared","0.8,0.2","8","0.8","trustrating_stim/white_00898_960530_fa_edt.bmp","8.5","66","10"
"html-keyboard-response","167","321717","0.0-19.0-1.10","5cd10012174fc60016c10ffd","bdp_trlrn","Sat Apr 08 2023 12:42:25 GMT-0400 (Eastern Daylight Time)","662909","Untrustworthy,Trustworthy","","1070","","","","decision","","<div class='trialDiv'><img src='trustrating_stim/white_00299_940422_fa_edt.bmp'><br><font class='baseline'><strong>Benjamin</strong><p>Choose number of points to send.</font><div class='respPicDiv'><img src='img/responseButtonOffersNo0L.png' class='respPic'></div></div>","3","4","Benjamin","7","Kept","0.65,0.2","9","0.65","trustrating_stim/white_00299_940422_fa_edt.bmp","6","71","11"
"html-keyboard-response","168","321975","0.0-19.0-2.10","5cd10012174fc60016c10ffd","bdp_trlrn","Sat Apr 08 2023 12:42:25 GMT-0400 (Eastern Daylight Time)","662909","Untrustworthy,Trustworthy","","null","","","","decisionFB","","<div class='trialDiv'><img src='trustrating_stim/white_00299_940422_fa_edt.bmp'><br><font class='baseline'><strong>Benjamin</strong><p>Choose number of points to send.</font><div class='respPicDiv'><img src='img/responseButtonOffersNo0L3.png' class='respPic'></div></div>","null","4","Benjamin","7","Kept","0.65,0.2","9","0.65","trustrating_stim/white_00299_940422_fa_edt.bmp","6","68","11"
"html-keyboard-response","169","322989","0.0-19.0-3.10","5cd10012174fc60016c10ffd","bdp_trlrn","Sat Apr 08 2023 12:42:25 GMT-0400 (Eastern Daylight Time)","662909","Untrustworthy,Trustworthy","","null","","","","feedback","","<div class='trialDiv'><img src='trustrating_stim/white_00299_940422_fa_edt.bmp'><br><font class='baseline'><strong>Benjamin</strong><p>Received: <strong>12</strong></font> &nbsp; &nbsp; &nbsp; &nbsp; &nbsp; &nbsp;<font class='negOutcome'>Shared back: <strong>0</strong></font></font><div class='respPicDiv'><img src='img/responseButtonOffersNo0_wht.png' class='respPic'></div></div>","null","4","Benjamin","7","Kept","0.65,0.2","9","0.65","trustrating_stim/white_00299_940422_fa_edt.bmp","6","68","11"
"html-keyboard-response","170","324065","0.0-19.0-1.11","5cd10012174fc60016c10ffd","bdp_trlrn","Sat Apr 08 2023 12:42:25 GMT-0400 (Eastern Daylight Time)","662909","Untrustworthy,Trustworthy","","1073","","","","decision","","<div class='trialDiv'><img src='trustrating_stim/white_mw060.bmp'><br><font class='baseline'><strong>Timothy</strong><p>Choose number of points to send.</font><div class='respPicDiv'><img src='img/responseButtonOffersNo0L.png' class='respPic'></div></div>","1","4","Timothy","1","Shared","0.2,0.65","13","0.2","trustrating_stim/white_mw060.bmp","1","73","12"
"html-keyboard-response","171","324318","0.0-19.0-2.11","5cd10012174fc60016c10ffd","bdp_trlrn","Sat Apr 08 2023 12:42:25 GMT-0400 (Eastern Daylight Time)","662909","Untrustworthy,Trustworthy","","null","","","","decisionFB","","<div class='trialDiv'><img src='trustrating_stim/white_mw060.bmp'><br><font class='baseline'><strong>Timothy</strong><p>Choose number of points to send.</font><div class='respPicDiv'><img src='img/responseButtonOffersNo0L1.png' class='respPic'></div></div>","null","4","Timothy","1","Shared","0.2,0.65","13","0.2","trustrating_stim/white_mw060.bmp","1","72","12"
"html-keyboard-response","172","325334","0.0-19.0-3.11","5cd10012174fc60016c10ffd","bdp_trlrn","Sat Apr 08 2023 12:42:25 GMT-0400 (Eastern Daylight Time)","662909","Untrustworthy,Trustworthy","","null","","","","feedback","","<div class='trialDiv'><img src='trustrating_stim/white_mw060.bmp'><br><font class='baseline'><strong>Timothy</strong><p>Received: <strong>4</strong></font> &nbsp; &nbsp; &nbsp; &nbsp; &nbsp; &nbsp;<font class='posOutcome'>Shared back: <strong>2</strong></font></font><div class='respPicDiv'><img src='img/responseButtonOffersNo0_wht.png' class='respPic'></div></div>","null","4","Timothy","1","Shared","0.2,0.65","13","0.2","trustrating_stim/white_mw060.bmp","1","74","12"
"html-keyboard-response","173","326370","0.0-19.0-1.12","5cd10012174fc60016c10ffd","bdp_trlrn","Sat Apr 08 2023 12:42:25 GMT-0400 (Eastern Daylight Time)","662909","Untrustworthy,Trustworthy","","1032","","","","decision","","<div class='trialDiv'><img src='trustrating_stim/white_00898_960530_fa_edt.bmp'><br><font class='baseline'><strong>Jonathan</strong><p>Choose number of points to send.</font><div class='respPicDiv'><img src='img/responseButtonOffersNo0L.png' class='respPic'></div></div>","5","5","Jonathan","8","Shared","0.8,0.2","8","0.8","trustrating_stim/white_00898_960530_fa_edt.bmp","8.5","79","13"
"html-keyboard-response","174","326631","0.0-19.0-2.12","5cd10012174fc60016c10ffd","bdp_trlrn","Sat Apr 08 2023 12:42:25 GMT-0400 (Eastern Daylight Time)","662909","Untrustworthy,Trustworthy","","null","","","","decisionFB","","<div class='trialDiv'><img src='trustrating_stim/white_00898_960530_fa_edt.bmp'><br><font class='baseline'><strong>Jonathan</strong><p>Choose number of points to send.</font><div class='respPicDiv'><img src='img/responseButtonOffersNo0L5.png' class='respPic'></div></div>","null","5","Jonathan","8","Shared","0.8,0.2","8","0.8","trustrating_stim/white_00898_960530_fa_edt.bmp","8.5","74","13"
"html-keyboard-response","175","327662","0.0-19.0-3.12","5cd10012174fc60016c10ffd","bdp_trlrn","Sat Apr 08 2023 12:42:25 GMT-0400 (Eastern Daylight Time)","662909","Untrustworthy,Trustworthy","","null","","","","feedback","","<div class='trialDiv'><img src='trustrating_stim/white_00898_960530_fa_edt.bmp'><br><font class='baseline'><strong>Jonathan</strong><p>Received: <strong>20</strong></font> &nbsp; &nbsp; &nbsp; &nbsp; &nbsp; &nbsp;<font class='posOutcome'>Shared back: <strong>10</strong></font></font><div class='respPicDiv'><img src='img/responseButtonOffersNo0_wht.png' class='respPic'></div></div>","null","5","Jonathan","8","Shared","0.8,0.2","8","0.8","trustrating_stim/white_00898_960530_fa_edt.bmp","8.5","84","13"
"html-keyboard-response","176","328638","0.0-19.0-1.13","5cd10012174fc60016c10ffd","bdp_trlrn","Sat Apr 08 2023 12:42:25 GMT-0400 (Eastern Daylight Time)","662909","Untrustworthy,Trustworthy","","973","","","","decision","","<div class='trialDiv'><img src='trustrating_stim/white_mw060.bmp'><br><font class='baseline'><strong>Timothy</strong><p>Choose number of points to send.</font><div class='respPicDiv'><img src='img/responseButtonOffersNo0L.png' class='respPic'></div></div>","2","5","Timothy","1","Kept","0.2,0.65","13","0.2","trustrating_stim/white_mw060.bmp","1","89","14"
"html-keyboard-response","177","328898","0.0-19.0-2.13","5cd10012174fc60016c10ffd","bdp_trlrn","Sat Apr 08 2023 12:42:25 GMT-0400 (Eastern Daylight Time)","662909","Untrustworthy,Trustworthy","","null","","","","decisionFB","","<div class='trialDiv'><img src='trustrating_stim/white_mw060.bmp'><br><font class='baseline'><strong>Timothy</strong><p>Choose number of points to send.</font><div class='respPicDiv'><img src='img/responseButtonOffersNo0L2.png' class='respPic'></div></div>","null","5","Timothy","1","Kept","0.2,0.65","13","0.2","trustrating_stim/white_mw060.bmp","1","87","14"
"html-keyboard-response","178","329913","0.0-19.0-3.13","5cd10012174fc60016c10ffd","bdp_trlrn","Sat Apr 08 2023 12:42:25 GMT-0400 (Eastern Daylight Time)","662909","Untrustworthy,Trustworthy","","null","","","","feedback","","<div class='trialDiv'><img src='trustrating_stim/white_mw060.bmp'><br><font class='baseline'><strong>Timothy</strong><p>Received: <strong>8</strong></font> &nbsp; &nbsp; &nbsp; &nbsp; &nbsp; &nbsp;<font class='negOutcome'>Shared back: <strong>0</strong></font></font><div class='respPicDiv'><img src='img/responseButtonOffersNo0_wht.png' class='respPic'></div></div>","null","5","Timothy","1","Kept","0.2,0.65","13","0.2","trustrating_stim/white_mw060.bmp","1","87","14"
"html-keyboard-response","179","331190","0.0-19.0-1.14","5cd10012174fc60016c10ffd","bdp_trlrn","Sat Apr 08 2023 12:42:25 GMT-0400 (Eastern Daylight Time)","662909","Untrustworthy,Trustworthy","","1274","","","","decision","","<div class='trialDiv'><img src='trustrating_stim/white_00299_940422_fa_edt.bmp'><br><font class='baseline'><strong>Benjamin</strong><p>Choose number of points to send.</font><div class='respPicDiv'><img src='img/responseButtonOffersNo0L.png' class='respPic'></div></div>","3","5","Benjamin","7","Shared","0.65,0.2","9","0.65","trustrating_stim/white_00299_940422_fa_edt.bmp","6","92","15"
"html-keyboard-response","180","331446","0.0-19.0-2.14","5cd10012174fc60016c10ffd","bdp_trlrn","Sat Apr 08 2023 12:42:25 GMT-0400 (Eastern Daylight Time)","662909","Untrustworthy,Trustworthy","","null","","","","decisionFB","","<div class='trialDiv'><img src='trustrating_stim/white_00299_940422_fa_edt.bmp'><br><font class='baseline'><strong>Benjamin</strong><p>Choose number of points to send.</font><div class='respPicDiv'><img src='img/responseButtonOffersNo0L3.png' class='respPic'></div></div>","null","5","Benjamin","7","Shared","0.65,0.2","9","0.65","trustrating_stim/white_00299_940422_fa_edt.bmp","6","89","15"
"html-keyboard-response","181","332460","0.0-19.0-3.14","5cd10012174fc60016c10ffd","bdp_trlrn","Sat Apr 08 2023 12:42:25 GMT-0400 (Eastern Daylight Time)","662909","Untrustworthy,Trustworthy","","null","","","","feedback","","<div class='trialDiv'><img src='trustrating_stim/white_00299_940422_fa_edt.bmp'><br><font class='baseline'><strong>Benjamin</strong><p>Received: <strong>12</strong></font> &nbsp; &nbsp; &nbsp; &nbsp; &nbsp; &nbsp;<font class='posOutcome'>Shared back: <strong>6</strong></font></font><div class='respPicDiv'><img src='img/responseButtonOffersNo0_wht.png' class='respPic'></div></div>","null","5","Benjamin","7","Shared","0.65,0.2","9","0.65","trustrating_stim/white_00299_940422_fa_edt.bmp","6","95","15"
"html-keyboard-response","182","333212","0.0-19.0-1.15","5cd10012174fc60016c10ffd","bdp_trlrn","Sat Apr 08 2023 12:42:25 GMT-0400 (Eastern Daylight Time)","662909","Untrustworthy,Trustworthy","","748","","","","decision","","<div class='trialDiv'><img src='trustrating_stim/white_00898_960530_fa_edt.bmp'><br><font class='baseline'><strong>Jonathan</strong><p>Choose number of points to send.</font><div class='respPicDiv'><img src='img/responseButtonOffersNo0L.png' class='respPic'></div></div>","5","6","Jonathan","8","Shared","0.8,0.2","8","0.8","trustrating_stim/white_00898_960530_fa_edt.bmp","8.5","100","16"
"html-keyboard-response","183","333476","0.0-19.0-2.15","5cd10012174fc60016c10ffd","bdp_trlrn","Sat Apr 08 2023 12:42:25 GMT-0400 (Eastern Daylight Time)","662909","Untrustworthy,Trustworthy","","null","","","","decisionFB","","<div class='trialDiv'><img src='trustrating_stim/white_00898_960530_fa_edt.bmp'><br><font class='baseline'><strong>Jonathan</strong><p>Choose number of points to send.</font><div class='respPicDiv'><img src='img/responseButtonOffersNo0L5.png' class='respPic'></div></div>","null","6","Jonathan","8","Shared","0.8,0.2","8","0.8","trustrating_stim/white_00898_960530_fa_edt.bmp","8.5","95","16"
"html-keyboard-response","184","334492","0.0-19.0-3.15","5cd10012174fc60016c10ffd","bdp_trlrn","Sat Apr 08 2023 12:42:25 GMT-0400 (Eastern Daylight Time)","662909","Untrustworthy,Trustworthy","","null","","","","feedback","","<div class='trialDiv'><img src='trustrating_stim/white_00898_960530_fa_edt.bmp'><br><font class='baseline'><strong>Jonathan</strong><p>Received: <strong>20</strong></font> &nbsp; &nbsp; &nbsp; &nbsp; &nbsp; &nbsp;<font class='posOutcome'>Shared back: <strong>10</strong></font></font><div class='respPicDiv'><img src='img/responseButtonOffersNo0_wht.png' class='respPic'></div></div>","null","6","Jonathan","8","Shared","0.8,0.2","8","0.8","trustrating_stim/white_00898_960530_fa_edt.bmp","8.5","105","16"
"html-keyboard-response","185","335634","0.0-19.0-1.16","5cd10012174fc60016c10ffd","bdp_trlrn","Sat Apr 08 2023 12:42:25 GMT-0400 (Eastern Daylight Time)","662909","Untrustworthy,Trustworthy","","1139","","","","decision","","<div class='trialDiv'><img src='trustrating_stim/white_mw060.bmp'><br><font class='baseline'><strong>Timothy</strong><p>Choose number of points to send.</font><div class='respPicDiv'><img src='img/responseButtonOffersNo0L.png' class='respPic'></div></div>","1","6","Timothy","1","Shared","0.2,0.65","13","0.2","trustrating_stim/white_mw060.bmp","1","110","17"
"html-keyboard-response","186","335899","0.0-19.0-2.16","5cd10012174fc60016c10ffd","bdp_trlrn","Sat Apr 08 2023 12:42:25 GMT-0400 (Eastern Daylight Time)","662909","Untrustworthy,Trustworthy","","null","","","","decisionFB","","<div class='trialDiv'><img src='trustrating_stim/white_mw060.bmp'><br><font class='baseline'><strong>Timothy</strong><p>Choose number of points to send.</font><div class='respPicDiv'><img src='img/responseButtonOffersNo0L1.png' class='respPic'></div></div>","null","6","Timothy","1","Shared","0.2,0.65","13","0.2","trustrating_stim/white_mw060.bmp","1","109","17"
"html-keyboard-response","187","336915","0.0-19.0-3.16","5cd10012174fc60016c10ffd","bdp_trlrn","Sat Apr 08 2023 12:42:25 GMT-0400 (Eastern Daylight Time)","662909","Untrustworthy,Trustworthy","","null","","","","feedback","","<div class='trialDiv'><img src='trustrating_stim/white_mw060.bmp'><br><font class='baseline'><strong>Timothy</strong><p>Received: <strong>4</strong></font> &nbsp; &nbsp; &nbsp; &nbsp; &nbsp; &nbsp;<font class='posOutcome'>Shared back: <strong>2</strong></font></font><div class='respPicDiv'><img src='img/responseButtonOffersNo0_wht.png' class='respPic'></div></div>","null","6","Timothy","1","Shared","0.2,0.65","13","0.2","trustrating_stim/white_mw060.bmp","1","111","17"
"html-keyboard-response","188","338460","0.0-19.0-1.17","5cd10012174fc60016c10ffd","bdp_trlrn","Sat Apr 08 2023 12:42:25 GMT-0400 (Eastern Daylight Time)","662909","Untrustworthy,Trustworthy","","1542","","","","decision","","<div class='trialDiv'><img src='trustrating_stim/white_00299_940422_fa_edt.bmp'><br><font class='baseline'><strong>Benjamin</strong><p>Choose number of points to send.</font><div class='respPicDiv'><img src='img/responseButtonOffersNo0L.png' class='respPic'></div></div>","2","6","Benjamin","7","Shared","0.65,0.2","9","0.65","trustrating_stim/white_00299_940422_fa_edt.bmp","6","116","18"
"html-keyboard-response","189","338728","0.0-19.0-2.17","5cd10012174fc60016c10ffd","bdp_trlrn","Sat Apr 08 2023 12:42:25 GMT-0400 (Eastern Daylight Time)","662909","Untrustworthy,Trustworthy","","null","","","","decisionFB","","<div class='trialDiv'><img src='trustrating_stim/white_00299_940422_fa_edt.bmp'><br><font class='baseline'><strong>Benjamin</strong><p>Choose number of points to send.</font><div class='respPicDiv'><img src='img/responseButtonOffersNo0L2.png' class='respPic'></div></div>","null","6","Benjamin","7","Shared","0.65,0.2","9","0.65","trustrating_stim/white_00299_940422_fa_edt.bmp","6","114","18"
"html-keyboard-response","190","339743","0.0-19.0-3.17","5cd10012174fc60016c10ffd","bdp_trlrn","Sat Apr 08 2023 12:42:25 GMT-0400 (Eastern Daylight Time)","662909","Untrustworthy,Trustworthy","","null","","","","feedback","","<div class='trialDiv'><img src='trustrating_stim/white_00299_940422_fa_edt.bmp'><br><font class='baseline'><strong>Benjamin</strong><p>Received: <strong>8</strong></font> &nbsp; &nbsp; &nbsp; &nbsp; &nbsp; &nbsp;<font class='posOutcome'>Shared back: <strong>4</strong></font></font><div class='respPicDiv'><img src='img/responseButtonOffersNo0_wht.png' class='respPic'></div></div>","null","6","Benjamin","7","Shared","0.65,0.2","9","0.65","trustrating_stim/white_00299_940422_fa_edt.bmp","6","118","18"
"html-keyboard-response","191","340857","0.0-19.0-1.18","5cd10012174fc60016c10ffd","bdp_trlrn","Sat Apr 08 2023 12:42:25 GMT-0400 (Eastern Daylight Time)","662909","Untrustworthy,Trustworthy","","1110","","","","decision","","<div class='trialDiv'><img src='trustrating_stim/white_mw060.bmp'><br><font class='baseline'><strong>Timothy</strong><p>Choose number of points to send.</font><div class='respPicDiv'><img src='img/responseButtonOffersNo0L.png' class='respPic'></div></div>","1","7","Timothy","1","Kept","0.2,0.65","13","0.2","trustrating_stim/white_mw060.bmp","1","123","19"
"html-keyboard-response","192","341119","0.0-19.0-2.18","5cd10012174fc60016c10ffd","bdp_trlrn","Sat Apr 08 2023 12:42:25 GMT-0400 (Eastern Daylight Time)","662909","Untrustworthy,Trustworthy","","null","","","","decisionFB","","<div class='trialDiv'><img src='trustrating_stim/white_mw060.bmp'><br><font class='baseline'><strong>Timothy</strong><p>Choose number of points to send.</font><div class='respPicDiv'><img src='img/responseButtonOffersNo0L1.png' class='respPic'></div></div>","null","7","Timothy","1","Kept","0.2,0.65","13","0.2","trustrating_stim/white_mw060.bmp","1","122","19"
"html-keyboard-response","193","342135","0.0-19.0-3.18","5cd10012174fc60016c10ffd","bdp_trlrn","Sat Apr 08 2023 12:42:25 GMT-0400 (Eastern Daylight Time)","662909","Untrustworthy,Trustworthy","","null","","","","feedback","","<div class='trialDiv'><img src='trustrating_stim/white_mw060.bmp'><br><font class='baseline'><strong>Timothy</strong><p>Received: <strong>4</strong></font> &nbsp; &nbsp; &nbsp; &nbsp; &nbsp; &nbsp;<font class='negOutcome'>Shared back: <strong>0</strong></font></font><div class='respPicDiv'><img src='img/responseButtonOffersNo0_wht.png' class='respPic'></div></div>","null","7","Timothy","1","Kept","0.2,0.65","13","0.2","trustrating_stim/white_mw060.bmp","1","122","19"
"html-keyboard-response","194","343394","0.0-19.0-1.19","5cd10012174fc60016c10ffd","bdp_trlrn","Sat Apr 08 2023 12:42:25 GMT-0400 (Eastern Daylight Time)","662909","Untrustworthy,Trustworthy","","1256","","","","decision","","<div class='trialDiv'><img src='trustrating_stim/white_00299_940422_fa_edt.bmp'><br><font class='baseline'><strong>Benjamin</strong><p>Choose number of points to send.</font><div class='respPicDiv'><img src='img/responseButtonOffersNo0L.png' class='respPic'></div></div>","3","7","Benjamin","7","Shared","0.65,0.2","9","0.65","trustrating_stim/white_00299_940422_fa_edt.bmp","6","127","20"
"html-keyboard-response","195","343652","0.0-19.0-2.19","5cd10012174fc60016c10ffd","bdp_trlrn","Sat Apr 08 2023 12:42:25 GMT-0400 (Eastern Daylight Time)","662909","Untrustworthy,Trustworthy","","null","","","","decisionFB","","<div class='trialDiv'><img src='trustrating_stim/white_00299_940422_fa_edt.bmp'><br><font class='baseline'><strong>Benjamin</strong><p>Choose number of points to send.</font><div class='respPicDiv'><img src='img/responseButtonOffersNo0L3.png' class='respPic'></div></div>","null","7","Benjamin","7","Shared","0.65,0.2","9","0.65","trustrating_stim/white_00299_940422_fa_edt.bmp","6","124","20"
"html-keyboard-response","196","344667","0.0-19.0-3.19","5cd10012174fc60016c10ffd","bdp_trlrn","Sat Apr 08 2023 12:42:25 GMT-0400 (Eastern Daylight Time)","662909","Untrustworthy,Trustworthy","","null","","","","feedback","","<div class='trialDiv'><img src='trustrating_stim/white_00299_940422_fa_edt.bmp'><br><font class='baseline'><strong>Benjamin</strong><p>Received: <strong>12</strong></font> &nbsp; &nbsp; &nbsp; &nbsp; &nbsp; &nbsp;<font class='posOutcome'>Shared back: <strong>6</strong></font></font><div class='respPicDiv'><img src='img/responseButtonOffersNo0_wht.png' class='respPic'></div></div>","null","7","Benjamin","7","Shared","0.65,0.2","9","0.65","trustrating_stim/white_00299_940422_fa_edt.bmp","6","130","20"
"html-keyboard-response","197","345309","0.0-19.0-1.20","5cd10012174fc60016c10ffd","bdp_trlrn","Sat Apr 08 2023 12:42:25 GMT-0400 (Eastern Daylight Time)","662909","Untrustworthy,Trustworthy","","639","","","","decision","","<div class='trialDiv'><img src='trustrating_stim/white_00898_960530_fa_edt.bmp'><br><font class='baseline'><strong>Jonathan</strong><p>Choose number of points to send.</font><div class='respPicDiv'><img src='img/responseButtonOffersNo0L.png' class='respPic'></div></div>","5","7","Jonathan","8","Shared","0.8,0.2","8","0.8","trustrating_stim/white_00898_960530_fa_edt.bmp","8.5","135","21"
"html-keyboard-response","198","345574","0.0-19.0-2.20","5cd10012174fc60016c10ffd","bdp_trlrn","Sat Apr 08 2023 12:42:25 GMT-0400 (Eastern Daylight Time)","662909","Untrustworthy,Trustworthy","","null","","","","decisionFB","","<div class='trialDiv'><img src='trustrating_stim/white_00898_960530_fa_edt.bmp'><br><font class='baseline'><strong>Jonathan</strong><p>Choose number of points to send.</font><div class='respPicDiv'><img src='img/responseButtonOffersNo0L5.png' class='respPic'></div></div>","null","7","Jonathan","8","Shared","0.8,0.2","8","0.8","trustrating_stim/white_00898_960530_fa_edt.bmp","8.5","130","21"
"html-keyboard-response","199","346589","0.0-19.0-3.20","5cd10012174fc60016c10ffd","bdp_trlrn","Sat Apr 08 2023 12:42:25 GMT-0400 (Eastern Daylight Time)","662909","Untrustworthy,Trustworthy","","null","","","","feedback","","<div class='trialDiv'><img src='trustrating_stim/white_00898_960530_fa_edt.bmp'><br><font class='baseline'><strong>Jonathan</strong><p>Received: <strong>20</strong></font> &nbsp; &nbsp; &nbsp; &nbsp; &nbsp; &nbsp;<font class='posOutcome'>Shared back: <strong>10</strong></font></font><div class='respPicDiv'><img src='img/responseButtonOffersNo0_wht.png' class='respPic'></div></div>","null","7","Jonathan","8","Shared","0.8,0.2","8","0.8","trustrating_stim/white_00898_960530_fa_edt.bmp","8.5","140","21"
"html-keyboard-response","200","347766","0.0-19.0-1.21","5cd10012174fc60016c10ffd","bdp_trlrn","Sat Apr 08 2023 12:42:25 GMT-0400 (Eastern Daylight Time)","662909","Untrustworthy,Trustworthy","","1173","","","","decision","","<div class='trialDiv'><img src='trustrating_stim/white_00299_940422_fa_edt.bmp'><br><font class='baseline'><strong>Benjamin</strong><p>Choose number of points to send.</font><div class='respPicDiv'><img src='img/responseButtonOffersNo0L.png' class='respPic'></div></div>","2","8","Benjamin","7","Kept","0.65,0.2","9","0.65","trustrating_stim/white_00299_940422_fa_edt.bmp","6","145","22"
"html-keyboard-response","201","348027","0.0-19.0-2.21","5cd10012174fc60016c10ffd","bdp_trlrn","Sat Apr 08 2023 12:42:25 GMT-0400 (Eastern Daylight Time)","662909","Untrustworthy,Trustworthy","","null","","","","decisionFB","","<div class='trialDiv'><img src='trustrating_stim/white_00299_940422_fa_edt.bmp'><br><font class='baseline'><strong>Benjamin</strong><p>Choose number of points to send.</font><div class='respPicDiv'><img src='img/responseButtonOffersNo0L2.png' class='respPic'></div></div>","null","8","Benjamin","7","Kept","0.65,0.2","9","0.65","trustrating_stim/white_00299_940422_fa_edt.bmp","6","143","22"
"html-keyboard-response","202","349042","0.0-19.0-3.21","5cd10012174fc60016c10ffd","bdp_trlrn","Sat Apr 08 2023 12:42:25 GMT-0400 (Eastern Daylight Time)","662909","Untrustworthy,Trustworthy","","null","","","","feedback","","<div class='trialDiv'><img src='trustrating_stim/white_00299_940422_fa_edt.bmp'><br><font class='baseline'><strong>Benjamin</strong><p>Received: <strong>8</strong></font> &nbsp; &nbsp; &nbsp; &nbsp; &nbsp; &nbsp;<font class='negOutcome'>Shared back: <strong>0</strong></font></font><div class='respPicDiv'><img src='img/responseButtonOffersNo0_wht.png' class='respPic'></div></div>","null","8","Benjamin","7","Kept","0.65,0.2","9","0.65","trustrating_stim/white_00299_940422_fa_edt.bmp","6","143","22"
"html-keyboard-response","203","349792","0.0-19.0-1.22","5cd10012174fc60016c10ffd","bdp_trlrn","Sat Apr 08 2023 12:42:25 GMT-0400 (Eastern Daylight Time)","662909","Untrustworthy,Trustworthy","","746","","","","decision","","<div class='trialDiv'><img src='trustrating_stim/white_00898_960530_fa_edt.bmp'><br><font class='baseline'><strong>Jonathan</strong><p>Choose number of points to send.</font><div class='respPicDiv'><img src='img/responseButtonOffersNo0L.png' class='respPic'></div></div>","5","8","Jonathan","8","Kept","0.8,0.2","8","0.8","trustrating_stim/white_00898_960530_fa_edt.bmp","8.5","148","23"
"html-keyboard-response","204","350059","0.0-19.0-2.22","5cd10012174fc60016c10ffd","bdp_trlrn","Sat Apr 08 2023 12:42:25 GMT-0400 (Eastern Daylight Time)","662909","Untrustworthy,Trustworthy","","null","","","","decisionFB","","<div class='trialDiv'><img src='trustrating_stim/white_00898_960530_fa_edt.bmp'><br><font class='baseline'><strong>Jonathan</strong><p>Choose number of points to send.</font><div class='respPicDiv'><img src='img/responseButtonOffersNo0L5.png' class='respPic'></div></div>","null","8","Jonathan","8","Kept","0.8,0.2","8","0.8","trustrating_stim/white_00898_960530_fa_edt.bmp","8.5","143","23"
"html-keyboard-response","205","351074","0.0-19.0-3.22","5cd10012174fc60016c10ffd","bdp_trlrn","Sat Apr 08 2023 12:42:25 GMT-0400 (Eastern Daylight Time)","662909","Untrustworthy,Trustworthy","","null","","","","feedback","","<div class='trialDiv'><img src='trustrating_stim/white_00898_960530_fa_edt.bmp'><br><font class='baseline'><strong>Jonathan</strong><p>Received: <strong>20</strong></font> &nbsp; &nbsp; &nbsp; &nbsp; &nbsp; &nbsp;<font class='negOutcome'>Shared back: <strong>0</strong></font></font><div class='respPicDiv'><img src='img/responseButtonOffersNo0_wht.png' class='respPic'></div></div>","null","8","Jonathan","8","Kept","0.8,0.2","8","0.8","trustrating_stim/white_00898_960530_fa_edt.bmp","8.5","143","23"
"html-keyboard-response","206","352062","0.0-19.0-1.23","5cd10012174fc60016c10ffd","bdp_trlrn","Sat Apr 08 2023 12:42:25 GMT-0400 (Eastern Daylight Time)","662909","Untrustworthy,Trustworthy","","984","","","","decision","","<div class='trialDiv'><img src='trustrating_stim/white_mw060.bmp'><br><font class='baseline'><strong>Timothy</strong><p>Choose number of points to send.</font><div class='respPicDiv'><img src='img/responseButtonOffersNo0L.png' class='respPic'></div></div>","1","8","Timothy","1","Kept","0.2,0.65","13","0.2","trustrating_stim/white_mw060.bmp","1","148","24"
"html-keyboard-response","207","352325","0.0-19.0-2.23","5cd10012174fc60016c10ffd","bdp_trlrn","Sat Apr 08 2023 12:42:25 GMT-0400 (Eastern Daylight Time)","662909","Untrustworthy,Trustworthy","","null","","","","decisionFB","","<div class='trialDiv'><img src='trustrating_stim/white_mw060.bmp'><br><font class='baseline'><strong>Timothy</strong><p>Choose number of points to send.</font><div class='respPicDiv'><img src='img/responseButtonOffersNo0L1.png' class='respPic'></div></div>","null","8","Timothy","1","Kept","0.2,0.65","13","0.2","trustrating_stim/white_mw060.bmp","1","147","24"
"html-keyboard-response","208","353340","0.0-19.0-3.23","5cd10012174fc60016c10ffd","bdp_trlrn","Sat Apr 08 2023 12:42:25 GMT-0400 (Eastern Daylight Time)","662909","Untrustworthy,Trustworthy","","null","","","","feedback","","<div class='trialDiv'><img src='trustrating_stim/white_mw060.bmp'><br><font class='baseline'><strong>Timothy</strong><p>Received: <strong>4</strong></font> &nbsp; &nbsp; &nbsp; &nbsp; &nbsp; &nbsp;<font class='negOutcome'>Shared back: <strong>0</strong></font></font><div class='respPicDiv'><img src='img/responseButtonOffersNo0_wht.png' class='respPic'></div></div>","null","8","Timothy","1","Kept","0.2,0.65","13","0.2","trustrating_stim/white_mw060.bmp","1","147","24"
"html-keyboard-response","209","354111","0.0-19.0-1.24","5cd10012174fc60016c10ffd","bdp_trlrn","Sat Apr 08 2023 12:42:25 GMT-0400 (Eastern Daylight Time)","662909","Untrustworthy,Trustworthy","","767","","","","decision","","<div class='trialDiv'><img src='trustrating_stim/white_00898_960530_fa_edt.bmp'><br><font class='baseline'><strong>Jonathan</strong><p>Choose number of points to send.</font><div class='respPicDiv'><img src='img/responseButtonOffersNo0L.png' class='respPic'></div></div>","5","9","Jonathan","8","Kept","0.8,0.2","8","0.8","trustrating_stim/white_00898_960530_fa_edt.bmp","8.5","152","25"
"html-keyboard-response","210","354374","0.0-19.0-2.24","5cd10012174fc60016c10ffd","bdp_trlrn","Sat Apr 08 2023 12:42:25 GMT-0400 (Eastern Daylight Time)","662909","Untrustworthy,Trustworthy","","null","","","","decisionFB","","<div class='trialDiv'><img src='trustrating_stim/white_00898_960530_fa_edt.bmp'><br><font class='baseline'><strong>Jonathan</strong><p>Choose number of points to send.</font><div class='respPicDiv'><img src='img/responseButtonOffersNo0L5.png' class='respPic'></div></div>","null","9","Jonathan","8","Kept","0.8,0.2","8","0.8","trustrating_stim/white_00898_960530_fa_edt.bmp","8.5","147","25"
"html-keyboard-response","211","355389","0.0-19.0-3.24","5cd10012174fc60016c10ffd","bdp_trlrn","Sat Apr 08 2023 12:42:25 GMT-0400 (Eastern Daylight Time)","662909","Untrustworthy,Trustworthy","","null","","","","feedback","","<div class='trialDiv'><img src='trustrating_stim/white_00898_960530_fa_edt.bmp'><br><font class='baseline'><strong>Jonathan</strong><p>Received: <strong>20</strong></font> &nbsp; &nbsp; &nbsp; &nbsp; &nbsp; &nbsp;<font class='negOutcome'>Shared back: <strong>0</strong></font></font><div class='respPicDiv'><img src='img/responseButtonOffersNo0_wht.png' class='respPic'></div></div>","null","9","Jonathan","8","Kept","0.8,0.2","8","0.8","trustrating_stim/white_00898_960530_fa_edt.bmp","8.5","147","25"
"html-keyboard-response","212","356259","0.0-19.0-1.25","5cd10012174fc60016c10ffd","bdp_trlrn","Sat Apr 08 2023 12:42:25 GMT-0400 (Eastern Daylight Time)","662909","Untrustworthy,Trustworthy","","868","","","","decision","","<div class='trialDiv'><img src='trustrating_stim/white_mw060.bmp'><br><font class='baseline'><strong>Timothy</strong><p>Choose number of points to send.</font><div class='respPicDiv'><img src='img/responseButtonOffersNo0L.png' class='respPic'></div></div>","1","9","Timothy","1","Kept","0.2,0.65","13","0.2","trustrating_stim/white_mw060.bmp","1","152","26"
"html-keyboard-response","213","356514","0.0-19.0-2.25","5cd10012174fc60016c10ffd","bdp_trlrn","Sat Apr 08 2023 12:42:25 GMT-0400 (Eastern Daylight Time)","662909","Untrustworthy,Trustworthy","","null","","","","decisionFB","","<div class='trialDiv'><img src='trustrating_stim/white_mw060.bmp'><br><font class='baseline'><strong>Timothy</strong><p>Choose number of points to send.</font><div class='respPicDiv'><img src='img/responseButtonOffersNo0L1.png' class='respPic'></div></div>","null","9","Timothy","1","Kept","0.2,0.65","13","0.2","trustrating_stim/white_mw060.bmp","1","151","26"
"html-keyboard-response","214","357531","0.0-19.0-3.25","5cd10012174fc60016c10ffd","bdp_trlrn","Sat Apr 08 2023 12:42:25 GMT-0400 (Eastern Daylight Time)","662909","Untrustworthy,Trustworthy","","null","","","","feedback","","<div class='trialDiv'><img src='trustrating_stim/white_mw060.bmp'><br><font class='baseline'><strong>Timothy</strong><p>Received: <strong>4</strong></font> &nbsp; &nbsp; &nbsp; &nbsp; &nbsp; &nbsp;<font class='negOutcome'>Shared back: <strong>0</strong></font></font><div class='respPicDiv'><img src='img/responseButtonOffersNo0_wht.png' class='respPic'></div></div>","null","9","Timothy","1","Kept","0.2,0.65","13","0.2","trustrating_stim/white_mw060.bmp","1","151","26"
"html-keyboard-response","215","358614","0.0-19.0-1.26","5cd10012174fc60016c10ffd","bdp_trlrn","Sat Apr 08 2023 12:42:25 GMT-0400 (Eastern Daylight Time)","662909","Untrustworthy,Trustworthy","","1080","","","","decision","","<div class='trialDiv'><img src='trustrating_stim/white_00299_940422_fa_edt.bmp'><br><font class='baseline'><strong>Benjamin</strong><p>Choose number of points to send.</font><div class='respPicDiv'><img src='img/responseButtonOffersNo0L.png' class='respPic'></div></div>","3","9","Benjamin","7","Kept","0.65,0.2","9","0.65","trustrating_stim/white_00299_940422_fa_edt.bmp","6","156","27"
"html-keyboard-response","216","358874","0.0-19.0-2.26","5cd10012174fc60016c10ffd","bdp_trlrn","Sat Apr 08 2023 12:42:25 GMT-0400 (Eastern Daylight Time)","662909","Untrustworthy,Trustworthy","","null","","","","decisionFB","","<div class='trialDiv'><img src='trustrating_stim/white_00299_940422_fa_edt.bmp'><br><font class='baseline'><strong>Benjamin</strong><p>Choose number of points to send.</font><div class='respPicDiv'><img src='img/responseButtonOffersNo0L3.png' class='respPic'></div></div>","null","9","Benjamin","7","Kept","0.65,0.2","9","0.65","trustrating_stim/white_00299_940422_fa_edt.bmp","6","153","27"
"html-keyboard-response","217","359906","0.0-19.0-3.26","5cd10012174fc60016c10ffd","bdp_trlrn","Sat Apr 08 2023 12:42:25 GMT-0400 (Eastern Daylight Time)","662909","Untrustworthy,Trustworthy","","null","","","","feedback","","<div class='trialDiv'><img src='trustrating_stim/white_00299_940422_fa_edt.bmp'><br><font class='baseline'><strong>Benjamin</strong><p>Received: <strong>12</strong></font> &nbsp; &nbsp; &nbsp; &nbsp; &nbsp; &nbsp;<font class='negOutcome'>Shared back: <strong>0</strong></font></font><div class='respPicDiv'><img src='img/responseButtonOffersNo0_wht.png' class='respPic'></div></div>","null","9","Benjamin","7","Kept","0.65,0.2","9","0.65","trustrating_stim/white_00299_940422_fa_edt.bmp","6","153","27"
"html-keyboard-response","218","361316","0.0-19.0-1.27","5cd10012174fc60016c10ffd","bdp_trlrn","Sat Apr 08 2023 12:42:25 GMT-0400 (Eastern Daylight Time)","662909","Untrustworthy,Trustworthy","","1406","","","","decision","","<div class='trialDiv'><img src='trustrating_stim/white_mw060.bmp'><br><font class='baseline'><strong>Timothy</strong><p>Choose number of points to send.</font><div class='respPicDiv'><img src='img/responseButtonOffersNo0L.png' class='respPic'></div></div>","2","10","Timothy","1","Kept","0.2,0.65","13","0.2","trustrating_stim/white_mw060.bmp","1","158","28"
"html-keyboard-response","219","361579","0.0-19.0-2.27","5cd10012174fc60016c10ffd","bdp_trlrn","Sat Apr 08 2023 12:42:25 GMT-0400 (Eastern Daylight Time)","662909","Untrustworthy,Trustworthy","","null","","","","decisionFB","","<div class='trialDiv'><img src='trustrating_stim/white_mw060.bmp'><br><font class='baseline'><strong>Timothy</strong><p>Choose number of points to send.</font><div class='respPicDiv'><img src='img/responseButtonOffersNo0L2.png' class='respPic'></div></div>","null","10","Timothy","1","Kept","0.2,0.65","13","0.2","trustrating_stim/white_mw060.bmp","1","156","28"
