"event","trial","time","trialtype","subject_id","task","startTime","totalTime","labels","trial_type","trial_index","time_elapsed","internal_node_id","view_history","rt","success","stimulus","key_press","aground","name","faceID","outcome","agenttype","agentswpt","agentcurrpshare","face","avgRating","point_total","round"
"focus","0","0","focusevent","5de7fd8df31ad27743f8d19f","bdp_trlrn","Thu Jul 28 2022 12:00:08 GMT-0400 (Eastern Daylight Time)","544226","Untrustworthy,Trustworthy","","","","","","","","","","","","","","","","","","","",""
"","","","","5de7fd8df31ad27743f8d19f","bdp_trlrn","Thu Jul 28 2022 12:00:08 GMT-0400 (Eastern Daylight Time)","544226","Untrustworthy,Trustworthy","pavlovia","0","3","0.0-0.0","","","","","","","","","","","","","","","",""
"","","","","5de7fd8df31ad27743f8d19f","bdp_trlrn","Thu Jul 28 2022 12:00:08 GMT-0400 (Eastern Daylight Time)","544226","Untrustworthy,Trustworthy","instructions","1","3670","0.0-1.0","[{""page_index"":0,""viewing_time"":3667}]","3667","","","","","","","","","","","","","",""
"fullscreenexit","2","6073","fullscreenexit","5de7fd8df31ad27743f8d19f","bdp_trlrn","Thu Jul 28 2022 12:00:08 GMT-0400 (Eastern Daylight Time)","544226","Untrustworthy,Trustworthy","","","","","","","","","","","","","","","","","","","",""
"","","","","5de7fd8df31ad27743f8d19f","bdp_trlrn","Thu Jul 28 2022 12:00:08 GMT-0400 (Eastern Daylight Time)","544226","Untrustworthy,Trustworthy","fullscreen","2","7058","0.0-2.0","","","true","","","","","","","","","","","","",""
"","","","fullscreenfail","5de7fd8df31ad27743f8d19f","bdp_trlrn","Thu Jul 28 2022 12:00:08 GMT-0400 (Eastern Daylight Time)","544226","Untrustworthy,Trustworthy","image-keyboard-response","3","8146","0.0-3.0-0.0","","1086","","","32","","","","","","","","","","",""
"","","","","5de7fd8df31ad27743f8d19f","bdp_trlrn","Thu Jul 28 2022 12:00:08 GMT-0400 (Eastern Daylight Time)","544226","Untrustworthy,Trustworthy","instructions","4","20825","0.0-4.0","[{""page_index"":0,""viewing_time"":7013},{""page_index"":1,""viewing_time"":5414}]","12427","","","","","","","","","","","","","",""
"","","","","5de7fd8df31ad27743f8d19f","bdp_trlrn","Thu Jul 28 2022 12:00:08 GMT-0400 (Eastern Daylight Time)","544226","Untrustworthy,Trustworthy","instructions","5","21648","0.0-5.0","[{""page_index"":0,""viewing_time"":822}]","823","","","","","","","","","","","","","",""
"","","","rating","5de7fd8df31ad27743f8d19f","bdp_trlrn","Thu Jul 28 2022 12:00:08 GMT-0400 (Eastern Daylight Time)","544226","Untrustworthy,Trustworthy","image-keyboard-response","6","23174","0.0-6.0-1.0","","1424","","trustrating_stim/white_mw063.bmp","3","","","","","","","","","","",""
"","","","ratingFB","5de7fd8df31ad27743f8d19f","bdp_trlrn","Thu Jul 28 2022 12:00:08 GMT-0400 (Eastern Daylight Time)","544226","Untrustworthy,Trustworthy","image-keyboard-response","7","23375","0.0-6.0-2.0","","null","","trustrating_stim/white_mw063.bmp","null","","","","","","","","","","",""
"","","","rating","5de7fd8df31ad27743f8d19f","bdp_trlrn","Thu Jul 28 2022 12:00:08 GMT-0400 (Eastern Daylight Time)","544226","Untrustworthy,Trustworthy","image-keyboard-response","8","25000","0.0-6.0-1.1","","1521","","trustrating_stim/white_mw048.bmp","3","","","","","","","","","","",""
"","","","ratingFB","5de7fd8df31ad27743f8d19f","bdp_trlrn","Thu Jul 28 2022 12:00:08 GMT-0400 (Eastern Daylight Time)","544226","Untrustworthy,Trustworthy","image-keyboard-response","9","25201","0.0-6.0-2.1","","null","","trustrating_stim/white_mw048.bmp","null","","","","","","","","","","",""
"","","","rating","5de7fd8df31ad27743f8d19f","bdp_trlrn","Thu Jul 28 2022 12:00:08 GMT-0400 (Eastern Daylight Time)","544226","Untrustworthy,Trustworthy","image-keyboard-response","10","27050","0.0-6.0-1.2","","1744","","trustrating_stim/white_mw033.bmp","4","","","","","","","","","","",""
"","","","ratingFB","5de7fd8df31ad27743f8d19f","bdp_trlrn","Thu Jul 28 2022 12:00:08 GMT-0400 (Eastern Daylight Time)","544226","Untrustworthy,Trustworthy","image-keyboard-response","11","27255","0.0-6.0-2.2","","null","","trustrating_stim/white_mw033.bmp","null","","","","","","","","","","",""
"","","","rating","5de7fd8df31ad27743f8d19f","bdp_trlrn","Thu Jul 28 2022 12:00:08 GMT-0400 (Eastern Daylight Time)","544226","Untrustworthy,Trustworthy","image-keyboard-response","12","29275","0.0-6.0-1.3","","1915","","trustrating_stim/white_00602_940928_fb_edt.bmp","4","","","","","","","","","","",""
"","","","ratingFB","5de7fd8df31ad27743f8d19f","bdp_trlrn","Thu Jul 28 2022 12:00:08 GMT-0400 (Eastern Daylight Time)","544226","Untrustworthy,Trustworthy","image-keyboard-response","13","29476","0.0-6.0-2.3","","null","","trustrating_stim/white_00602_940928_fb_edt.bmp","null","","","","","","","","","","",""
"","","","rating","5de7fd8df31ad27743f8d19f","bdp_trlrn","Thu Jul 28 2022 12:00:08 GMT-0400 (Eastern Daylight Time)","544226","Untrustworthy,Trustworthy","image-keyboard-response","14","31413","0.0-6.0-1.4","","1835","","trustrating_stim/white_00129_931230_fb_edt.bmp","4","","","","","","","","","","",""
"","","","ratingFB","5de7fd8df31ad27743f8d19f","bdp_trlrn","Thu Jul 28 2022 12:00:08 GMT-0400 (Eastern Daylight Time)","544226","Untrustworthy,Trustworthy","image-keyboard-response","15","31615","0.0-6.0-2.4","","null","","trustrating_stim/white_00129_931230_fb_edt.bmp","null","","","","","","","","","","",""
"","","","rating","5de7fd8df31ad27743f8d19f","bdp_trlrn","Thu Jul 28 2022 12:00:08 GMT-0400 (Eastern Daylight Time)","544226","Untrustworthy,Trustworthy","image-keyboard-response","16","33200","0.0-6.0-1.5","","1480","","trustrating_stim/white_00340_940422_fa_edt.bmp","2","","","","","","","","","","",""
"","","","ratingFB","5de7fd8df31ad27743f8d19f","bdp_trlrn","Thu Jul 28 2022 12:00:08 GMT-0400 (Eastern Daylight Time)","544226","Untrustworthy,Trustworthy","image-keyboard-response","17","33403","0.0-6.0-2.5","","null","","trustrating_stim/white_00340_940422_fa_edt.bmp","null","","","","","","","","","","",""
"","","","rating","5de7fd8df31ad27743f8d19f","bdp_trlrn","Thu Jul 28 2022 12:00:08 GMT-0400 (Eastern Daylight Time)","544226","Untrustworthy,Trustworthy","image-keyboard-response","18","35162","0.0-6.0-1.6","","1658","","trustrating_stim/white_mw053.bmp","7","","","","","","","","","","",""
"","","","ratingFB","5de7fd8df31ad27743f8d19f","bdp_trlrn","Thu Jul 28 2022 12:00:08 GMT-0400 (Eastern Daylight Time)","544226","Untrustworthy,Trustworthy","image-keyboard-response","19","35364","0.0-6.0-2.6","","null","","trustrating_stim/white_mw053.bmp","null","","","","","","","","","","",""
"","","","rating","5de7fd8df31ad27743f8d19f","bdp_trlrn","Thu Jul 28 2022 12:00:08 GMT-0400 (Eastern Daylight Time)","544226","Untrustworthy,Trustworthy","image-keyboard-response","20","37125","0.0-6.0-1.7","","1660","","trustrating_stim/white_mw049.bmp","7","","","","","","","","","","",""
"","","","ratingFB","5de7fd8df31ad27743f8d19f","bdp_trlrn","Thu Jul 28 2022 12:00:08 GMT-0400 (Eastern Daylight Time)","544226","Untrustworthy,Trustworthy","image-keyboard-response","21","37327","0.0-6.0-2.7","","null","","trustrating_stim/white_mw049.bmp","null","","","","","","","","","","",""
"","","","rating","5de7fd8df31ad27743f8d19f","bdp_trlrn","Thu Jul 28 2022 12:00:08 GMT-0400 (Eastern Daylight Time)","544226","Untrustworthy,Trustworthy","image-keyboard-response","22","39414","0.0-6.0-1.8","","1983","","trustrating_stim/white_mw097.bmp","4","","","","","","","","","","",""
"","","","ratingFB","5de7fd8df31ad27743f8d19f","bdp_trlrn","Thu Jul 28 2022 12:00:08 GMT-0400 (Eastern Daylight Time)","544226","Untrustworthy,Trustworthy","image-keyboard-response","23","39615","0.0-6.0-2.8","","null","","trustrating_stim/white_mw097.bmp","null","","","","","","","","","","",""
"","","","rating","5de7fd8df31ad27743f8d19f","bdp_trlrn","Thu Jul 28 2022 12:00:08 GMT-0400 (Eastern Daylight Time)","544226","Untrustworthy,Trustworthy","image-keyboard-response","24","41262","0.0-6.0-1.9","","1546","","trustrating_stim/white_mw071.bmp","4","","","","","","","","","","",""
"","","","ratingFB","5de7fd8df31ad27743f8d19f","bdp_trlrn","Thu Jul 28 2022 12:00:08 GMT-0400 (Eastern Daylight Time)","544226","Untrustworthy,Trustworthy","image-keyboard-response","25","41466","0.0-6.0-2.9","","null","","trustrating_stim/white_mw071.bmp","null","","","","","","","","","","",""
"","","","rating","5de7fd8df31ad27743f8d19f","bdp_trlrn","Thu Jul 28 2022 12:00:08 GMT-0400 (Eastern Daylight Time)","544226","Untrustworthy,Trustworthy","image-keyboard-response","26","43076","0.0-6.0-1.10","","1509","","trustrating_stim/white_mw035.bmp","4","","","","","","","","","","",""
"","","","ratingFB","5de7fd8df31ad27743f8d19f","bdp_trlrn","Thu Jul 28 2022 12:00:08 GMT-0400 (Eastern Daylight Time)","544226","Untrustworthy,Trustworthy","image-keyboard-response","27","43280","0.0-6.0-2.10","","null","","trustrating_stim/white_mw035.bmp","null","","","","","","","","","","",""
"","","","rating","5de7fd8df31ad27743f8d19f","bdp_trlrn","Thu Jul 28 2022 12:00:08 GMT-0400 (Eastern Daylight Time)","544226","Untrustworthy,Trustworthy","image-keyboard-response","28","44913","0.0-6.0-1.11","","1532","","trustrating_stim/white_mw046.bmp","3","","","","","","","","","","",""
"","","","ratingFB","5de7fd8df31ad27743f8d19f","bdp_trlrn","Thu Jul 28 2022 12:00:08 GMT-0400 (Eastern Daylight Time)","544226","Untrustworthy,Trustworthy","image-keyboard-response","29","45114","0.0-6.0-2.11","","null","","trustrating_stim/white_mw046.bmp","null","","","","","","","","","","",""
"","","","rating","5de7fd8df31ad27743f8d19f","bdp_trlrn","Thu Jul 28 2022 12:00:08 GMT-0400 (Eastern Daylight Time)","544226","Untrustworthy,Trustworthy","image-keyboard-response","30","46813","0.0-6.0-1.12","","1594","","trustrating_stim/white_00299_940422_fa_edt.bmp","3","","","","","","","","","","",""
"","","","ratingFB","5de7fd8df31ad27743f8d19f","bdp_trlrn","Thu Jul 28 2022 12:00:08 GMT-0400 (Eastern Daylight Time)","544226","Untrustworthy,Trustworthy","image-keyboard-response","31","47015","0.0-6.0-2.12","","null","","trustrating_stim/white_00299_940422_fa_edt.bmp","null","","","","","","","","","","",""
"","","","rating","5de7fd8df31ad27743f8d19f","bdp_trlrn","Thu Jul 28 2022 12:00:08 GMT-0400 (Eastern Daylight Time)","544226","Untrustworthy,Trustworthy","image-keyboard-response","32","48576","0.0-6.0-1.13","","1457","","trustrating_stim/white_00898_960530_fa_edt.bmp","3","","","","","","","","","","",""
"","","","ratingFB","5de7fd8df31ad27743f8d19f","bdp_trlrn","Thu Jul 28 2022 12:00:08 GMT-0400 (Eastern Daylight Time)","544226","Untrustworthy,Trustworthy","image-keyboard-response","33","48778","0.0-6.0-2.13","","null","","trustrating_stim/white_00898_960530_fa_edt.bmp","null","","","","","","","","","","",""
"","","","rating","5de7fd8df31ad27743f8d19f","bdp_trlrn","Thu Jul 28 2022 12:00:08 GMT-0400 (Eastern Daylight Time)","544226","Untrustworthy,Trustworthy","image-keyboard-response","34","50364","0.0-6.0-1.14","","1485","","trustrating_stim/white_00807_941205_fb_edt.bmp","4","","","","","","","","","","",""
"","","","ratingFB","5de7fd8df31ad27743f8d19f","bdp_trlrn","Thu Jul 28 2022 12:00:08 GMT-0400 (Eastern Daylight Time)","544226","Untrustworthy,Trustworthy","image-keyboard-response","35","50565","0.0-6.0-2.14","","null","","trustrating_stim/white_00807_941205_fb_edt.bmp","null","","","","","","","","","","",""
"","","","rating","5de7fd8df31ad27743f8d19f","bdp_trlrn","Thu Jul 28 2022 12:00:08 GMT-0400 (Eastern Daylight Time)","544226","Untrustworthy,Trustworthy","image-keyboard-response","36","52088","0.0-6.0-1.15","","1423","","trustrating_stim/white_00109_931230_fa_edt.bmp","7","","","","","","","","","","",""
"","","","ratingFB","5de7fd8df31ad27743f8d19f","bdp_trlrn","Thu Jul 28 2022 12:00:08 GMT-0400 (Eastern Daylight Time)","544226","Untrustworthy,Trustworthy","image-keyboard-response","37","52291","0.0-6.0-2.15","","null","","trustrating_stim/white_00109_931230_fa_edt.bmp","null","","","","","","","","","","",""
"","","","rating","5de7fd8df31ad27743f8d19f","bdp_trlrn","Thu Jul 28 2022 12:00:08 GMT-0400 (Eastern Daylight Time)","544226","Untrustworthy,Trustworthy","image-keyboard-response","38","54301","0.0-6.0-1.16","","1905","","trustrating_stim/white_mw066.bmp","6","","","","","","","","","","",""
"","","","ratingFB","5de7fd8df31ad27743f8d19f","bdp_trlrn","Thu Jul 28 2022 12:00:08 GMT-0400 (Eastern Daylight Time)","544226","Untrustworthy,Trustworthy","image-keyboard-response","39","54502","0.0-6.0-2.16","","null","","trustrating_stim/white_mw066.bmp","null","","","","","","","","","","",""
"","","","rating","5de7fd8df31ad27743f8d19f","bdp_trlrn","Thu Jul 28 2022 12:00:08 GMT-0400 (Eastern Daylight Time)","544226","Untrustworthy,Trustworthy","image-keyboard-response","40","56263","0.0-6.0-1.17","","1660","","trustrating_stim/white_00659_941121_fa_edt.bmp","3","","","","","","","","","","",""
"","","","ratingFB","5de7fd8df31ad27743f8d19f","bdp_trlrn","Thu Jul 28 2022 12:00:08 GMT-0400 (Eastern Daylight Time)","544226","Untrustworthy,Trustworthy","image-keyboard-response","41","56469","0.0-6.0-2.17","","null","","trustrating_stim/white_00659_941121_fa_edt.bmp","null","","","","","","","","","","",""
"","","","rating","5de7fd8df31ad27743f8d19f","bdp_trlrn","Thu Jul 28 2022 12:00:08 GMT-0400 (Eastern Daylight Time)","544226","Untrustworthy,Trustworthy","image-keyboard-response","42","57776","0.0-6.0-1.18","","1206","","trustrating_stim/white_mw060.bmp","2","","","","","","","","","","",""
"","","","ratingFB","5de7fd8df31ad27743f8d19f","bdp_trlrn","Thu Jul 28 2022 12:00:08 GMT-0400 (Eastern Daylight Time)","544226","Untrustworthy,Trustworthy","image-keyboard-response","43","57977","0.0-6.0-2.18","","null","","trustrating_stim/white_mw060.bmp","null","","","","","","","","","","",""
"","","","rating","5de7fd8df31ad27743f8d19f","bdp_trlrn","Thu Jul 28 2022 12:00:08 GMT-0400 (Eastern Daylight Time)","544226","Untrustworthy,Trustworthy","image-keyboard-response","44","59602","0.0-6.0-1.19","","1519","","trustrating_stim/white_mw089.bmp","3","","","","","","","","","","",""
"","","","ratingFB","5de7fd8df31ad27743f8d19f","bdp_trlrn","Thu Jul 28 2022 12:00:08 GMT-0400 (Eastern Daylight Time)","544226","Untrustworthy,Trustworthy","image-keyboard-response","45","59808","0.0-6.0-2.19","","null","","trustrating_stim/white_mw089.bmp","null","","","","","","","","","","",""
"","","","rating","5de7fd8df31ad27743f8d19f","bdp_trlrn","Thu Jul 28 2022 12:00:08 GMT-0400 (Eastern Daylight Time)","544226","Untrustworthy,Trustworthy","image-keyboard-response","46","61738","0.0-6.0-1.20","","1824","","trustrating_stim/white_00757_941201_fa_edt.bmp","4","","","","","","","","","","",""
"","","","ratingFB","5de7fd8df31ad27743f8d19f","bdp_trlrn","Thu Jul 28 2022 12:00:08 GMT-0400 (Eastern Daylight Time)","544226","Untrustworthy,Trustworthy","image-keyboard-response","47","61941","0.0-6.0-2.20","","null","","trustrating_stim/white_00757_941201_fa_edt.bmp","null","","","","","","","","","","",""
"","","","rating","5de7fd8df31ad27743f8d19f","bdp_trlrn","Thu Jul 28 2022 12:00:08 GMT-0400 (Eastern Daylight Time)","544226","Untrustworthy,Trustworthy","image-keyboard-response","48","63177","0.0-6.0-1.21","","1132","","trustrating_stim/white_00577_940928_fa_edt.bmp","1","","","","","","","","","","",""
"","","","ratingFB","5de7fd8df31ad27743f8d19f","bdp_trlrn","Thu Jul 28 2022 12:00:08 GMT-0400 (Eastern Daylight Time)","544226","Untrustworthy,Trustworthy","image-keyboard-response","49","63378","0.0-6.0-2.21","","null","","trustrating_stim/white_00577_940928_fa_edt.bmp","null","","","","","","","","","","",""
"","","","rating","5de7fd8df31ad27743f8d19f","bdp_trlrn","Thu Jul 28 2022 12:00:08 GMT-0400 (Eastern Daylight Time)","544226","Untrustworthy,Trustworthy","image-keyboard-response","50","65102","0.0-6.0-1.22","","1621","","trustrating_stim/white_00223_940128_fb_edt.bmp","4","","","","","","","","","","",""
"","","","ratingFB","5de7fd8df31ad27743f8d19f","bdp_trlrn","Thu Jul 28 2022 12:00:08 GMT-0400 (Eastern Daylight Time)","544226","Untrustworthy,Trustworthy","image-keyboard-response","51","65302","0.0-6.0-2.22","","null","","trustrating_stim/white_00223_940128_fb_edt.bmp","null","","","","","","","","","","",""
"","","","rating","5de7fd8df31ad27743f8d19f","bdp_trlrn","Thu Jul 28 2022 12:00:08 GMT-0400 (Eastern Daylight Time)","544226","Untrustworthy,Trustworthy","image-keyboard-response","52","66990","0.0-6.0-1.23","","1587","","trustrating_stim/white_00120_931230_fa_edt.bmp","6","","","","","","","","","","",""
"","","","ratingFB","5de7fd8df31ad27743f8d19f","bdp_trlrn","Thu Jul 28 2022 12:00:08 GMT-0400 (Eastern Daylight Time)","544226","Untrustworthy,Trustworthy","image-keyboard-response","53","67192","0.0-6.0-2.23","","null","","trustrating_stim/white_00120_931230_fa_edt.bmp","null","","","","","","","","","","",""
"","","","rating","5de7fd8df31ad27743f8d19f","bdp_trlrn","Thu Jul 28 2022 12:00:08 GMT-0400 (Eastern Daylight Time)","544226","Untrustworthy,Trustworthy","image-keyboard-response","54","68790","0.0-6.0-1.24","","1493","","trustrating_stim/white_mw099.bmp","3","","","","","","","","","","",""
"","","","ratingFB","5de7fd8df31ad27743f8d19f","bdp_trlrn","Thu Jul 28 2022 12:00:08 GMT-0400 (Eastern Daylight Time)","544226","Untrustworthy,Trustworthy","image-keyboard-response","55","68991","0.0-6.0-2.24","","null","","trustrating_stim/white_mw099.bmp","null","","","","","","","","","","",""
"","","","rating","5de7fd8df31ad27743f8d19f","bdp_trlrn","Thu Jul 28 2022 12:00:08 GMT-0400 (Eastern Daylight Time)","544226","Untrustworthy,Trustworthy","image-keyboard-response","56","70826","0.0-6.0-1.25","","1728","","trustrating_stim/white_00761_941201_fb_edt.bmp","7","","","","","","","","","","",""
"","","","ratingFB","5de7fd8df31ad27743f8d19f","bdp_trlrn","Thu Jul 28 2022 12:00:08 GMT-0400 (Eastern Daylight Time)","544226","Untrustworthy,Trustworthy","image-keyboard-response","57","71028","0.0-6.0-2.25","","null","","trustrating_stim/white_00761_941201_fb_edt.bmp","null","","","","","","","","","","",""
"","","","rating","5de7fd8df31ad27743f8d19f","bdp_trlrn","Thu Jul 28 2022 12:00:08 GMT-0400 (Eastern Daylight Time)","544226","Untrustworthy,Trustworthy","image-keyboard-response","58","72590","0.0-6.0-1.26","","1460","","trustrating_stim/white_00785_941205_fb_edt.bmp","3","","","","","","","","","","",""
"","","","ratingFB","5de7fd8df31ad27743f8d19f","bdp_trlrn","Thu Jul 28 2022 12:00:08 GMT-0400 (Eastern Daylight Time)","544226","Untrustworthy,Trustworthy","image-keyboard-response","59","72790","0.0-6.0-2.26","","null","","trustrating_stim/white_00785_941205_fb_edt.bmp","null","","","","","","","","","","",""
"","","","rating","5de7fd8df31ad27743f8d19f","bdp_trlrn","Thu Jul 28 2022 12:00:08 GMT-0400 (Eastern Daylight Time)","544226","Untrustworthy,Trustworthy","image-keyboard-response","60","74463","0.0-6.0-1.27","","1567","","trustrating_stim/white_mw084.bmp","3","","","","","","","","","","",""
"","","","ratingFB","5de7fd8df31ad27743f8d19f","bdp_trlrn","Thu Jul 28 2022 12:00:08 GMT-0400 (Eastern Daylight Time)","544226","Untrustworthy,Trustworthy","image-keyboard-response","61","74665","0.0-6.0-2.27","","null","","trustrating_stim/white_mw084.bmp","null","","","","","","","","","","",""
"","","","rating","5de7fd8df31ad27743f8d19f","bdp_trlrn","Thu Jul 28 2022 12:00:08 GMT-0400 (Eastern Daylight Time)","544226","Untrustworthy,Trustworthy","image-keyboard-response","62","76276","0.0-6.0-1.28","","1507","","trustrating_stim/white_mw056.bmp","4","","","","","","","","","","",""
"","","","ratingFB","5de7fd8df31ad27743f8d19f","bdp_trlrn","Thu Jul 28 2022 12:00:08 GMT-0400 (Eastern Daylight Time)","544226","Untrustworthy,Trustworthy","image-keyboard-response","63","76477","0.0-6.0-2.28","","null","","trustrating_stim/white_mw056.bmp","null","","","","","","","","","","",""
"","","","rating","5de7fd8df31ad27743f8d19f","bdp_trlrn","Thu Jul 28 2022 12:00:08 GMT-0400 (Eastern Daylight Time)","544226","Untrustworthy,Trustworthy","image-keyboard-response","64","78465","0.0-6.0-1.29","","1882","","trustrating_stim/white_00519_940519_fb_edt.bmp","4","","","","","","","","","","",""
"","","","ratingFB","5de7fd8df31ad27743f8d19f","bdp_trlrn","Thu Jul 28 2022 12:00:08 GMT-0400 (Eastern Daylight Time)","544226","Untrustworthy,Trustworthy","image-keyboard-response","65","78669","0.0-6.0-2.29","","null","","trustrating_stim/white_00519_940519_fb_edt.bmp","null","","","","","","","","","","",""
"","","","rating","5de7fd8df31ad27743f8d19f","bdp_trlrn","Thu Jul 28 2022 12:00:08 GMT-0400 (Eastern Daylight Time)","544226","Untrustworthy,Trustworthy","image-keyboard-response","66","80552","0.0-6.0-1.30","","1780","","trustrating_stim/white_00340_940422_fa_edt.bmp","3","","","","","","","","","","",""
"","","","ratingFB","5de7fd8df31ad27743f8d19f","bdp_trlrn","Thu Jul 28 2022 12:00:08 GMT-0400 (Eastern Daylight Time)","544226","Untrustworthy,Trustworthy","image-keyboard-response","67","80752","0.0-6.0-2.30","","null","","trustrating_stim/white_00340_940422_fa_edt.bmp","null","","","","","","","","","","",""
"","","","rating","5de7fd8df31ad27743f8d19f","bdp_trlrn","Thu Jul 28 2022 12:00:08 GMT-0400 (Eastern Daylight Time)","544226","Untrustworthy,Trustworthy","image-keyboard-response","68","82502","0.0-6.0-1.31","","1647","","trustrating_stim/white_00761_941201_fb_edt.bmp","7","","","","","","","","","","",""
"","","","ratingFB","5de7fd8df31ad27743f8d19f","bdp_trlrn","Thu Jul 28 2022 12:00:08 GMT-0400 (Eastern Daylight Time)","544226","Untrustworthy,Trustworthy","image-keyboard-response","69","82704","0.0-6.0-2.31","","null","","trustrating_stim/white_00761_941201_fb_edt.bmp","null","","","","","","","","","","",""
"","","","rating","5de7fd8df31ad27743f8d19f","bdp_trlrn","Thu Jul 28 2022 12:00:08 GMT-0400 (Eastern Daylight Time)","544226","Untrustworthy,Trustworthy","image-keyboard-response","70","84702","0.0-6.0-1.32","","1896","","trustrating_stim/white_00757_941201_fa_edt.bmp","3","","","","","","","","","","",""
"","","","ratingFB","5de7fd8df31ad27743f8d19f","bdp_trlrn","Thu Jul 28 2022 12:00:08 GMT-0400 (Eastern Daylight Time)","544226","Untrustworthy,Trustworthy","image-keyboard-response","71","84905","0.0-6.0-2.32","","null","","trustrating_stim/white_00757_941201_fa_edt.bmp","null","","","","","","","","","","",""
"","","","rating","5de7fd8df31ad27743f8d19f","bdp_trlrn","Thu Jul 28 2022 12:00:08 GMT-0400 (Eastern Daylight Time)","544226","Untrustworthy,Trustworthy","image-keyboard-response","72","86878","0.0-6.0-1.33","","1867","","trustrating_stim/white_00120_931230_fa_edt.bmp","4","","","","","","","","","","",""
"","","","ratingFB","5de7fd8df31ad27743f8d19f","bdp_trlrn","Thu Jul 28 2022 12:00:08 GMT-0400 (Eastern Daylight Time)","544226","Untrustworthy,Trustworthy","image-keyboard-response","73","87083","0.0-6.0-2.33","","null","","trustrating_stim/white_00120_931230_fa_edt.bmp","null","","","","","","","","","","",""
"","","","rating","5de7fd8df31ad27743f8d19f","bdp_trlrn","Thu Jul 28 2022 12:00:08 GMT-0400 (Eastern Daylight Time)","544226","Untrustworthy,Trustworthy","image-keyboard-response","74","89464","0.0-6.0-1.34","","2275","","trustrating_stim/white_mw089.bmp","3","","","","","","","","","","",""
"","","","ratingFB","5de7fd8df31ad27743f8d19f","bdp_trlrn","Thu Jul 28 2022 12:00:08 GMT-0400 (Eastern Daylight Time)","544226","Untrustworthy,Trustworthy","image-keyboard-response","75","89667","0.0-6.0-2.34","","null","","trustrating_stim/white_mw089.bmp","null","","","","","","","","","","",""
"","","","rating","5de7fd8df31ad27743f8d19f","bdp_trlrn","Thu Jul 28 2022 12:00:08 GMT-0400 (Eastern Daylight Time)","544226","Untrustworthy,Trustworthy","image-keyboard-response","76","91190","0.0-6.0-1.35","","1418","","trustrating_stim/white_mw049.bmp","6","","","","","","","","","","",""
"","","","ratingFB","5de7fd8df31ad27743f8d19f","bdp_trlrn","Thu Jul 28 2022 12:00:08 GMT-0400 (Eastern Daylight Time)","544226","Untrustworthy,Trustworthy","image-keyboard-response","77","91390","0.0-6.0-2.35","","null","","trustrating_stim/white_mw049.bmp","null","","","","","","","","","","",""
"","","","rating","5de7fd8df31ad27743f8d19f","bdp_trlrn","Thu Jul 28 2022 12:00:08 GMT-0400 (Eastern Daylight Time)","544226","Untrustworthy,Trustworthy","image-keyboard-response","78","93727","0.0-6.0-1.36","","2232","","trustrating_stim/white_00602_940928_fb_edt.bmp","4","","","","","","","","","","",""
"","","","ratingFB","5de7fd8df31ad27743f8d19f","bdp_trlrn","Thu Jul 28 2022 12:00:08 GMT-0400 (Eastern Daylight Time)","544226","Untrustworthy,Trustworthy","image-keyboard-response","79","93928","0.0-6.0-2.36","","null","","trustrating_stim/white_00602_940928_fb_edt.bmp","null","","","","","","","","","","",""
"","","","rating","5de7fd8df31ad27743f8d19f","bdp_trlrn","Thu Jul 28 2022 12:00:08 GMT-0400 (Eastern Daylight Time)","544226","Untrustworthy,Trustworthy","image-keyboard-response","80","95327","0.0-6.0-1.37","","1294","","trustrating_stim/white_mw056.bmp","4","","","","","","","","","","",""
"","","","ratingFB","5de7fd8df31ad27743f8d19f","bdp_trlrn","Thu Jul 28 2022 12:00:08 GMT-0400 (Eastern Daylight Time)","544226","Untrustworthy,Trustworthy","image-keyboard-response","81","95531","0.0-6.0-2.37","","null","","trustrating_stim/white_mw056.bmp","null","","","","","","","","","","",""
"","","","rating","5de7fd8df31ad27743f8d19f","bdp_trlrn","Thu Jul 28 2022 12:00:08 GMT-0400 (Eastern Daylight Time)","544226","Untrustworthy,Trustworthy","image-keyboard-response","82","97765","0.0-6.0-1.38","","2132","","trustrating_stim/white_mw066.bmp","5","","","","","","","","","","",""
"","","","ratingFB","5de7fd8df31ad27743f8d19f","bdp_trlrn","Thu Jul 28 2022 12:00:08 GMT-0400 (Eastern Daylight Time)","544226","Untrustworthy,Trustworthy","image-keyboard-response","83","97970","0.0-6.0-2.38","","null","","trustrating_stim/white_mw066.bmp","null","","","","","","","","","","",""
"","","","rating","5de7fd8df31ad27743f8d19f","bdp_trlrn","Thu Jul 28 2022 12:00:08 GMT-0400 (Eastern Daylight Time)","544226","Untrustworthy,Trustworthy","image-keyboard-response","84","99752","0.0-6.0-1.39","","1679","","trustrating_stim/white_mw033.bmp","4","","","","","","","","","","",""
"","","","ratingFB","5de7fd8df31ad27743f8d19f","bdp_trlrn","Thu Jul 28 2022 12:00:08 GMT-0400 (Eastern Daylight Time)","544226","Untrustworthy,Trustworthy","image-keyboard-response","85","99952","0.0-6.0-2.39","","null","","trustrating_stim/white_mw033.bmp","null","","","","","","","","","","",""
"","","","rating","5de7fd8df31ad27743f8d19f","bdp_trlrn","Thu Jul 28 2022 12:00:08 GMT-0400 (Eastern Daylight Time)","544226","Untrustworthy,Trustworthy","image-keyboard-response","86","101415","0.0-6.0-1.40","","1361","","trustrating_stim/white_mw097.bmp","4","","","","","","","","","","",""
"","","","ratingFB","5de7fd8df31ad27743f8d19f","bdp_trlrn","Thu Jul 28 2022 12:00:08 GMT-0400 (Eastern Daylight Time)","544226","Untrustworthy,Trustworthy","image-keyboard-response","87","101619","0.0-6.0-2.40","","null","","trustrating_stim/white_mw097.bmp","null","","","","","","","","","","",""
"","","","rating","5de7fd8df31ad27743f8d19f","bdp_trlrn","Thu Jul 28 2022 12:00:08 GMT-0400 (Eastern Daylight Time)","544226","Untrustworthy,Trustworthy","image-keyboard-response","88","103378","0.0-6.0-1.41","","1654","","trustrating_stim/white_mw084.bmp","4","","","","","","","","","","",""
"","","","ratingFB","5de7fd8df31ad27743f8d19f","bdp_trlrn","Thu Jul 28 2022 12:00:08 GMT-0400 (Eastern Daylight Time)","544226","Untrustworthy,Trustworthy","image-keyboard-response","89","103579","0.0-6.0-2.41","","null","","trustrating_stim/white_mw084.bmp","null","","","","","","","","","","",""
"","","","rating","5de7fd8df31ad27743f8d19f","bdp_trlrn","Thu Jul 28 2022 12:00:08 GMT-0400 (Eastern Daylight Time)","544226","Untrustworthy,Trustworthy","image-keyboard-response","90","105077","0.0-6.0-1.42","","1395","","trustrating_stim/white_mw063.bmp","2","","","","","","","","","","",""
"","","","ratingFB","5de7fd8df31ad27743f8d19f","bdp_trlrn","Thu Jul 28 2022 12:00:08 GMT-0400 (Eastern Daylight Time)","544226","Untrustworthy,Trustworthy","image-keyboard-response","91","105280","0.0-6.0-2.42","","null","","trustrating_stim/white_mw063.bmp","null","","","","","","","","","","",""
"","","","rating","5de7fd8df31ad27743f8d19f","bdp_trlrn","Thu Jul 28 2022 12:00:08 GMT-0400 (Eastern Daylight Time)","544226","Untrustworthy,Trustworthy","image-keyboard-response","92","107015","0.0-6.0-1.43","","1631","","trustrating_stim/white_00109_931230_fa_edt.bmp","6","","","","","","","","","","",""
"","","","ratingFB","5de7fd8df31ad27743f8d19f","bdp_trlrn","Thu Jul 28 2022 12:00:08 GMT-0400 (Eastern Daylight Time)","544226","Untrustworthy,Trustworthy","image-keyboard-response","93","107216","0.0-6.0-2.43","","null","","trustrating_stim/white_00109_931230_fa_edt.bmp","null","","","","","","","","","","",""
"","","","rating","5de7fd8df31ad27743f8d19f","bdp_trlrn","Thu Jul 28 2022 12:00:08 GMT-0400 (Eastern Daylight Time)","544226","Untrustworthy,Trustworthy","image-keyboard-response","94","109002","0.0-6.0-1.44","","1684","","trustrating_stim/white_00519_940519_fb_edt.bmp","5","","","","","","","","","","",""
"","","","ratingFB","5de7fd8df31ad27743f8d19f","bdp_trlrn","Thu Jul 28 2022 12:00:08 GMT-0400 (Eastern Daylight Time)","544226","Untrustworthy,Trustworthy","image-keyboard-response","95","109204","0.0-6.0-2.44","","null","","trustrating_stim/white_00519_940519_fb_edt.bmp","null","","","","","","","","","","",""
"","","","rating","5de7fd8df31ad27743f8d19f","bdp_trlrn","Thu Jul 28 2022 12:00:08 GMT-0400 (Eastern Daylight Time)","544226","Untrustworthy,Trustworthy","image-keyboard-response","96","110866","0.0-6.0-1.45","","1559","","trustrating_stim/white_00299_940422_fa_edt.bmp","4","","","","","","","","","","",""
"","","","ratingFB","5de7fd8df31ad27743f8d19f","bdp_trlrn","Thu Jul 28 2022 12:00:08 GMT-0400 (Eastern Daylight Time)","544226","Untrustworthy,Trustworthy","image-keyboard-response","97","111067","0.0-6.0-2.45","","null","","trustrating_stim/white_00299_940422_fa_edt.bmp","null","","","","","","","","","","",""
"","","","rating","5de7fd8df31ad27743f8d19f","bdp_trlrn","Thu Jul 28 2022 12:00:08 GMT-0400 (Eastern Daylight Time)","544226","Untrustworthy,Trustworthy","image-keyboard-response","98","112839","0.0-6.0-1.46","","1670","","trustrating_stim/white_00129_931230_fb_edt.bmp","3","","","","","","","","","","",""
"","","","ratingFB","5de7fd8df31ad27743f8d19f","bdp_trlrn","Thu Jul 28 2022 12:00:08 GMT-0400 (Eastern Daylight Time)","544226","Untrustworthy,Trustworthy","image-keyboard-response","99","113044","0.0-6.0-2.46","","null","","trustrating_stim/white_00129_931230_fb_edt.bmp","null","","","","","","","","","","",""
"","","","rating","5de7fd8df31ad27743f8d19f","bdp_trlrn","Thu Jul 28 2022 12:00:08 GMT-0400 (Eastern Daylight Time)","544226","Untrustworthy,Trustworthy","image-keyboard-response","100","114752","0.0-6.0-1.47","","1603","","trustrating_stim/white_mw053.bmp","4","","","","","","","","","","",""
"","","","ratingFB","5de7fd8df31ad27743f8d19f","bdp_trlrn","Thu Jul 28 2022 12:00:08 GMT-0400 (Eastern Daylight Time)","544226","Untrustworthy,Trustworthy","image-keyboard-response","101","114956","0.0-6.0-2.47","","null","","trustrating_stim/white_mw053.bmp","null","","","","","","","","","","",""
"","","","rating","5de7fd8df31ad27743f8d19f","bdp_trlrn","Thu Jul 28 2022 12:00:08 GMT-0400 (Eastern Daylight Time)","544226","Untrustworthy,Trustworthy","image-keyboard-response","102","116640","0.0-6.0-1.48","","1581","","trustrating_stim/white_mw071.bmp","4","","","","","","","","","","",""
"","","","ratingFB","5de7fd8df31ad27743f8d19f","bdp_trlrn","Thu Jul 28 2022 12:00:08 GMT-0400 (Eastern Daylight Time)","544226","Untrustworthy,Trustworthy","image-keyboard-response","103","116844","0.0-6.0-2.48","","null","","trustrating_stim/white_mw071.bmp","null","","","","","","","","","","",""
"","","","rating","5de7fd8df31ad27743f8d19f","bdp_trlrn","Thu Jul 28 2022 12:00:08 GMT-0400 (Eastern Daylight Time)","544226","Untrustworthy,Trustworthy","image-keyboard-response","104","118527","0.0-6.0-1.49","","1582","","trustrating_stim/white_00659_941121_fa_edt.bmp","2","","","","","","","","","","",""
"","","","ratingFB","5de7fd8df31ad27743f8d19f","bdp_trlrn","Thu Jul 28 2022 12:00:08 GMT-0400 (Eastern Daylight Time)","544226","Untrustworthy,Trustworthy","image-keyboard-response","105","118731","0.0-6.0-2.49","","null","","trustrating_stim/white_00659_941121_fa_edt.bmp","null","","","","","","","","","","",""
"","","","rating","5de7fd8df31ad27743f8d19f","bdp_trlrn","Thu Jul 28 2022 12:00:08 GMT-0400 (Eastern Daylight Time)","544226","Untrustworthy,Trustworthy","image-keyboard-response","106","120339","0.0-6.0-1.50","","1506","","trustrating_stim/white_mw046.bmp","3","","","","","","","","","","",""
"","","","ratingFB","5de7fd8df31ad27743f8d19f","bdp_trlrn","Thu Jul 28 2022 12:00:08 GMT-0400 (Eastern Daylight Time)","544226","Untrustworthy,Trustworthy","image-keyboard-response","107","120542","0.0-6.0-2.50","","null","","trustrating_stim/white_mw046.bmp","null","","","","","","","","","","",""
"","","","rating","5de7fd8df31ad27743f8d19f","bdp_trlrn","Thu Jul 28 2022 12:00:08 GMT-0400 (Eastern Daylight Time)","544226","Untrustworthy,Trustworthy","image-keyboard-response","108","122189","0.0-6.0-1.51","","1541","","trustrating_stim/white_00223_940128_fb_edt.bmp","4","","","","","","","","","","",""
"","","","ratingFB","5de7fd8df31ad27743f8d19f","bdp_trlrn","Thu Jul 28 2022 12:00:08 GMT-0400 (Eastern Daylight Time)","544226","Untrustworthy,Trustworthy","image-keyboard-response","109","122392","0.0-6.0-2.51","","null","","trustrating_stim/white_00223_940128_fb_edt.bmp","null","","","","","","","","","","",""
"","","","rating","5de7fd8df31ad27743f8d19f","bdp_trlrn","Thu Jul 28 2022 12:00:08 GMT-0400 (Eastern Daylight Time)","544226","Untrustworthy,Trustworthy","image-keyboard-response","110","124101","0.0-6.0-1.52","","1607","","trustrating_stim/white_00898_960530_fa_edt.bmp","4","","","","","","","","","","",""
"","","","ratingFB","5de7fd8df31ad27743f8d19f","bdp_trlrn","Thu Jul 28 2022 12:00:08 GMT-0400 (Eastern Daylight Time)","544226","Untrustworthy,Trustworthy","image-keyboard-response","111","124304","0.0-6.0-2.52","","null","","trustrating_stim/white_00898_960530_fa_edt.bmp","null","","","","","","","","","","",""
"","","","rating","5de7fd8df31ad27743f8d19f","bdp_trlrn","Thu Jul 28 2022 12:00:08 GMT-0400 (Eastern Daylight Time)","544226","Untrustworthy,Trustworthy","image-keyboard-response","112","126077","0.0-6.0-1.53","","1672","","trustrating_stim/white_mw060.bmp","3","","","","","","","","","","",""
"","","","ratingFB","5de7fd8df31ad27743f8d19f","bdp_trlrn","Thu Jul 28 2022 12:00:08 GMT-0400 (Eastern Daylight Time)","544226","Untrustworthy,Trustworthy","image-keyboard-response","113","126279","0.0-6.0-2.53","","null","","trustrating_stim/white_mw060.bmp","null","","","","","","","","","","",""
"","","","rating","5de7fd8df31ad27743f8d19f","bdp_trlrn","Thu Jul 28 2022 12:00:08 GMT-0400 (Eastern Daylight Time)","544226","Untrustworthy,Trustworthy","image-keyboard-response","114","128090","0.0-6.0-1.54","","1706","","trustrating_stim/white_mw099.bmp","3","","","","","","","","","","",""
"","","","ratingFB","5de7fd8df31ad27743f8d19f","bdp_trlrn","Thu Jul 28 2022 12:00:08 GMT-0400 (Eastern Daylight Time)","544226","Untrustworthy,Trustworthy","image-keyboard-response","115","128292","0.0-6.0-2.54","","null","","trustrating_stim/white_mw099.bmp","null","","","","","","","","","","",""
"","","","rating","5de7fd8df31ad27743f8d19f","bdp_trlrn","Thu Jul 28 2022 12:00:08 GMT-0400 (Eastern Daylight Time)","544226","Untrustworthy,Trustworthy","image-keyboard-response","116","129927","0.0-6.0-1.55","","1532","","trustrating_stim/white_mw048.bmp","6","","","","","","","","","","",""
"","","","ratingFB","5de7fd8df31ad27743f8d19f","bdp_trlrn","Thu Jul 28 2022 12:00:08 GMT-0400 (Eastern Daylight Time)","544226","Untrustworthy,Trustworthy","image-keyboard-response","117","130128","0.0-6.0-2.55","","null","","trustrating_stim/white_mw048.bmp","null","","","","","","","","","","",""
"","","","rating","5de7fd8df31ad27743f8d19f","bdp_trlrn","Thu Jul 28 2022 12:00:08 GMT-0400 (Eastern Daylight Time)","544226","Untrustworthy,Trustworthy","image-keyboard-response","118","131902","0.0-6.0-1.56","","1671","","trustrating_stim/white_mw035.bmp","4","","","","","","","","","","",""
"","","","ratingFB","5de7fd8df31ad27743f8d19f","bdp_trlrn","Thu Jul 28 2022 12:00:08 GMT-0400 (Eastern Daylight Time)","544226","Untrustworthy,Trustworthy","image-keyboard-response","119","132103","0.0-6.0-2.56","","null","","trustrating_stim/white_mw035.bmp","null","","","","","","","","","","",""
"","","","rating","5de7fd8df31ad27743f8d19f","bdp_trlrn","Thu Jul 28 2022 12:00:08 GMT-0400 (Eastern Daylight Time)","544226","Untrustworthy,Trustworthy","image-keyboard-response","120","133739","0.0-6.0-1.57","","1532","","trustrating_stim/white_00577_940928_fa_edt.bmp","2","","","","","","","","","","",""
"","","","ratingFB","5de7fd8df31ad27743f8d19f","bdp_trlrn","Thu Jul 28 2022 12:00:08 GMT-0400 (Eastern Daylight Time)","544226","Untrustworthy,Trustworthy","image-keyboard-response","121","133942","0.0-6.0-2.57","","null","","trustrating_stim/white_00577_940928_fa_edt.bmp","null","","","","","","","","","","",""
"","","","rating","5de7fd8df31ad27743f8d19f","bdp_trlrn","Thu Jul 28 2022 12:00:08 GMT-0400 (Eastern Daylight Time)","544226","Untrustworthy,Trustworthy","image-keyboard-response","122","135615","0.0-6.0-1.58","","1569","","trustrating_stim/white_00807_941205_fb_edt.bmp","2","","","","","","","","","","",""
"","","","ratingFB","5de7fd8df31ad27743f8d19f","bdp_trlrn","Thu Jul 28 2022 12:00:08 GMT-0400 (Eastern Daylight Time)","544226","Untrustworthy,Trustworthy","image-keyboard-response","123","135817","0.0-6.0-2.58","","null","","trustrating_stim/white_00807_941205_fb_edt.bmp","null","","","","","","","","","","",""
"","","","rating","5de7fd8df31ad27743f8d19f","bdp_trlrn","Thu Jul 28 2022 12:00:08 GMT-0400 (Eastern Daylight Time)","544226","Untrustworthy,Trustworthy","image-keyboard-response","124","137204","0.0-6.0-1.59","","1284","","trustrating_stim/white_00785_941205_fb_edt.bmp","2","","","","","","","","","","",""
"","","","ratingFB","5de7fd8df31ad27743f8d19f","bdp_trlrn","Thu Jul 28 2022 12:00:08 GMT-0400 (Eastern Daylight Time)","544226","Untrustworthy,Trustworthy","image-keyboard-response","125","137404","0.0-6.0-2.59","","null","","trustrating_stim/white_00785_941205_fb_edt.bmp","null","","","","","","","","","","",""
"","","","","5de7fd8df31ad27743f8d19f","bdp_trlrn","Thu Jul 28 2022 12:00:08 GMT-0400 (Eastern Daylight Time)","544226","Untrustworthy,Trustworthy","instructions","126","143879","0.0-7.0","[{""page_index"":0,""viewing_time"":6373}]","6373","","","","","","","","","","","","","",""
"","","","","5de7fd8df31ad27743f8d19f","bdp_trlrn","Thu Jul 28 2022 12:00:08 GMT-0400 (Eastern Daylight Time)","544226","Untrustworthy,Trustworthy","instructions","127","216704","0.0-8.0","[{""page_index"":0,""viewing_time"":19836},{""page_index"":1,""viewing_time"":11487},{""page_index"":2,""viewing_time"":8814},{""page_index"":3,""viewing_time"":7510},{""page_index"":4,""viewing_time"":6614},{""page_index"":5,""viewing_time"":5338},{""page_index"":6,""viewing_time"":3550},{""page_index"":7,""viewing_time"":9575}]","72724","","","","","","","","","","","","","",""
"","","","","5de7fd8df31ad27743f8d19f","bdp_trlrn","Thu Jul 28 2022 12:00:08 GMT-0400 (Eastern Daylight Time)","544226","Untrustworthy,Trustworthy","instructions","128","230967","0.0-9.0","[{""page_index"":0,""viewing_time"":6600},{""page_index"":1,""viewing_time"":7663}]","14263","","","","","","","","","","","","","",""
"","","","decision","5de7fd8df31ad27743f8d19f","bdp_trlrn","Thu Jul 28 2022 12:00:08 GMT-0400 (Eastern Daylight Time)","544226","Untrustworthy,Trustworthy","html-keyboard-response","129","233092","0.0-10.0-1.0","","2023","","<div class='trialDiv'><img src='trustrating_stim/white_mw049.bmp'><br><font class='baseline'><strong>Sebastian</strong><p>Choose number of points to send.</font><div class='respPicDiv'><img src='img/responseButtonOffersNo0L.png' class='respPic'></div></div>","3","1","Sebastian","9","Kept","0.35,0.65","14","0.35","trustrating_stim/white_mw049.bmp","6.5","5","1"
"","","","decisionFB","5de7fd8df31ad27743f8d19f","bdp_trlrn","Thu Jul 28 2022 12:00:08 GMT-0400 (Eastern Daylight Time)","544226","Untrustworthy,Trustworthy","html-keyboard-response","130","233346","0.0-10.0-2.0","","null","","<div class='trialDiv'><img src='trustrating_stim/white_mw049.bmp'><br><font class='baseline'><strong>Sebastian</strong><p>Choose number of points to send.</font><div class='respPicDiv'><img src='img/responseButtonOffersNo0L3.png' class='respPic'></div></div>","null","1","Sebastian","9","Kept","0.35,0.65","14","0.35","trustrating_stim/white_mw049.bmp","6.5","2","1"
"","","","feedback","5de7fd8df31ad27743f8d19f","bdp_trlrn","Thu Jul 28 2022 12:00:08 GMT-0400 (Eastern Daylight Time)","544226","Untrustworthy,Trustworthy","html-keyboard-response","131","234349","0.0-10.0-3.0","","null","","<div class='trialDiv'><img src='trustrating_stim/white_mw049.bmp'><br><font class='baseline'><strong>Sebastian</strong><p>Received: <strong>12</strong></font> &nbsp; &nbsp; &nbsp; &nbsp; &nbsp; &nbsp;<font class='negOutcome'>Shared back: <strong>0</strong></font></font><div class='respPicDiv'><img src='img/responseButtonOffersNo0_wht.png' class='respPic'></div></div>","null","1","Sebastian","9","Kept","0.35,0.65","14","0.35","trustrating_stim/white_mw049.bmp","6.5","2","1"
"","","","decision","5de7fd8df31ad27743f8d19f","bdp_trlrn","Thu Jul 28 2022 12:00:08 GMT-0400 (Eastern Daylight Time)","544226","Untrustworthy,Trustworthy","html-keyboard-response","132","235417","0.0-10.0-1.1","","1066","","<div class='trialDiv'><img src='trustrating_stim/white_mw060.bmp'><br><font class='baseline'><strong>Alex</strong><p>Choose number of points to send.</font><div class='respPicDiv'><img src='img/responseButtonOffersNo0L.png' class='respPic'></div></div>","3","1","Alex","1","Shared","0.65,0.2","12","0.65","trustrating_stim/white_mw060.bmp","2.5","7","2"
"","","","decisionFB","5de7fd8df31ad27743f8d19f","bdp_trlrn","Thu Jul 28 2022 12:00:08 GMT-0400 (Eastern Daylight Time)","544226","Untrustworthy,Trustworthy","html-keyboard-response","133","235667","0.0-10.0-2.1","","null","","<div class='trialDiv'><img src='trustrating_stim/white_mw060.bmp'><br><font class='baseline'><strong>Alex</strong><p>Choose number of points to send.</font><div class='respPicDiv'><img src='img/responseButtonOffersNo0L3.png' class='respPic'></div></div>","null","1","Alex","1","Shared","0.65,0.2","12","0.65","trustrating_stim/white_mw060.bmp","2.5","4","2"
"","","","feedback","5de7fd8df31ad27743f8d19f","bdp_trlrn","Thu Jul 28 2022 12:00:08 GMT-0400 (Eastern Daylight Time)","544226","Untrustworthy,Trustworthy","html-keyboard-response","134","236668","0.0-10.0-3.1","","null","","<div class='trialDiv'><img src='trustrating_stim/white_mw060.bmp'><br><font class='baseline'><strong>Alex</strong><p>Received: <strong>12</strong></font> &nbsp; &nbsp; &nbsp; &nbsp; &nbsp; &nbsp;<font class='posOutcome'>Shared back: <strong>6</strong></font></font><div class='respPicDiv'><img src='img/responseButtonOffersNo0_wht.png' class='respPic'></div></div>","null","1","Alex","1","Shared","0.65,0.2","12","0.65","trustrating_stim/white_mw060.bmp","2.5","10","2"
"","","","decision","5de7fd8df31ad27743f8d19f","bdp_trlrn","Thu Jul 28 2022 12:00:08 GMT-0400 (Eastern Daylight Time)","544226","Untrustworthy,Trustworthy","html-keyboard-response","135","237816","0.0-10.0-1.2","","1147","","<div class='trialDiv'><img src='trustrating_stim/white_mw035.bmp'><br><font class='baseline'><strong>Lucas</strong><p>Choose number of points to send.</font><div class='respPicDiv'><img src='img/responseButtonOffersNo0L.png' class='respPic'></div></div>","2","1","Lucas","6","Kept","0.2,0.65","11","0.2","trustrating_stim/white_mw035.bmp","4","15","3"
"","","","decisionFB","5de7fd8df31ad27743f8d19f","bdp_trlrn","Thu Jul 28 2022 12:00:08 GMT-0400 (Eastern Daylight Time)","544226","Untrustworthy,Trustworthy","html-keyboard-response","136","238069","0.0-10.0-2.2","","null","","<div class='trialDiv'><img src='trustrating_stim/white_mw035.bmp'><br><font class='baseline'><strong>Lucas</strong><p>Choose number of points to send.</font><div class='respPicDiv'><img src='img/responseButtonOffersNo0L2.png' class='respPic'></div></div>","null","1","Lucas","6","Kept","0.2,0.65","11","0.2","trustrating_stim/white_mw035.bmp","4","13","3"
"","","","feedback","5de7fd8df31ad27743f8d19f","bdp_trlrn","Thu Jul 28 2022 12:00:08 GMT-0400 (Eastern Daylight Time)","544226","Untrustworthy,Trustworthy","html-keyboard-response","137","239071","0.0-10.0-3.2","","null","","<div class='trialDiv'><img src='trustrating_stim/white_mw035.bmp'><br><font class='baseline'><strong>Lucas</strong><p>Received: <strong>8</strong></font> &nbsp; &nbsp; &nbsp; &nbsp; &nbsp; &nbsp;<font class='negOutcome'>Shared back: <strong>0</strong></font></font><div class='respPicDiv'><img src='img/responseButtonOffersNo0_wht.png' class='respPic'></div></div>","null","1","Lucas","6","Kept","0.2,0.65","11","0.2","trustrating_stim/white_mw035.bmp","4","13","3"
"","","","decision","5de7fd8df31ad27743f8d19f","bdp_trlrn","Thu Jul 28 2022 12:00:08 GMT-0400 (Eastern Daylight Time)","544226","Untrustworthy,Trustworthy","html-keyboard-response","138","240380","0.0-10.0-1.3","","1309","","<div class='trialDiv'><img src='trustrating_stim/white_mw049.bmp'><br><font class='baseline'><strong>Sebastian</strong><p>Choose number of points to send.</font><div class='respPicDiv'><img src='img/responseButtonOffersNo0L.png' class='respPic'></div></div>","3","2","Sebastian","9","Shared","0.35,0.65","14","0.35","trustrating_stim/white_mw049.bmp","6.5","18","4"
"","","","decisionFB","5de7fd8df31ad27743f8d19f","bdp_trlrn","Thu Jul 28 2022 12:00:08 GMT-0400 (Eastern Daylight Time)","544226","Untrustworthy,Trustworthy","html-keyboard-response","139","240631","0.0-10.0-2.3","","null","","<div class='trialDiv'><img src='trustrating_stim/white_mw049.bmp'><br><font class='baseline'><strong>Sebastian</strong><p>Choose number of points to send.</font><div class='respPicDiv'><img src='img/responseButtonOffersNo0L3.png' class='respPic'></div></div>","null","2","Sebastian","9","Shared","0.35,0.65","14","0.35","trustrating_stim/white_mw049.bmp","6.5","15","4"
"","","","feedback","5de7fd8df31ad27743f8d19f","bdp_trlrn","Thu Jul 28 2022 12:00:08 GMT-0400 (Eastern Daylight Time)","544226","Untrustworthy,Trustworthy","html-keyboard-response","140","241632","0.0-10.0-3.3","","null","","<div class='trialDiv'><img src='trustrating_stim/white_mw049.bmp'><br><font class='baseline'><strong>Sebastian</strong><p>Received: <strong>12</strong></font> &nbsp; &nbsp; &nbsp; &nbsp; &nbsp; &nbsp;<font class='posOutcome'>Shared back: <strong>6</strong></font></font><div class='respPicDiv'><img src='img/responseButtonOffersNo0_wht.png' class='respPic'></div></div>","null","2","Sebastian","9","Shared","0.35,0.65","14","0.35","trustrating_stim/white_mw049.bmp","6.5","21","4"
"","","","decision","5de7fd8df31ad27743f8d19f","bdp_trlrn","Thu Jul 28 2022 12:00:08 GMT-0400 (Eastern Daylight Time)","544226","Untrustworthy,Trustworthy","html-keyboard-response","141","242692","0.0-10.0-1.4","","1059","","<div class='trialDiv'><img src='trustrating_stim/white_mw060.bmp'><br><font class='baseline'><strong>Alex</strong><p>Choose number of points to send.</font><div class='respPicDiv'><img src='img/responseButtonOffersNo0L.png' class='respPic'></div></div>","2","2","Alex","1","Shared","0.65,0.2","12","0.65","trustrating_stim/white_mw060.bmp","2.5","26","5"
"","","","decisionFB","5de7fd8df31ad27743f8d19f","bdp_trlrn","Thu Jul 28 2022 12:00:08 GMT-0400 (Eastern Daylight Time)","544226","Untrustworthy,Trustworthy","html-keyboard-response","142","242944","0.0-10.0-2.4","","null","","<div class='trialDiv'><img src='trustrating_stim/white_mw060.bmp'><br><font class='baseline'><strong>Alex</strong><p>Choose number of points to send.</font><div class='respPicDiv'><img src='img/responseButtonOffersNo0L2.png' class='respPic'></div></div>","null","2","Alex","1","Shared","0.65,0.2","12","0.65","trustrating_stim/white_mw060.bmp","2.5","24","5"
"","","","feedback","5de7fd8df31ad27743f8d19f","bdp_trlrn","Thu Jul 28 2022 12:00:08 GMT-0400 (Eastern Daylight Time)","544226","Untrustworthy,Trustworthy","html-keyboard-response","143","243947","0.0-10.0-3.4","","null","","<div class='trialDiv'><img src='trustrating_stim/white_mw060.bmp'><br><font class='baseline'><strong>Alex</strong><p>Received: <strong>8</strong></font> &nbsp; &nbsp; &nbsp; &nbsp; &nbsp; &nbsp;<font class='posOutcome'>Shared back: <strong>4</strong></font></font><div class='respPicDiv'><img src='img/responseButtonOffersNo0_wht.png' class='respPic'></div></div>","null","2","Alex","1","Shared","0.65,0.2","12","0.65","trustrating_stim/white_mw060.bmp","2.5","28","5"
"","","","decision","5de7fd8df31ad27743f8d19f","bdp_trlrn","Thu Jul 28 2022 12:00:08 GMT-0400 (Eastern Daylight Time)","544226","Untrustworthy,Trustworthy","html-keyboard-response","144","244904","0.0-10.0-1.5","","956","","<div class='trialDiv'><img src='trustrating_stim/white_mw035.bmp'><br><font class='baseline'><strong>Lucas</strong><p>Choose number of points to send.</font><div class='respPicDiv'><img src='img/responseButtonOffersNo0L.png' class='respPic'></div></div>","3","2","Lucas","6","Kept","0.2,0.65","11","0.2","trustrating_stim/white_mw035.bmp","4","33","6"
"","","","decisionFB","5de7fd8df31ad27743f8d19f","bdp_trlrn","Thu Jul 28 2022 12:00:08 GMT-0400 (Eastern Daylight Time)","544226","Untrustworthy,Trustworthy","html-keyboard-response","145","245157","0.0-10.0-2.5","","null","","<div class='trialDiv'><img src='trustrating_stim/white_mw035.bmp'><br><font class='baseline'><strong>Lucas</strong><p>Choose number of points to send.</font><div class='respPicDiv'><img src='img/responseButtonOffersNo0L3.png' class='respPic'></div></div>","null","2","Lucas","6","Kept","0.2,0.65","11","0.2","trustrating_stim/white_mw035.bmp","4","30","6"
"","","","feedback","5de7fd8df31ad27743f8d19f","bdp_trlrn","Thu Jul 28 2022 12:00:08 GMT-0400 (Eastern Daylight Time)","544226","Untrustworthy,Trustworthy","html-keyboard-response","146","246159","0.0-10.0-3.5","","null","","<div class='trialDiv'><img src='trustrating_stim/white_mw035.bmp'><br><font class='baseline'><strong>Lucas</strong><p>Received: <strong>12</strong></font> &nbsp; &nbsp; &nbsp; &nbsp; &nbsp; &nbsp;<font class='negOutcome'>Shared back: <strong>0</strong></font></font><div class='respPicDiv'><img src='img/responseButtonOffersNo0_wht.png' class='respPic'></div></div>","null","2","Lucas","6","Kept","0.2,0.65","11","0.2","trustrating_stim/white_mw035.bmp","4","30","6"
"","","","decision","5de7fd8df31ad27743f8d19f","bdp_trlrn","Thu Jul 28 2022 12:00:08 GMT-0400 (Eastern Daylight Time)","544226","Untrustworthy,Trustworthy","html-keyboard-response","147","246791","0.0-10.0-1.6","","632","","<div class='trialDiv'><img src='trustrating_stim/white_mw060.bmp'><br><font class='baseline'><strong>Alex</strong><p>Choose number of points to send.</font><div class='respPicDiv'><img src='img/responseButtonOffersNo0L.png' class='respPic'></div></div>","2","3","Alex","1","Shared","0.65,0.2","12","0.65","trustrating_stim/white_mw060.bmp","2.5","35","7"
"","","","decisionFB","5de7fd8df31ad27743f8d19f","bdp_trlrn","Thu Jul 28 2022 12:00:08 GMT-0400 (Eastern Daylight Time)","544226","Untrustworthy,Trustworthy","html-keyboard-response","148","247042","0.0-10.0-2.6","","null","","<div class='trialDiv'><img src='trustrating_stim/white_mw060.bmp'><br><font class='baseline'><strong>Alex</strong><p>Choose number of points to send.</font><div class='respPicDiv'><img src='img/responseButtonOffersNo0L2.png' class='respPic'></div></div>","null","3","Alex","1","Shared","0.65,0.2","12","0.65","trustrating_stim/white_mw060.bmp","2.5","33","7"
"","","","feedback","5de7fd8df31ad27743f8d19f","bdp_trlrn","Thu Jul 28 2022 12:00:08 GMT-0400 (Eastern Daylight Time)","544226","Untrustworthy,Trustworthy","html-keyboard-response","149","248045","0.0-10.0-3.6","","null","","<div class='trialDiv'><img src='trustrating_stim/white_mw060.bmp'><br><font class='baseline'><strong>Alex</strong><p>Received: <strong>8</strong></font> &nbsp; &nbsp; &nbsp; &nbsp; &nbsp; &nbsp;<font class='posOutcome'>Shared back: <strong>4</strong></font></font><div class='respPicDiv'><img src='img/responseButtonOffersNo0_wht.png' class='respPic'></div></div>","null","3","Alex","1","Shared","0.65,0.2","12","0.65","trustrating_stim/white_mw060.bmp","2.5","37","7"
"","","","decision","5de7fd8df31ad27743f8d19f","bdp_trlrn","Thu Jul 28 2022 12:00:08 GMT-0400 (Eastern Daylight Time)","544226","Untrustworthy,Trustworthy","html-keyboard-response","150","249016","0.0-10.0-1.7","","970","","<div class='trialDiv'><img src='trustrating_stim/white_mw035.bmp'><br><font class='baseline'><strong>Lucas</strong><p>Choose number of points to send.</font><div class='respPicDiv'><img src='img/responseButtonOffersNo0L.png' class='respPic'></div></div>","3","3","Lucas","6","Kept","0.2,0.65","11","0.2","trustrating_stim/white_mw035.bmp","4","42","8"
"","","","decisionFB","5de7fd8df31ad27743f8d19f","bdp_trlrn","Thu Jul 28 2022 12:00:08 GMT-0400 (Eastern Daylight Time)","544226","Untrustworthy,Trustworthy","html-keyboard-response","151","249270","0.0-10.0-2.7","","null","","<div class='trialDiv'><img src='trustrating_stim/white_mw035.bmp'><br><font class='baseline'><strong>Lucas</strong><p>Choose number of points to send.</font><div class='respPicDiv'><img src='img/responseButtonOffersNo0L3.png' class='respPic'></div></div>","null","3","Lucas","6","Kept","0.2,0.65","11","0.2","trustrating_stim/white_mw035.bmp","4","39","8"
"","","","feedback","5de7fd8df31ad27743f8d19f","bdp_trlrn","Thu Jul 28 2022 12:00:08 GMT-0400 (Eastern Daylight Time)","544226","Untrustworthy,Trustworthy","html-keyboard-response","152","250273","0.0-10.0-3.7","","null","","<div class='trialDiv'><img src='trustrating_stim/white_mw035.bmp'><br><font class='baseline'><strong>Lucas</strong><p>Received: <strong>12</strong></font> &nbsp; &nbsp; &nbsp; &nbsp; &nbsp; &nbsp;<font class='negOutcome'>Shared back: <strong>0</strong></font></font><div class='respPicDiv'><img src='img/responseButtonOffersNo0_wht.png' class='respPic'></div></div>","null","3","Lucas","6","Kept","0.2,0.65","11","0.2","trustrating_stim/white_mw035.bmp","4","39","8"
"","","","decision","5de7fd8df31ad27743f8d19f","bdp_trlrn","Thu Jul 28 2022 12:00:08 GMT-0400 (Eastern Daylight Time)","544226","Untrustworthy,Trustworthy","html-keyboard-response","153","250842","0.0-10.0-1.8","","569","","<div class='trialDiv'><img src='trustrating_stim/white_mw049.bmp'><br><font class='baseline'><strong>Sebastian</strong><p>Choose number of points to send.</font><div class='respPicDiv'><img src='img/responseButtonOffersNo0L.png' class='respPic'></div></div>","4","3","Sebastian","9","Kept","0.35,0.65","14","0.35","trustrating_stim/white_mw049.bmp","6.5","44","9"
"","","","decisionFB","5de7fd8df31ad27743f8d19f","bdp_trlrn","Thu Jul 28 2022 12:00:08 GMT-0400 (Eastern Daylight Time)","544226","Untrustworthy,Trustworthy","html-keyboard-response","154","251095","0.0-10.0-2.8","","null","","<div class='trialDiv'><img src='trustrating_stim/white_mw049.bmp'><br><font class='baseline'><strong>Sebastian</strong><p>Choose number of points to send.</font><div class='respPicDiv'><img src='img/responseButtonOffersNo0L4.png' class='respPic'></div></div>","null","3","Sebastian","9","Kept","0.35,0.65","14","0.35","trustrating_stim/white_mw049.bmp","6.5","40","9"
"","","","feedback","5de7fd8df31ad27743f8d19f","bdp_trlrn","Thu Jul 28 2022 12:00:08 GMT-0400 (Eastern Daylight Time)","544226","Untrustworthy,Trustworthy","html-keyboard-response","155","252096","0.0-10.0-3.8","","null","","<div class='trialDiv'><img src='trustrating_stim/white_mw049.bmp'><br><font class='baseline'><strong>Sebastian</strong><p>Received: <strong>16</strong></font> &nbsp; &nbsp; &nbsp; &nbsp; &nbsp; &nbsp;<font class='negOutcome'>Shared back: <strong>0</strong></font></font><div class='respPicDiv'><img src='img/responseButtonOffersNo0_wht.png' class='respPic'></div></div>","null","3","Sebastian","9","Kept","0.35,0.65","14","0.35","trustrating_stim/white_mw049.bmp","6.5","40","9"
"","","","decision","5de7fd8df31ad27743f8d19f","bdp_trlrn","Thu Jul 28 2022 12:00:08 GMT-0400 (Eastern Daylight Time)","544226","Untrustworthy,Trustworthy","html-keyboard-response","156","252729","0.0-10.0-1.9","","633","","<div class='trialDiv'><img src='trustrating_stim/white_mw060.bmp'><br><font class='baseline'><strong>Alex</strong><p>Choose number of points to send.</font><div class='respPicDiv'><img src='img/responseButtonOffersNo0L.png' class='respPic'></div></div>","3","4","Alex","1","Shared","0.65,0.2","12","0.65","trustrating_stim/white_mw060.bmp","2.5","45","10"
"","","","decisionFB","5de7fd8df31ad27743f8d19f","bdp_trlrn","Thu Jul 28 2022 12:00:08 GMT-0400 (Eastern Daylight Time)","544226","Untrustworthy,Trustworthy","html-keyboard-response","157","252982","0.0-10.0-2.9","","null","","<div class='trialDiv'><img src='trustrating_stim/white_mw060.bmp'><br><font class='baseline'><strong>Alex</strong><p>Choose number of points to send.</font><div class='respPicDiv'><img src='img/responseButtonOffersNo0L3.png' class='respPic'></div></div>","null","4","Alex","1","Shared","0.65,0.2","12","0.65","trustrating_stim/white_mw060.bmp","2.5","42","10"
"","","","feedback","5de7fd8df31ad27743f8d19f","bdp_trlrn","Thu Jul 28 2022 12:00:08 GMT-0400 (Eastern Daylight Time)","544226","Untrustworthy,Trustworthy","html-keyboard-response","158","253986","0.0-10.0-3.9","","null","","<div class='trialDiv'><img src='trustrating_stim/white_mw060.bmp'><br><font class='baseline'><strong>Alex</strong><p>Received: <strong>12</strong></font> &nbsp; &nbsp; &nbsp; &nbsp; &nbsp; &nbsp;<font class='posOutcome'>Shared back: <strong>6</strong></font></font><div class='respPicDiv'><img src='img/responseButtonOffersNo0_wht.png' class='respPic'></div></div>","null","4","Alex","1","Shared","0.65,0.2","12","0.65","trustrating_stim/white_mw060.bmp","2.5","48","10"
"","","","decision","5de7fd8df31ad27743f8d19f","bdp_trlrn","Thu Jul 28 2022 12:00:08 GMT-0400 (Eastern Daylight Time)","544226","Untrustworthy,Trustworthy","html-keyboard-response","159","254616","0.0-10.0-1.10","","630","","<div class='trialDiv'><img src='trustrating_stim/white_mw049.bmp'><br><font class='baseline'><strong>Sebastian</strong><p>Choose number of points to send.</font><div class='respPicDiv'><img src='img/responseButtonOffersNo0L.png' class='respPic'></div></div>","3","4","Sebastian","9","Kept","0.35,0.65","14","0.35","trustrating_stim/white_mw049.bmp","6.5","53","11"
"","","","decisionFB","5de7fd8df31ad27743f8d19f","bdp_trlrn","Thu Jul 28 2022 12:00:08 GMT-0400 (Eastern Daylight Time)","544226","Untrustworthy,Trustworthy","html-keyboard-response","160","254868","0.0-10.0-2.10","","null","","<div class='trialDiv'><img src='trustrating_stim/white_mw049.bmp'><br><font class='baseline'><strong>Sebastian</strong><p>Choose number of points to send.</font><div class='respPicDiv'><img src='img/responseButtonOffersNo0L3.png' class='respPic'></div></div>","null","4","Sebastian","9","Kept","0.35,0.65","14","0.35","trustrating_stim/white_mw049.bmp","6.5","50","11"
"","","","feedback","5de7fd8df31ad27743f8d19f","bdp_trlrn","Thu Jul 28 2022 12:00:08 GMT-0400 (Eastern Daylight Time)","544226","Untrustworthy,Trustworthy","html-keyboard-response","161","255872","0.0-10.0-3.10","","null","","<div class='trialDiv'><img src='trustrating_stim/white_mw049.bmp'><br><font class='baseline'><strong>Sebastian</strong><p>Received: <strong>12</strong></font> &nbsp; &nbsp; &nbsp; &nbsp; &nbsp; &nbsp;<font class='negOutcome'>Shared back: <strong>0</strong></font></font><div class='respPicDiv'><img src='img/responseButtonOffersNo0_wht.png' class='respPic'></div></div>","null","4","Sebastian","9","Kept","0.35,0.65","14","0.35","trustrating_stim/white_mw049.bmp","6.5","50","11"
"","","","decision","5de7fd8df31ad27743f8d19f","bdp_trlrn","Thu Jul 28 2022 12:00:08 GMT-0400 (Eastern Daylight Time)","544226","Untrustworthy,Trustworthy","html-keyboard-response","162","256979","0.0-10.0-1.11","","1106","","<div class='trialDiv'><img src='trustrating_stim/white_mw035.bmp'><br><font class='baseline'><strong>Lucas</strong><p>Choose number of points to send.</font><div class='respPicDiv'><img src='img/responseButtonOffersNo0L.png' class='respPic'></div></div>","2","4","Lucas","6","Kept","0.2,0.65","11","0.2","trustrating_stim/white_mw035.bmp","4","55","12"
"","","","decisionFB","5de7fd8df31ad27743f8d19f","bdp_trlrn","Thu Jul 28 2022 12:00:08 GMT-0400 (Eastern Daylight Time)","544226","Untrustworthy,Trustworthy","html-keyboard-response","163","257230","0.0-10.0-2.11","","null","","<div class='trialDiv'><img src='trustrating_stim/white_mw035.bmp'><br><font class='baseline'><strong>Lucas</strong><p>Choose number of points to send.</font><div class='respPicDiv'><img src='img/responseButtonOffersNo0L2.png' class='respPic'></div></div>","null","4","Lucas","6","Kept","0.2,0.65","11","0.2","trustrating_stim/white_mw035.bmp","4","53","12"
"","","","feedback","5de7fd8df31ad27743f8d19f","bdp_trlrn","Thu Jul 28 2022 12:00:08 GMT-0400 (Eastern Daylight Time)","544226","Untrustworthy,Trustworthy","html-keyboard-response","164","258233","0.0-10.0-3.11","","null","","<div class='trialDiv'><img src='trustrating_stim/white_mw035.bmp'><br><font class='baseline'><strong>Lucas</strong><p>Received: <strong>8</strong></font> &nbsp; &nbsp; &nbsp; &nbsp; &nbsp; &nbsp;<font class='negOutcome'>Shared back: <strong>0</strong></font></font><div class='respPicDiv'><img src='img/responseButtonOffersNo0_wht.png' class='respPic'></div></div>","null","4","Lucas","6","Kept","0.2,0.65","11","0.2","trustrating_stim/white_mw035.bmp","4","53","12"
"","","","decision","5de7fd8df31ad27743f8d19f","bdp_trlrn","Thu Jul 28 2022 12:00:08 GMT-0400 (Eastern Daylight Time)","544226","Untrustworthy,Trustworthy","html-keyboard-response","165","259079","0.0-10.0-1.12","","846","","<div class='trialDiv'><img src='trustrating_stim/white_mw060.bmp'><br><font class='baseline'><strong>Alex</strong><p>Choose number of points to send.</font><div class='respPicDiv'><img src='img/responseButtonOffersNo0L.png' class='respPic'></div></div>","1","5","Alex","1","Shared","0.65,0.2","12","0.65","trustrating_stim/white_mw060.bmp","2.5","58","13"
"","","","decisionFB","5de7fd8df31ad27743f8d19f","bdp_trlrn","Thu Jul 28 2022 12:00:08 GMT-0400 (Eastern Daylight Time)","544226","Untrustworthy,Trustworthy","html-keyboard-response","166","259330","0.0-10.0-2.12","","null","","<div class='trialDiv'><img src='trustrating_stim/white_mw060.bmp'><br><font class='baseline'><strong>Alex</strong><p>Choose number of points to send.</font><div class='respPicDiv'><img src='img/responseButtonOffersNo0L1.png' class='respPic'></div></div>","null","5","Alex","1","Shared","0.65,0.2","12","0.65","trustrating_stim/white_mw060.bmp","2.5","57","13"
"","","","feedback","5de7fd8df31ad27743f8d19f","bdp_trlrn","Thu Jul 28 2022 12:00:08 GMT-0400 (Eastern Daylight Time)","544226","Untrustworthy,Trustworthy","html-keyboard-response","167","260331","0.0-10.0-3.12","","null","","<div class='trialDiv'><img src='trustrating_stim/white_mw060.bmp'><br><font class='baseline'><strong>Alex</strong><p>Received: <strong>4</strong></font> &nbsp; &nbsp; &nbsp; &nbsp; &nbsp; &nbsp;<font class='posOutcome'>Shared back: <strong>2</strong></font></font><div class='respPicDiv'><img src='img/responseButtonOffersNo0_wht.png' class='respPic'></div></div>","null","5","Alex","1","Shared","0.65,0.2","12","0.65","trustrating_stim/white_mw060.bmp","2.5","59","13"
"","","","decision","5de7fd8df31ad27743f8d19f","bdp_trlrn","Thu Jul 28 2022 12:00:08 GMT-0400 (Eastern Daylight Time)","544226","Untrustworthy,Trustworthy","html-keyboard-response","168","262054","0.0-10.0-1.13","","1723","","<div class='trialDiv'><img src='trustrating_stim/white_mw049.bmp'><br><font class='baseline'><strong>Sebastian</strong><p>Choose number of points to send.</font><div class='respPicDiv'><img src='img/responseButtonOffersNo0L.png' class='respPic'></div></div>","1","5","Sebastian","9","Shared","0.35,0.65","14","0.35","trustrating_stim/white_mw049.bmp","6.5","64","14"
"","","","decisionFB","5de7fd8df31ad27743f8d19f","bdp_trlrn","Thu Jul 28 2022 12:00:08 GMT-0400 (Eastern Daylight Time)","544226","Untrustworthy,Trustworthy","html-keyboard-response","169","262307","0.0-10.0-2.13","","null","","<div class='trialDiv'><img src='trustrating_stim/white_mw049.bmp'><br><font class='baseline'><strong>Sebastian</strong><p>Choose number of points to send.</font><div class='respPicDiv'><img src='img/responseButtonOffersNo0L1.png' class='respPic'></div></div>","null","5","Sebastian","9","Shared","0.35,0.65","14","0.35","trustrating_stim/white_mw049.bmp","6.5","63","14"
"","","","feedback","5de7fd8df31ad27743f8d19f","bdp_trlrn","Thu Jul 28 2022 12:00:08 GMT-0400 (Eastern Daylight Time)","544226","Untrustworthy,Trustworthy","html-keyboard-response","170","263308","0.0-10.0-3.13","","null","","<div class='trialDiv'><img src='trustrating_stim/white_mw049.bmp'><br><font class='baseline'><strong>Sebastian</strong><p>Received: <strong>4</strong></font> &nbsp; &nbsp; &nbsp; &nbsp; &nbsp; &nbsp;<font class='posOutcome'>Shared back: <strong>2</strong></font></font><div class='respPicDiv'><img src='img/responseButtonOffersNo0_wht.png' class='respPic'></div></div>","null","5","Sebastian","9","Shared","0.35,0.65","14","0.35","trustrating_stim/white_mw049.bmp","6.5","65","14"
"","","","decision","5de7fd8df31ad27743f8d19f","bdp_trlrn","Thu Jul 28 2022 12:00:08 GMT-0400 (Eastern Daylight Time)","544226","Untrustworthy,Trustworthy","html-keyboard-response","171","264178","0.0-10.0-1.14","","870","","<div class='trialDiv'><img src='trustrating_stim/white_mw035.bmp'><br><font class='baseline'><strong>Lucas</strong><p>Choose number of points to send.</font><div class='respPicDiv'><img src='img/responseButtonOffersNo0L.png' class='respPic'></div></div>","2","5","Lucas","6","Kept","0.2,0.65","11","0.2","trustrating_stim/white_mw035.bmp","4","70","15"
"","","","decisionFB","5de7fd8df31ad27743f8d19f","bdp_trlrn","Thu Jul 28 2022 12:00:08 GMT-0400 (Eastern Daylight Time)","544226","Untrustworthy,Trustworthy","html-keyboard-response","172","264430","0.0-10.0-2.14","","null","","<div class='trialDiv'><img src='trustrating_stim/white_mw035.bmp'><br><font class='baseline'><strong>Lucas</strong><p>Choose number of points to send.</font><div class='respPicDiv'><img src='img/responseButtonOffersNo0L2.png' class='respPic'></div></div>","null","5","Lucas","6","Kept","0.2,0.65","11","0.2","trustrating_stim/white_mw035.bmp","4","68","15"
"","","","feedback","5de7fd8df31ad27743f8d19f","bdp_trlrn","Thu Jul 28 2022 12:00:08 GMT-0400 (Eastern Daylight Time)","544226","Untrustworthy,Trustworthy","html-keyboard-response","173","265432","0.0-10.0-3.14","","null","","<div class='trialDiv'><img src='trustrating_stim/white_mw035.bmp'><br><font class='baseline'><strong>Lucas</strong><p>Received: <strong>8</strong></font> &nbsp; &nbsp; &nbsp; &nbsp; &nbsp; &nbsp;<font class='negOutcome'>Shared back: <strong>0</strong></font></font><div class='respPicDiv'><img src='img/responseButtonOffersNo0_wht.png' class='respPic'></div></div>","null","5","Lucas","6","Kept","0.2,0.65","11","0.2","trustrating_stim/white_mw035.bmp","4","68","15"
"","","","decision","5de7fd8df31ad27743f8d19f","bdp_trlrn","Thu Jul 28 2022 12:00:08 GMT-0400 (Eastern Daylight Time)","544226","Untrustworthy,Trustworthy","html-keyboard-response","174","266492","0.0-10.0-1.15","","1058","","<div class='trialDiv'><img src='trustrating_stim/white_mw060.bmp'><br><font class='baseline'><strong>Alex</strong><p>Choose number of points to send.</font><div class='respPicDiv'><img src='img/responseButtonOffersNo0L.png' class='respPic'></div></div>","2","6","Alex","1","Kept","0.65,0.2","12","0.65","trustrating_stim/white_mw060.bmp","2.5","73","16"
"","","","decisionFB","5de7fd8df31ad27743f8d19f","bdp_trlrn","Thu Jul 28 2022 12:00:08 GMT-0400 (Eastern Daylight Time)","544226","Untrustworthy,Trustworthy","html-keyboard-response","175","266745","0.0-10.0-2.15","","null","","<div class='trialDiv'><img src='trustrating_stim/white_mw060.bmp'><br><font class='baseline'><strong>Alex</strong><p>Choose number of points to send.</font><div class='respPicDiv'><img src='img/responseButtonOffersNo0L2.png' class='respPic'></div></div>","null","6","Alex","1","Kept","0.65,0.2","12","0.65","trustrating_stim/white_mw060.bmp","2.5","71","16"
"","","","feedback","5de7fd8df31ad27743f8d19f","bdp_trlrn","Thu Jul 28 2022 12:00:08 GMT-0400 (Eastern Daylight Time)","544226","Untrustworthy,Trustworthy","html-keyboard-response","176","267747","0.0-10.0-3.15","","null","","<div class='trialDiv'><img src='trustrating_stim/white_mw060.bmp'><br><font class='baseline'><strong>Alex</strong><p>Received: <strong>8</strong></font> &nbsp; &nbsp; &nbsp; &nbsp; &nbsp; &nbsp;<font class='negOutcome'>Shared back: <strong>0</strong></font></font><div class='respPicDiv'><img src='img/responseButtonOffersNo0_wht.png' class='respPic'></div></div>","null","6","Alex","1","Kept","0.65,0.2","12","0.65","trustrating_stim/white_mw060.bmp","2.5","71","16"
"","","","decision","5de7fd8df31ad27743f8d19f","bdp_trlrn","Thu Jul 28 2022 12:00:08 GMT-0400 (Eastern Daylight Time)","544226","Untrustworthy,Trustworthy","html-keyboard-response","177","268780","0.0-10.0-1.16","","1032","","<div class='trialDiv'><img src='trustrating_stim/white_mw035.bmp'><br><font class='baseline'><strong>Lucas</strong><p>Choose number of points to send.</font><div class='respPicDiv'><img src='img/responseButtonOffersNo0L.png' class='respPic'></div></div>","3","6","Lucas","6","Kept","0.2,0.65","11","0.2","trustrating_stim/white_mw035.bmp","4","76","17"
"","","","decisionFB","5de7fd8df31ad27743f8d19f","bdp_trlrn","Thu Jul 28 2022 12:00:08 GMT-0400 (Eastern Daylight Time)","544226","Untrustworthy,Trustworthy","html-keyboard-response","178","269033","0.0-10.0-2.16","","null","","<div class='trialDiv'><img src='trustrating_stim/white_mw035.bmp'><br><font class='baseline'><strong>Lucas</strong><p>Choose number of points to send.</font><div class='respPicDiv'><img src='img/responseButtonOffersNo0L3.png' class='respPic'></div></div>","null","6","Lucas","6","Kept","0.2,0.65","11","0.2","trustrating_stim/white_mw035.bmp","4","73","17"
"","","","feedback","5de7fd8df31ad27743f8d19f","bdp_trlrn","Thu Jul 28 2022 12:00:08 GMT-0400 (Eastern Daylight Time)","544226","Untrustworthy,Trustworthy","html-keyboard-response","179","270034","0.0-10.0-3.16","","null","","<div class='trialDiv'><img src='trustrating_stim/white_mw035.bmp'><br><font class='baseline'><strong>Lucas</strong><p>Received: <strong>12</strong></font> &nbsp; &nbsp; &nbsp; &nbsp; &nbsp; &nbsp;<font class='negOutcome'>Shared back: <strong>0</strong></font></font><div class='respPicDiv'><img src='img/responseButtonOffersNo0_wht.png' class='respPic'></div></div>","null","6","Lucas","6","Kept","0.2,0.65","11","0.2","trustrating_stim/white_mw035.bmp","4","73","17"
"","","","decision","5de7fd8df31ad27743f8d19f","bdp_trlrn","Thu Jul 28 2022 12:00:08 GMT-0400 (Eastern Daylight Time)","544226","Untrustworthy,Trustworthy","html-keyboard-response","180","270804","0.0-10.0-1.17","","770","","<div class='trialDiv'><img src='trustrating_stim/white_mw049.bmp'><br><font class='baseline'><strong>Sebastian</strong><p>Choose number of points to send.</font><div class='respPicDiv'><img src='img/responseButtonOffersNo0L.png' class='respPic'></div></div>","4","6","Sebastian","9","Kept","0.35,0.65","14","0.35","trustrating_stim/white_mw049.bmp","6.5","78","18"
"","","","decisionFB","5de7fd8df31ad27743f8d19f","bdp_trlrn","Thu Jul 28 2022 12:00:08 GMT-0400 (Eastern Daylight Time)","544226","Untrustworthy,Trustworthy","html-keyboard-response","181","271055","0.0-10.0-2.17","","null","","<div class='trialDiv'><img src='trustrating_stim/white_mw049.bmp'><br><font class='baseline'><strong>Sebastian</strong><p>Choose number of points to send.</font><div class='respPicDiv'><img src='img/responseButtonOffersNo0L4.png' class='respPic'></div></div>","null","6","Sebastian","9","Kept","0.35,0.65","14","0.35","trustrating_stim/white_mw049.bmp","6.5","74","18"
"","","","feedback","5de7fd8df31ad27743f8d19f","bdp_trlrn","Thu Jul 28 2022 12:00:08 GMT-0400 (Eastern Daylight Time)","544226","Untrustworthy,Trustworthy","html-keyboard-response","182","272059","0.0-10.0-3.17","","null","","<div class='trialDiv'><img src='trustrating_stim/white_mw049.bmp'><br><font class='baseline'><strong>Sebastian</strong><p>Received: <strong>16</strong></font> &nbsp; &nbsp; &nbsp; &nbsp; &nbsp; &nbsp;<font class='negOutcome'>Shared back: <strong>0</strong></font></font><div class='respPicDiv'><img src='img/responseButtonOffersNo0_wht.png' class='respPic'></div></div>","null","6","Sebastian","9","Kept","0.35,0.65","14","0.35","trustrating_stim/white_mw049.bmp","6.5","74","18"
"","","","decision","5de7fd8df31ad27743f8d19f","bdp_trlrn","Thu Jul 28 2022 12:00:08 GMT-0400 (Eastern Daylight Time)","544226","Untrustworthy,Trustworthy","html-keyboard-response","183","272679","0.0-10.0-1.18","","619","","<div class='trialDiv'><img src='trustrating_stim/white_mw060.bmp'><br><font class='baseline'><strong>Alex</strong><p>Choose number of points to send.</font><div class='respPicDiv'><img src='img/responseButtonOffersNo0L.png' class='respPic'></div></div>","2","7","Alex","1","Shared","0.65,0.2","12","0.65","trustrating_stim/white_mw060.bmp","2.5","79","19"
"","","","decisionFB","5de7fd8df31ad27743f8d19f","bdp_trlrn","Thu Jul 28 2022 12:00:08 GMT-0400 (Eastern Daylight Time)","544226","Untrustworthy,Trustworthy","html-keyboard-response","184","272931","0.0-10.0-2.18","","null","","<div class='trialDiv'><img src='trustrating_stim/white_mw060.bmp'><br><font class='baseline'><strong>Alex</strong><p>Choose number of points to send.</font><div class='respPicDiv'><img src='img/responseButtonOffersNo0L2.png' class='respPic'></div></div>","null","7","Alex","1","Shared","0.65,0.2","12","0.65","trustrating_stim/white_mw060.bmp","2.5","77","19"
"","","","feedback","5de7fd8df31ad27743f8d19f","bdp_trlrn","Thu Jul 28 2022 12:00:08 GMT-0400 (Eastern Daylight Time)","544226","Untrustworthy,Trustworthy","html-keyboard-response","185","273936","0.0-10.0-3.18","","null","","<div class='trialDiv'><img src='trustrating_stim/white_mw060.bmp'><br><font class='baseline'><strong>Alex</strong><p>Received: <strong>8</strong></font> &nbsp; &nbsp; &nbsp; &nbsp; &nbsp; &nbsp;<font class='posOutcome'>Shared back: <strong>4</strong></font></font><div class='respPicDiv'><img src='img/responseButtonOffersNo0_wht.png' class='respPic'></div></div>","null","7","Alex","1","Shared","0.65,0.2","12","0.65","trustrating_stim/white_mw060.bmp","2.5","81","19"
"","","","decision","5de7fd8df31ad27743f8d19f","bdp_trlrn","Thu Jul 28 2022 12:00:08 GMT-0400 (Eastern Daylight Time)","544226","Untrustworthy,Trustworthy","html-keyboard-response","186","275104","0.0-10.0-1.19","","1167","","<div class='trialDiv'><img src='trustrating_stim/white_mw035.bmp'><br><font class='baseline'><strong>Lucas</strong><p>Choose number of points to send.</font><div class='respPicDiv'><img src='img/responseButtonOffersNo0L.png' class='respPic'></div></div>","2","7","Lucas","6","Kept","0.2,0.65","11","0.2","trustrating_stim/white_mw035.bmp","4","86","20"
"","","","decisionFB","5de7fd8df31ad27743f8d19f","bdp_trlrn","Thu Jul 28 2022 12:00:08 GMT-0400 (Eastern Daylight Time)","544226","Untrustworthy,Trustworthy","html-keyboard-response","187","275355","0.0-10.0-2.19","","null","","<div class='trialDiv'><img src='trustrating_stim/white_mw035.bmp'><br><font class='baseline'><strong>Lucas</strong><p>Choose number of points to send.</font><div class='respPicDiv'><img src='img/responseButtonOffersNo0L2.png' class='respPic'></div></div>","null","7","Lucas","6","Kept","0.2,0.65","11","0.2","trustrating_stim/white_mw035.bmp","4","84","20"
"","","","feedback","5de7fd8df31ad27743f8d19f","bdp_trlrn","Thu Jul 28 2022 12:00:08 GMT-0400 (Eastern Daylight Time)","544226","Untrustworthy,Trustworthy","html-keyboard-response","188","276356","0.0-10.0-3.19","","null","","<div class='trialDiv'><img src='trustrating_stim/white_mw035.bmp'><br><font class='baseline'><strong>Lucas</strong><p>Received: <strong>8</strong></font> &nbsp; &nbsp; &nbsp; &nbsp; &nbsp; &nbsp;<font class='negOutcome'>Shared back: <strong>0</strong></font></font><div class='respPicDiv'><img src='img/responseButtonOffersNo0_wht.png' class='respPic'></div></div>","null","7","Lucas","6","Kept","0.2,0.65","11","0.2","trustrating_stim/white_mw035.bmp","4","84","20"
"","","","decision","5de7fd8df31ad27743f8d19f","bdp_trlrn","Thu Jul 28 2022 12:00:08 GMT-0400 (Eastern Daylight Time)","544226","Untrustworthy,Trustworthy","html-keyboard-response","189","277329","0.0-10.0-1.20","","972","","<div class='trialDiv'><img src='trustrating_stim/white_mw049.bmp'><br><font class='baseline'><strong>Sebastian</strong><p>Choose number of points to send.</font><div class='respPicDiv'><img src='img/responseButtonOffersNo0L.png' class='respPic'></div></div>","3","7","Sebastian","9","Kept","0.35,0.65","14","0.35","trustrating_stim/white_mw049.bmp","6.5","89","21"
"","","","decisionFB","5de7fd8df31ad27743f8d19f","bdp_trlrn","Thu Jul 28 2022 12:00:08 GMT-0400 (Eastern Daylight Time)","544226","Untrustworthy,Trustworthy","html-keyboard-response","190","277580","0.0-10.0-2.20","","null","","<div class='trialDiv'><img src='trustrating_stim/white_mw049.bmp'><br><font class='baseline'><strong>Sebastian</strong><p>Choose number of points to send.</font><div class='respPicDiv'><img src='img/responseButtonOffersNo0L3.png' class='respPic'></div></div>","null","7","Sebastian","9","Kept","0.35,0.65","14","0.35","trustrating_stim/white_mw049.bmp","6.5","86","21"
"","","","feedback","5de7fd8df31ad27743f8d19f","bdp_trlrn","Thu Jul 28 2022 12:00:08 GMT-0400 (Eastern Daylight Time)","544226","Untrustworthy,Trustworthy","html-keyboard-response","191","278582","0.0-10.0-3.20","","null","","<div class='trialDiv'><img src='trustrating_stim/white_mw049.bmp'><br><font class='baseline'><strong>Sebastian</strong><p>Received: <strong>12</strong></font> &nbsp; &nbsp; &nbsp; &nbsp; &nbsp; &nbsp;<font class='negOutcome'>Shared back: <strong>0</strong></font></font><div class='respPicDiv'><img src='img/responseButtonOffersNo0_wht.png' class='respPic'></div></div>","null","7","Sebastian","9","Kept","0.35,0.65","14","0.35","trustrating_stim/white_mw049.bmp","6.5","86","21"
"","","","decision","5de7fd8df31ad27743f8d19f","bdp_trlrn","Thu Jul 28 2022 12:00:08 GMT-0400 (Eastern Daylight Time)","544226","Untrustworthy,Trustworthy","html-keyboard-response","192","279892","0.0-10.0-1.21","","1309","","<div class='trialDiv'><img src='trustrating_stim/white_mw060.bmp'><br><font class='baseline'><strong>Alex</strong><p>Choose number of points to send.</font><div class='respPicDiv'><img src='img/responseButtonOffersNo0L.png' class='respPic'></div></div>","2","8","Alex","1","Shared","0.65,0.2","12","0.65","trustrating_stim/white_mw060.bmp","2.5","91","22"
"","","","decisionFB","5de7fd8df31ad27743f8d19f","bdp_trlrn","Thu Jul 28 2022 12:00:08 GMT-0400 (Eastern Daylight Time)","544226","Untrustworthy,Trustworthy","html-keyboard-response","193","280145","0.0-10.0-2.21","","null","","<div class='trialDiv'><img src='trustrating_stim/white_mw060.bmp'><br><font class='baseline'><strong>Alex</strong><p>Choose number of points to send.</font><div class='respPicDiv'><img src='img/responseButtonOffersNo0L2.png' class='respPic'></div></div>","null","8","Alex","1","Shared","0.65,0.2","12","0.65","trustrating_stim/white_mw060.bmp","2.5","89","22"
"","","","feedback","5de7fd8df31ad27743f8d19f","bdp_trlrn","Thu Jul 28 2022 12:00:08 GMT-0400 (Eastern Daylight Time)","544226","Untrustworthy,Trustworthy","html-keyboard-response","194","281147","0.0-10.0-3.21","","null","","<div class='trialDiv'><img src='trustrating_stim/white_mw060.bmp'><br><font class='baseline'><strong>Alex</strong><p>Received: <strong>8</strong></font> &nbsp; &nbsp; &nbsp; &nbsp; &nbsp; &nbsp;<font class='posOutcome'>Shared back: <strong>4</strong></font></font><div class='respPicDiv'><img src='img/responseButtonOffersNo0_wht.png' class='respPic'></div></div>","null","8","Alex","1","Shared","0.65,0.2","12","0.65","trustrating_stim/white_mw060.bmp","2.5","93","22"
"","","","decision","5de7fd8df31ad27743f8d19f","bdp_trlrn","Thu Jul 28 2022 12:00:08 GMT-0400 (Eastern Daylight Time)","544226","Untrustworthy,Trustworthy","html-keyboard-response","195","282417","0.0-10.0-1.22","","1270","","<div class='trialDiv'><img src='trustrating_stim/white_mw049.bmp'><br><font class='baseline'><strong>Sebastian</strong><p>Choose number of points to send.</font><div class='respPicDiv'><img src='img/responseButtonOffersNo0L.png' class='respPic'></div></div>","1","8","Sebastian","9","Kept","0.35,0.65","14","0.35","trustrating_stim/white_mw049.bmp","6.5","98","23"
"","","","decisionFB","5de7fd8df31ad27743f8d19f","bdp_trlrn","Thu Jul 28 2022 12:00:08 GMT-0400 (Eastern Daylight Time)","544226","Untrustworthy,Trustworthy","html-keyboard-response","196","282670","0.0-10.0-2.22","","null","","<div class='trialDiv'><img src='trustrating_stim/white_mw049.bmp'><br><font class='baseline'><strong>Sebastian</strong><p>Choose number of points to send.</font><div class='respPicDiv'><img src='img/responseButtonOffersNo0L1.png' class='respPic'></div></div>","null","8","Sebastian","9","Kept","0.35,0.65","14","0.35","trustrating_stim/white_mw049.bmp","6.5","97","23"
"","","","feedback","5de7fd8df31ad27743f8d19f","bdp_trlrn","Thu Jul 28 2022 12:00:08 GMT-0400 (Eastern Daylight Time)","544226","Untrustworthy,Trustworthy","html-keyboard-response","197","283673","0.0-10.0-3.22","","null","","<div class='trialDiv'><img src='trustrating_stim/white_mw049.bmp'><br><font class='baseline'><strong>Sebastian</strong><p>Received: <strong>4</strong></font> &nbsp; &nbsp; &nbsp; &nbsp; &nbsp; &nbsp;<font class='negOutcome'>Shared back: <strong>0</strong></font></font><div class='respPicDiv'><img src='img/responseButtonOffersNo0_wht.png' class='respPic'></div></div>","null","8","Sebastian","9","Kept","0.35,0.65","14","0.35","trustrating_stim/white_mw049.bmp","6.5","97","23"
"","","","decision","5de7fd8df31ad27743f8d19f","bdp_trlrn","Thu Jul 28 2022 12:00:08 GMT-0400 (Eastern Daylight Time)","544226","Untrustworthy,Trustworthy","html-keyboard-response","198","284642","0.0-10.0-1.23","","969","","<div class='trialDiv'><img src='trustrating_stim/white_mw035.bmp'><br><font class='baseline'><strong>Lucas</strong><p>Choose number of points to send.</font><div class='respPicDiv'><img src='img/responseButtonOffersNo0L.png' class='respPic'></div></div>","2","8","Lucas","6","Kept","0.2,0.65","11","0.2","trustrating_stim/white_mw035.bmp","4","102","24"
"","","","decisionFB","5de7fd8df31ad27743f8d19f","bdp_trlrn","Thu Jul 28 2022 12:00:08 GMT-0400 (Eastern Daylight Time)","544226","Untrustworthy,Trustworthy","html-keyboard-response","199","284894","0.0-10.0-2.23","","null","","<div class='trialDiv'><img src='trustrating_stim/white_mw035.bmp'><br><font class='baseline'><strong>Lucas</strong><p>Choose number of points to send.</font><div class='respPicDiv'><img src='img/responseButtonOffersNo0L2.png' class='respPic'></div></div>","null","8","Lucas","6","Kept","0.2,0.65","11","0.2","trustrating_stim/white_mw035.bmp","4","100","24"
"","","","feedback","5de7fd8df31ad27743f8d19f","bdp_trlrn","Thu Jul 28 2022 12:00:08 GMT-0400 (Eastern Daylight Time)","544226","Untrustworthy,Trustworthy","html-keyboard-response","200","285895","0.0-10.0-3.23","","null","","<div class='trialDiv'><img src='trustrating_stim/white_mw035.bmp'><br><font class='baseline'><strong>Lucas</strong><p>Received: <strong>8</strong></font> &nbsp; &nbsp; &nbsp; &nbsp; &nbsp; &nbsp;<font class='negOutcome'>Shared back: <strong>0</strong></font></font><div class='respPicDiv'><img src='img/responseButtonOffersNo0_wht.png' class='respPic'></div></div>","null","8","Lucas","6","Kept","0.2,0.65","11","0.2","trustrating_stim/white_mw035.bmp","4","100","24"
"","","","decision","5de7fd8df31ad27743f8d19f","bdp_trlrn","Thu Jul 28 2022 12:00:08 GMT-0400 (Eastern Daylight Time)","544226","Untrustworthy,Trustworthy","html-keyboard-response","201","287055","0.0-10.0-1.24","","1159","","<div class='trialDiv'><img src='trustrating_stim/white_mw049.bmp'><br><font class='baseline'><strong>Sebastian</strong><p>Choose number of points to send.</font><div class='respPicDiv'><img src='img/responseButtonOffersNo0L.png' class='respPic'></div></div>","3","9","Sebastian","9","Kept","0.35,0.65","14","0.35","trustrating_stim/white_mw049.bmp","6.5","105","25"
"","","","decisionFB","5de7fd8df31ad27743f8d19f","bdp_trlrn","Thu Jul 28 2022 12:00:08 GMT-0400 (Eastern Daylight Time)","544226","Untrustworthy,Trustworthy","html-keyboard-response","202","287307","0.0-10.0-2.24","","null","","<div class='trialDiv'><img src='trustrating_stim/white_mw049.bmp'><br><font class='baseline'><strong>Sebastian</strong><p>Choose number of points to send.</font><div class='respPicDiv'><img src='img/responseButtonOffersNo0L3.png' class='respPic'></div></div>","null","9","Sebastian","9","Kept","0.35,0.65","14","0.35","trustrating_stim/white_mw049.bmp","6.5","102","25"
"","","","feedback","5de7fd8df31ad27743f8d19f","bdp_trlrn","Thu Jul 28 2022 12:00:08 GMT-0400 (Eastern Daylight Time)","544226","Untrustworthy,Trustworthy","html-keyboard-response","203","288308","0.0-10.0-3.24","","null","","<div class='trialDiv'><img src='trustrating_stim/white_mw049.bmp'><br><font class='baseline'><strong>Sebastian</strong><p>Received: <strong>12</strong></font> &nbsp; &nbsp; &nbsp; &nbsp; &nbsp; &nbsp;<font class='negOutcome'>Shared back: <strong>0</strong></font></font><div class='respPicDiv'><img src='img/responseButtonOffersNo0_wht.png' class='respPic'></div></div>","null","9","Sebastian","9","Kept","0.35,0.65","14","0.35","trustrating_stim/white_mw049.bmp","6.5","102","25"
"","","","decision","5de7fd8df31ad27743f8d19f","bdp_trlrn","Thu Jul 28 2022 12:00:08 GMT-0400 (Eastern Daylight Time)","544226","Untrustworthy,Trustworthy","html-keyboard-response","204","289267","0.0-10.0-1.25","","957","","<div class='trialDiv'><img src='trustrating_stim/white_mw035.bmp'><br><font class='baseline'><strong>Lucas</strong><p>Choose number of points to send.</font><div class='respPicDiv'><img src='img/responseButtonOffersNo0L.png' class='respPic'></div></div>","1","9","Lucas","6","Kept","0.2,0.65","11","0.2","trustrating_stim/white_mw035.bmp","4","107","26"
"","","","decisionFB","5de7fd8df31ad27743f8d19f","bdp_trlrn","Thu Jul 28 2022 12:00:08 GMT-0400 (Eastern Daylight Time)","544226","Untrustworthy,Trustworthy","html-keyboard-response","205","289518","0.0-10.0-2.25","","null","","<div class='trialDiv'><img src='trustrating_stim/white_mw035.bmp'><br><font class='baseline'><strong>Lucas</strong><p>Choose number of points to send.</font><div class='respPicDiv'><img src='img/responseButtonOffersNo0L1.png' class='respPic'></div></div>","null","9","Lucas","6","Kept","0.2,0.65","11","0.2","trustrating_stim/white_mw035.bmp","4","106","26"
"","","","feedback","5de7fd8df31ad27743f8d19f","bdp_trlrn","Thu Jul 28 2022 12:00:08 GMT-0400 (Eastern Daylight Time)","544226","Untrustworthy,Trustworthy","html-keyboard-response","206","290519","0.0-10.0-3.25","","null","","<div class='trialDiv'><img src='trustrating_stim/white_mw035.bmp'><br><font class='baseline'><strong>Lucas</strong><p>Received: <strong>4</strong></font> &nbsp; &nbsp; &nbsp; &nbsp; &nbsp; &nbsp;<font class='negOutcome'>Shared back: <strong>0</strong></font></font><div class='respPicDiv'><img src='img/responseButtonOffersNo0_wht.png' class='respPic'></div></div>","null","9","Lucas","6","Kept","0.2,0.65","11","0.2","trustrating_stim/white_mw035.bmp","4","106","26"
"","","","decision","5de7fd8df31ad27743f8d19f","bdp_trlrn","Thu Jul 28 2022 12:00:08 GMT-0400 (Eastern Daylight Time)","544226","Untrustworthy,Trustworthy","html-keyboard-response","207","291667","0.0-10.0-1.26","","1146","","<div class='trialDiv'><img src='trustrating_stim/white_mw060.bmp'><br><font class='baseline'><strong>Alex</strong><p>Choose number of points to send.</font><div class='respPicDiv'><img src='img/responseButtonOffersNo0L.png' class='respPic'></div></div>","2","9","Alex","1","Shared","0.65,0.2","12","0.65","trustrating_stim/white_mw060.bmp","2.5","111","27"
"","","","decisionFB","5de7fd8df31ad27743f8d19f","bdp_trlrn","Thu Jul 28 2022 12:00:08 GMT-0400 (Eastern Daylight Time)","544226","Untrustworthy,Trustworthy","html-keyboard-response","208","291918","0.0-10.0-2.26","","null","","<div class='trialDiv'><img src='trustrating_stim/white_mw060.bmp'><br><font class='baseline'><strong>Alex</strong><p>Choose number of points to send.</font><div class='respPicDiv'><img src='img/responseButtonOffersNo0L2.png' class='respPic'></div></div>","null","9","Alex","1","Shared","0.65,0.2","12","0.65","trustrating_stim/white_mw060.bmp","2.5","109","27"
"","","","feedback","5de7fd8df31ad27743f8d19f","bdp_trlrn","Thu Jul 28 2022 12:00:08 GMT-0400 (Eastern Daylight Time)","544226","Untrustworthy,Trustworthy","html-keyboard-response","209","292921","0.0-10.0-3.26","","null","","<div class='trialDiv'><img src='trustrating_stim/white_mw060.bmp'><br><font class='baseline'><strong>Alex</strong><p>Received: <strong>8</strong></font> &nbsp; &nbsp; &nbsp; &nbsp; &nbsp; &nbsp;<font class='posOutcome'>Shared back: <strong>4</strong></font></font><div class='respPicDiv'><img src='img/responseButtonOffersNo0_wht.png' class='respPic'></div></div>","null","9","Alex","1","Shared","0.65,0.2","12","0.65","trustrating_stim/white_mw060.bmp","2.5","113","27"
"","","","decision","5de7fd8df31ad27743f8d19f","bdp_trlrn","Thu Jul 28 2022 12:00:08 GMT-0400 (Eastern Daylight Time)","544226","Untrustworthy,Trustworthy","html-keyboard-response","210","293867","0.0-10.0-1.27","","945","","<div class='trialDiv'><img src='trustrating_stim/white_mw035.bmp'><br><font class='baseline'><strong>Lucas</strong><p>Choose number of points to send.</font><div class='respPicDiv'><img src='img/responseButtonOffersNo0L.png' class='respPic'></div></div>","1","10","Lucas","6","Kept","0.2,0.65","11","0.2","trustrating_stim/white_mw035.bmp","4","118","28"
"","","","decisionFB","5de7fd8df31ad27743f8d19f","bdp_trlrn","Thu Jul 28 2022 12:00:08 GMT-0400 (Eastern Daylight Time)","544226","Untrustworthy,Trustworthy","html-keyboard-response","211","294118","0.0-10.0-2.27","","null","","<div class='trialDiv'><img src='trustrating_stim/white_mw035.bmp'><br><font class='baseline'><strong>Lucas</strong><p>Choose number of points to send.</font><div class='respPicDiv'><img src='img/responseButtonOffersNo0L1.png' class='respPic'></div></div>","null","10","Lucas","6","Kept","0.2,0.65","11","0.2","trustrating_stim/white_mw035.bmp","4","117","28"
"","","","feedback","5de7fd8df31ad27743f8d19f","bdp_trlrn","Thu Jul 28 2022 12:00:08 GMT-0400 (Eastern Daylight Time)","544226","Untrustworthy,Trustworthy","html-keyboard-response","212","295120","0.0-10.0-3.27","","null","","<div class='trialDiv'><img src='trustrating_stim/white_mw035.bmp'><br><font class='baseline'><strong>Lucas</strong><p>Received: <strong>4</strong></font> &nbsp; &nbsp; &nbsp; &nbsp; &nbsp; &nbsp;<font class='negOutcome'>Shared back: <strong>0</strong></font></font><div class='respPicDiv'><img src='img/responseButtonOffersNo0_wht.png' class='respPic'></div></div>","null","10","Lucas","6","Kept","0.2,0.65","11","0.2","trustrating_stim/white_mw035.bmp","4","117","28"
"","","","decision","5de7fd8df31ad27743f8d19f","bdp_trlrn","Thu Jul 28 2022 12:00:08 GMT-0400 (Eastern Daylight Time)","544226","Untrustworthy,Trustworthy","html-keyboard-response","213","296205","0.0-10.0-1.28","","1084","","<div class='trialDiv'><img src='trustrating_stim/white_mw060.bmp'><br><font class='baseline'><strong>Alex</strong><p>Choose number of points to send.</font><div class='respPicDiv'><img src='img/responseButtonOffersNo0L.png' class='respPic'></div></div>","4","10","Alex","1","Shared","0.65,0.2","12","0.65","trustrating_stim/white_mw060.bmp","2.5","122","29"
"","","","decisionFB","5de7fd8df31ad27743f8d19f","bdp_trlrn","Thu Jul 28 2022 12:00:08 GMT-0400 (Eastern Daylight Time)","544226","Untrustworthy,Trustworthy","html-keyboard-response","214","296456","0.0-10.0-2.28","","null","","<div class='trialDiv'><img src='trustrating_stim/white_mw060.bmp'><br><font class='baseline'><strong>Alex</strong><p>Choose number of points to send.</font><div class='respPicDiv'><img src='img/responseButtonOffersNo0L4.png' class='respPic'></div></div>","null","10","Alex","1","Shared","0.65,0.2","12","0.65","trustrating_stim/white_mw060.bmp","2.5","118","29"
"","","","feedback","5de7fd8df31ad27743f8d19f","bdp_trlrn","Thu Jul 28 2022 12:00:08 GMT-0400 (Eastern Daylight Time)","544226","Untrustworthy,Trustworthy","html-keyboard-response","215","297460","0.0-10.0-3.28","","null","","<div class='trialDiv'><img src='trustrating_stim/white_mw060.bmp'><br><font class='baseline'><strong>Alex</strong><p>Received: <strong>16</strong></font> &nbsp; &nbsp; &nbsp; &nbsp; &nbsp; &nbsp;<font class='posOutcome'>Shared back: <strong>8</strong></font></font><div class='respPicDiv'><img src='img/responseButtonOffersNo0_wht.png' class='respPic'></div></div>","null","10","Alex","1","Shared","0.65,0.2","12","0.65","trustrating_stim/white_mw060.bmp","2.5","126","29"
"","","","decision","5de7fd8df31ad27743f8d19f","bdp_trlrn","Thu Jul 28 2022 12:00:08 GMT-0400 (Eastern Daylight Time)","544226","Untrustworthy,Trustworthy","html-keyboard-response","216","298579","0.0-10.0-1.29","","1119","","<div class='trialDiv'><img src='trustrating_stim/white_mw049.bmp'><br><font class='baseline'><strong>Sebastian</strong><p>Choose number of points to send.</font><div class='respPicDiv'><img src='img/responseButtonOffersNo0L.png' class='respPic'></div></div>","1","10","Sebastian","9","Shared","0.35,0.65","14","0.35","trustrating_stim/white_mw049.bmp","6.5","131","30"
"","","","decisionFB","5de7fd8df31ad27743f8d19f","bdp_trlrn","Thu Jul 28 2022 12:00:08 GMT-0400 (Eastern Daylight Time)","544226","Untrustworthy,Trustworthy","html-keyboard-response","217","298833","0.0-10.0-2.29","","null","","<div class='trialDiv'><img src='trustrating_stim/white_mw049.bmp'><br><font class='baseline'><strong>Sebastian</strong><p>Choose number of points to send.</font><div class='respPicDiv'><img src='img/responseButtonOffersNo0L1.png' class='respPic'></div></div>","null","10","Sebastian","9","Shared","0.35,0.65","14","0.35","trustrating_stim/white_mw049.bmp","6.5","130","30"
"","","","feedback","5de7fd8df31ad27743f8d19f","bdp_trlrn","Thu Jul 28 2022 12:00:08 GMT-0400 (Eastern Daylight Time)","544226","Untrustworthy,Trustworthy","html-keyboard-response","218","299833","0.0-10.0-3.29","","null","","<div class='trialDiv'><img src='trustrating_stim/white_mw049.bmp'><br><font class='baseline'><strong>Sebastian</strong><p>Received: <strong>4</strong></font> &nbsp; &nbsp; &nbsp; &nbsp; &nbsp; &nbsp;<font class='posOutcome'>Shared back: <strong>2</strong></font></font><div class='respPicDiv'><img src='img/responseButtonOffersNo0_wht.png' class='respPic'></div></div>","null","10","Sebastian","9","Shared","0.35,0.65","14","0.35","trustrating_stim/white_mw049.bmp","6.5","132","30"
"","","","decision","5de7fd8df31ad27743f8d19f","bdp_trlrn","Thu Jul 28 2022 12:00:08 GMT-0400 (Eastern Daylight Time)","544226","Untrustworthy,Trustworthy","html-keyboard-response","219","300868","0.0-10.0-1.30","","1034","","<div class='trialDiv'><img src='trustrating_stim/white_mw035.bmp'><br><font class='baseline'><strong>Lucas</strong><p>Choose number of points to send.</font><div class='respPicDiv'><img src='img/responseButtonOffersNo0L.png' class='respPic'></div></div>","1","11","Lucas","6","Shared","0.2,0.65","11","0.2","trustrating_stim/white_mw035.bmp","4","137","31"
"","","","decisionFB","5de7fd8df31ad27743f8d19f","bdp_trlrn","Thu Jul 28 2022 12:00:08 GMT-0400 (Eastern Daylight Time)","544226","Untrustworthy,Trustworthy","html-keyboard-response","220","301124","0.0-10.0-2.30","","null","","<div class='trialDiv'><img src='trustrating_stim/white_mw035.bmp'><br><font class='baseline'><strong>Lucas</strong><p>Choose number of points to send.</font><div class='respPicDiv'><img src='img/responseButtonOffersNo0L1.png' class='respPic'></div></div>","null","11","Lucas","6","Shared","0.2,0.65","11","0.2","trustrating_stim/white_mw035.bmp","4","136","31"
"","","","feedback","5de7fd8df31ad27743f8d19f","bdp_trlrn","Thu Jul 28 2022 12:00:08 GMT-0400 (Eastern Daylight Time)","544226","Untrustworthy,Trustworthy","html-keyboard-response","221","302126","0.0-10.0-3.30","","null","","<div class='trialDiv'><img src='trustrating_stim/white_mw035.bmp'><br><font class='baseline'><strong>Lucas</strong><p>Received: <strong>4</strong></font> &nbsp; &nbsp; &nbsp; &nbsp; &nbsp; &nbsp;<font class='posOutcome'>Shared back: <strong>2</strong></font></font><div class='respPicDiv'><img src='img/responseButtonOffersNo0_wht.png' class='respPic'></div></div>","null","11","Lucas","6","Shared","0.2,0.65","11","0.2","trustrating_stim/white_mw035.bmp","4","138","31"
"","","","decision","5de7fd8df31ad27743f8d19f","bdp_trlrn","Thu Jul 28 2022 12:00:08 GMT-0400 (Eastern Daylight Time)","544226","Untrustworthy,Trustworthy","html-keyboard-response","222","303017","0.0-10.0-1.31","","889","","<div class='trialDiv'><img src='trustrating_stim/white_mw049.bmp'><br><font class='baseline'><strong>Sebastian</strong><p>Choose number of points to send.</font><div class='respPicDiv'><img src='img/responseButtonOffersNo0L.png' class='respPic'></div></div>","1","11","Sebastian","9","Shared","0.35,0.65","14","0.35","trustrating_stim/white_mw049.bmp","6.5","143","32"
"","","","decisionFB","5de7fd8df31ad27743f8d19f","bdp_trlrn","Thu Jul 28 2022 12:00:08 GMT-0400 (Eastern Daylight Time)","544226","Untrustworthy,Trustworthy","html-keyboard-response","223","303270","0.0-10.0-2.31","","null","","<div class='trialDiv'><img src='trustrating_stim/white_mw049.bmp'><br><font class='baseline'><strong>Sebastian</strong><p>Choose number of points to send.</font><div class='respPicDiv'><img src='img/responseButtonOffersNo0L1.png' class='respPic'></div></div>","null","11","Sebastian","9","Shared","0.35,0.65","14","0.35","trustrating_stim/white_mw049.bmp","6.5","142","32"
"","","","feedback","5de7fd8df31ad27743f8d19f","bdp_trlrn","Thu Jul 28 2022 12:00:08 GMT-0400 (Eastern Daylight Time)","544226","Untrustworthy,Trustworthy","html-keyboard-response","224","304276","0.0-10.0-3.31","","null","","<div class='trialDiv'><img src='trustrating_stim/white_mw049.bmp'><br><font class='baseline'><strong>Sebastian</strong><p>Received: <strong>4</strong></font> &nbsp; &nbsp; &nbsp; &nbsp; &nbsp; &nbsp;<font class='posOutcome'>Shared back: <strong>2</strong></font></font><div class='respPicDiv'><img src='img/responseButtonOffersNo0_wht.png' class='respPic'></div></div>","null","11","Sebastian","9","Shared","0.35,0.65","14","0.35","trustrating_stim/white_mw049.bmp","6.5","144","32"
