"trial_type","trial_index","time_elapsed","internal_node_id","subject_id","task","startTime","totalTime","labels","view_history","rt","event","trial","time","trialtype","success","stimulus","key_press","aground","name","faceID","outcome","agenttype","agentswpt","agentcurrpshare","face","avgRating","point_total","round"
"pavlovia","0","3","0.0-0.0","640feb5e49b723bcfaad6437","bdp_trlrn","Tue Mar 14 2023 13:41:06 GMT-0400 (Eastern Daylight Time)","512680","Untrustworthy,Trustworthy","","","","","","","","","","","","","","","","","","","",""
"instructions","1","1869","0.0-1.0","640feb5e49b723bcfaad6437","bdp_trlrn","Tue Mar 14 2023 13:41:06 GMT-0400 (Eastern Daylight Time)","512680","Untrustworthy,Trustworthy","[{""page_index"":0,""viewing_time"":1865}]","1865","","","","","","","","","","","","","","","","","",""
"","","","","640feb5e49b723bcfaad6437","bdp_trlrn","Tue Mar 14 2023 13:41:06 GMT-0400 (Eastern Daylight Time)","512680","Untrustworthy,Trustworthy","","","fullscreenenter","2","3679","fullscreenenter","","","","","","","","","","","","","",""
"fullscreen","2","4671","0.0-2.0","640feb5e49b723bcfaad6437","bdp_trlrn","Tue Mar 14 2023 13:41:06 GMT-0400 (Eastern Daylight Time)","512680","Untrustworthy,Trustworthy","","","","","","","true","","","","","","","","","","","","",""
"instructions","3","16233","0.0-4.0","640feb5e49b723bcfaad6437","bdp_trlrn","Tue Mar 14 2023 13:41:06 GMT-0400 (Eastern Daylight Time)","512680","Untrustworthy,Trustworthy","[{""page_index"":0,""viewing_time"":4349},{""page_index"":1,""viewing_time"":7212}]","11561","","","","","","","","","","","","","","","","","",""
"instructions","4","17887","0.0-5.0","640feb5e49b723bcfaad6437","bdp_trlrn","Tue Mar 14 2023 13:41:06 GMT-0400 (Eastern Daylight Time)","512680","Untrustworthy,Trustworthy","[{""page_index"":0,""viewing_time"":1653}]","1653","","","","","","","","","","","","","","","","","",""
"image-keyboard-response","5","19654","0.0-6.0-1.0","640feb5e49b723bcfaad6437","bdp_trlrn","Tue Mar 14 2023 13:41:06 GMT-0400 (Eastern Daylight Time)","512680","Untrustworthy,Trustworthy","","1655","","","","rating","","trustrating_stim/white_00898_960530_fa_edt.bmp","5","","","","","","","","","","",""
"image-keyboard-response","6","19861","0.0-6.0-2.0","640feb5e49b723bcfaad6437","bdp_trlrn","Tue Mar 14 2023 13:41:06 GMT-0400 (Eastern Daylight Time)","512680","Untrustworthy,Trustworthy","","null","","","","ratingFB","","trustrating_stim/white_00898_960530_fa_edt.bmp","null","","","","","","","","","","",""
"image-keyboard-response","7","21656","0.0-6.0-1.1","640feb5e49b723bcfaad6437","bdp_trlrn","Tue Mar 14 2023 13:41:06 GMT-0400 (Eastern Daylight Time)","512680","Untrustworthy,Trustworthy","","1682","","","","rating","","trustrating_stim/white_mw056.bmp","3","","","","","","","","","","",""
"image-keyboard-response","8","21859","0.0-6.0-2.1","640feb5e49b723bcfaad6437","bdp_trlrn","Tue Mar 14 2023 13:41:06 GMT-0400 (Eastern Daylight Time)","512680","Untrustworthy,Trustworthy","","null","","","","ratingFB","","trustrating_stim/white_mw056.bmp","null","","","","","","","","","","",""
"image-keyboard-response","9","23312","0.0-6.0-1.2","640feb5e49b723bcfaad6437","bdp_trlrn","Tue Mar 14 2023 13:41:06 GMT-0400 (Eastern Daylight Time)","512680","Untrustworthy,Trustworthy","","1347","","","","rating","","trustrating_stim/white_mw049.bmp","5","","","","","","","","","","",""
"image-keyboard-response","10","23517","0.0-6.0-2.2","640feb5e49b723bcfaad6437","bdp_trlrn","Tue Mar 14 2023 13:41:06 GMT-0400 (Eastern Daylight Time)","512680","Untrustworthy,Trustworthy","","null","","","","ratingFB","","trustrating_stim/white_mw049.bmp","null","","","","","","","","","","",""
"image-keyboard-response","11","24847","0.0-6.0-1.3","640feb5e49b723bcfaad6437","bdp_trlrn","Tue Mar 14 2023 13:41:06 GMT-0400 (Eastern Daylight Time)","512680","Untrustworthy,Trustworthy","","1227","","","","rating","","trustrating_stim/white_00757_941201_fa_edt.bmp","5","","","","","","","","","","",""
"image-keyboard-response","12","25052","0.0-6.0-2.3","640feb5e49b723bcfaad6437","bdp_trlrn","Tue Mar 14 2023 13:41:06 GMT-0400 (Eastern Daylight Time)","512680","Untrustworthy,Trustworthy","","null","","","","ratingFB","","trustrating_stim/white_00757_941201_fa_edt.bmp","null","","","","","","","","","","",""
"image-keyboard-response","13","26190","0.0-6.0-1.4","640feb5e49b723bcfaad6437","bdp_trlrn","Tue Mar 14 2023 13:41:06 GMT-0400 (Eastern Daylight Time)","512680","Untrustworthy,Trustworthy","","1031","","","","rating","","trustrating_stim/white_00129_931230_fb_edt.bmp","4","","","","","","","","","","",""
"image-keyboard-response","14","26396","0.0-6.0-2.4","640feb5e49b723bcfaad6437","bdp_trlrn","Tue Mar 14 2023 13:41:06 GMT-0400 (Eastern Daylight Time)","512680","Untrustworthy,Trustworthy","","null","","","","ratingFB","","trustrating_stim/white_00129_931230_fb_edt.bmp","null","","","","","","","","","","",""
"image-keyboard-response","15","28087","0.0-6.0-1.5","640feb5e49b723bcfaad6437","bdp_trlrn","Tue Mar 14 2023 13:41:06 GMT-0400 (Eastern Daylight Time)","512680","Untrustworthy,Trustworthy","","1588","","","","rating","","trustrating_stim/white_00807_941205_fb_edt.bmp","4","","","","","","","","","","",""
"image-keyboard-response","16","28291","0.0-6.0-2.5","640feb5e49b723bcfaad6437","bdp_trlrn","Tue Mar 14 2023 13:41:06 GMT-0400 (Eastern Daylight Time)","512680","Untrustworthy,Trustworthy","","null","","","","ratingFB","","trustrating_stim/white_00807_941205_fb_edt.bmp","null","","","","","","","","","","",""
"image-keyboard-response","17","29758","0.0-6.0-1.6","640feb5e49b723bcfaad6437","bdp_trlrn","Tue Mar 14 2023 13:41:06 GMT-0400 (Eastern Daylight Time)","512680","Untrustworthy,Trustworthy","","1361","","","","rating","","trustrating_stim/white_mw084.bmp","4","","","","","","","","","","",""
"image-keyboard-response","18","29964","0.0-6.0-2.6","640feb5e49b723bcfaad6437","bdp_trlrn","Tue Mar 14 2023 13:41:06 GMT-0400 (Eastern Daylight Time)","512680","Untrustworthy,Trustworthy","","null","","","","ratingFB","","trustrating_stim/white_mw084.bmp","null","","","","","","","","","","",""
"image-keyboard-response","19","31218","0.0-6.0-1.7","640feb5e49b723bcfaad6437","bdp_trlrn","Tue Mar 14 2023 13:41:06 GMT-0400 (Eastern Daylight Time)","512680","Untrustworthy,Trustworthy","","1146","","","","rating","","trustrating_stim/white_00340_940422_fa_edt.bmp","4","","","","","","","","","","",""
"image-keyboard-response","20","31420","0.0-6.0-2.7","640feb5e49b723bcfaad6437","bdp_trlrn","Tue Mar 14 2023 13:41:06 GMT-0400 (Eastern Daylight Time)","512680","Untrustworthy,Trustworthy","","null","","","","ratingFB","","trustrating_stim/white_00340_940422_fa_edt.bmp","null","","","","","","","","","","",""
"image-keyboard-response","21","32900","0.0-6.0-1.8","640feb5e49b723bcfaad6437","bdp_trlrn","Tue Mar 14 2023 13:41:06 GMT-0400 (Eastern Daylight Time)","512680","Untrustworthy,Trustworthy","","1375","","","","rating","","trustrating_stim/white_00577_940928_fa_edt.bmp","3","","","","","","","","","","",""
"image-keyboard-response","22","33108","0.0-6.0-2.8","640feb5e49b723bcfaad6437","bdp_trlrn","Tue Mar 14 2023 13:41:06 GMT-0400 (Eastern Daylight Time)","512680","Untrustworthy,Trustworthy","","null","","","","ratingFB","","trustrating_stim/white_00577_940928_fa_edt.bmp","null","","","","","","","","","","",""
"image-keyboard-response","23","34320","0.0-6.0-1.9","640feb5e49b723bcfaad6437","bdp_trlrn","Tue Mar 14 2023 13:41:06 GMT-0400 (Eastern Daylight Time)","512680","Untrustworthy,Trustworthy","","1107","","","","rating","","trustrating_stim/white_00299_940422_fa_edt.bmp","5","","","","","","","","","","",""
"image-keyboard-response","24","34525","0.0-6.0-2.9","640feb5e49b723bcfaad6437","bdp_trlrn","Tue Mar 14 2023 13:41:06 GMT-0400 (Eastern Daylight Time)","512680","Untrustworthy,Trustworthy","","null","","","","ratingFB","","trustrating_stim/white_00299_940422_fa_edt.bmp","null","","","","","","","","","","",""
"image-keyboard-response","25","35503","0.0-6.0-1.10","640feb5e49b723bcfaad6437","bdp_trlrn","Tue Mar 14 2023 13:41:06 GMT-0400 (Eastern Daylight Time)","512680","Untrustworthy,Trustworthy","","873","","","","rating","","trustrating_stim/white_mw033.bmp","4","","","","","","","","","","",""
"image-keyboard-response","26","35709","0.0-6.0-2.10","640feb5e49b723bcfaad6437","bdp_trlrn","Tue Mar 14 2023 13:41:06 GMT-0400 (Eastern Daylight Time)","512680","Untrustworthy,Trustworthy","","null","","","","ratingFB","","trustrating_stim/white_mw033.bmp","null","","","","","","","","","","",""
"image-keyboard-response","27","36671","0.0-6.0-1.11","640feb5e49b723bcfaad6437","bdp_trlrn","Tue Mar 14 2023 13:41:06 GMT-0400 (Eastern Daylight Time)","512680","Untrustworthy,Trustworthy","","858","","","","rating","","trustrating_stim/white_mw053.bmp","6","","","","","","","","","","",""
"image-keyboard-response","28","36878","0.0-6.0-2.11","640feb5e49b723bcfaad6437","bdp_trlrn","Tue Mar 14 2023 13:41:06 GMT-0400 (Eastern Daylight Time)","512680","Untrustworthy,Trustworthy","","null","","","","ratingFB","","trustrating_stim/white_mw053.bmp","null","","","","","","","","","","",""
"image-keyboard-response","29","37823","0.0-6.0-1.12","640feb5e49b723bcfaad6437","bdp_trlrn","Tue Mar 14 2023 13:41:06 GMT-0400 (Eastern Daylight Time)","512680","Untrustworthy,Trustworthy","","831","","","","rating","","trustrating_stim/white_00109_931230_fa_edt.bmp","4","","","","","","","","","","",""
"image-keyboard-response","30","38032","0.0-6.0-2.12","640feb5e49b723bcfaad6437","bdp_trlrn","Tue Mar 14 2023 13:41:06 GMT-0400 (Eastern Daylight Time)","512680","Untrustworthy,Trustworthy","","null","","","","ratingFB","","trustrating_stim/white_00109_931230_fa_edt.bmp","null","","","","","","","","","","",""
"image-keyboard-response","31","39873","0.0-6.0-1.13","640feb5e49b723bcfaad6437","bdp_trlrn","Tue Mar 14 2023 13:41:06 GMT-0400 (Eastern Daylight Time)","512680","Untrustworthy,Trustworthy","","1729","","","","rating","","trustrating_stim/white_00761_941201_fb_edt.bmp","5","","","","","","","","","","",""
"image-keyboard-response","32","40075","0.0-6.0-2.13","640feb5e49b723bcfaad6437","bdp_trlrn","Tue Mar 14 2023 13:41:06 GMT-0400 (Eastern Daylight Time)","512680","Untrustworthy,Trustworthy","","null","","","","ratingFB","","trustrating_stim/white_00761_941201_fb_edt.bmp","null","","","","","","","","","","",""
"image-keyboard-response","33","41319","0.0-6.0-1.14","640feb5e49b723bcfaad6437","bdp_trlrn","Tue Mar 14 2023 13:41:06 GMT-0400 (Eastern Daylight Time)","512680","Untrustworthy,Trustworthy","","1138","","","","rating","","trustrating_stim/white_mw048.bmp","3","","","","","","","","","","",""
"image-keyboard-response","34","41525","0.0-6.0-2.14","640feb5e49b723bcfaad6437","bdp_trlrn","Tue Mar 14 2023 13:41:06 GMT-0400 (Eastern Daylight Time)","512680","Untrustworthy,Trustworthy","","null","","","","ratingFB","","trustrating_stim/white_mw048.bmp","null","","","","","","","","","","",""
"image-keyboard-response","35","42447","0.0-6.0-1.15","640feb5e49b723bcfaad6437","bdp_trlrn","Tue Mar 14 2023 13:41:06 GMT-0400 (Eastern Daylight Time)","512680","Untrustworthy,Trustworthy","","817","","","","rating","","trustrating_stim/white_00785_941205_fb_edt.bmp","5","","","","","","","","","","",""
"image-keyboard-response","36","42653","0.0-6.0-2.15","640feb5e49b723bcfaad6437","bdp_trlrn","Tue Mar 14 2023 13:41:06 GMT-0400 (Eastern Daylight Time)","512680","Untrustworthy,Trustworthy","","null","","","","ratingFB","","trustrating_stim/white_00785_941205_fb_edt.bmp","null","","","","","","","","","","",""
"image-keyboard-response","37","43751","0.0-6.0-1.16","640feb5e49b723bcfaad6437","bdp_trlrn","Tue Mar 14 2023 13:41:06 GMT-0400 (Eastern Daylight Time)","512680","Untrustworthy,Trustworthy","","994","","","","rating","","trustrating_stim/white_mw099.bmp","4","","","","","","","","","","",""
"image-keyboard-response","38","43958","0.0-6.0-2.16","640feb5e49b723bcfaad6437","bdp_trlrn","Tue Mar 14 2023 13:41:06 GMT-0400 (Eastern Daylight Time)","512680","Untrustworthy,Trustworthy","","null","","","","ratingFB","","trustrating_stim/white_mw099.bmp","null","","","","","","","","","","",""
"image-keyboard-response","39","44822","0.0-6.0-1.17","640feb5e49b723bcfaad6437","bdp_trlrn","Tue Mar 14 2023 13:41:06 GMT-0400 (Eastern Daylight Time)","512680","Untrustworthy,Trustworthy","","759","","","","rating","","trustrating_stim/white_mw066.bmp","4","","","","","","","","","","",""
"image-keyboard-response","40","45027","0.0-6.0-2.17","640feb5e49b723bcfaad6437","bdp_trlrn","Tue Mar 14 2023 13:41:06 GMT-0400 (Eastern Daylight Time)","512680","Untrustworthy,Trustworthy","","null","","","","ratingFB","","trustrating_stim/white_mw066.bmp","null","","","","","","","","","","",""
"image-keyboard-response","41","46022","0.0-6.0-1.18","640feb5e49b723bcfaad6437","bdp_trlrn","Tue Mar 14 2023 13:41:06 GMT-0400 (Eastern Daylight Time)","512680","Untrustworthy,Trustworthy","","886","","","","rating","","trustrating_stim/white_mw063.bmp","5","","","","","","","","","","",""
"image-keyboard-response","42","46228","0.0-6.0-2.18","640feb5e49b723bcfaad6437","bdp_trlrn","Tue Mar 14 2023 13:41:06 GMT-0400 (Eastern Daylight Time)","512680","Untrustworthy,Trustworthy","","null","","","","ratingFB","","trustrating_stim/white_mw063.bmp","null","","","","","","","","","","",""
"image-keyboard-response","43","47143","0.0-6.0-1.19","640feb5e49b723bcfaad6437","bdp_trlrn","Tue Mar 14 2023 13:41:06 GMT-0400 (Eastern Daylight Time)","512680","Untrustworthy,Trustworthy","","810","","","","rating","","trustrating_stim/white_00223_940128_fb_edt.bmp","3","","","","","","","","","","",""
"image-keyboard-response","44","47348","0.0-6.0-2.19","640feb5e49b723bcfaad6437","bdp_trlrn","Tue Mar 14 2023 13:41:06 GMT-0400 (Eastern Daylight Time)","512680","Untrustworthy,Trustworthy","","null","","","","ratingFB","","trustrating_stim/white_00223_940128_fb_edt.bmp","null","","","","","","","","","","",""
"image-keyboard-response","45","48837","0.0-6.0-1.20","640feb5e49b723bcfaad6437","bdp_trlrn","Tue Mar 14 2023 13:41:06 GMT-0400 (Eastern Daylight Time)","512680","Untrustworthy,Trustworthy","","1383","","","","rating","","trustrating_stim/white_mw089.bmp","3","","","","","","","","","","",""
"image-keyboard-response","46","49043","0.0-6.0-2.20","640feb5e49b723bcfaad6437","bdp_trlrn","Tue Mar 14 2023 13:41:06 GMT-0400 (Eastern Daylight Time)","512680","Untrustworthy,Trustworthy","","null","","","","ratingFB","","trustrating_stim/white_mw089.bmp","null","","","","","","","","","","",""
"image-keyboard-response","47","50288","0.0-6.0-1.21","640feb5e49b723bcfaad6437","bdp_trlrn","Tue Mar 14 2023 13:41:06 GMT-0400 (Eastern Daylight Time)","512680","Untrustworthy,Trustworthy","","1135","","","","rating","","trustrating_stim/white_mw097.bmp","3","","","","","","","","","","",""
"image-keyboard-response","48","50495","0.0-6.0-2.21","640feb5e49b723bcfaad6437","bdp_trlrn","Tue Mar 14 2023 13:41:06 GMT-0400 (Eastern Daylight Time)","512680","Untrustworthy,Trustworthy","","null","","","","ratingFB","","trustrating_stim/white_mw097.bmp","null","","","","","","","","","","",""
"image-keyboard-response","49","51383","0.0-6.0-1.22","640feb5e49b723bcfaad6437","bdp_trlrn","Tue Mar 14 2023 13:41:06 GMT-0400 (Eastern Daylight Time)","512680","Untrustworthy,Trustworthy","","778","","","","rating","","trustrating_stim/white_mw035.bmp","4","","","","","","","","","","",""
"image-keyboard-response","50","51592","0.0-6.0-2.22","640feb5e49b723bcfaad6437","bdp_trlrn","Tue Mar 14 2023 13:41:06 GMT-0400 (Eastern Daylight Time)","512680","Untrustworthy,Trustworthy","","null","","","","ratingFB","","trustrating_stim/white_mw035.bmp","null","","","","","","","","","","",""
"image-keyboard-response","51","52366","0.0-6.0-1.23","640feb5e49b723bcfaad6437","bdp_trlrn","Tue Mar 14 2023 13:41:06 GMT-0400 (Eastern Daylight Time)","512680","Untrustworthy,Trustworthy","","662","","","","rating","","trustrating_stim/white_00120_931230_fa_edt.bmp","4","","","","","","","","","","",""
"image-keyboard-response","52","52572","0.0-6.0-2.23","640feb5e49b723bcfaad6437","bdp_trlrn","Tue Mar 14 2023 13:41:06 GMT-0400 (Eastern Daylight Time)","512680","Untrustworthy,Trustworthy","","null","","","","ratingFB","","trustrating_stim/white_00120_931230_fa_edt.bmp","null","","","","","","","","","","",""
"image-keyboard-response","53","53375","0.0-6.0-1.24","640feb5e49b723bcfaad6437","bdp_trlrn","Tue Mar 14 2023 13:41:06 GMT-0400 (Eastern Daylight Time)","512680","Untrustworthy,Trustworthy","","698","","","","rating","","trustrating_stim/white_mw060.bmp","5","","","","","","","","","","",""
"image-keyboard-response","54","53583","0.0-6.0-2.24","640feb5e49b723bcfaad6437","bdp_trlrn","Tue Mar 14 2023 13:41:06 GMT-0400 (Eastern Daylight Time)","512680","Untrustworthy,Trustworthy","","null","","","","ratingFB","","trustrating_stim/white_mw060.bmp","null","","","","","","","","","","",""
"image-keyboard-response","55","54518","0.0-6.0-1.25","640feb5e49b723bcfaad6437","bdp_trlrn","Tue Mar 14 2023 13:41:06 GMT-0400 (Eastern Daylight Time)","512680","Untrustworthy,Trustworthy","","824","","","","rating","","trustrating_stim/white_00519_940519_fb_edt.bmp","4","","","","","","","","","","",""
"image-keyboard-response","56","54726","0.0-6.0-2.25","640feb5e49b723bcfaad6437","bdp_trlrn","Tue Mar 14 2023 13:41:06 GMT-0400 (Eastern Daylight Time)","512680","Untrustworthy,Trustworthy","","null","","","","ratingFB","","trustrating_stim/white_00519_940519_fb_edt.bmp","null","","","","","","","","","","",""
"image-keyboard-response","57","55735","0.0-6.0-1.26","640feb5e49b723bcfaad6437","bdp_trlrn","Tue Mar 14 2023 13:41:06 GMT-0400 (Eastern Daylight Time)","512680","Untrustworthy,Trustworthy","","896","","","","rating","","trustrating_stim/white_00602_940928_fb_edt.bmp","5","","","","","","","","","","",""
"image-keyboard-response","58","55941","0.0-6.0-2.26","640feb5e49b723bcfaad6437","bdp_trlrn","Tue Mar 14 2023 13:41:06 GMT-0400 (Eastern Daylight Time)","512680","Untrustworthy,Trustworthy","","null","","","","ratingFB","","trustrating_stim/white_00602_940928_fb_edt.bmp","null","","","","","","","","","","",""
"image-keyboard-response","59","56872","0.0-6.0-1.27","640feb5e49b723bcfaad6437","bdp_trlrn","Tue Mar 14 2023 13:41:06 GMT-0400 (Eastern Daylight Time)","512680","Untrustworthy,Trustworthy","","826","","","","rating","","trustrating_stim/white_mw046.bmp","4","","","","","","","","","","",""
"image-keyboard-response","60","57077","0.0-6.0-2.27","640feb5e49b723bcfaad6437","bdp_trlrn","Tue Mar 14 2023 13:41:06 GMT-0400 (Eastern Daylight Time)","512680","Untrustworthy,Trustworthy","","null","","","","ratingFB","","trustrating_stim/white_mw046.bmp","null","","","","","","","","","","",""
"image-keyboard-response","61","59239","0.0-6.0-1.28","640feb5e49b723bcfaad6437","bdp_trlrn","Tue Mar 14 2023 13:41:06 GMT-0400 (Eastern Daylight Time)","512680","Untrustworthy,Trustworthy","","2056","","","","rating","","trustrating_stim/white_mw071.bmp","5","","","","","","","","","","",""
"image-keyboard-response","62","59445","0.0-6.0-2.28","640feb5e49b723bcfaad6437","bdp_trlrn","Tue Mar 14 2023 13:41:06 GMT-0400 (Eastern Daylight Time)","512680","Untrustworthy,Trustworthy","","null","","","","ratingFB","","trustrating_stim/white_mw071.bmp","null","","","","","","","","","","",""
"image-keyboard-response","63","60192","0.0-6.0-1.29","640feb5e49b723bcfaad6437","bdp_trlrn","Tue Mar 14 2023 13:41:06 GMT-0400 (Eastern Daylight Time)","512680","Untrustworthy,Trustworthy","","639","","","","rating","","trustrating_stim/white_00659_941121_fa_edt.bmp","4","","","","","","","","","","",""
"image-keyboard-response","64","60398","0.0-6.0-2.29","640feb5e49b723bcfaad6437","bdp_trlrn","Tue Mar 14 2023 13:41:06 GMT-0400 (Eastern Daylight Time)","512680","Untrustworthy,Trustworthy","","null","","","","ratingFB","","trustrating_stim/white_00659_941121_fa_edt.bmp","null","","","","","","","","","","",""
"image-keyboard-response","65","61104","0.0-6.0-1.30","640feb5e49b723bcfaad6437","bdp_trlrn","Tue Mar 14 2023 13:41:06 GMT-0400 (Eastern Daylight Time)","512680","Untrustworthy,Trustworthy","","600","","","","rating","","trustrating_stim/white_mw084.bmp","4","","","","","","","","","","",""
"image-keyboard-response","66","61310","0.0-6.0-2.30","640feb5e49b723bcfaad6437","bdp_trlrn","Tue Mar 14 2023 13:41:06 GMT-0400 (Eastern Daylight Time)","512680","Untrustworthy,Trustworthy","","null","","","","ratingFB","","trustrating_stim/white_mw084.bmp","null","","","","","","","","","","",""
"image-keyboard-response","67","62536","0.0-6.0-1.31","640feb5e49b723bcfaad6437","bdp_trlrn","Tue Mar 14 2023 13:41:06 GMT-0400 (Eastern Daylight Time)","512680","Untrustworthy,Trustworthy","","1121","","","","rating","","trustrating_stim/white_mw066.bmp","3","","","","","","","","","","",""
"image-keyboard-response","68","62743","0.0-6.0-2.31","640feb5e49b723bcfaad6437","bdp_trlrn","Tue Mar 14 2023 13:41:06 GMT-0400 (Eastern Daylight Time)","512680","Untrustworthy,Trustworthy","","null","","","","ratingFB","","trustrating_stim/white_mw066.bmp","null","","","","","","","","","","",""
"image-keyboard-response","69","63679","0.0-6.0-1.32","640feb5e49b723bcfaad6437","bdp_trlrn","Tue Mar 14 2023 13:41:06 GMT-0400 (Eastern Daylight Time)","512680","Untrustworthy,Trustworthy","","825","","","","rating","","trustrating_stim/white_mw071.bmp","4","","","","","","","","","","",""
"image-keyboard-response","70","63887","0.0-6.0-2.32","640feb5e49b723bcfaad6437","bdp_trlrn","Tue Mar 14 2023 13:41:06 GMT-0400 (Eastern Daylight Time)","512680","Untrustworthy,Trustworthy","","null","","","","ratingFB","","trustrating_stim/white_mw071.bmp","null","","","","","","","","","","",""
"image-keyboard-response","71","65063","0.0-6.0-1.33","640feb5e49b723bcfaad6437","bdp_trlrn","Tue Mar 14 2023 13:41:06 GMT-0400 (Eastern Daylight Time)","512680","Untrustworthy,Trustworthy","","1065","","","","rating","","trustrating_stim/white_00129_931230_fb_edt.bmp","4","","","","","","","","","","",""
"image-keyboard-response","72","65268","0.0-6.0-2.33","640feb5e49b723bcfaad6437","bdp_trlrn","Tue Mar 14 2023 13:41:06 GMT-0400 (Eastern Daylight Time)","512680","Untrustworthy,Trustworthy","","null","","","","ratingFB","","trustrating_stim/white_00129_931230_fb_edt.bmp","null","","","","","","","","","","",""
"image-keyboard-response","73","66319","0.0-6.0-1.34","640feb5e49b723bcfaad6437","bdp_trlrn","Tue Mar 14 2023 13:41:06 GMT-0400 (Eastern Daylight Time)","512680","Untrustworthy,Trustworthy","","946","","","","rating","","trustrating_stim/white_mw063.bmp","4","","","","","","","","","","",""
"image-keyboard-response","74","66528","0.0-6.0-2.34","640feb5e49b723bcfaad6437","bdp_trlrn","Tue Mar 14 2023 13:41:06 GMT-0400 (Eastern Daylight Time)","512680","Untrustworthy,Trustworthy","","null","","","","ratingFB","","trustrating_stim/white_mw063.bmp","null","","","","","","","","","","",""
"image-keyboard-response","75","67887","0.0-6.0-1.35","640feb5e49b723bcfaad6437","bdp_trlrn","Tue Mar 14 2023 13:41:06 GMT-0400 (Eastern Daylight Time)","512680","Untrustworthy,Trustworthy","","1247","","","","rating","","trustrating_stim/white_00898_960530_fa_edt.bmp","5","","","","","","","","","","",""
"image-keyboard-response","76","68097","0.0-6.0-2.35","640feb5e49b723bcfaad6437","bdp_trlrn","Tue Mar 14 2023 13:41:06 GMT-0400 (Eastern Daylight Time)","512680","Untrustworthy,Trustworthy","","null","","","","ratingFB","","trustrating_stim/white_00898_960530_fa_edt.bmp","null","","","","","","","","","","",""
"image-keyboard-response","77","68986","0.0-6.0-1.36","640feb5e49b723bcfaad6437","bdp_trlrn","Tue Mar 14 2023 13:41:06 GMT-0400 (Eastern Daylight Time)","512680","Untrustworthy,Trustworthy","","779","","","","rating","","trustrating_stim/white_mw033.bmp","4","","","","","","","","","","",""
"image-keyboard-response","78","69192","0.0-6.0-2.36","640feb5e49b723bcfaad6437","bdp_trlrn","Tue Mar 14 2023 13:41:06 GMT-0400 (Eastern Daylight Time)","512680","Untrustworthy,Trustworthy","","null","","","","ratingFB","","trustrating_stim/white_mw033.bmp","null","","","","","","","","","","",""
"image-keyboard-response","79","70569","0.0-6.0-1.37","640feb5e49b723bcfaad6437","bdp_trlrn","Tue Mar 14 2023 13:41:06 GMT-0400 (Eastern Daylight Time)","512680","Untrustworthy,Trustworthy","","1263","","","","rating","","trustrating_stim/white_00120_931230_fa_edt.bmp","4","","","","","","","","","","",""
"image-keyboard-response","80","70775","0.0-6.0-2.37","640feb5e49b723bcfaad6437","bdp_trlrn","Tue Mar 14 2023 13:41:06 GMT-0400 (Eastern Daylight Time)","512680","Untrustworthy,Trustworthy","","null","","","","ratingFB","","trustrating_stim/white_00120_931230_fa_edt.bmp","null","","","","","","","","","","",""
"image-keyboard-response","81","71737","0.0-6.0-1.38","640feb5e49b723bcfaad6437","bdp_trlrn","Tue Mar 14 2023 13:41:06 GMT-0400 (Eastern Daylight Time)","512680","Untrustworthy,Trustworthy","","848","","","","rating","","trustrating_stim/white_mw097.bmp","4","","","","","","","","","","",""
"image-keyboard-response","82","71941","0.0-6.0-2.38","640feb5e49b723bcfaad6437","bdp_trlrn","Tue Mar 14 2023 13:41:06 GMT-0400 (Eastern Daylight Time)","512680","Untrustworthy,Trustworthy","","null","","","","ratingFB","","trustrating_stim/white_mw097.bmp","null","","","","","","","","","","",""
"image-keyboard-response","83","73060","0.0-6.0-1.39","640feb5e49b723bcfaad6437","bdp_trlrn","Tue Mar 14 2023 13:41:06 GMT-0400 (Eastern Daylight Time)","512680","Untrustworthy,Trustworthy","","1015","","","","rating","","trustrating_stim/white_00340_940422_fa_edt.bmp","3","","","","","","","","","","",""
"image-keyboard-response","84","73268","0.0-6.0-2.39","640feb5e49b723bcfaad6437","bdp_trlrn","Tue Mar 14 2023 13:41:06 GMT-0400 (Eastern Daylight Time)","512680","Untrustworthy,Trustworthy","","null","","","","ratingFB","","trustrating_stim/white_00340_940422_fa_edt.bmp","null","","","","","","","","","","",""
"image-keyboard-response","85","75180","0.0-6.0-1.40","640feb5e49b723bcfaad6437","bdp_trlrn","Tue Mar 14 2023 13:41:06 GMT-0400 (Eastern Daylight Time)","512680","Untrustworthy,Trustworthy","","1806","","","","rating","","trustrating_stim/white_mw053.bmp","6","","","","","","","","","","",""
"image-keyboard-response","86","75392","0.0-6.0-2.40","640feb5e49b723bcfaad6437","bdp_trlrn","Tue Mar 14 2023 13:41:06 GMT-0400 (Eastern Daylight Time)","512680","Untrustworthy,Trustworthy","","null","","","","ratingFB","","trustrating_stim/white_mw053.bmp","null","","","","","","","","","","",""
"image-keyboard-response","87","76462","0.0-6.0-1.41","640feb5e49b723bcfaad6437","bdp_trlrn","Tue Mar 14 2023 13:41:06 GMT-0400 (Eastern Daylight Time)","512680","Untrustworthy,Trustworthy","","958","","","","rating","","trustrating_stim/white_00761_941201_fb_edt.bmp","5","","","","","","","","","","",""
"image-keyboard-response","88","76671","0.0-6.0-2.41","640feb5e49b723bcfaad6437","bdp_trlrn","Tue Mar 14 2023 13:41:06 GMT-0400 (Eastern Daylight Time)","512680","Untrustworthy,Trustworthy","","null","","","","ratingFB","","trustrating_stim/white_00761_941201_fb_edt.bmp","null","","","","","","","","","","",""
"image-keyboard-response","89","77465","0.0-6.0-1.42","640feb5e49b723bcfaad6437","bdp_trlrn","Tue Mar 14 2023 13:41:06 GMT-0400 (Eastern Daylight Time)","512680","Untrustworthy,Trustworthy","","683","","","","rating","","trustrating_stim/white_mw056.bmp","4","","","","","","","","","","",""
"image-keyboard-response","90","77671","0.0-6.0-2.42","640feb5e49b723bcfaad6437","bdp_trlrn","Tue Mar 14 2023 13:41:06 GMT-0400 (Eastern Daylight Time)","512680","Untrustworthy,Trustworthy","","null","","","","ratingFB","","trustrating_stim/white_mw056.bmp","null","","","","","","","","","","",""
"image-keyboard-response","91","78915","0.0-6.0-1.43","640feb5e49b723bcfaad6437","bdp_trlrn","Tue Mar 14 2023 13:41:06 GMT-0400 (Eastern Daylight Time)","512680","Untrustworthy,Trustworthy","","1134","","","","rating","","trustrating_stim/white_mw060.bmp","5","","","","","","","","","","",""
"image-keyboard-response","92","79126","0.0-6.0-2.43","640feb5e49b723bcfaad6437","bdp_trlrn","Tue Mar 14 2023 13:41:06 GMT-0400 (Eastern Daylight Time)","512680","Untrustworthy,Trustworthy","","null","","","","ratingFB","","trustrating_stim/white_mw060.bmp","null","","","","","","","","","","",""
"image-keyboard-response","93","80400","0.0-6.0-1.44","640feb5e49b723bcfaad6437","bdp_trlrn","Tue Mar 14 2023 13:41:06 GMT-0400 (Eastern Daylight Time)","512680","Untrustworthy,Trustworthy","","1163","","","","rating","","trustrating_stim/white_mw089.bmp","3","","","","","","","","","","",""
"image-keyboard-response","94","80605","0.0-6.0-2.44","640feb5e49b723bcfaad6437","bdp_trlrn","Tue Mar 14 2023 13:41:06 GMT-0400 (Eastern Daylight Time)","512680","Untrustworthy,Trustworthy","","null","","","","ratingFB","","trustrating_stim/white_mw089.bmp","null","","","","","","","","","","",""
"image-keyboard-response","95","81483","0.0-6.0-1.45","640feb5e49b723bcfaad6437","bdp_trlrn","Tue Mar 14 2023 13:41:06 GMT-0400 (Eastern Daylight Time)","512680","Untrustworthy,Trustworthy","","771","","","","rating","","trustrating_stim/white_00602_940928_fb_edt.bmp","4","","","","","","","","","","",""
"image-keyboard-response","96","81692","0.0-6.0-2.45","640feb5e49b723bcfaad6437","bdp_trlrn","Tue Mar 14 2023 13:41:06 GMT-0400 (Eastern Daylight Time)","512680","Untrustworthy,Trustworthy","","null","","","","ratingFB","","trustrating_stim/white_00602_940928_fb_edt.bmp","null","","","","","","","","","","",""
"image-keyboard-response","97","82567","0.0-6.0-1.46","640feb5e49b723bcfaad6437","bdp_trlrn","Tue Mar 14 2023 13:41:06 GMT-0400 (Eastern Daylight Time)","512680","Untrustworthy,Trustworthy","","770","","","","rating","","trustrating_stim/white_00519_940519_fb_edt.bmp","4","","","","","","","","","","",""
"image-keyboard-response","98","82773","0.0-6.0-2.46","640feb5e49b723bcfaad6437","bdp_trlrn","Tue Mar 14 2023 13:41:06 GMT-0400 (Eastern Daylight Time)","512680","Untrustworthy,Trustworthy","","null","","","","ratingFB","","trustrating_stim/white_00519_940519_fb_edt.bmp","null","","","","","","","","","","",""
"image-keyboard-response","99","83752","0.0-6.0-1.47","640feb5e49b723bcfaad6437","bdp_trlrn","Tue Mar 14 2023 13:41:06 GMT-0400 (Eastern Daylight Time)","512680","Untrustworthy,Trustworthy","","874","","","","rating","","trustrating_stim/white_00577_940928_fa_edt.bmp","4","","","","","","","","","","",""
"image-keyboard-response","100","83956","0.0-6.0-2.47","640feb5e49b723bcfaad6437","bdp_trlrn","Tue Mar 14 2023 13:41:06 GMT-0400 (Eastern Daylight Time)","512680","Untrustworthy,Trustworthy","","null","","","","ratingFB","","trustrating_stim/white_00577_940928_fa_edt.bmp","null","","","","","","","","","","",""
"image-keyboard-response","101","84893","0.0-6.0-1.48","640feb5e49b723bcfaad6437","bdp_trlrn","Tue Mar 14 2023 13:41:06 GMT-0400 (Eastern Daylight Time)","512680","Untrustworthy,Trustworthy","","829","","","","rating","","trustrating_stim/white_00223_940128_fb_edt.bmp","3","","","","","","","","","","",""
"image-keyboard-response","102","85102","0.0-6.0-2.48","640feb5e49b723bcfaad6437","bdp_trlrn","Tue Mar 14 2023 13:41:06 GMT-0400 (Eastern Daylight Time)","512680","Untrustworthy,Trustworthy","","null","","","","ratingFB","","trustrating_stim/white_00223_940128_fb_edt.bmp","null","","","","","","","","","","",""
"image-keyboard-response","103","86028","0.0-6.0-1.49","640feb5e49b723bcfaad6437","bdp_trlrn","Tue Mar 14 2023 13:41:06 GMT-0400 (Eastern Daylight Time)","512680","Untrustworthy,Trustworthy","","811","","","","rating","","trustrating_stim/white_mw049.bmp","4","","","","","","","","","","",""
"image-keyboard-response","104","86237","0.0-6.0-2.49","640feb5e49b723bcfaad6437","bdp_trlrn","Tue Mar 14 2023 13:41:06 GMT-0400 (Eastern Daylight Time)","512680","Untrustworthy,Trustworthy","","null","","","","ratingFB","","trustrating_stim/white_mw049.bmp","null","","","","","","","","","","",""
"image-keyboard-response","105","87552","0.0-6.0-1.50","640feb5e49b723bcfaad6437","bdp_trlrn","Tue Mar 14 2023 13:41:06 GMT-0400 (Eastern Daylight Time)","512680","Untrustworthy,Trustworthy","","1209","","","","rating","","trustrating_stim/white_00807_941205_fb_edt.bmp","4","","","","","","","","","","",""
"image-keyboard-response","106","87761","0.0-6.0-2.50","640feb5e49b723bcfaad6437","bdp_trlrn","Tue Mar 14 2023 13:41:06 GMT-0400 (Eastern Daylight Time)","512680","Untrustworthy,Trustworthy","","null","","","","ratingFB","","trustrating_stim/white_00807_941205_fb_edt.bmp","null","","","","","","","","","","",""
"image-keyboard-response","107","89527","0.0-6.0-1.51","640feb5e49b723bcfaad6437","bdp_trlrn","Tue Mar 14 2023 13:41:06 GMT-0400 (Eastern Daylight Time)","512680","Untrustworthy,Trustworthy","","1655","","","","rating","","trustrating_stim/white_00299_940422_fa_edt.bmp","5","","","","","","","","","","",""
"image-keyboard-response","108","89733","0.0-6.0-2.51","640feb5e49b723bcfaad6437","bdp_trlrn","Tue Mar 14 2023 13:41:06 GMT-0400 (Eastern Daylight Time)","512680","Untrustworthy,Trustworthy","","null","","","","ratingFB","","trustrating_stim/white_00299_940422_fa_edt.bmp","null","","","","","","","","","","",""
"image-keyboard-response","109","90513","0.0-6.0-1.52","640feb5e49b723bcfaad6437","bdp_trlrn","Tue Mar 14 2023 13:41:06 GMT-0400 (Eastern Daylight Time)","512680","Untrustworthy,Trustworthy","","675","","","","rating","","trustrating_stim/white_00659_941121_fa_edt.bmp","4","","","","","","","","","","",""
"image-keyboard-response","110","90719","0.0-6.0-2.52","640feb5e49b723bcfaad6437","bdp_trlrn","Tue Mar 14 2023 13:41:06 GMT-0400 (Eastern Daylight Time)","512680","Untrustworthy,Trustworthy","","null","","","","ratingFB","","trustrating_stim/white_00659_941121_fa_edt.bmp","null","","","","","","","","","","",""
"image-keyboard-response","111","92473","0.0-6.0-1.53","640feb5e49b723bcfaad6437","bdp_trlrn","Tue Mar 14 2023 13:41:06 GMT-0400 (Eastern Daylight Time)","512680","Untrustworthy,Trustworthy","","1642","","","","rating","","trustrating_stim/white_00785_941205_fb_edt.bmp","4","","","","","","","","","","",""
"image-keyboard-response","112","92681","0.0-6.0-2.53","640feb5e49b723bcfaad6437","bdp_trlrn","Tue Mar 14 2023 13:41:06 GMT-0400 (Eastern Daylight Time)","512680","Untrustworthy,Trustworthy","","null","","","","ratingFB","","trustrating_stim/white_00785_941205_fb_edt.bmp","null","","","","","","","","","","",""
"image-keyboard-response","113","93818","0.0-6.0-1.54","640feb5e49b723bcfaad6437","bdp_trlrn","Tue Mar 14 2023 13:41:06 GMT-0400 (Eastern Daylight Time)","512680","Untrustworthy,Trustworthy","","1026","","","","rating","","trustrating_stim/white_mw099.bmp","4","","","","","","","","","","",""
"image-keyboard-response","114","94024","0.0-6.0-2.54","640feb5e49b723bcfaad6437","bdp_trlrn","Tue Mar 14 2023 13:41:06 GMT-0400 (Eastern Daylight Time)","512680","Untrustworthy,Trustworthy","","null","","","","ratingFB","","trustrating_stim/white_mw099.bmp","null","","","","","","","","","","",""
"image-keyboard-response","115","95071","0.0-6.0-1.55","640feb5e49b723bcfaad6437","bdp_trlrn","Tue Mar 14 2023 13:41:06 GMT-0400 (Eastern Daylight Time)","512680","Untrustworthy,Trustworthy","","938","","","","rating","","trustrating_stim/white_mw048.bmp","3","","","","","","","","","","",""
"image-keyboard-response","116","95277","0.0-6.0-2.55","640feb5e49b723bcfaad6437","bdp_trlrn","Tue Mar 14 2023 13:41:06 GMT-0400 (Eastern Daylight Time)","512680","Untrustworthy,Trustworthy","","null","","","","ratingFB","","trustrating_stim/white_mw048.bmp","null","","","","","","","","","","",""
"image-keyboard-response","117","96264","0.0-6.0-1.56","640feb5e49b723bcfaad6437","bdp_trlrn","Tue Mar 14 2023 13:41:06 GMT-0400 (Eastern Daylight Time)","512680","Untrustworthy,Trustworthy","","883","","","","rating","","trustrating_stim/white_mw035.bmp","4","","","","","","","","","","",""
"image-keyboard-response","118","96472","0.0-6.0-2.56","640feb5e49b723bcfaad6437","bdp_trlrn","Tue Mar 14 2023 13:41:06 GMT-0400 (Eastern Daylight Time)","512680","Untrustworthy,Trustworthy","","null","","","","ratingFB","","trustrating_stim/white_mw035.bmp","null","","","","","","","","","","",""
"image-keyboard-response","119","97223","0.0-6.0-1.57","640feb5e49b723bcfaad6437","bdp_trlrn","Tue Mar 14 2023 13:41:06 GMT-0400 (Eastern Daylight Time)","512680","Untrustworthy,Trustworthy","","639","","","","rating","","trustrating_stim/white_00109_931230_fa_edt.bmp","4","","","","","","","","","","",""
"image-keyboard-response","120","97429","0.0-6.0-2.57","640feb5e49b723bcfaad6437","bdp_trlrn","Tue Mar 14 2023 13:41:06 GMT-0400 (Eastern Daylight Time)","512680","Untrustworthy,Trustworthy","","null","","","","ratingFB","","trustrating_stim/white_00109_931230_fa_edt.bmp","null","","","","","","","","","","",""
"image-keyboard-response","121","98375","0.0-6.0-1.58","640feb5e49b723bcfaad6437","bdp_trlrn","Tue Mar 14 2023 13:41:06 GMT-0400 (Eastern Daylight Time)","512680","Untrustworthy,Trustworthy","","841","","","","rating","","trustrating_stim/white_mw046.bmp","4","","","","","","","","","","",""
"image-keyboard-response","122","98584","0.0-6.0-2.58","640feb5e49b723bcfaad6437","bdp_trlrn","Tue Mar 14 2023 13:41:06 GMT-0400 (Eastern Daylight Time)","512680","Untrustworthy,Trustworthy","","null","","","","ratingFB","","trustrating_stim/white_mw046.bmp","null","","","","","","","","","","",""
"image-keyboard-response","123","99574","0.0-6.0-1.59","640feb5e49b723bcfaad6437","bdp_trlrn","Tue Mar 14 2023 13:41:06 GMT-0400 (Eastern Daylight Time)","512680","Untrustworthy,Trustworthy","","879","","","","rating","","trustrating_stim/white_00757_941201_fa_edt.bmp","4","","","","","","","","","","",""
"image-keyboard-response","124","99785","0.0-6.0-2.59","640feb5e49b723bcfaad6437","bdp_trlrn","Tue Mar 14 2023 13:41:06 GMT-0400 (Eastern Daylight Time)","512680","Untrustworthy,Trustworthy","","null","","","","ratingFB","","trustrating_stim/white_00757_941201_fa_edt.bmp","null","","","","","","","","","","",""
"instructions","125","101125","0.0-7.0","640feb5e49b723bcfaad6437","bdp_trlrn","Tue Mar 14 2023 13:41:06 GMT-0400 (Eastern Daylight Time)","512680","Untrustworthy,Trustworthy","[{""page_index"":0,""viewing_time"":1229}]","1229","","","","","","","","","","","","","","","","","",""
"instructions","126","159119","0.0-8.0","640feb5e49b723bcfaad6437","bdp_trlrn","Tue Mar 14 2023 13:41:06 GMT-0400 (Eastern Daylight Time)","512680","Untrustworthy,Trustworthy","[{""page_index"":0,""viewing_time"":4214},{""page_index"":1,""viewing_time"":15618},{""page_index"":2,""viewing_time"":7608},{""page_index"":3,""viewing_time"":13577},{""page_index"":4,""viewing_time"":2030},{""page_index"":5,""viewing_time"":6001},{""page_index"":6,""viewing_time"":6447},{""page_index"":7,""viewing_time"":2391}]","57886","","","","","","","","","","","","","","","","","",""
"html-keyboard-response","127","164052","0.0-9.0","640feb5e49b723bcfaad6437","bdp_trlrn","Tue Mar 14 2023 13:41:06 GMT-0400 (Eastern Daylight Time)","512680","Untrustworthy,Trustworthy","","4932","","","","","","<div class='header' style='text-align:left; position: absolute; top: 5%; left: 5%;'><small>Task 3 of 5</small></div><div class='instruxDiv'><p><strong>1) What is the minimum number of points you can choose to send to your partner?</strong></p><p>a) 0</p><p>b) 1</p><p>c) 5</p>","A","","","","","","","","","","",""
"html-keyboard-response","128","166195","0.0-10.0","640feb5e49b723bcfaad6437","bdp_trlrn","Tue Mar 14 2023 13:41:06 GMT-0400 (Eastern Daylight Time)","512680","Untrustworthy,Trustworthy","","2035","","","","","","<div class='header' style='text-align:left; position: absolute; top: 5%; left: 5%;'><small>Task 3 of 5</small></div><div class='instruxDiv'><p><strong>1) What is the minimum number of points you can choose to send to your partner?</strong></p><p style='color:#FF0000'>a) 0</p><p>b) 1</p><p>c) 5</p><h3 style='color:#FF0000'>Incorrect!</h3><h3 class='center-content'>The correct response is b).</h3><h3 class='center-content'>The minimum number of points you can choose to send to your partner is 1 point.</h3><p><em>Press SPACEBAR to continue</em></p></div>"," ","","","","","","","","","","",""
"html-keyboard-response","129","169226","0.0-11.0","640feb5e49b723bcfaad6437","bdp_trlrn","Tue Mar 14 2023 13:41:06 GMT-0400 (Eastern Daylight Time)","512680","Untrustworthy,Trustworthy","","2920","","","","","","<div class='header' style='text-align:left; position: absolute; top: 5%; left: 5%;'><small>Task 3 of 5</small></div><div class='instruxDiv'><p><strong>2) What is the maximum number of points you can choose to send to your partner?</strong></p><p>a) 8</p><p>b) 5</p><p>c) 3</p>","B","","","","","","","","","","",""
"html-keyboard-response","130","170527","0.0-12.0","640feb5e49b723bcfaad6437","bdp_trlrn","Tue Mar 14 2023 13:41:06 GMT-0400 (Eastern Daylight Time)","512680","Untrustworthy,Trustworthy","","1189","","","","","","<div class='header' style='text-align:left; position: absolute; top: 5%; left: 5%;'><small>Task 3 of 5</small></div><div class='instruxDiv'><p><strong>2) What is the maximum number of points you can choose to send to your partner?</strong></p><p>a) 8</p><p style='color:#00FF00'>b) 5</p><p>c) 3</p><h3 style='color:#00FF00'>Correct!</h3><h3 class='center-content'>The correct response is b).</h3><h3 class='center-content'>The maximum number of points you can choose to send to your partner is 5 points.</h3><p><em>Press SPACEBAR to continue</em></p></div>"," ","","","","","","","","","","",""
"html-keyboard-response","131","173201","0.0-13.0","640feb5e49b723bcfaad6437","bdp_trlrn","Tue Mar 14 2023 13:41:06 GMT-0400 (Eastern Daylight Time)","512680","Untrustworthy,Trustworthy","","2568","","","","","","<div class='header' style='text-align:left; position: absolute; top: 5%; left: 5%;'><small>Task 3 of 5</small></div><div class='instruxDiv'><p><strong>3) What happens to the amount of points you send to your partner?</strong></p><p>a) Nothing</p><p>b) It doubles</p><p>c) It quadruples</p>","C","","","","","","","","","","",""
"html-keyboard-response","132","174346","0.0-14.0","640feb5e49b723bcfaad6437","bdp_trlrn","Tue Mar 14 2023 13:41:06 GMT-0400 (Eastern Daylight Time)","512680","Untrustworthy,Trustworthy","","1043","","","","","","<div class='header' style='text-align:left; position: absolute; top: 5%; left: 5%;'><small>Task 3 of 5</small></div><div class='instruxDiv'><p><strong>3) What happens to the amount of points you send to your partner?</strong></p><p>a) Nothing</p><p>b) It doubles</p><p style='color:#00FF00'>c) It quadruples</p><h3 style='color:#00FF00'>Correct!</h3><h3 class='center-content'>The correct response is c).</h3><h3 class='center-content'>The amount of points you send to your partner quadruples.</h3><p><em>Press SPACEBAR to continue</em></p></div>"," ","","","","","","","","","","",""
"html-keyboard-response","133","180418","0.0-15.0","640feb5e49b723bcfaad6437","bdp_trlrn","Tue Mar 14 2023 13:41:06 GMT-0400 (Eastern Daylight Time)","512680","Untrustworthy,Trustworthy","","5960","","","","","","<div class='header' style='text-align:left; position: absolute; top: 5%; left: 5%;'><small>Task 3 of 5</small></div><div class='instruxDiv'><p><strong>4) If you decided to share 4 out of 5 points with your partner, and they decided to share half of the amount they received with you, how many points would you receive back from them on this round?</strong></p><p>a) 16</p><p>b) 0</p><p>c) 8</p>","C","","","","","","","","","","",""
"html-keyboard-response","134","181752","0.0-16.0","640feb5e49b723bcfaad6437","bdp_trlrn","Tue Mar 14 2023 13:41:06 GMT-0400 (Eastern Daylight Time)","512680","Untrustworthy,Trustworthy","","1222","","","","","","<div class='header' style='text-align:left; position: absolute; top: 5%; left: 5%;'><small>Task 3 of 5</small></div><div class='instruxDiv'><p><strong>4) If you decided to share 4 out of 5 points with your partner, and they decided to share half of the amount they received with you, how many points would you receive back from them on this round?</strong></p><p>a) 16</p><p>b) 0</p><p style='color:#00FF00'>c) 8</p><h3 style='color:#00FF00'>Correct!</h3><h3 class='center-content'>The correct response is c).</h3><h3 class='center-content'>If you shared 4 out of 5 points with your partner and they decided to share half of the amount they received with you, you would receive 8 points back (i.e. (4 x 4)/2 = 8).</h3><p><em>Press SPACEBAR to continue</em></p></div>"," ","","","","","","","","","","",""
"html-keyboard-response","135","186863","0.0-17.0","640feb5e49b723bcfaad6437","bdp_trlrn","Tue Mar 14 2023 13:41:06 GMT-0400 (Eastern Daylight Time)","512680","Untrustworthy,Trustworthy","","null","","","","","","<div class='header' style='text-align:left; position: absolute; top: 5%; left: 5%;'><small>Task 3 of 5</small></div><div class='instruxDiv'><p>Thank you for completing the quiz<p>These are the actual partners you will be interacting with in the next block:<p><div class='tc' align='center'><img class='introPic' src='trustrating_stim/white_00223_940128_fb_edt.bmp'><br><strong>Chris</strong></div><div class='bl' align='center'><img class='introPic' src='trustrating_stim/white_mw099.bmp'><br><strong>Gavin</strong></div><div class='br' align='center'><img class='introPic' src='trustrating_stim/white_00761_941201_fb_edt.bmp'><br><strong>Timothy</strong></div></div><p>Across <strong>66 rounds</strong> you will interact with each partner <strong>22 times</strong> (in random order).<p style='align:center; color:white'><font <em>Press SPACEBAR to continue</em></p>","null","","","","","","","","","","",""
"instructions","136","191220","0.0-18.0","640feb5e49b723bcfaad6437","bdp_trlrn","Tue Mar 14 2023 13:41:06 GMT-0400 (Eastern Daylight Time)","512680","Untrustworthy,Trustworthy","[{""page_index"":0,""viewing_time"":835},{""page_index"":1,""viewing_time"":3521}]","4356","","","","","","","","","","","","","","","","","",""
"html-keyboard-response","137","193771","0.0-19.0-1.0","640feb5e49b723bcfaad6437","bdp_trlrn","Tue Mar 14 2023 13:41:06 GMT-0400 (Eastern Daylight Time)","512680","Untrustworthy,Trustworthy","","2439","","","","decision","","<div class='trialDiv'><img src='trustrating_stim/white_00761_941201_fb_edt.bmp'><br><font class='baseline'><strong>Timothy</strong><p>Choose number of points to send.</font><div class='respPicDiv'><img src='img/responseButtonOffersNo0L.png' class='respPic'></div></div>","3","1","Timothy","8","Kept","0.8,0.35","8","0.8","trustrating_stim/white_00761_941201_fb_edt.bmp","5","5","1"
"html-keyboard-response","138","194032","0.0-19.0-2.0","640feb5e49b723bcfaad6437","bdp_trlrn","Tue Mar 14 2023 13:41:06 GMT-0400 (Eastern Daylight Time)","512680","Untrustworthy,Trustworthy","","null","","","","decisionFB","","<div class='trialDiv'><img src='trustrating_stim/white_00761_941201_fb_edt.bmp'><br><font class='baseline'><strong>Timothy</strong><p>Choose number of points to send.</font><div class='respPicDiv'><img src='img/responseButtonOffersNo0L3.png' class='respPic'></div></div>","null","1","Timothy","8","Kept","0.8,0.35","8","0.8","trustrating_stim/white_00761_941201_fb_edt.bmp","5","2","1"
"html-keyboard-response","139","195042","0.0-19.0-3.0","640feb5e49b723bcfaad6437","bdp_trlrn","Tue Mar 14 2023 13:41:06 GMT-0400 (Eastern Daylight Time)","512680","Untrustworthy,Trustworthy","","null","","","","feedback","","<div class='trialDiv'><img src='trustrating_stim/white_00761_941201_fb_edt.bmp'><br><font class='baseline'><strong>Timothy</strong><p>Received: <strong>12</strong></font> &nbsp; &nbsp; &nbsp; &nbsp; &nbsp; &nbsp;<font class='negOutcome'>Shared back: <strong>0</strong></font></font><div class='respPicDiv'><img src='img/responseButtonOffersNo0_wht.png' class='respPic'></div></div>","null","1","Timothy","8","Kept","0.8,0.35","8","0.8","trustrating_stim/white_00761_941201_fb_edt.bmp","5","2","1"
"html-keyboard-response","140","197412","0.0-19.0-1.1","640feb5e49b723bcfaad6437","bdp_trlrn","Tue Mar 14 2023 13:41:06 GMT-0400 (Eastern Daylight Time)","512680","Untrustworthy,Trustworthy","","2368","","","","decision","","<div class='trialDiv'><img src='trustrating_stim/white_mw099.bmp'><br><font class='baseline'><strong>Gavin</strong><p>Choose number of points to send.</font><div class='respPicDiv'><img src='img/responseButtonOffersNo0L.png' class='respPic'></div></div>","3","1","Gavin","6","Kept","0.2,0.8","13","0.2","trustrating_stim/white_mw099.bmp","4","7","2"
"html-keyboard-response","141","197672","0.0-19.0-2.1","640feb5e49b723bcfaad6437","bdp_trlrn","Tue Mar 14 2023 13:41:06 GMT-0400 (Eastern Daylight Time)","512680","Untrustworthy,Trustworthy","","null","","","","decisionFB","","<div class='trialDiv'><img src='trustrating_stim/white_mw099.bmp'><br><font class='baseline'><strong>Gavin</strong><p>Choose number of points to send.</font><div class='respPicDiv'><img src='img/responseButtonOffersNo0L3.png' class='respPic'></div></div>","null","1","Gavin","6","Kept","0.2,0.8","13","0.2","trustrating_stim/white_mw099.bmp","4","4","2"
"html-keyboard-response","142","198682","0.0-19.0-3.1","640feb5e49b723bcfaad6437","bdp_trlrn","Tue Mar 14 2023 13:41:06 GMT-0400 (Eastern Daylight Time)","512680","Untrustworthy,Trustworthy","","null","","","","feedback","","<div class='trialDiv'><img src='trustrating_stim/white_mw099.bmp'><br><font class='baseline'><strong>Gavin</strong><p>Received: <strong>12</strong></font> &nbsp; &nbsp; &nbsp; &nbsp; &nbsp; &nbsp;<font class='negOutcome'>Shared back: <strong>0</strong></font></font><div class='respPicDiv'><img src='img/responseButtonOffersNo0_wht.png' class='respPic'></div></div>","null","1","Gavin","6","Kept","0.2,0.8","13","0.2","trustrating_stim/white_mw099.bmp","4","4","2"
"html-keyboard-response","143","199488","0.0-19.0-1.2","640feb5e49b723bcfaad6437","bdp_trlrn","Tue Mar 14 2023 13:41:06 GMT-0400 (Eastern Daylight Time)","512680","Untrustworthy,Trustworthy","","804","","","","decision","","<div class='trialDiv'><img src='trustrating_stim/white_00223_940128_fb_edt.bmp'><br><font class='baseline'><strong>Chris</strong><p>Choose number of points to send.</font><div class='respPicDiv'><img src='img/responseButtonOffersNo0L.png' class='respPic'></div></div>","3","1","Chris","0","Kept","0.2,0.65","9","0.2","trustrating_stim/white_00223_940128_fb_edt.bmp","3","9","3"
"html-keyboard-response","144","199745","0.0-19.0-2.2","640feb5e49b723bcfaad6437","bdp_trlrn","Tue Mar 14 2023 13:41:06 GMT-0400 (Eastern Daylight Time)","512680","Untrustworthy,Trustworthy","","null","","","","decisionFB","","<div class='trialDiv'><img src='trustrating_stim/white_00223_940128_fb_edt.bmp'><br><font class='baseline'><strong>Chris</strong><p>Choose number of points to send.</font><div class='respPicDiv'><img src='img/responseButtonOffersNo0L3.png' class='respPic'></div></div>","null","1","Chris","0","Kept","0.2,0.65","9","0.2","trustrating_stim/white_00223_940128_fb_edt.bmp","3","6","3"
"html-keyboard-response","145","200755","0.0-19.0-3.2","640feb5e49b723bcfaad6437","bdp_trlrn","Tue Mar 14 2023 13:41:06 GMT-0400 (Eastern Daylight Time)","512680","Untrustworthy,Trustworthy","","null","","","","feedback","","<div class='trialDiv'><img src='trustrating_stim/white_00223_940128_fb_edt.bmp'><br><font class='baseline'><strong>Chris</strong><p>Received: <strong>12</strong></font> &nbsp; &nbsp; &nbsp; &nbsp; &nbsp; &nbsp;<font class='negOutcome'>Shared back: <strong>0</strong></font></font><div class='respPicDiv'><img src='img/responseButtonOffersNo0_wht.png' class='respPic'></div></div>","null","1","Chris","0","Kept","0.2,0.65","9","0.2","trustrating_stim/white_00223_940128_fb_edt.bmp","3","6","3"
"html-keyboard-response","146","201899","0.0-19.0-1.3","640feb5e49b723bcfaad6437","bdp_trlrn","Tue Mar 14 2023 13:41:06 GMT-0400 (Eastern Daylight Time)","512680","Untrustworthy,Trustworthy","","1143","","","","decision","","<div class='trialDiv'><img src='trustrating_stim/white_00761_941201_fb_edt.bmp'><br><font class='baseline'><strong>Timothy</strong><p>Choose number of points to send.</font><div class='respPicDiv'><img src='img/responseButtonOffersNo0L.png' class='respPic'></div></div>","1","2","Timothy","8","Shared","0.8,0.35","8","0.8","trustrating_stim/white_00761_941201_fb_edt.bmp","5","11","4"
"html-keyboard-response","147","202158","0.0-19.0-2.3","640feb5e49b723bcfaad6437","bdp_trlrn","Tue Mar 14 2023 13:41:06 GMT-0400 (Eastern Daylight Time)","512680","Untrustworthy,Trustworthy","","null","","","","decisionFB","","<div class='trialDiv'><img src='trustrating_stim/white_00761_941201_fb_edt.bmp'><br><font class='baseline'><strong>Timothy</strong><p>Choose number of points to send.</font><div class='respPicDiv'><img src='img/responseButtonOffersNo0L1.png' class='respPic'></div></div>","null","2","Timothy","8","Shared","0.8,0.35","8","0.8","trustrating_stim/white_00761_941201_fb_edt.bmp","5","10","4"
"html-keyboard-response","148","203170","0.0-19.0-3.3","640feb5e49b723bcfaad6437","bdp_trlrn","Tue Mar 14 2023 13:41:06 GMT-0400 (Eastern Daylight Time)","512680","Untrustworthy,Trustworthy","","null","","","","feedback","","<div class='trialDiv'><img src='trustrating_stim/white_00761_941201_fb_edt.bmp'><br><font class='baseline'><strong>Timothy</strong><p>Received: <strong>4</strong></font> &nbsp; &nbsp; &nbsp; &nbsp; &nbsp; &nbsp;<font class='posOutcome'>Shared back: <strong>2</strong></font></font><div class='respPicDiv'><img src='img/responseButtonOffersNo0_wht.png' class='respPic'></div></div>","null","2","Timothy","8","Shared","0.8,0.35","8","0.8","trustrating_stim/white_00761_941201_fb_edt.bmp","5","12","4"
"html-keyboard-response","149","205122","0.0-19.0-1.4","640feb5e49b723bcfaad6437","bdp_trlrn","Tue Mar 14 2023 13:41:06 GMT-0400 (Eastern Daylight Time)","512680","Untrustworthy,Trustworthy","","1951","","","","decision","","<div class='trialDiv'><img src='trustrating_stim/white_mw099.bmp'><br><font class='baseline'><strong>Gavin</strong><p>Choose number of points to send.</font><div class='respPicDiv'><img src='img/responseButtonOffersNo0L.png' class='respPic'></div></div>","1","2","Gavin","6","Shared","0.2,0.8","13","0.2","trustrating_stim/white_mw099.bmp","4","17","5"
"html-keyboard-response","150","205374","0.0-19.0-2.4","640feb5e49b723bcfaad6437","bdp_trlrn","Tue Mar 14 2023 13:41:06 GMT-0400 (Eastern Daylight Time)","512680","Untrustworthy,Trustworthy","","null","","","","decisionFB","","<div class='trialDiv'><img src='trustrating_stim/white_mw099.bmp'><br><font class='baseline'><strong>Gavin</strong><p>Choose number of points to send.</font><div class='respPicDiv'><img src='img/responseButtonOffersNo0L1.png' class='respPic'></div></div>","null","2","Gavin","6","Shared","0.2,0.8","13","0.2","trustrating_stim/white_mw099.bmp","4","16","5"
"html-keyboard-response","151","206386","0.0-19.0-3.4","640feb5e49b723bcfaad6437","bdp_trlrn","Tue Mar 14 2023 13:41:06 GMT-0400 (Eastern Daylight Time)","512680","Untrustworthy,Trustworthy","","null","","","","feedback","","<div class='trialDiv'><img src='trustrating_stim/white_mw099.bmp'><br><font class='baseline'><strong>Gavin</strong><p>Received: <strong>4</strong></font> &nbsp; &nbsp; &nbsp; &nbsp; &nbsp; &nbsp;<font class='posOutcome'>Shared back: <strong>2</strong></font></font><div class='respPicDiv'><img src='img/responseButtonOffersNo0_wht.png' class='respPic'></div></div>","null","2","Gavin","6","Shared","0.2,0.8","13","0.2","trustrating_stim/white_mw099.bmp","4","18","5"
"html-keyboard-response","152","207322","0.0-19.0-1.5","640feb5e49b723bcfaad6437","bdp_trlrn","Tue Mar 14 2023 13:41:06 GMT-0400 (Eastern Daylight Time)","512680","Untrustworthy,Trustworthy","","934","","","","decision","","<div class='trialDiv'><img src='trustrating_stim/white_00223_940128_fb_edt.bmp'><br><font class='baseline'><strong>Chris</strong><p>Choose number of points to send.</font><div class='respPicDiv'><img src='img/responseButtonOffersNo0L.png' class='respPic'></div></div>","1","2","Chris","0","Shared","0.2,0.65","9","0.2","trustrating_stim/white_00223_940128_fb_edt.bmp","3","23","6"
"html-keyboard-response","153","207575","0.0-19.0-2.5","640feb5e49b723bcfaad6437","bdp_trlrn","Tue Mar 14 2023 13:41:06 GMT-0400 (Eastern Daylight Time)","512680","Untrustworthy,Trustworthy","","null","","","","decisionFB","","<div class='trialDiv'><img src='trustrating_stim/white_00223_940128_fb_edt.bmp'><br><font class='baseline'><strong>Chris</strong><p>Choose number of points to send.</font><div class='respPicDiv'><img src='img/responseButtonOffersNo0L1.png' class='respPic'></div></div>","null","2","Chris","0","Shared","0.2,0.65","9","0.2","trustrating_stim/white_00223_940128_fb_edt.bmp","3","22","6"
"html-keyboard-response","154","208585","0.0-19.0-3.5","640feb5e49b723bcfaad6437","bdp_trlrn","Tue Mar 14 2023 13:41:06 GMT-0400 (Eastern Daylight Time)","512680","Untrustworthy,Trustworthy","","null","","","","feedback","","<div class='trialDiv'><img src='trustrating_stim/white_00223_940128_fb_edt.bmp'><br><font class='baseline'><strong>Chris</strong><p>Received: <strong>4</strong></font> &nbsp; &nbsp; &nbsp; &nbsp; &nbsp; &nbsp;<font class='posOutcome'>Shared back: <strong>2</strong></font></font><div class='respPicDiv'><img src='img/responseButtonOffersNo0_wht.png' class='respPic'></div></div>","null","2","Chris","0","Shared","0.2,0.65","9","0.2","trustrating_stim/white_00223_940128_fb_edt.bmp","3","24","6"
"html-keyboard-response","155","209244","0.0-19.0-1.6","640feb5e49b723bcfaad6437","bdp_trlrn","Tue Mar 14 2023 13:41:06 GMT-0400 (Eastern Daylight Time)","512680","Untrustworthy,Trustworthy","","656","","","","decision","","<div class='trialDiv'><img src='trustrating_stim/white_00761_941201_fb_edt.bmp'><br><font class='baseline'><strong>Timothy</strong><p>Choose number of points to send.</font><div class='respPicDiv'><img src='img/responseButtonOffersNo0L.png' class='respPic'></div></div>","1","3","Timothy","8","Shared","0.8,0.35","8","0.8","trustrating_stim/white_00761_941201_fb_edt.bmp","5","29","7"
"html-keyboard-response","156","209504","0.0-19.0-2.6","640feb5e49b723bcfaad6437","bdp_trlrn","Tue Mar 14 2023 13:41:06 GMT-0400 (Eastern Daylight Time)","512680","Untrustworthy,Trustworthy","","null","","","","decisionFB","","<div class='trialDiv'><img src='trustrating_stim/white_00761_941201_fb_edt.bmp'><br><font class='baseline'><strong>Timothy</strong><p>Choose number of points to send.</font><div class='respPicDiv'><img src='img/responseButtonOffersNo0L1.png' class='respPic'></div></div>","null","3","Timothy","8","Shared","0.8,0.35","8","0.8","trustrating_stim/white_00761_941201_fb_edt.bmp","5","28","7"
"html-keyboard-response","157","210513","0.0-19.0-3.6","640feb5e49b723bcfaad6437","bdp_trlrn","Tue Mar 14 2023 13:41:06 GMT-0400 (Eastern Daylight Time)","512680","Untrustworthy,Trustworthy","","null","","","","feedback","","<div class='trialDiv'><img src='trustrating_stim/white_00761_941201_fb_edt.bmp'><br><font class='baseline'><strong>Timothy</strong><p>Received: <strong>4</strong></font> &nbsp; &nbsp; &nbsp; &nbsp; &nbsp; &nbsp;<font class='posOutcome'>Shared back: <strong>2</strong></font></font><div class='respPicDiv'><img src='img/responseButtonOffersNo0_wht.png' class='respPic'></div></div>","null","3","Timothy","8","Shared","0.8,0.35","8","0.8","trustrating_stim/white_00761_941201_fb_edt.bmp","5","30","7"
"html-keyboard-response","158","210940","0.0-19.0-1.7","640feb5e49b723bcfaad6437","bdp_trlrn","Tue Mar 14 2023 13:41:06 GMT-0400 (Eastern Daylight Time)","512680","Untrustworthy,Trustworthy","","424","","","","decision","","<div class='trialDiv'><img src='trustrating_stim/white_00223_940128_fb_edt.bmp'><br><font class='baseline'><strong>Chris</strong><p>Choose number of points to send.</font><div class='respPicDiv'><img src='img/responseButtonOffersNo0L.png' class='respPic'></div></div>","1","3","Chris","0","Kept","0.2,0.65","9","0.2","trustrating_stim/white_00223_940128_fb_edt.bmp","3","35","8"
"html-keyboard-response","159","211200","0.0-19.0-2.7","640feb5e49b723bcfaad6437","bdp_trlrn","Tue Mar 14 2023 13:41:06 GMT-0400 (Eastern Daylight Time)","512680","Untrustworthy,Trustworthy","","null","","","","decisionFB","","<div class='trialDiv'><img src='trustrating_stim/white_00223_940128_fb_edt.bmp'><br><font class='baseline'><strong>Chris</strong><p>Choose number of points to send.</font><div class='respPicDiv'><img src='img/responseButtonOffersNo0L1.png' class='respPic'></div></div>","null","3","Chris","0","Kept","0.2,0.65","9","0.2","trustrating_stim/white_00223_940128_fb_edt.bmp","3","34","8"
"html-keyboard-response","160","212209","0.0-19.0-3.7","640feb5e49b723bcfaad6437","bdp_trlrn","Tue Mar 14 2023 13:41:06 GMT-0400 (Eastern Daylight Time)","512680","Untrustworthy,Trustworthy","","null","","","","feedback","","<div class='trialDiv'><img src='trustrating_stim/white_00223_940128_fb_edt.bmp'><br><font class='baseline'><strong>Chris</strong><p>Received: <strong>4</strong></font> &nbsp; &nbsp; &nbsp; &nbsp; &nbsp; &nbsp;<font class='negOutcome'>Shared back: <strong>0</strong></font></font><div class='respPicDiv'><img src='img/responseButtonOffersNo0_wht.png' class='respPic'></div></div>","null","3","Chris","0","Kept","0.2,0.65","9","0.2","trustrating_stim/white_00223_940128_fb_edt.bmp","3","34","8"
"html-keyboard-response","161","212778","0.0-19.0-1.8","640feb5e49b723bcfaad6437","bdp_trlrn","Tue Mar 14 2023 13:41:06 GMT-0400 (Eastern Daylight Time)","512680","Untrustworthy,Trustworthy","","568","","","","decision","","<div class='trialDiv'><img src='trustrating_stim/white_mw099.bmp'><br><font class='baseline'><strong>Gavin</strong><p>Choose number of points to send.</font><div class='respPicDiv'><img src='img/responseButtonOffersNo0L.png' class='respPic'></div></div>","1","3","Gavin","6","Kept","0.2,0.8","13","0.2","trustrating_stim/white_mw099.bmp","4","39","9"
"html-keyboard-response","162","213031","0.0-19.0-2.8","640feb5e49b723bcfaad6437","bdp_trlrn","Tue Mar 14 2023 13:41:06 GMT-0400 (Eastern Daylight Time)","512680","Untrustworthy,Trustworthy","","null","","","","decisionFB","","<div class='trialDiv'><img src='trustrating_stim/white_mw099.bmp'><br><font class='baseline'><strong>Gavin</strong><p>Choose number of points to send.</font><div class='respPicDiv'><img src='img/responseButtonOffersNo0L1.png' class='respPic'></div></div>","null","3","Gavin","6","Kept","0.2,0.8","13","0.2","trustrating_stim/white_mw099.bmp","4","38","9"
"html-keyboard-response","163","214042","0.0-19.0-3.8","640feb5e49b723bcfaad6437","bdp_trlrn","Tue Mar 14 2023 13:41:06 GMT-0400 (Eastern Daylight Time)","512680","Untrustworthy,Trustworthy","","null","","","","feedback","","<div class='trialDiv'><img src='trustrating_stim/white_mw099.bmp'><br><font class='baseline'><strong>Gavin</strong><p>Received: <strong>4</strong></font> &nbsp; &nbsp; &nbsp; &nbsp; &nbsp; &nbsp;<font class='negOutcome'>Shared back: <strong>0</strong></font></font><div class='respPicDiv'><img src='img/responseButtonOffersNo0_wht.png' class='respPic'></div></div>","null","3","Gavin","6","Kept","0.2,0.8","13","0.2","trustrating_stim/white_mw099.bmp","4","38","9"
"html-keyboard-response","164","215075","0.0-19.0-1.9","640feb5e49b723bcfaad6437","bdp_trlrn","Tue Mar 14 2023 13:41:06 GMT-0400 (Eastern Daylight Time)","512680","Untrustworthy,Trustworthy","","1031","","","","decision","","<div class='trialDiv'><img src='trustrating_stim/white_00761_941201_fb_edt.bmp'><br><font class='baseline'><strong>Timothy</strong><p>Choose number of points to send.</font><div class='respPicDiv'><img src='img/responseButtonOffersNo0L.png' class='respPic'></div></div>","5","4","Timothy","8","Shared","0.8,0.35","8","0.8","trustrating_stim/white_00761_941201_fb_edt.bmp","5","43","10"
"html-keyboard-response","165","215331","0.0-19.0-2.9","640feb5e49b723bcfaad6437","bdp_trlrn","Tue Mar 14 2023 13:41:06 GMT-0400 (Eastern Daylight Time)","512680","Untrustworthy,Trustworthy","","null","","","","decisionFB","","<div class='trialDiv'><img src='trustrating_stim/white_00761_941201_fb_edt.bmp'><br><font class='baseline'><strong>Timothy</strong><p>Choose number of points to send.</font><div class='respPicDiv'><img src='img/responseButtonOffersNo0L5.png' class='respPic'></div></div>","null","4","Timothy","8","Shared","0.8,0.35","8","0.8","trustrating_stim/white_00761_941201_fb_edt.bmp","5","38","10"
"html-keyboard-response","166","216335","0.0-19.0-3.9","640feb5e49b723bcfaad6437","bdp_trlrn","Tue Mar 14 2023 13:41:06 GMT-0400 (Eastern Daylight Time)","512680","Untrustworthy,Trustworthy","","null","","","","feedback","","<div class='trialDiv'><img src='trustrating_stim/white_00761_941201_fb_edt.bmp'><br><font class='baseline'><strong>Timothy</strong><p>Received: <strong>20</strong></font> &nbsp; &nbsp; &nbsp; &nbsp; &nbsp; &nbsp;<font class='posOutcome'>Shared back: <strong>10</strong></font></font><div class='respPicDiv'><img src='img/responseButtonOffersNo0_wht.png' class='respPic'></div></div>","null","4","Timothy","8","Shared","0.8,0.35","8","0.8","trustrating_stim/white_00761_941201_fb_edt.bmp","5","48","10"
"html-keyboard-response","167","217627","0.0-19.0-1.10","640feb5e49b723bcfaad6437","bdp_trlrn","Tue Mar 14 2023 13:41:06 GMT-0400 (Eastern Daylight Time)","512680","Untrustworthy,Trustworthy","","1291","","","","decision","","<div class='trialDiv'><img src='trustrating_stim/white_mw099.bmp'><br><font class='baseline'><strong>Gavin</strong><p>Choose number of points to send.</font><div class='respPicDiv'><img src='img/responseButtonOffersNo0L.png' class='respPic'></div></div>","1","4","Gavin","6","Shared","0.2,0.8","13","0.2","trustrating_stim/white_mw099.bmp","4","53","11"
"html-keyboard-response","168","217879","0.0-19.0-2.10","640feb5e49b723bcfaad6437","bdp_trlrn","Tue Mar 14 2023 13:41:06 GMT-0400 (Eastern Daylight Time)","512680","Untrustworthy,Trustworthy","","null","","","","decisionFB","","<div class='trialDiv'><img src='trustrating_stim/white_mw099.bmp'><br><font class='baseline'><strong>Gavin</strong><p>Choose number of points to send.</font><div class='respPicDiv'><img src='img/responseButtonOffersNo0L1.png' class='respPic'></div></div>","null","4","Gavin","6","Shared","0.2,0.8","13","0.2","trustrating_stim/white_mw099.bmp","4","52","11"
"html-keyboard-response","169","218889","0.0-19.0-3.10","640feb5e49b723bcfaad6437","bdp_trlrn","Tue Mar 14 2023 13:41:06 GMT-0400 (Eastern Daylight Time)","512680","Untrustworthy,Trustworthy","","null","","","","feedback","","<div class='trialDiv'><img src='trustrating_stim/white_mw099.bmp'><br><font class='baseline'><strong>Gavin</strong><p>Received: <strong>4</strong></font> &nbsp; &nbsp; &nbsp; &nbsp; &nbsp; &nbsp;<font class='posOutcome'>Shared back: <strong>2</strong></font></font><div class='respPicDiv'><img src='img/responseButtonOffersNo0_wht.png' class='respPic'></div></div>","null","4","Gavin","6","Shared","0.2,0.8","13","0.2","trustrating_stim/white_mw099.bmp","4","54","11"
"html-keyboard-response","170","219547","0.0-19.0-1.11","640feb5e49b723bcfaad6437","bdp_trlrn","Tue Mar 14 2023 13:41:06 GMT-0400 (Eastern Daylight Time)","512680","Untrustworthy,Trustworthy","","657","","","","decision","","<div class='trialDiv'><img src='trustrating_stim/white_00223_940128_fb_edt.bmp'><br><font class='baseline'><strong>Chris</strong><p>Choose number of points to send.</font><div class='respPicDiv'><img src='img/responseButtonOffersNo0L.png' class='respPic'></div></div>","1","4","Chris","0","Kept","0.2,0.65","9","0.2","trustrating_stim/white_00223_940128_fb_edt.bmp","3","59","12"
"html-keyboard-response","171","219801","0.0-19.0-2.11","640feb5e49b723bcfaad6437","bdp_trlrn","Tue Mar 14 2023 13:41:06 GMT-0400 (Eastern Daylight Time)","512680","Untrustworthy,Trustworthy","","null","","","","decisionFB","","<div class='trialDiv'><img src='trustrating_stim/white_00223_940128_fb_edt.bmp'><br><font class='baseline'><strong>Chris</strong><p>Choose number of points to send.</font><div class='respPicDiv'><img src='img/responseButtonOffersNo0L1.png' class='respPic'></div></div>","null","4","Chris","0","Kept","0.2,0.65","9","0.2","trustrating_stim/white_00223_940128_fb_edt.bmp","3","58","12"
"html-keyboard-response","172","220811","0.0-19.0-3.11","640feb5e49b723bcfaad6437","bdp_trlrn","Tue Mar 14 2023 13:41:06 GMT-0400 (Eastern Daylight Time)","512680","Untrustworthy,Trustworthy","","null","","","","feedback","","<div class='trialDiv'><img src='trustrating_stim/white_00223_940128_fb_edt.bmp'><br><font class='baseline'><strong>Chris</strong><p>Received: <strong>4</strong></font> &nbsp; &nbsp; &nbsp; &nbsp; &nbsp; &nbsp;<font class='negOutcome'>Shared back: <strong>0</strong></font></font><div class='respPicDiv'><img src='img/responseButtonOffersNo0_wht.png' class='respPic'></div></div>","null","4","Chris","0","Kept","0.2,0.65","9","0.2","trustrating_stim/white_00223_940128_fb_edt.bmp","3","58","12"
"html-keyboard-response","173","221731","0.0-19.0-1.12","640feb5e49b723bcfaad6437","bdp_trlrn","Tue Mar 14 2023 13:41:06 GMT-0400 (Eastern Daylight Time)","512680","Untrustworthy,Trustworthy","","918","","","","decision","","<div class='trialDiv'><img src='trustrating_stim/white_00761_941201_fb_edt.bmp'><br><font class='baseline'><strong>Timothy</strong><p>Choose number of points to send.</font><div class='respPicDiv'><img src='img/responseButtonOffersNo0L.png' class='respPic'></div></div>","5","5","Timothy","8","Shared","0.8,0.35","8","0.8","trustrating_stim/white_00761_941201_fb_edt.bmp","5","63","13"
"html-keyboard-response","174","221987","0.0-19.0-2.12","640feb5e49b723bcfaad6437","bdp_trlrn","Tue Mar 14 2023 13:41:06 GMT-0400 (Eastern Daylight Time)","512680","Untrustworthy,Trustworthy","","null","","","","decisionFB","","<div class='trialDiv'><img src='trustrating_stim/white_00761_941201_fb_edt.bmp'><br><font class='baseline'><strong>Timothy</strong><p>Choose number of points to send.</font><div class='respPicDiv'><img src='img/responseButtonOffersNo0L5.png' class='respPic'></div></div>","null","5","Timothy","8","Shared","0.8,0.35","8","0.8","trustrating_stim/white_00761_941201_fb_edt.bmp","5","58","13"
"html-keyboard-response","175","222994","0.0-19.0-3.12","640feb5e49b723bcfaad6437","bdp_trlrn","Tue Mar 14 2023 13:41:06 GMT-0400 (Eastern Daylight Time)","512680","Untrustworthy,Trustworthy","","null","","","","feedback","","<div class='trialDiv'><img src='trustrating_stim/white_00761_941201_fb_edt.bmp'><br><font class='baseline'><strong>Timothy</strong><p>Received: <strong>20</strong></font> &nbsp; &nbsp; &nbsp; &nbsp; &nbsp; &nbsp;<font class='posOutcome'>Shared back: <strong>10</strong></font></font><div class='respPicDiv'><img src='img/responseButtonOffersNo0_wht.png' class='respPic'></div></div>","null","5","Timothy","8","Shared","0.8,0.35","8","0.8","trustrating_stim/white_00761_941201_fb_edt.bmp","5","68","13"
"html-keyboard-response","176","223930","0.0-19.0-1.13","640feb5e49b723bcfaad6437","bdp_trlrn","Tue Mar 14 2023 13:41:06 GMT-0400 (Eastern Daylight Time)","512680","Untrustworthy,Trustworthy","","935","","","","decision","","<div class='trialDiv'><img src='trustrating_stim/white_mw099.bmp'><br><font class='baseline'><strong>Gavin</strong><p>Choose number of points to send.</font><div class='respPicDiv'><img src='img/responseButtonOffersNo0L.png' class='respPic'></div></div>","3","5","Gavin","6","Kept","0.2,0.8","13","0.2","trustrating_stim/white_mw099.bmp","4","73","14"
"html-keyboard-response","177","224185","0.0-19.0-2.13","640feb5e49b723bcfaad6437","bdp_trlrn","Tue Mar 14 2023 13:41:06 GMT-0400 (Eastern Daylight Time)","512680","Untrustworthy,Trustworthy","","null","","","","decisionFB","","<div class='trialDiv'><img src='trustrating_stim/white_mw099.bmp'><br><font class='baseline'><strong>Gavin</strong><p>Choose number of points to send.</font><div class='respPicDiv'><img src='img/responseButtonOffersNo0L3.png' class='respPic'></div></div>","null","5","Gavin","6","Kept","0.2,0.8","13","0.2","trustrating_stim/white_mw099.bmp","4","70","14"
"html-keyboard-response","178","225195","0.0-19.0-3.13","640feb5e49b723bcfaad6437","bdp_trlrn","Tue Mar 14 2023 13:41:06 GMT-0400 (Eastern Daylight Time)","512680","Untrustworthy,Trustworthy","","null","","","","feedback","","<div class='trialDiv'><img src='trustrating_stim/white_mw099.bmp'><br><font class='baseline'><strong>Gavin</strong><p>Received: <strong>12</strong></font> &nbsp; &nbsp; &nbsp; &nbsp; &nbsp; &nbsp;<font class='negOutcome'>Shared back: <strong>0</strong></font></font><div class='respPicDiv'><img src='img/responseButtonOffersNo0_wht.png' class='respPic'></div></div>","null","5","Gavin","6","Kept","0.2,0.8","13","0.2","trustrating_stim/white_mw099.bmp","4","70","14"
"html-keyboard-response","179","227554","0.0-19.0-1.14","640feb5e49b723bcfaad6437","bdp_trlrn","Tue Mar 14 2023 13:41:06 GMT-0400 (Eastern Daylight Time)","512680","Untrustworthy,Trustworthy","","2358","","","","decision","","<div class='trialDiv'><img src='trustrating_stim/white_00223_940128_fb_edt.bmp'><br><font class='baseline'><strong>Chris</strong><p>Choose number of points to send.</font><div class='respPicDiv'><img src='img/responseButtonOffersNo0L.png' class='respPic'></div></div>","1","5","Chris","0","Shared","0.2,0.65","9","0.2","trustrating_stim/white_00223_940128_fb_edt.bmp","3","75","15"
"html-keyboard-response","180","227807","0.0-19.0-2.14","640feb5e49b723bcfaad6437","bdp_trlrn","Tue Mar 14 2023 13:41:06 GMT-0400 (Eastern Daylight Time)","512680","Untrustworthy,Trustworthy","","null","","","","decisionFB","","<div class='trialDiv'><img src='trustrating_stim/white_00223_940128_fb_edt.bmp'><br><font class='baseline'><strong>Chris</strong><p>Choose number of points to send.</font><div class='respPicDiv'><img src='img/responseButtonOffersNo0L1.png' class='respPic'></div></div>","null","5","Chris","0","Shared","0.2,0.65","9","0.2","trustrating_stim/white_00223_940128_fb_edt.bmp","3","74","15"
"html-keyboard-response","181","228816","0.0-19.0-3.14","640feb5e49b723bcfaad6437","bdp_trlrn","Tue Mar 14 2023 13:41:06 GMT-0400 (Eastern Daylight Time)","512680","Untrustworthy,Trustworthy","","null","","","","feedback","","<div class='trialDiv'><img src='trustrating_stim/white_00223_940128_fb_edt.bmp'><br><font class='baseline'><strong>Chris</strong><p>Received: <strong>4</strong></font> &nbsp; &nbsp; &nbsp; &nbsp; &nbsp; &nbsp;<font class='posOutcome'>Shared back: <strong>2</strong></font></font><div class='respPicDiv'><img src='img/responseButtonOffersNo0_wht.png' class='respPic'></div></div>","null","5","Chris","0","Shared","0.2,0.65","9","0.2","trustrating_stim/white_00223_940128_fb_edt.bmp","3","76","15"
"html-keyboard-response","182","229739","0.0-19.0-1.15","640feb5e49b723bcfaad6437","bdp_trlrn","Tue Mar 14 2023 13:41:06 GMT-0400 (Eastern Daylight Time)","512680","Untrustworthy,Trustworthy","","921","","","","decision","","<div class='trialDiv'><img src='trustrating_stim/white_00761_941201_fb_edt.bmp'><br><font class='baseline'><strong>Timothy</strong><p>Choose number of points to send.</font><div class='respPicDiv'><img src='img/responseButtonOffersNo0L.png' class='respPic'></div></div>","5","6","Timothy","8","Shared","0.8,0.35","8","0.8","trustrating_stim/white_00761_941201_fb_edt.bmp","5","81","16"
"html-keyboard-response","183","229994","0.0-19.0-2.15","640feb5e49b723bcfaad6437","bdp_trlrn","Tue Mar 14 2023 13:41:06 GMT-0400 (Eastern Daylight Time)","512680","Untrustworthy,Trustworthy","","null","","","","decisionFB","","<div class='trialDiv'><img src='trustrating_stim/white_00761_941201_fb_edt.bmp'><br><font class='baseline'><strong>Timothy</strong><p>Choose number of points to send.</font><div class='respPicDiv'><img src='img/responseButtonOffersNo0L5.png' class='respPic'></div></div>","null","6","Timothy","8","Shared","0.8,0.35","8","0.8","trustrating_stim/white_00761_941201_fb_edt.bmp","5","76","16"
"html-keyboard-response","184","231001","0.0-19.0-3.15","640feb5e49b723bcfaad6437","bdp_trlrn","Tue Mar 14 2023 13:41:06 GMT-0400 (Eastern Daylight Time)","512680","Untrustworthy,Trustworthy","","null","","","","feedback","","<div class='trialDiv'><img src='trustrating_stim/white_00761_941201_fb_edt.bmp'><br><font class='baseline'><strong>Timothy</strong><p>Received: <strong>20</strong></font> &nbsp; &nbsp; &nbsp; &nbsp; &nbsp; &nbsp;<font class='posOutcome'>Shared back: <strong>10</strong></font></font><div class='respPicDiv'><img src='img/responseButtonOffersNo0_wht.png' class='respPic'></div></div>","null","6","Timothy","8","Shared","0.8,0.35","8","0.8","trustrating_stim/white_00761_941201_fb_edt.bmp","5","86","16"
"html-keyboard-response","185","233517","0.0-19.0-1.16","640feb5e49b723bcfaad6437","bdp_trlrn","Tue Mar 14 2023 13:41:06 GMT-0400 (Eastern Daylight Time)","512680","Untrustworthy,Trustworthy","","2515","","","","decision","","<div class='trialDiv'><img src='trustrating_stim/white_mw099.bmp'><br><font class='baseline'><strong>Gavin</strong><p>Choose number of points to send.</font><div class='respPicDiv'><img src='img/responseButtonOffersNo0L.png' class='respPic'></div></div>","2","6","Gavin","6","Kept","0.2,0.8","13","0.2","trustrating_stim/white_mw099.bmp","4","91","17"
"html-keyboard-response","186","233769","0.0-19.0-2.16","640feb5e49b723bcfaad6437","bdp_trlrn","Tue Mar 14 2023 13:41:06 GMT-0400 (Eastern Daylight Time)","512680","Untrustworthy,Trustworthy","","null","","","","decisionFB","","<div class='trialDiv'><img src='trustrating_stim/white_mw099.bmp'><br><font class='baseline'><strong>Gavin</strong><p>Choose number of points to send.</font><div class='respPicDiv'><img src='img/responseButtonOffersNo0L2.png' class='respPic'></div></div>","null","6","Gavin","6","Kept","0.2,0.8","13","0.2","trustrating_stim/white_mw099.bmp","4","89","17"
"html-keyboard-response","187","234779","0.0-19.0-3.16","640feb5e49b723bcfaad6437","bdp_trlrn","Tue Mar 14 2023 13:41:06 GMT-0400 (Eastern Daylight Time)","512680","Untrustworthy,Trustworthy","","null","","","","feedback","","<div class='trialDiv'><img src='trustrating_stim/white_mw099.bmp'><br><font class='baseline'><strong>Gavin</strong><p>Received: <strong>8</strong></font> &nbsp; &nbsp; &nbsp; &nbsp; &nbsp; &nbsp;<font class='negOutcome'>Shared back: <strong>0</strong></font></font><div class='respPicDiv'><img src='img/responseButtonOffersNo0_wht.png' class='respPic'></div></div>","null","6","Gavin","6","Kept","0.2,0.8","13","0.2","trustrating_stim/white_mw099.bmp","4","89","17"
"html-keyboard-response","188","235462","0.0-19.0-1.17","640feb5e49b723bcfaad6437","bdp_trlrn","Tue Mar 14 2023 13:41:06 GMT-0400 (Eastern Daylight Time)","512680","Untrustworthy,Trustworthy","","682","","","","decision","","<div class='trialDiv'><img src='trustrating_stim/white_00223_940128_fb_edt.bmp'><br><font class='baseline'><strong>Chris</strong><p>Choose number of points to send.</font><div class='respPicDiv'><img src='img/responseButtonOffersNo0L.png' class='respPic'></div></div>","2","6","Chris","0","Kept","0.2,0.65","9","0.2","trustrating_stim/white_00223_940128_fb_edt.bmp","3","94","18"
"html-keyboard-response","189","235723","0.0-19.0-2.17","640feb5e49b723bcfaad6437","bdp_trlrn","Tue Mar 14 2023 13:41:06 GMT-0400 (Eastern Daylight Time)","512680","Untrustworthy,Trustworthy","","null","","","","decisionFB","","<div class='trialDiv'><img src='trustrating_stim/white_00223_940128_fb_edt.bmp'><br><font class='baseline'><strong>Chris</strong><p>Choose number of points to send.</font><div class='respPicDiv'><img src='img/responseButtonOffersNo0L2.png' class='respPic'></div></div>","null","6","Chris","0","Kept","0.2,0.65","9","0.2","trustrating_stim/white_00223_940128_fb_edt.bmp","3","92","18"
"html-keyboard-response","190","236729","0.0-19.0-3.17","640feb5e49b723bcfaad6437","bdp_trlrn","Tue Mar 14 2023 13:41:06 GMT-0400 (Eastern Daylight Time)","512680","Untrustworthy,Trustworthy","","null","","","","feedback","","<div class='trialDiv'><img src='trustrating_stim/white_00223_940128_fb_edt.bmp'><br><font class='baseline'><strong>Chris</strong><p>Received: <strong>8</strong></font> &nbsp; &nbsp; &nbsp; &nbsp; &nbsp; &nbsp;<font class='negOutcome'>Shared back: <strong>0</strong></font></font><div class='respPicDiv'><img src='img/responseButtonOffersNo0_wht.png' class='respPic'></div></div>","null","6","Chris","0","Kept","0.2,0.65","9","0.2","trustrating_stim/white_00223_940128_fb_edt.bmp","3","92","18"
"html-keyboard-response","191","237467","0.0-19.0-1.18","640feb5e49b723bcfaad6437","bdp_trlrn","Tue Mar 14 2023 13:41:06 GMT-0400 (Eastern Daylight Time)","512680","Untrustworthy,Trustworthy","","736","","","","decision","","<div class='trialDiv'><img src='trustrating_stim/white_00761_941201_fb_edt.bmp'><br><font class='baseline'><strong>Timothy</strong><p>Choose number of points to send.</font><div class='respPicDiv'><img src='img/responseButtonOffersNo0L.png' class='respPic'></div></div>","5","7","Timothy","8","Shared","0.8,0.35","8","0.8","trustrating_stim/white_00761_941201_fb_edt.bmp","5","97","19"
"html-keyboard-response","192","237722","0.0-19.0-2.18","640feb5e49b723bcfaad6437","bdp_trlrn","Tue Mar 14 2023 13:41:06 GMT-0400 (Eastern Daylight Time)","512680","Untrustworthy,Trustworthy","","null","","","","decisionFB","","<div class='trialDiv'><img src='trustrating_stim/white_00761_941201_fb_edt.bmp'><br><font class='baseline'><strong>Timothy</strong><p>Choose number of points to send.</font><div class='respPicDiv'><img src='img/responseButtonOffersNo0L5.png' class='respPic'></div></div>","null","7","Timothy","8","Shared","0.8,0.35","8","0.8","trustrating_stim/white_00761_941201_fb_edt.bmp","5","92","19"
"html-keyboard-response","193","238732","0.0-19.0-3.18","640feb5e49b723bcfaad6437","bdp_trlrn","Tue Mar 14 2023 13:41:06 GMT-0400 (Eastern Daylight Time)","512680","Untrustworthy,Trustworthy","","null","","","","feedback","","<div class='trialDiv'><img src='trustrating_stim/white_00761_941201_fb_edt.bmp'><br><font class='baseline'><strong>Timothy</strong><p>Received: <strong>20</strong></font> &nbsp; &nbsp; &nbsp; &nbsp; &nbsp; &nbsp;<font class='posOutcome'>Shared back: <strong>10</strong></font></font><div class='respPicDiv'><img src='img/responseButtonOffersNo0_wht.png' class='respPic'></div></div>","null","7","Timothy","8","Shared","0.8,0.35","8","0.8","trustrating_stim/white_00761_941201_fb_edt.bmp","5","102","19"
"html-keyboard-response","194","239833","0.0-19.0-1.19","640feb5e49b723bcfaad6437","bdp_trlrn","Tue Mar 14 2023 13:41:06 GMT-0400 (Eastern Daylight Time)","512680","Untrustworthy,Trustworthy","","1099","","","","decision","","<div class='trialDiv'><img src='trustrating_stim/white_00223_940128_fb_edt.bmp'><br><font class='baseline'><strong>Chris</strong><p>Choose number of points to send.</font><div class='respPicDiv'><img src='img/responseButtonOffersNo0L.png' class='respPic'></div></div>","1","7","Chris","0","Kept","0.2,0.65","9","0.2","trustrating_stim/white_00223_940128_fb_edt.bmp","3","107","20"
"html-keyboard-response","195","240090","0.0-19.0-2.19","640feb5e49b723bcfaad6437","bdp_trlrn","Tue Mar 14 2023 13:41:06 GMT-0400 (Eastern Daylight Time)","512680","Untrustworthy,Trustworthy","","null","","","","decisionFB","","<div class='trialDiv'><img src='trustrating_stim/white_00223_940128_fb_edt.bmp'><br><font class='baseline'><strong>Chris</strong><p>Choose number of points to send.</font><div class='respPicDiv'><img src='img/responseButtonOffersNo0L1.png' class='respPic'></div></div>","null","7","Chris","0","Kept","0.2,0.65","9","0.2","trustrating_stim/white_00223_940128_fb_edt.bmp","3","106","20"
"html-keyboard-response","196","241099","0.0-19.0-3.19","640feb5e49b723bcfaad6437","bdp_trlrn","Tue Mar 14 2023 13:41:06 GMT-0400 (Eastern Daylight Time)","512680","Untrustworthy,Trustworthy","","null","","","","feedback","","<div class='trialDiv'><img src='trustrating_stim/white_00223_940128_fb_edt.bmp'><br><font class='baseline'><strong>Chris</strong><p>Received: <strong>4</strong></font> &nbsp; &nbsp; &nbsp; &nbsp; &nbsp; &nbsp;<font class='negOutcome'>Shared back: <strong>0</strong></font></font><div class='respPicDiv'><img src='img/responseButtonOffersNo0_wht.png' class='respPic'></div></div>","null","7","Chris","0","Kept","0.2,0.65","9","0.2","trustrating_stim/white_00223_940128_fb_edt.bmp","3","106","20"
"html-keyboard-response","197","241460","0.0-19.0-1.20","640feb5e49b723bcfaad6437","bdp_trlrn","Tue Mar 14 2023 13:41:06 GMT-0400 (Eastern Daylight Time)","512680","Untrustworthy,Trustworthy","","358","","","","decision","","<div class='trialDiv'><img src='trustrating_stim/white_mw099.bmp'><br><font class='baseline'><strong>Gavin</strong><p>Choose number of points to send.</font><div class='respPicDiv'><img src='img/responseButtonOffersNo0L.png' class='respPic'></div></div>","1","7","Gavin","6","Kept","0.2,0.8","13","0.2","trustrating_stim/white_mw099.bmp","4","111","21"
"html-keyboard-response","198","241713","0.0-19.0-2.20","640feb5e49b723bcfaad6437","bdp_trlrn","Tue Mar 14 2023 13:41:06 GMT-0400 (Eastern Daylight Time)","512680","Untrustworthy,Trustworthy","","null","","","","decisionFB","","<div class='trialDiv'><img src='trustrating_stim/white_mw099.bmp'><br><font class='baseline'><strong>Gavin</strong><p>Choose number of points to send.</font><div class='respPicDiv'><img src='img/responseButtonOffersNo0L1.png' class='respPic'></div></div>","null","7","Gavin","6","Kept","0.2,0.8","13","0.2","trustrating_stim/white_mw099.bmp","4","110","21"
"html-keyboard-response","199","242720","0.0-19.0-3.20","640feb5e49b723bcfaad6437","bdp_trlrn","Tue Mar 14 2023 13:41:06 GMT-0400 (Eastern Daylight Time)","512680","Untrustworthy,Trustworthy","","null","","","","feedback","","<div class='trialDiv'><img src='trustrating_stim/white_mw099.bmp'><br><font class='baseline'><strong>Gavin</strong><p>Received: <strong>4</strong></font> &nbsp; &nbsp; &nbsp; &nbsp; &nbsp; &nbsp;<font class='negOutcome'>Shared back: <strong>0</strong></font></font><div class='respPicDiv'><img src='img/responseButtonOffersNo0_wht.png' class='respPic'></div></div>","null","7","Gavin","6","Kept","0.2,0.8","13","0.2","trustrating_stim/white_mw099.bmp","4","110","21"
"html-keyboard-response","200","243371","0.0-19.0-1.21","640feb5e49b723bcfaad6437","bdp_trlrn","Tue Mar 14 2023 13:41:06 GMT-0400 (Eastern Daylight Time)","512680","Untrustworthy,Trustworthy","","650","","","","decision","","<div class='trialDiv'><img src='trustrating_stim/white_00223_940128_fb_edt.bmp'><br><font class='baseline'><strong>Chris</strong><p>Choose number of points to send.</font><div class='respPicDiv'><img src='img/responseButtonOffersNo0L.png' class='respPic'></div></div>","1","8","Chris","0","Shared","0.2,0.65","9","0.2","trustrating_stim/white_00223_940128_fb_edt.bmp","3","115","22"
"html-keyboard-response","201","243625","0.0-19.0-2.21","640feb5e49b723bcfaad6437","bdp_trlrn","Tue Mar 14 2023 13:41:06 GMT-0400 (Eastern Daylight Time)","512680","Untrustworthy,Trustworthy","","null","","","","decisionFB","","<div class='trialDiv'><img src='trustrating_stim/white_00223_940128_fb_edt.bmp'><br><font class='baseline'><strong>Chris</strong><p>Choose number of points to send.</font><div class='respPicDiv'><img src='img/responseButtonOffersNo0L1.png' class='respPic'></div></div>","null","8","Chris","0","Shared","0.2,0.65","9","0.2","trustrating_stim/white_00223_940128_fb_edt.bmp","3","114","22"
"html-keyboard-response","202","244635","0.0-19.0-3.21","640feb5e49b723bcfaad6437","bdp_trlrn","Tue Mar 14 2023 13:41:06 GMT-0400 (Eastern Daylight Time)","512680","Untrustworthy,Trustworthy","","null","","","","feedback","","<div class='trialDiv'><img src='trustrating_stim/white_00223_940128_fb_edt.bmp'><br><font class='baseline'><strong>Chris</strong><p>Received: <strong>4</strong></font> &nbsp; &nbsp; &nbsp; &nbsp; &nbsp; &nbsp;<font class='posOutcome'>Shared back: <strong>2</strong></font></font><div class='respPicDiv'><img src='img/responseButtonOffersNo0_wht.png' class='respPic'></div></div>","null","8","Chris","0","Shared","0.2,0.65","9","0.2","trustrating_stim/white_00223_940128_fb_edt.bmp","3","116","22"
"html-keyboard-response","203","245689","0.0-19.0-1.22","640feb5e49b723bcfaad6437","bdp_trlrn","Tue Mar 14 2023 13:41:06 GMT-0400 (Eastern Daylight Time)","512680","Untrustworthy,Trustworthy","","1053","","","","decision","","<div class='trialDiv'><img src='trustrating_stim/white_00761_941201_fb_edt.bmp'><br><font class='baseline'><strong>Timothy</strong><p>Choose number of points to send.</font><div class='respPicDiv'><img src='img/responseButtonOffersNo0L.png' class='respPic'></div></div>","5","8","Timothy","8","Kept","0.8,0.35","8","0.8","trustrating_stim/white_00761_941201_fb_edt.bmp","5","121","23"
"html-keyboard-response","204","245946","0.0-19.0-2.22","640feb5e49b723bcfaad6437","bdp_trlrn","Tue Mar 14 2023 13:41:06 GMT-0400 (Eastern Daylight Time)","512680","Untrustworthy,Trustworthy","","null","","","","decisionFB","","<div class='trialDiv'><img src='trustrating_stim/white_00761_941201_fb_edt.bmp'><br><font class='baseline'><strong>Timothy</strong><p>Choose number of points to send.</font><div class='respPicDiv'><img src='img/responseButtonOffersNo0L5.png' class='respPic'></div></div>","null","8","Timothy","8","Kept","0.8,0.35","8","0.8","trustrating_stim/white_00761_941201_fb_edt.bmp","5","116","23"
"html-keyboard-response","205","246951","0.0-19.0-3.22","640feb5e49b723bcfaad6437","bdp_trlrn","Tue Mar 14 2023 13:41:06 GMT-0400 (Eastern Daylight Time)","512680","Untrustworthy,Trustworthy","","null","","","","feedback","","<div class='trialDiv'><img src='trustrating_stim/white_00761_941201_fb_edt.bmp'><br><font class='baseline'><strong>Timothy</strong><p>Received: <strong>20</strong></font> &nbsp; &nbsp; &nbsp; &nbsp; &nbsp; &nbsp;<font class='negOutcome'>Shared back: <strong>0</strong></font></font><div class='respPicDiv'><img src='img/responseButtonOffersNo0_wht.png' class='respPic'></div></div>","null","8","Timothy","8","Kept","0.8,0.35","8","0.8","trustrating_stim/white_00761_941201_fb_edt.bmp","5","116","23"
"html-keyboard-response","206","247650","0.0-19.0-1.23","640feb5e49b723bcfaad6437","bdp_trlrn","Tue Mar 14 2023 13:41:06 GMT-0400 (Eastern Daylight Time)","512680","Untrustworthy,Trustworthy","","696","","","","decision","","<div class='trialDiv'><img src='trustrating_stim/white_mw099.bmp'><br><font class='baseline'><strong>Gavin</strong><p>Choose number of points to send.</font><div class='respPicDiv'><img src='img/responseButtonOffersNo0L.png' class='respPic'></div></div>","1","8","Gavin","6","Kept","0.2,0.8","13","0.2","trustrating_stim/white_mw099.bmp","4","121","24"
"html-keyboard-response","207","247906","0.0-19.0-2.23","640feb5e49b723bcfaad6437","bdp_trlrn","Tue Mar 14 2023 13:41:06 GMT-0400 (Eastern Daylight Time)","512680","Untrustworthy,Trustworthy","","null","","","","decisionFB","","<div class='trialDiv'><img src='trustrating_stim/white_mw099.bmp'><br><font class='baseline'><strong>Gavin</strong><p>Choose number of points to send.</font><div class='respPicDiv'><img src='img/responseButtonOffersNo0L1.png' class='respPic'></div></div>","null","8","Gavin","6","Kept","0.2,0.8","13","0.2","trustrating_stim/white_mw099.bmp","4","120","24"
"html-keyboard-response","208","248913","0.0-19.0-3.23","640feb5e49b723bcfaad6437","bdp_trlrn","Tue Mar 14 2023 13:41:06 GMT-0400 (Eastern Daylight Time)","512680","Untrustworthy,Trustworthy","","null","","","","feedback","","<div class='trialDiv'><img src='trustrating_stim/white_mw099.bmp'><br><font class='baseline'><strong>Gavin</strong><p>Received: <strong>4</strong></font> &nbsp; &nbsp; &nbsp; &nbsp; &nbsp; &nbsp;<font class='negOutcome'>Shared back: <strong>0</strong></font></font><div class='respPicDiv'><img src='img/responseButtonOffersNo0_wht.png' class='respPic'></div></div>","null","8","Gavin","6","Kept","0.2,0.8","13","0.2","trustrating_stim/white_mw099.bmp","4","120","24"
"html-keyboard-response","209","249373","0.0-19.0-1.24","640feb5e49b723bcfaad6437","bdp_trlrn","Tue Mar 14 2023 13:41:06 GMT-0400 (Eastern Daylight Time)","512680","Untrustworthy,Trustworthy","","458","","","","decision","","<div class='trialDiv'><img src='trustrating_stim/white_00223_940128_fb_edt.bmp'><br><font class='baseline'><strong>Chris</strong><p>Choose number of points to send.</font><div class='respPicDiv'><img src='img/responseButtonOffersNo0L.png' class='respPic'></div></div>","1","9","Chris","0","Shared","0.2,0.65","9","0.2","trustrating_stim/white_00223_940128_fb_edt.bmp","3","125","25"
"html-keyboard-response","210","249628","0.0-19.0-2.24","640feb5e49b723bcfaad6437","bdp_trlrn","Tue Mar 14 2023 13:41:06 GMT-0400 (Eastern Daylight Time)","512680","Untrustworthy,Trustworthy","","null","","","","decisionFB","","<div class='trialDiv'><img src='trustrating_stim/white_00223_940128_fb_edt.bmp'><br><font class='baseline'><strong>Chris</strong><p>Choose number of points to send.</font><div class='respPicDiv'><img src='img/responseButtonOffersNo0L1.png' class='respPic'></div></div>","null","9","Chris","0","Shared","0.2,0.65","9","0.2","trustrating_stim/white_00223_940128_fb_edt.bmp","3","124","25"
"html-keyboard-response","211","250632","0.0-19.0-3.24","640feb5e49b723bcfaad6437","bdp_trlrn","Tue Mar 14 2023 13:41:06 GMT-0400 (Eastern Daylight Time)","512680","Untrustworthy,Trustworthy","","null","","","","feedback","","<div class='trialDiv'><img src='trustrating_stim/white_00223_940128_fb_edt.bmp'><br><font class='baseline'><strong>Chris</strong><p>Received: <strong>4</strong></font> &nbsp; &nbsp; &nbsp; &nbsp; &nbsp; &nbsp;<font class='posOutcome'>Shared back: <strong>2</strong></font></font><div class='respPicDiv'><img src='img/responseButtonOffersNo0_wht.png' class='respPic'></div></div>","null","9","Chris","0","Shared","0.2,0.65","9","0.2","trustrating_stim/white_00223_940128_fb_edt.bmp","3","126","25"
"html-keyboard-response","212","251506","0.0-19.0-1.25","640feb5e49b723bcfaad6437","bdp_trlrn","Tue Mar 14 2023 13:41:06 GMT-0400 (Eastern Daylight Time)","512680","Untrustworthy,Trustworthy","","872","","","","decision","","<div class='trialDiv'><img src='trustrating_stim/white_00761_941201_fb_edt.bmp'><br><font class='baseline'><strong>Timothy</strong><p>Choose number of points to send.</font><div class='respPicDiv'><img src='img/responseButtonOffersNo0L.png' class='respPic'></div></div>","3","9","Timothy","8","Kept","0.8,0.35","8","0.8","trustrating_stim/white_00761_941201_fb_edt.bmp","5","131","26"
"html-keyboard-response","213","251763","0.0-19.0-2.25","640feb5e49b723bcfaad6437","bdp_trlrn","Tue Mar 14 2023 13:41:06 GMT-0400 (Eastern Daylight Time)","512680","Untrustworthy,Trustworthy","","null","","","","decisionFB","","<div class='trialDiv'><img src='trustrating_stim/white_00761_941201_fb_edt.bmp'><br><font class='baseline'><strong>Timothy</strong><p>Choose number of points to send.</font><div class='respPicDiv'><img src='img/responseButtonOffersNo0L3.png' class='respPic'></div></div>","null","9","Timothy","8","Kept","0.8,0.35","8","0.8","trustrating_stim/white_00761_941201_fb_edt.bmp","5","128","26"
"html-keyboard-response","214","252771","0.0-19.0-3.25","640feb5e49b723bcfaad6437","bdp_trlrn","Tue Mar 14 2023 13:41:06 GMT-0400 (Eastern Daylight Time)","512680","Untrustworthy,Trustworthy","","null","","","","feedback","","<div class='trialDiv'><img src='trustrating_stim/white_00761_941201_fb_edt.bmp'><br><font class='baseline'><strong>Timothy</strong><p>Received: <strong>12</strong></font> &nbsp; &nbsp; &nbsp; &nbsp; &nbsp; &nbsp;<font class='negOutcome'>Shared back: <strong>0</strong></font></font><div class='respPicDiv'><img src='img/responseButtonOffersNo0_wht.png' class='respPic'></div></div>","null","9","Timothy","8","Kept","0.8,0.35","8","0.8","trustrating_stim/white_00761_941201_fb_edt.bmp","5","128","26"
"html-keyboard-response","215","253634","0.0-19.0-1.26","640feb5e49b723bcfaad6437","bdp_trlrn","Tue Mar 14 2023 13:41:06 GMT-0400 (Eastern Daylight Time)","512680","Untrustworthy,Trustworthy","","860","","","","decision","","<div class='trialDiv'><img src='trustrating_stim/white_mw099.bmp'><br><font class='baseline'><strong>Gavin</strong><p>Choose number of points to send.</font><div class='respPicDiv'><img src='img/responseButtonOffersNo0L.png' class='respPic'></div></div>","1","9","Gavin","6","Shared","0.2,0.8","13","0.2","trustrating_stim/white_mw099.bmp","4","133","27"
"html-keyboard-response","216","253889","0.0-19.0-2.26","640feb5e49b723bcfaad6437","bdp_trlrn","Tue Mar 14 2023 13:41:06 GMT-0400 (Eastern Daylight Time)","512680","Untrustworthy,Trustworthy","","null","","","","decisionFB","","<div class='trialDiv'><img src='trustrating_stim/white_mw099.bmp'><br><font class='baseline'><strong>Gavin</strong><p>Choose number of points to send.</font><div class='respPicDiv'><img src='img/responseButtonOffersNo0L1.png' class='respPic'></div></div>","null","9","Gavin","6","Shared","0.2,0.8","13","0.2","trustrating_stim/white_mw099.bmp","4","132","27"
"html-keyboard-response","217","254898","0.0-19.0-3.26","640feb5e49b723bcfaad6437","bdp_trlrn","Tue Mar 14 2023 13:41:06 GMT-0400 (Eastern Daylight Time)","512680","Untrustworthy,Trustworthy","","null","","","","feedback","","<div class='trialDiv'><img src='trustrating_stim/white_mw099.bmp'><br><font class='baseline'><strong>Gavin</strong><p>Received: <strong>4</strong></font> &nbsp; &nbsp; &nbsp; &nbsp; &nbsp; &nbsp;<font class='posOutcome'>Shared back: <strong>2</strong></font></font><div class='respPicDiv'><img src='img/responseButtonOffersNo0_wht.png' class='respPic'></div></div>","null","9","Gavin","6","Shared","0.2,0.8","13","0.2","trustrating_stim/white_mw099.bmp","4","134","27"
"html-keyboard-response","218","256948","0.0-19.0-1.27","640feb5e49b723bcfaad6437","bdp_trlrn","Tue Mar 14 2023 13:41:06 GMT-0400 (Eastern Daylight Time)","512680","Untrustworthy,Trustworthy","","2049","","","","decision","","<div class='trialDiv'><img src='trustrating_stim/white_00761_941201_fb_edt.bmp'><br><font class='baseline'><strong>Timothy</strong><p>Choose number of points to send.</font><div class='respPicDiv'><img src='img/responseButtonOffersNo0L.png' class='respPic'></div></div>","1","10","Timothy","8","Kept","0.8,0.35","8","0.8","trustrating_stim/white_00761_941201_fb_edt.bmp","5","139","28"
"html-keyboard-response","219","257208","0.0-19.0-2.27","640feb5e49b723bcfaad6437","bdp_trlrn","Tue Mar 14 2023 13:41:06 GMT-0400 (Eastern Daylight Time)","512680","Untrustworthy,Trustworthy","","null","","","","decisionFB","","<div class='trialDiv'><img src='trustrating_stim/white_00761_941201_fb_edt.bmp'><br><font class='baseline'><strong>Timothy</strong><p>Choose number of points to send.</font><div class='respPicDiv'><img src='img/responseButtonOffersNo0L1.png' class='respPic'></div></div>","null","10","Timothy","8","Kept","0.8,0.35","8","0.8","trustrating_stim/white_00761_941201_fb_edt.bmp","5","138","28"
"html-keyboard-response","220","258218","0.0-19.0-3.27","640feb5e49b723bcfaad6437","bdp_trlrn","Tue Mar 14 2023 13:41:06 GMT-0400 (Eastern Daylight Time)","512680","Untrustworthy,Trustworthy","","null","","","","feedback","","<div class='trialDiv'><img src='trustrating_stim/white_00761_941201_fb_edt.bmp'><br><font class='baseline'><strong>Timothy</strong><p>Received: <strong>4</strong></font> &nbsp; &nbsp; &nbsp; &nbsp; &nbsp; &nbsp;<font class='negOutcome'>Shared back: <strong>0</strong></font></font><div class='respPicDiv'><img src='img/responseButtonOffersNo0_wht.png' class='respPic'></div></div>","null","10","Timothy","8","Kept","0.8,0.35","8","0.8","trustrating_stim/white_00761_941201_fb_edt.bmp","5","138","28"
