"trial_type","trial_index","time_elapsed","internal_node_id","subject_id","task","startTime","totalTime","labels","view_history","rt","event","trial","time","trialtype","success","numBlurs","stimulus","key_press","aground","name","faceID","outcome","agenttype","agentswpt","agentcurrpshare","face","avgRating","point_total","round"
"pavlovia","0","3","0.0-0.0","5d2a49241d8d930001c263a7","bdp_trlrn","Tue Mar 14 2023 00:17:35 GMT-0400 (Eastern Daylight Time)","744489","Untrustworthy,Trustworthy","","","","","","","","","","","","","","","","","","","","",""
"instructions","1","3718","0.0-1.0","5d2a49241d8d930001c263a7","bdp_trlrn","Tue Mar 14 2023 00:17:35 GMT-0400 (Eastern Daylight Time)","744489","Untrustworthy,Trustworthy","[{""page_index"":0,""viewing_time"":3715}]","3715","","","","","","","","","","","","","","","","","","",""
"","","","","5d2a49241d8d930001c263a7","bdp_trlrn","Tue Mar 14 2023 00:17:35 GMT-0400 (Eastern Daylight Time)","744489","Untrustworthy,Trustworthy","","","fullscreenenter","2","6444","fullscreenenter","","","","","","","","","","","","","","",""
"fullscreen","2","7438","0.0-2.0","5d2a49241d8d930001c263a7","bdp_trlrn","Tue Mar 14 2023 00:17:35 GMT-0400 (Eastern Daylight Time)","744489","Untrustworthy,Trustworthy","","","","","","","true","","","","","","","","","","","","","",""
"","","","","5d2a49241d8d930001c263a7","bdp_trlrn","Tue Mar 14 2023 00:17:35 GMT-0400 (Eastern Daylight Time)","744489","Untrustworthy,Trustworthy","","","fullscreenexit","3","12110","fullscreenexit","","","","","","","","","","","","","","",""
"","","","","5d2a49241d8d930001c263a7","bdp_trlrn","Tue Mar 14 2023 00:17:35 GMT-0400 (Eastern Daylight Time)","744489","Untrustworthy,Trustworthy","","","blur","3","14598","blurevent","","1","","","","","","","","","","","","",""
"","","","","5d2a49241d8d930001c263a7","bdp_trlrn","Tue Mar 14 2023 00:17:35 GMT-0400 (Eastern Daylight Time)","744489","Untrustworthy,Trustworthy","","","focus","3","18985","focusevent","","","","","","","","","","","","","","",""
"instructions","3","24896","0.0-4.0","5d2a49241d8d930001c263a7","bdp_trlrn","Tue Mar 14 2023 00:17:35 GMT-0400 (Eastern Daylight Time)","744489","Untrustworthy,Trustworthy","[{""page_index"":0,""viewing_time"":16483},{""page_index"":1,""viewing_time"":973}]","17456","","","","","","","","","","","","","","","","","","",""
"instructions","4","25794","0.0-5.0","5d2a49241d8d930001c263a7","bdp_trlrn","Tue Mar 14 2023 00:17:35 GMT-0400 (Eastern Daylight Time)","744489","Untrustworthy,Trustworthy","[{""page_index"":0,""viewing_time"":897}]","897","","","","","","","","","","","","","","","","","","",""
"image-keyboard-response","5","28401","0.0-6.0-1.0","5d2a49241d8d930001c263a7","bdp_trlrn","Tue Mar 14 2023 00:17:35 GMT-0400 (Eastern Daylight Time)","744489","Untrustworthy,Trustworthy","","2504","","","","rating","","","trustrating_stim/white_mw049.bmp","5","","","","","","","","","","",""
"image-keyboard-response","6","28602","0.0-6.0-2.0","5d2a49241d8d930001c263a7","bdp_trlrn","Tue Mar 14 2023 00:17:35 GMT-0400 (Eastern Daylight Time)","744489","Untrustworthy,Trustworthy","","null","","","","ratingFB","","","trustrating_stim/white_mw049.bmp","null","","","","","","","","","","",""
"image-keyboard-response","7","29664","0.0-6.0-1.1","5d2a49241d8d930001c263a7","bdp_trlrn","Tue Mar 14 2023 00:17:35 GMT-0400 (Eastern Daylight Time)","744489","Untrustworthy,Trustworthy","","960","","","","rating","","","trustrating_stim/white_00129_931230_fb_edt.bmp","6","","","","","","","","","","",""
"image-keyboard-response","8","29866","0.0-6.0-2.1","5d2a49241d8d930001c263a7","bdp_trlrn","Tue Mar 14 2023 00:17:35 GMT-0400 (Eastern Daylight Time)","744489","Untrustworthy,Trustworthy","","null","","","","ratingFB","","","trustrating_stim/white_00129_931230_fb_edt.bmp","null","","","","","","","","","","",""
"image-keyboard-response","9","31396","0.0-6.0-1.2","5d2a49241d8d930001c263a7","bdp_trlrn","Tue Mar 14 2023 00:17:35 GMT-0400 (Eastern Daylight Time)","744489","Untrustworthy,Trustworthy","","1428","","","","rating","","","trustrating_stim/white_00757_941201_fa_edt.bmp","3","","","","","","","","","","",""
"image-keyboard-response","10","31597","0.0-6.0-2.2","5d2a49241d8d930001c263a7","bdp_trlrn","Tue Mar 14 2023 00:17:35 GMT-0400 (Eastern Daylight Time)","744489","Untrustworthy,Trustworthy","","null","","","","ratingFB","","","trustrating_stim/white_00757_941201_fa_edt.bmp","null","","","","","","","","","","",""
"image-keyboard-response","11","32971","0.0-6.0-1.3","5d2a49241d8d930001c263a7","bdp_trlrn","Tue Mar 14 2023 00:17:35 GMT-0400 (Eastern Daylight Time)","744489","Untrustworthy,Trustworthy","","1272","","","","rating","","","trustrating_stim/white_mw033.bmp","4","","","","","","","","","","",""
"image-keyboard-response","12","33173","0.0-6.0-2.3","5d2a49241d8d930001c263a7","bdp_trlrn","Tue Mar 14 2023 00:17:35 GMT-0400 (Eastern Daylight Time)","744489","Untrustworthy,Trustworthy","","null","","","","ratingFB","","","trustrating_stim/white_mw033.bmp","null","","","","","","","","","","",""
"image-keyboard-response","13","34479","0.0-6.0-1.4","5d2a49241d8d930001c263a7","bdp_trlrn","Tue Mar 14 2023 00:17:35 GMT-0400 (Eastern Daylight Time)","744489","Untrustworthy,Trustworthy","","1205","","","","rating","","","trustrating_stim/white_00577_940928_fa_edt.bmp","5","","","","","","","","","","",""
"image-keyboard-response","14","34680","0.0-6.0-2.4","5d2a49241d8d930001c263a7","bdp_trlrn","Tue Mar 14 2023 00:17:35 GMT-0400 (Eastern Daylight Time)","744489","Untrustworthy,Trustworthy","","null","","","","ratingFB","","","trustrating_stim/white_00577_940928_fa_edt.bmp","null","","","","","","","","","","",""
"image-keyboard-response","15","35764","0.0-6.0-1.5","5d2a49241d8d930001c263a7","bdp_trlrn","Tue Mar 14 2023 00:17:35 GMT-0400 (Eastern Daylight Time)","744489","Untrustworthy,Trustworthy","","983","","","","rating","","","trustrating_stim/white_mw097.bmp","5","","","","","","","","","","",""
"image-keyboard-response","16","35965","0.0-6.0-2.5","5d2a49241d8d930001c263a7","bdp_trlrn","Tue Mar 14 2023 00:17:35 GMT-0400 (Eastern Daylight Time)","744489","Untrustworthy,Trustworthy","","null","","","","ratingFB","","","trustrating_stim/white_mw097.bmp","null","","","","","","","","","","",""
"image-keyboard-response","17","37337","0.0-6.0-1.6","5d2a49241d8d930001c263a7","bdp_trlrn","Tue Mar 14 2023 00:17:35 GMT-0400 (Eastern Daylight Time)","744489","Untrustworthy,Trustworthy","","1270","","","","rating","","","trustrating_stim/white_00785_941205_fb_edt.bmp","6","","","","","","","","","","",""
"image-keyboard-response","18","37538","0.0-6.0-2.6","5d2a49241d8d930001c263a7","bdp_trlrn","Tue Mar 14 2023 00:17:35 GMT-0400 (Eastern Daylight Time)","744489","Untrustworthy,Trustworthy","","null","","","","ratingFB","","","trustrating_stim/white_00785_941205_fb_edt.bmp","null","","","","","","","","","","",""
"image-keyboard-response","19","38754","0.0-6.0-1.7","5d2a49241d8d930001c263a7","bdp_trlrn","Tue Mar 14 2023 00:17:35 GMT-0400 (Eastern Daylight Time)","744489","Untrustworthy,Trustworthy","","1113","","","","rating","","","trustrating_stim/white_00602_940928_fb_edt.bmp","7","","","","","","","","","","",""
"image-keyboard-response","20","38956","0.0-6.0-2.7","5d2a49241d8d930001c263a7","bdp_trlrn","Tue Mar 14 2023 00:17:35 GMT-0400 (Eastern Daylight Time)","744489","Untrustworthy,Trustworthy","","null","","","","ratingFB","","","trustrating_stim/white_00602_940928_fb_edt.bmp","null","","","","","","","","","","",""
"image-keyboard-response","21","40487","0.0-6.0-1.8","5d2a49241d8d930001c263a7","bdp_trlrn","Tue Mar 14 2023 00:17:35 GMT-0400 (Eastern Daylight Time)","744489","Untrustworthy,Trustworthy","","1429","","","","rating","","","trustrating_stim/white_00659_941121_fa_edt.bmp","3","","","","","","","","","","",""
"image-keyboard-response","22","40688","0.0-6.0-2.8","5d2a49241d8d930001c263a7","bdp_trlrn","Tue Mar 14 2023 00:17:35 GMT-0400 (Eastern Daylight Time)","744489","Untrustworthy,Trustworthy","","null","","","","ratingFB","","","trustrating_stim/white_00659_941121_fa_edt.bmp","null","","","","","","","","","","",""
"image-keyboard-response","23","44241","0.0-6.0-1.9","5d2a49241d8d930001c263a7","bdp_trlrn","Tue Mar 14 2023 00:17:35 GMT-0400 (Eastern Daylight Time)","744489","Untrustworthy,Trustworthy","","3451","","","","rating","","","trustrating_stim/white_mw053.bmp","5","","","","","","","","","","",""
"image-keyboard-response","24","44443","0.0-6.0-2.9","5d2a49241d8d930001c263a7","bdp_trlrn","Tue Mar 14 2023 00:17:35 GMT-0400 (Eastern Daylight Time)","744489","Untrustworthy,Trustworthy","","null","","","","ratingFB","","","trustrating_stim/white_mw053.bmp","null","","","","","","","","","","",""
"image-keyboard-response","25","45436","0.0-6.0-1.10","5d2a49241d8d930001c263a7","bdp_trlrn","Tue Mar 14 2023 00:17:35 GMT-0400 (Eastern Daylight Time)","744489","Untrustworthy,Trustworthy","","890","","","","rating","","","trustrating_stim/white_mw071.bmp","5","","","","","","","","","","",""
"image-keyboard-response","26","45638","0.0-6.0-2.10","5d2a49241d8d930001c263a7","bdp_trlrn","Tue Mar 14 2023 00:17:35 GMT-0400 (Eastern Daylight Time)","744489","Untrustworthy,Trustworthy","","null","","","","ratingFB","","","trustrating_stim/white_mw071.bmp","null","","","","","","","","","","",""
"image-keyboard-response","27","46789","0.0-6.0-1.11","5d2a49241d8d930001c263a7","bdp_trlrn","Tue Mar 14 2023 00:17:35 GMT-0400 (Eastern Daylight Time)","744489","Untrustworthy,Trustworthy","","1049","","","","rating","","","trustrating_stim/white_mw084.bmp","7","","","","","","","","","","",""
"image-keyboard-response","28","46990","0.0-6.0-2.11","5d2a49241d8d930001c263a7","bdp_trlrn","Tue Mar 14 2023 00:17:35 GMT-0400 (Eastern Daylight Time)","744489","Untrustworthy,Trustworthy","","null","","","","ratingFB","","","trustrating_stim/white_mw084.bmp","null","","","","","","","","","","",""
"image-keyboard-response","29","48631","0.0-6.0-1.12","5d2a49241d8d930001c263a7","bdp_trlrn","Tue Mar 14 2023 00:17:35 GMT-0400 (Eastern Daylight Time)","744489","Untrustworthy,Trustworthy","","1540","","","","rating","","","trustrating_stim/white_00761_941201_fb_edt.bmp","6","","","","","","","","","","",""
"image-keyboard-response","30","48833","0.0-6.0-2.12","5d2a49241d8d930001c263a7","bdp_trlrn","Tue Mar 14 2023 00:17:35 GMT-0400 (Eastern Daylight Time)","744489","Untrustworthy,Trustworthy","","null","","","","ratingFB","","","trustrating_stim/white_00761_941201_fb_edt.bmp","null","","","","","","","","","","",""
"image-keyboard-response","31","49869","0.0-6.0-1.13","5d2a49241d8d930001c263a7","bdp_trlrn","Tue Mar 14 2023 00:17:35 GMT-0400 (Eastern Daylight Time)","744489","Untrustworthy,Trustworthy","","934","","","","rating","","","trustrating_stim/white_00120_931230_fa_edt.bmp","6","","","","","","","","","","",""
"image-keyboard-response","32","50071","0.0-6.0-2.13","5d2a49241d8d930001c263a7","bdp_trlrn","Tue Mar 14 2023 00:17:35 GMT-0400 (Eastern Daylight Time)","744489","Untrustworthy,Trustworthy","","null","","","","ratingFB","","","trustrating_stim/white_00120_931230_fa_edt.bmp","null","","","","","","","","","","",""
"image-keyboard-response","33","51084","0.0-6.0-1.14","5d2a49241d8d930001c263a7","bdp_trlrn","Tue Mar 14 2023 00:17:35 GMT-0400 (Eastern Daylight Time)","744489","Untrustworthy,Trustworthy","","912","","","","rating","","","trustrating_stim/white_mw035.bmp","5","","","","","","","","","","",""
"image-keyboard-response","34","51285","0.0-6.0-2.14","5d2a49241d8d930001c263a7","bdp_trlrn","Tue Mar 14 2023 00:17:35 GMT-0400 (Eastern Daylight Time)","744489","Untrustworthy,Trustworthy","","null","","","","ratingFB","","","trustrating_stim/white_mw035.bmp","null","","","","","","","","","","",""
"image-keyboard-response","35","52254","0.0-6.0-1.15","5d2a49241d8d930001c263a7","bdp_trlrn","Tue Mar 14 2023 00:17:35 GMT-0400 (Eastern Daylight Time)","744489","Untrustworthy,Trustworthy","","866","","","","rating","","","trustrating_stim/white_00223_940128_fb_edt.bmp","5","","","","","","","","","","",""
"image-keyboard-response","36","52454","0.0-6.0-2.15","5d2a49241d8d930001c263a7","bdp_trlrn","Tue Mar 14 2023 00:17:35 GMT-0400 (Eastern Daylight Time)","744489","Untrustworthy,Trustworthy","","null","","","","ratingFB","","","trustrating_stim/white_00223_940128_fb_edt.bmp","null","","","","","","","","","","",""
"image-keyboard-response","37","54121","0.0-6.0-1.16","5d2a49241d8d930001c263a7","bdp_trlrn","Tue Mar 14 2023 00:17:35 GMT-0400 (Eastern Daylight Time)","744489","Untrustworthy,Trustworthy","","1565","","","","rating","","","trustrating_stim/white_mw063.bmp","2","","","","","","","","","","",""
"image-keyboard-response","38","54323","0.0-6.0-2.16","5d2a49241d8d930001c263a7","bdp_trlrn","Tue Mar 14 2023 00:17:35 GMT-0400 (Eastern Daylight Time)","744489","Untrustworthy,Trustworthy","","null","","","","ratingFB","","","trustrating_stim/white_mw063.bmp","null","","","","","","","","","","",""
"image-keyboard-response","39","55314","0.0-6.0-1.17","5d2a49241d8d930001c263a7","bdp_trlrn","Tue Mar 14 2023 00:17:35 GMT-0400 (Eastern Daylight Time)","744489","Untrustworthy,Trustworthy","","890","","","","rating","","","trustrating_stim/white_mw099.bmp","4","","","","","","","","","","",""
"image-keyboard-response","40","55514","0.0-6.0-2.17","5d2a49241d8d930001c263a7","bdp_trlrn","Tue Mar 14 2023 00:17:35 GMT-0400 (Eastern Daylight Time)","744489","Untrustworthy,Trustworthy","","null","","","","ratingFB","","","trustrating_stim/white_mw099.bmp","null","","","","","","","","","","",""
"image-keyboard-response","41","57453","0.0-6.0-1.18","5d2a49241d8d930001c263a7","bdp_trlrn","Tue Mar 14 2023 00:17:35 GMT-0400 (Eastern Daylight Time)","744489","Untrustworthy,Trustworthy","","1837","","","","rating","","","trustrating_stim/white_mw089.bmp","4","","","","","","","","","","",""
"image-keyboard-response","42","57655","0.0-6.0-2.18","5d2a49241d8d930001c263a7","bdp_trlrn","Tue Mar 14 2023 00:17:35 GMT-0400 (Eastern Daylight Time)","744489","Untrustworthy,Trustworthy","","null","","","","ratingFB","","","trustrating_stim/white_mw089.bmp","null","","","","","","","","","","",""
"image-keyboard-response","43","58801","0.0-6.0-1.19","5d2a49241d8d930001c263a7","bdp_trlrn","Tue Mar 14 2023 00:17:35 GMT-0400 (Eastern Daylight Time)","744489","Untrustworthy,Trustworthy","","1045","","","","rating","","","trustrating_stim/white_00299_940422_fa_edt.bmp","4","","","","","","","","","","",""
"image-keyboard-response","44","59004","0.0-6.0-2.19","5d2a49241d8d930001c263a7","bdp_trlrn","Tue Mar 14 2023 00:17:35 GMT-0400 (Eastern Daylight Time)","744489","Untrustworthy,Trustworthy","","null","","","","ratingFB","","","trustrating_stim/white_00299_940422_fa_edt.bmp","null","","","","","","","","","","",""
"image-keyboard-response","45","61183","0.0-6.0-1.20","5d2a49241d8d930001c263a7","bdp_trlrn","Tue Mar 14 2023 00:17:35 GMT-0400 (Eastern Daylight Time)","744489","Untrustworthy,Trustworthy","","2063","","","","rating","","","trustrating_stim/white_00340_940422_fa_edt.bmp","3","","","","","","","","","","",""
"image-keyboard-response","46","61385","0.0-6.0-2.20","5d2a49241d8d930001c263a7","bdp_trlrn","Tue Mar 14 2023 00:17:35 GMT-0400 (Eastern Daylight Time)","744489","Untrustworthy,Trustworthy","","null","","","","ratingFB","","","trustrating_stim/white_00340_940422_fa_edt.bmp","null","","","","","","","","","","",""
"image-keyboard-response","47","63302","0.0-6.0-1.21","5d2a49241d8d930001c263a7","bdp_trlrn","Tue Mar 14 2023 00:17:35 GMT-0400 (Eastern Daylight Time)","744489","Untrustworthy,Trustworthy","","1815","","","","rating","","","trustrating_stim/white_00807_941205_fb_edt.bmp","2","","","","","","","","","","",""
"image-keyboard-response","48","63503","0.0-6.0-2.21","5d2a49241d8d930001c263a7","bdp_trlrn","Tue Mar 14 2023 00:17:35 GMT-0400 (Eastern Daylight Time)","744489","Untrustworthy,Trustworthy","","null","","","","ratingFB","","","trustrating_stim/white_00807_941205_fb_edt.bmp","null","","","","","","","","","","",""
"image-keyboard-response","49","64741","0.0-6.0-1.22","5d2a49241d8d930001c263a7","bdp_trlrn","Tue Mar 14 2023 00:17:35 GMT-0400 (Eastern Daylight Time)","744489","Untrustworthy,Trustworthy","","1136","","","","rating","","","trustrating_stim/white_mw056.bmp","2","","","","","","","","","","",""
"image-keyboard-response","50","64943","0.0-6.0-2.22","5d2a49241d8d930001c263a7","bdp_trlrn","Tue Mar 14 2023 00:17:35 GMT-0400 (Eastern Daylight Time)","744489","Untrustworthy,Trustworthy","","null","","","","ratingFB","","","trustrating_stim/white_mw056.bmp","null","","","","","","","","","","",""
"image-keyboard-response","51","66519","0.0-6.0-1.23","5d2a49241d8d930001c263a7","bdp_trlrn","Tue Mar 14 2023 00:17:35 GMT-0400 (Eastern Daylight Time)","744489","Untrustworthy,Trustworthy","","1474","","","","rating","","","trustrating_stim/white_00898_960530_fa_edt.bmp","5","","","","","","","","","","",""
"image-keyboard-response","52","66722","0.0-6.0-2.23","5d2a49241d8d930001c263a7","bdp_trlrn","Tue Mar 14 2023 00:17:35 GMT-0400 (Eastern Daylight Time)","744489","Untrustworthy,Trustworthy","","null","","","","ratingFB","","","trustrating_stim/white_00898_960530_fa_edt.bmp","null","","","","","","","","","","",""
"image-keyboard-response","53","68930","0.0-6.0-1.24","5d2a49241d8d930001c263a7","bdp_trlrn","Tue Mar 14 2023 00:17:35 GMT-0400 (Eastern Daylight Time)","744489","Untrustworthy,Trustworthy","","2106","","","","rating","","","trustrating_stim/white_00519_940519_fb_edt.bmp","4","","","","","","","","","","",""
"image-keyboard-response","54","69132","0.0-6.0-2.24","5d2a49241d8d930001c263a7","bdp_trlrn","Tue Mar 14 2023 00:17:35 GMT-0400 (Eastern Daylight Time)","744489","Untrustworthy,Trustworthy","","null","","","","ratingFB","","","trustrating_stim/white_00519_940519_fb_edt.bmp","null","","","","","","","","","","",""
"image-keyboard-response","55","70366","0.0-6.0-1.25","5d2a49241d8d930001c263a7","bdp_trlrn","Tue Mar 14 2023 00:17:35 GMT-0400 (Eastern Daylight Time)","744489","Untrustworthy,Trustworthy","","1132","","","","rating","","","trustrating_stim/white_00109_931230_fa_edt.bmp","7","","","","","","","","","","",""
"image-keyboard-response","56","70567","0.0-6.0-2.25","5d2a49241d8d930001c263a7","bdp_trlrn","Tue Mar 14 2023 00:17:35 GMT-0400 (Eastern Daylight Time)","744489","Untrustworthy,Trustworthy","","null","","","","ratingFB","","","trustrating_stim/white_00109_931230_fa_edt.bmp","null","","","","","","","","","","",""
"image-keyboard-response","57","71965","0.0-6.0-1.26","5d2a49241d8d930001c263a7","bdp_trlrn","Tue Mar 14 2023 00:17:35 GMT-0400 (Eastern Daylight Time)","744489","Untrustworthy,Trustworthy","","1295","","","","rating","","","trustrating_stim/white_mw046.bmp","5","","","","","","","","","","",""
"image-keyboard-response","58","72168","0.0-6.0-2.26","5d2a49241d8d930001c263a7","bdp_trlrn","Tue Mar 14 2023 00:17:35 GMT-0400 (Eastern Daylight Time)","744489","Untrustworthy,Trustworthy","","null","","","","ratingFB","","","trustrating_stim/white_mw046.bmp","null","","","","","","","","","","",""
"image-keyboard-response","59","73652","0.0-6.0-1.27","5d2a49241d8d930001c263a7","bdp_trlrn","Tue Mar 14 2023 00:17:35 GMT-0400 (Eastern Daylight Time)","744489","Untrustworthy,Trustworthy","","1381","","","","rating","","","trustrating_stim/white_mw048.bmp","4","","","","","","","","","","",""
"image-keyboard-response","60","73853","0.0-6.0-2.27","5d2a49241d8d930001c263a7","bdp_trlrn","Tue Mar 14 2023 00:17:35 GMT-0400 (Eastern Daylight Time)","744489","Untrustworthy,Trustworthy","","null","","","","ratingFB","","","trustrating_stim/white_mw048.bmp","null","","","","","","","","","","",""
"image-keyboard-response","61","76059","0.0-6.0-1.28","5d2a49241d8d930001c263a7","bdp_trlrn","Tue Mar 14 2023 00:17:35 GMT-0400 (Eastern Daylight Time)","744489","Untrustworthy,Trustworthy","","2104","","","","rating","","","trustrating_stim/white_mw060.bmp","1","","","","","","","","","","",""
"image-keyboard-response","62","76260","0.0-6.0-2.28","5d2a49241d8d930001c263a7","bdp_trlrn","Tue Mar 14 2023 00:17:35 GMT-0400 (Eastern Daylight Time)","744489","Untrustworthy,Trustworthy","","null","","","","ratingFB","","","trustrating_stim/white_mw060.bmp","null","","","","","","","","","","",""
"image-keyboard-response","63","78534","0.0-6.0-1.29","5d2a49241d8d930001c263a7","bdp_trlrn","Tue Mar 14 2023 00:17:35 GMT-0400 (Eastern Daylight Time)","744489","Untrustworthy,Trustworthy","","2171","","","","rating","","","trustrating_stim/white_mw066.bmp","5","","","","","","","","","","",""
"image-keyboard-response","64","78736","0.0-6.0-2.29","5d2a49241d8d930001c263a7","bdp_trlrn","Tue Mar 14 2023 00:17:35 GMT-0400 (Eastern Daylight Time)","744489","Untrustworthy,Trustworthy","","null","","","","ratingFB","","","trustrating_stim/white_mw066.bmp","null","","","","","","","","","","",""
"image-keyboard-response","65","80066","0.0-6.0-1.30","5d2a49241d8d930001c263a7","bdp_trlrn","Tue Mar 14 2023 00:17:35 GMT-0400 (Eastern Daylight Time)","744489","Untrustworthy,Trustworthy","","1229","","","","rating","","","trustrating_stim/white_mw084.bmp","6","","","","","","","","","","",""
"image-keyboard-response","66","80266","0.0-6.0-2.30","5d2a49241d8d930001c263a7","bdp_trlrn","Tue Mar 14 2023 00:17:35 GMT-0400 (Eastern Daylight Time)","744489","Untrustworthy,Trustworthy","","null","","","","ratingFB","","","trustrating_stim/white_mw084.bmp","null","","","","","","","","","","",""
"image-keyboard-response","67","81099","0.0-6.0-1.31","5d2a49241d8d930001c263a7","bdp_trlrn","Tue Mar 14 2023 00:17:35 GMT-0400 (Eastern Daylight Time)","744489","Untrustworthy,Trustworthy","","731","","","","rating","","","trustrating_stim/white_mw066.bmp","5","","","","","","","","","","",""
"image-keyboard-response","68","81300","0.0-6.0-2.31","5d2a49241d8d930001c263a7","bdp_trlrn","Tue Mar 14 2023 00:17:35 GMT-0400 (Eastern Daylight Time)","744489","Untrustworthy,Trustworthy","","null","","","","ratingFB","","","trustrating_stim/white_mw066.bmp","null","","","","","","","","","","",""
"image-keyboard-response","69","83033","0.0-6.0-1.32","5d2a49241d8d930001c263a7","bdp_trlrn","Tue Mar 14 2023 00:17:35 GMT-0400 (Eastern Daylight Time)","744489","Untrustworthy,Trustworthy","","1631","","","","rating","","","trustrating_stim/white_mw089.bmp","2","","","","","","","","","","",""
"image-keyboard-response","70","83235","0.0-6.0-2.32","5d2a49241d8d930001c263a7","bdp_trlrn","Tue Mar 14 2023 00:17:35 GMT-0400 (Eastern Daylight Time)","744489","Untrustworthy,Trustworthy","","null","","","","ratingFB","","","trustrating_stim/white_mw089.bmp","null","","","","","","","","","","",""
"image-keyboard-response","71","84159","0.0-6.0-1.33","5d2a49241d8d930001c263a7","bdp_trlrn","Tue Mar 14 2023 00:17:35 GMT-0400 (Eastern Daylight Time)","744489","Untrustworthy,Trustworthy","","823","","","","rating","","","trustrating_stim/white_mw060.bmp","3","","","","","","","","","","",""
"image-keyboard-response","72","84360","0.0-6.0-2.33","5d2a49241d8d930001c263a7","bdp_trlrn","Tue Mar 14 2023 00:17:35 GMT-0400 (Eastern Daylight Time)","744489","Untrustworthy,Trustworthy","","null","","","","ratingFB","","","trustrating_stim/white_mw060.bmp","null","","","","","","","","","","",""
"image-keyboard-response","73","86319","0.0-6.0-1.34","5d2a49241d8d930001c263a7","bdp_trlrn","Tue Mar 14 2023 00:17:35 GMT-0400 (Eastern Daylight Time)","744489","Untrustworthy,Trustworthy","","1856","","","","rating","","","trustrating_stim/white_00299_940422_fa_edt.bmp","5","","","","","","","","","","",""
"image-keyboard-response","74","86520","0.0-6.0-2.34","5d2a49241d8d930001c263a7","bdp_trlrn","Tue Mar 14 2023 00:17:35 GMT-0400 (Eastern Daylight Time)","744489","Untrustworthy,Trustworthy","","null","","","","ratingFB","","","trustrating_stim/white_00299_940422_fa_edt.bmp","null","","","","","","","","","","",""
"image-keyboard-response","75","88858","0.0-6.0-1.35","5d2a49241d8d930001c263a7","bdp_trlrn","Tue Mar 14 2023 00:17:35 GMT-0400 (Eastern Daylight Time)","744489","Untrustworthy,Trustworthy","","2236","","","","rating","","","trustrating_stim/white_00757_941201_fa_edt.bmp","4","","","","","","","","","","",""
"image-keyboard-response","76","89059","0.0-6.0-2.35","5d2a49241d8d930001c263a7","bdp_trlrn","Tue Mar 14 2023 00:17:35 GMT-0400 (Eastern Daylight Time)","744489","Untrustworthy,Trustworthy","","null","","","","ratingFB","","","trustrating_stim/white_00757_941201_fa_edt.bmp","null","","","","","","","","","","",""
"image-keyboard-response","77","95182","0.0-6.0-1.36","5d2a49241d8d930001c263a7","bdp_trlrn","Tue Mar 14 2023 00:17:35 GMT-0400 (Eastern Daylight Time)","744489","Untrustworthy,Trustworthy","","6020","","","","rating","","","trustrating_stim/white_mw056.bmp","4","","","","","","","","","","",""
"image-keyboard-response","78","95385","0.0-6.0-2.36","5d2a49241d8d930001c263a7","bdp_trlrn","Tue Mar 14 2023 00:17:35 GMT-0400 (Eastern Daylight Time)","744489","Untrustworthy,Trustworthy","","null","","","","ratingFB","","","trustrating_stim/white_mw056.bmp","null","","","","","","","","","","",""
"image-keyboard-response","79","96445","0.0-6.0-1.37","5d2a49241d8d930001c263a7","bdp_trlrn","Tue Mar 14 2023 00:17:35 GMT-0400 (Eastern Daylight Time)","744489","Untrustworthy,Trustworthy","","956","","","","rating","","","trustrating_stim/white_mw063.bmp","3","","","","","","","","","","",""
"image-keyboard-response","80","96646","0.0-6.0-2.37","5d2a49241d8d930001c263a7","bdp_trlrn","Tue Mar 14 2023 00:17:35 GMT-0400 (Eastern Daylight Time)","744489","Untrustworthy,Trustworthy","","null","","","","ratingFB","","","trustrating_stim/white_mw063.bmp","null","","","","","","","","","","",""
"image-keyboard-response","81","98222","0.0-6.0-1.38","5d2a49241d8d930001c263a7","bdp_trlrn","Tue Mar 14 2023 00:17:35 GMT-0400 (Eastern Daylight Time)","744489","Untrustworthy,Trustworthy","","1472","","","","rating","","","trustrating_stim/white_00120_931230_fa_edt.bmp","5","","","","","","","","","","",""
"image-keyboard-response","82","98423","0.0-6.0-2.38","5d2a49241d8d930001c263a7","bdp_trlrn","Tue Mar 14 2023 00:17:35 GMT-0400 (Eastern Daylight Time)","744489","Untrustworthy,Trustworthy","","null","","","","ratingFB","","","trustrating_stim/white_00120_931230_fa_edt.bmp","null","","","","","","","","","","",""
"image-keyboard-response","83","99729","0.0-6.0-1.39","5d2a49241d8d930001c263a7","bdp_trlrn","Tue Mar 14 2023 00:17:35 GMT-0400 (Eastern Daylight Time)","744489","Untrustworthy,Trustworthy","","1204","","","","rating","","","trustrating_stim/white_mw046.bmp","5","","","","","","","","","","",""
"image-keyboard-response","84","99930","0.0-6.0-2.39","5d2a49241d8d930001c263a7","bdp_trlrn","Tue Mar 14 2023 00:17:35 GMT-0400 (Eastern Daylight Time)","744489","Untrustworthy,Trustworthy","","null","","","","ratingFB","","","trustrating_stim/white_mw046.bmp","null","","","","","","","","","","",""
"image-keyboard-response","85","100741","0.0-6.0-1.40","5d2a49241d8d930001c263a7","bdp_trlrn","Tue Mar 14 2023 00:17:35 GMT-0400 (Eastern Daylight Time)","744489","Untrustworthy,Trustworthy","","709","","","","rating","","","trustrating_stim/white_00109_931230_fa_edt.bmp","5","","","","","","","","","","",""
"image-keyboard-response","86","100943","0.0-6.0-2.40","5d2a49241d8d930001c263a7","bdp_trlrn","Tue Mar 14 2023 00:17:35 GMT-0400 (Eastern Daylight Time)","744489","Untrustworthy,Trustworthy","","null","","","","ratingFB","","","trustrating_stim/white_00109_931230_fa_edt.bmp","null","","","","","","","","","","",""
"image-keyboard-response","87","102136","0.0-6.0-1.41","5d2a49241d8d930001c263a7","bdp_trlrn","Tue Mar 14 2023 00:17:35 GMT-0400 (Eastern Daylight Time)","744489","Untrustworthy,Trustworthy","","1091","","","","rating","","","trustrating_stim/white_00761_941201_fb_edt.bmp","3","","","","","","","","","","",""
"image-keyboard-response","88","102338","0.0-6.0-2.41","5d2a49241d8d930001c263a7","bdp_trlrn","Tue Mar 14 2023 00:17:35 GMT-0400 (Eastern Daylight Time)","744489","Untrustworthy,Trustworthy","","null","","","","ratingFB","","","trustrating_stim/white_00761_941201_fb_edt.bmp","null","","","","","","","","","","",""
"image-keyboard-response","89","103509","0.0-6.0-1.42","5d2a49241d8d930001c263a7","bdp_trlrn","Tue Mar 14 2023 00:17:35 GMT-0400 (Eastern Daylight Time)","744489","Untrustworthy,Trustworthy","","1070","","","","rating","","","trustrating_stim/white_mw048.bmp","4","","","","","","","","","","",""
"image-keyboard-response","90","103710","0.0-6.0-2.42","5d2a49241d8d930001c263a7","bdp_trlrn","Tue Mar 14 2023 00:17:35 GMT-0400 (Eastern Daylight Time)","744489","Untrustworthy,Trustworthy","","null","","","","ratingFB","","","trustrating_stim/white_mw048.bmp","null","","","","","","","","","","",""
"image-keyboard-response","91","104611","0.0-6.0-1.43","5d2a49241d8d930001c263a7","bdp_trlrn","Tue Mar 14 2023 00:17:35 GMT-0400 (Eastern Daylight Time)","744489","Untrustworthy,Trustworthy","","800","","","","rating","","","trustrating_stim/white_00577_940928_fa_edt.bmp","4","","","","","","","","","","",""
"image-keyboard-response","92","104812","0.0-6.0-2.43","5d2a49241d8d930001c263a7","bdp_trlrn","Tue Mar 14 2023 00:17:35 GMT-0400 (Eastern Daylight Time)","744489","Untrustworthy,Trustworthy","","null","","","","ratingFB","","","trustrating_stim/white_00577_940928_fa_edt.bmp","null","","","","","","","","","","",""
"image-keyboard-response","93","106143","0.0-6.0-1.44","5d2a49241d8d930001c263a7","bdp_trlrn","Tue Mar 14 2023 00:17:35 GMT-0400 (Eastern Daylight Time)","744489","Untrustworthy,Trustworthy","","1229","","","","rating","","","trustrating_stim/white_00223_940128_fb_edt.bmp","5","","","","","","","","","","",""
"image-keyboard-response","94","106344","0.0-6.0-2.44","5d2a49241d8d930001c263a7","bdp_trlrn","Tue Mar 14 2023 00:17:35 GMT-0400 (Eastern Daylight Time)","744489","Untrustworthy,Trustworthy","","null","","","","ratingFB","","","trustrating_stim/white_00223_940128_fb_edt.bmp","null","","","","","","","","","","",""
"image-keyboard-response","95","108478","0.0-6.0-1.45","5d2a49241d8d930001c263a7","bdp_trlrn","Tue Mar 14 2023 00:17:35 GMT-0400 (Eastern Daylight Time)","744489","Untrustworthy,Trustworthy","","2031","","","","rating","","","trustrating_stim/white_00898_960530_fa_edt.bmp","6","","","","","","","","","","",""
"image-keyboard-response","96","108679","0.0-6.0-2.45","5d2a49241d8d930001c263a7","bdp_trlrn","Tue Mar 14 2023 00:17:35 GMT-0400 (Eastern Daylight Time)","744489","Untrustworthy,Trustworthy","","null","","","","ratingFB","","","trustrating_stim/white_00898_960530_fa_edt.bmp","null","","","","","","","","","","",""
"image-keyboard-response","97","110664","0.0-6.0-1.46","5d2a49241d8d930001c263a7","bdp_trlrn","Tue Mar 14 2023 00:17:35 GMT-0400 (Eastern Daylight Time)","744489","Untrustworthy,Trustworthy","","1883","","","","rating","","","trustrating_stim/white_00659_941121_fa_edt.bmp","1","","","","","","","","","","",""
"image-keyboard-response","98","110866","0.0-6.0-2.46","5d2a49241d8d930001c263a7","bdp_trlrn","Tue Mar 14 2023 00:17:35 GMT-0400 (Eastern Daylight Time)","744489","Untrustworthy,Trustworthy","","null","","","","ratingFB","","","trustrating_stim/white_00659_941121_fa_edt.bmp","null","","","","","","","","","","",""
"image-keyboard-response","99","113518","0.0-6.0-1.47","5d2a49241d8d930001c263a7","bdp_trlrn","Tue Mar 14 2023 00:17:35 GMT-0400 (Eastern Daylight Time)","744489","Untrustworthy,Trustworthy","","2550","","","","rating","","","trustrating_stim/white_mw035.bmp","3","","","","","","","","","","",""
"image-keyboard-response","100","113720","0.0-6.0-2.47","5d2a49241d8d930001c263a7","bdp_trlrn","Tue Mar 14 2023 00:17:35 GMT-0400 (Eastern Daylight Time)","744489","Untrustworthy,Trustworthy","","null","","","","ratingFB","","","trustrating_stim/white_mw035.bmp","null","","","","","","","","","","",""
"image-keyboard-response","101","114849","0.0-6.0-1.48","5d2a49241d8d930001c263a7","bdp_trlrn","Tue Mar 14 2023 00:17:35 GMT-0400 (Eastern Daylight Time)","744489","Untrustworthy,Trustworthy","","1026","","","","rating","","","trustrating_stim/white_mw099.bmp","3","","","","","","","","","","",""
"image-keyboard-response","102","115049","0.0-6.0-2.48","5d2a49241d8d930001c263a7","bdp_trlrn","Tue Mar 14 2023 00:17:35 GMT-0400 (Eastern Daylight Time)","744489","Untrustworthy,Trustworthy","","null","","","","ratingFB","","","trustrating_stim/white_mw099.bmp","null","","","","","","","","","","",""
"image-keyboard-response","103","116202","0.0-6.0-1.49","5d2a49241d8d930001c263a7","bdp_trlrn","Tue Mar 14 2023 00:17:35 GMT-0400 (Eastern Daylight Time)","744489","Untrustworthy,Trustworthy","","1050","","","","rating","","","trustrating_stim/white_mw053.bmp","5","","","","","","","","","","",""
"image-keyboard-response","104","116404","0.0-6.0-2.49","5d2a49241d8d930001c263a7","bdp_trlrn","Tue Mar 14 2023 00:17:35 GMT-0400 (Eastern Daylight Time)","744489","Untrustworthy,Trustworthy","","null","","","","ratingFB","","","trustrating_stim/white_mw053.bmp","null","","","","","","","","","","",""
"image-keyboard-response","105","117482","0.0-6.0-1.50","5d2a49241d8d930001c263a7","bdp_trlrn","Tue Mar 14 2023 00:17:35 GMT-0400 (Eastern Daylight Time)","744489","Untrustworthy,Trustworthy","","975","","","","rating","","","trustrating_stim/white_mw071.bmp","4","","","","","","","","","","",""
"image-keyboard-response","106","117684","0.0-6.0-2.50","5d2a49241d8d930001c263a7","bdp_trlrn","Tue Mar 14 2023 00:17:35 GMT-0400 (Eastern Daylight Time)","744489","Untrustworthy,Trustworthy","","null","","","","ratingFB","","","trustrating_stim/white_mw071.bmp","null","","","","","","","","","","",""
"image-keyboard-response","107","118584","0.0-6.0-1.51","5d2a49241d8d930001c263a7","bdp_trlrn","Tue Mar 14 2023 00:17:35 GMT-0400 (Eastern Daylight Time)","744489","Untrustworthy,Trustworthy","","798","","","","rating","","","trustrating_stim/white_00340_940422_fa_edt.bmp","4","","","","","","","","","","",""
"image-keyboard-response","108","118786","0.0-6.0-2.51","5d2a49241d8d930001c263a7","bdp_trlrn","Tue Mar 14 2023 00:17:35 GMT-0400 (Eastern Daylight Time)","744489","Untrustworthy,Trustworthy","","null","","","","ratingFB","","","trustrating_stim/white_00340_940422_fa_edt.bmp","null","","","","","","","","","","",""
"image-keyboard-response","109","124206","0.0-6.0-1.52","5d2a49241d8d930001c263a7","bdp_trlrn","Tue Mar 14 2023 00:17:35 GMT-0400 (Eastern Daylight Time)","744489","Untrustworthy,Trustworthy","","5316","","","","rating","","","trustrating_stim/white_00785_941205_fb_edt.bmp","5","","","","","","","","","","",""
"image-keyboard-response","110","124407","0.0-6.0-2.52","5d2a49241d8d930001c263a7","bdp_trlrn","Tue Mar 14 2023 00:17:35 GMT-0400 (Eastern Daylight Time)","744489","Untrustworthy,Trustworthy","","null","","","","ratingFB","","","trustrating_stim/white_00785_941205_fb_edt.bmp","null","","","","","","","","","","",""
"image-keyboard-response","111","132104","0.0-6.0-1.53","5d2a49241d8d930001c263a7","bdp_trlrn","Tue Mar 14 2023 00:17:35 GMT-0400 (Eastern Daylight Time)","744489","Untrustworthy,Trustworthy","","7595","","","","rating","","","trustrating_stim/white_mw097.bmp","6","","","","","","","","","","",""
"image-keyboard-response","112","132305","0.0-6.0-2.53","5d2a49241d8d930001c263a7","bdp_trlrn","Tue Mar 14 2023 00:17:35 GMT-0400 (Eastern Daylight Time)","744489","Untrustworthy,Trustworthy","","null","","","","ratingFB","","","trustrating_stim/white_mw097.bmp","null","","","","","","","","","","",""
"image-keyboard-response","113","133029","0.0-6.0-1.54","5d2a49241d8d930001c263a7","bdp_trlrn","Tue Mar 14 2023 00:17:35 GMT-0400 (Eastern Daylight Time)","744489","Untrustworthy,Trustworthy","","622","","","","rating","","","trustrating_stim/white_mw033.bmp","5","","","","","","","","","","",""
"image-keyboard-response","114","133231","0.0-6.0-2.54","5d2a49241d8d930001c263a7","bdp_trlrn","Tue Mar 14 2023 00:17:35 GMT-0400 (Eastern Daylight Time)","744489","Untrustworthy,Trustworthy","","null","","","","ratingFB","","","trustrating_stim/white_mw033.bmp","null","","","","","","","","","","",""
"image-keyboard-response","115","134131","0.0-6.0-1.55","5d2a49241d8d930001c263a7","bdp_trlrn","Tue Mar 14 2023 00:17:35 GMT-0400 (Eastern Daylight Time)","744489","Untrustworthy,Trustworthy","","798","","","","rating","","","trustrating_stim/white_mw049.bmp","5","","","","","","","","","","",""
"image-keyboard-response","116","134333","0.0-6.0-2.55","5d2a49241d8d930001c263a7","bdp_trlrn","Tue Mar 14 2023 00:17:35 GMT-0400 (Eastern Daylight Time)","744489","Untrustworthy,Trustworthy","","null","","","","ratingFB","","","trustrating_stim/white_mw049.bmp","null","","","","","","","","","","",""
"image-keyboard-response","117","135685","0.0-6.0-1.56","5d2a49241d8d930001c263a7","bdp_trlrn","Tue Mar 14 2023 00:17:35 GMT-0400 (Eastern Daylight Time)","744489","Untrustworthy,Trustworthy","","1250","","","","rating","","","trustrating_stim/white_00519_940519_fb_edt.bmp","4","","","","","","","","","","",""
"image-keyboard-response","118","135886","0.0-6.0-2.56","5d2a49241d8d930001c263a7","bdp_trlrn","Tue Mar 14 2023 00:17:35 GMT-0400 (Eastern Daylight Time)","744489","Untrustworthy,Trustworthy","","null","","","","ratingFB","","","trustrating_stim/white_00519_940519_fb_edt.bmp","null","","","","","","","","","","",""
"image-keyboard-response","119","138651","0.0-6.0-1.57","5d2a49241d8d930001c263a7","bdp_trlrn","Tue Mar 14 2023 00:17:35 GMT-0400 (Eastern Daylight Time)","744489","Untrustworthy,Trustworthy","","2663","","","","rating","","","trustrating_stim/white_00602_940928_fb_edt.bmp","7","","","","","","","","","","",""
"image-keyboard-response","120","138852","0.0-6.0-2.57","5d2a49241d8d930001c263a7","bdp_trlrn","Tue Mar 14 2023 00:17:35 GMT-0400 (Eastern Daylight Time)","744489","Untrustworthy,Trustworthy","","null","","","","ratingFB","","","trustrating_stim/white_00602_940928_fb_edt.bmp","null","","","","","","","","","","",""
"image-keyboard-response","121","141193","0.0-6.0-1.58","5d2a49241d8d930001c263a7","bdp_trlrn","Tue Mar 14 2023 00:17:35 GMT-0400 (Eastern Daylight Time)","744489","Untrustworthy,Trustworthy","","2238","","","","rating","","","trustrating_stim/white_00807_941205_fb_edt.bmp","5","","","","","","","","","","",""
"image-keyboard-response","122","141395","0.0-6.0-2.58","5d2a49241d8d930001c263a7","bdp_trlrn","Tue Mar 14 2023 00:17:35 GMT-0400 (Eastern Daylight Time)","744489","Untrustworthy,Trustworthy","","null","","","","ratingFB","","","trustrating_stim/white_00807_941205_fb_edt.bmp","null","","","","","","","","","","",""
"image-keyboard-response","123","142954","0.0-6.0-1.59","5d2a49241d8d930001c263a7","bdp_trlrn","Tue Mar 14 2023 00:17:35 GMT-0400 (Eastern Daylight Time)","744489","Untrustworthy,Trustworthy","","1458","","","","rating","","","trustrating_stim/white_00129_931230_fb_edt.bmp","4","","","","","","","","","","",""
"image-keyboard-response","124","143155","0.0-6.0-2.59","5d2a49241d8d930001c263a7","bdp_trlrn","Tue Mar 14 2023 00:17:35 GMT-0400 (Eastern Daylight Time)","744489","Untrustworthy,Trustworthy","","null","","","","ratingFB","","","trustrating_stim/white_00129_931230_fb_edt.bmp","null","","","","","","","","","","",""
"instructions","125","147160","0.0-7.0","5d2a49241d8d930001c263a7","bdp_trlrn","Tue Mar 14 2023 00:17:35 GMT-0400 (Eastern Daylight Time)","744489","Untrustworthy,Trustworthy","[{""page_index"":0,""viewing_time"":3904}]","3904","","","","","","","","","","","","","","","","","","",""
"","","","","5d2a49241d8d930001c263a7","bdp_trlrn","Tue Mar 14 2023 00:17:35 GMT-0400 (Eastern Daylight Time)","744489","Untrustworthy,Trustworthy","","","blur","126","176804","blurevent","","1","","","","","","","","","","","","",""
"","","","","5d2a49241d8d930001c263a7","bdp_trlrn","Tue Mar 14 2023 00:17:35 GMT-0400 (Eastern Daylight Time)","744489","Untrustworthy,Trustworthy","","","focus","126","201392","focusevent","","","","","","","","","","","","","","",""
"","","","","5d2a49241d8d930001c263a7","bdp_trlrn","Tue Mar 14 2023 00:17:35 GMT-0400 (Eastern Daylight Time)","744489","Untrustworthy,Trustworthy","","","blur","126","204047","blurevent","","","","","","","","","","","","","","",""
"","","","","5d2a49241d8d930001c263a7","bdp_trlrn","Tue Mar 14 2023 00:17:35 GMT-0400 (Eastern Daylight Time)","744489","Untrustworthy,Trustworthy","","","focus","126","209839","focusevent","","","","","","","","","","","","","","",""
"instructions","126","231872","0.0-8.0","5d2a49241d8d930001c263a7","bdp_trlrn","Tue Mar 14 2023 00:17:35 GMT-0400 (Eastern Daylight Time)","744489","Untrustworthy,Trustworthy","[{""page_index"":0,""viewing_time"":20169},{""page_index"":1,""viewing_time"":3259},{""page_index"":2,""viewing_time"":39960},{""page_index"":3,""viewing_time"":4952},{""page_index"":4,""viewing_time"":1757},{""page_index"":5,""viewing_time"":5667},{""page_index"":6,""viewing_time"":8687},{""page_index"":7,""viewing_time"":159}]","84610","","","","","","","","","","","","","","","","","","",""
"","","","","5d2a49241d8d930001c263a7","bdp_trlrn","Tue Mar 14 2023 00:17:35 GMT-0400 (Eastern Daylight Time)","744489","Untrustworthy,Trustworthy","","","blur","127","235951","blurevent","","2","","","","","","","","","","","","",""
"","","","","5d2a49241d8d930001c263a7","bdp_trlrn","Tue Mar 14 2023 00:17:35 GMT-0400 (Eastern Daylight Time)","744489","Untrustworthy,Trustworthy","","","focus","127","243408","focusevent","","","","","","","","","","","","","","",""
"html-keyboard-response","127","248451","0.0-9.0","5d2a49241d8d930001c263a7","bdp_trlrn","Tue Mar 14 2023 00:17:35 GMT-0400 (Eastern Daylight Time)","744489","Untrustworthy,Trustworthy","","16579","","","","","","","<div class='header' style='text-align:left; position: absolute; top: 5%; left: 5%;'><small>Task 3 of 5</small></div><div class='instruxDiv'><p><strong>1) What is the minimum number of points you can choose to send to your partner?</strong></p><p>a) 0</p><p>b) 1</p><p>c) 5</p>","A","","","","","","","","","","",""
"html-keyboard-response","128","250857","0.0-10.0","5d2a49241d8d930001c263a7","bdp_trlrn","Tue Mar 14 2023 00:17:35 GMT-0400 (Eastern Daylight Time)","744489","Untrustworthy,Trustworthy","","2304","","","","","","","<div class='header' style='text-align:left; position: absolute; top: 5%; left: 5%;'><small>Task 3 of 5</small></div><div class='instruxDiv'><p><strong>1) What is the minimum number of points you can choose to send to your partner?</strong></p><p style='color:#FF0000'>a) 0</p><p>b) 1</p><p>c) 5</p><h3 style='color:#FF0000'>Incorrect!</h3><h3 class='center-content'>The correct response is b).</h3><h3 class='center-content'>The minimum number of points you can choose to send to your partner is 1 point.</h3><p><em>Press SPACEBAR to continue</em></p></div>"," ","","","","","","","","","","",""
"html-keyboard-response","129","257271","0.0-11.0","5d2a49241d8d930001c263a7","bdp_trlrn","Tue Mar 14 2023 00:17:35 GMT-0400 (Eastern Daylight Time)","744489","Untrustworthy,Trustworthy","","6312","","","","","","","<div class='header' style='text-align:left; position: absolute; top: 5%; left: 5%;'><small>Task 3 of 5</small></div><div class='instruxDiv'><p><strong>2) What is the maximum number of points you can choose to send to your partner?</strong></p><p>a) 8</p><p>b) 5</p><p>c) 3</p>","B","","","","","","","","","","",""
"html-keyboard-response","130","259654","0.0-12.0","5d2a49241d8d930001c263a7","bdp_trlrn","Tue Mar 14 2023 00:17:35 GMT-0400 (Eastern Daylight Time)","744489","Untrustworthy,Trustworthy","","2282","","","","","","","<div class='header' style='text-align:left; position: absolute; top: 5%; left: 5%;'><small>Task 3 of 5</small></div><div class='instruxDiv'><p><strong>2) What is the maximum number of points you can choose to send to your partner?</strong></p><p>a) 8</p><p style='color:#00FF00'>b) 5</p><p>c) 3</p><h3 style='color:#00FF00'>Correct!</h3><h3 class='center-content'>The correct response is b).</h3><h3 class='center-content'>The maximum number of points you can choose to send to your partner is 5 points.</h3><p><em>Press SPACEBAR to continue</em></p></div>"," ","","","","","","","","","","",""
"html-keyboard-response","131","263368","0.0-13.0","5d2a49241d8d930001c263a7","bdp_trlrn","Tue Mar 14 2023 00:17:35 GMT-0400 (Eastern Daylight Time)","744489","Untrustworthy,Trustworthy","","3613","","","","","","","<div class='header' style='text-align:left; position: absolute; top: 5%; left: 5%;'><small>Task 3 of 5</small></div><div class='instruxDiv'><p><strong>3) What happens to the amount of points you send to your partner?</strong></p><p>a) Nothing</p><p>b) It doubles</p><p>c) It quadruples</p>","C","","","","","","","","","","",""
"html-keyboard-response","132","264204","0.0-14.0","5d2a49241d8d930001c263a7","bdp_trlrn","Tue Mar 14 2023 00:17:35 GMT-0400 (Eastern Daylight Time)","744489","Untrustworthy,Trustworthy","","735","","","","","","","<div class='header' style='text-align:left; position: absolute; top: 5%; left: 5%;'><small>Task 3 of 5</small></div><div class='instruxDiv'><p><strong>3) What happens to the amount of points you send to your partner?</strong></p><p>a) Nothing</p><p>b) It doubles</p><p style='color:#00FF00'>c) It quadruples</p><h3 style='color:#00FF00'>Correct!</h3><h3 class='center-content'>The correct response is c).</h3><h3 class='center-content'>The amount of points you send to your partner quadruples.</h3><p><em>Press SPACEBAR to continue</em></p></div>"," ","","","","","","","","","","",""
"html-keyboard-response","133","283576","0.0-15.0","5d2a49241d8d930001c263a7","bdp_trlrn","Tue Mar 14 2023 00:17:35 GMT-0400 (Eastern Daylight Time)","744489","Untrustworthy,Trustworthy","","19270","","","","","","","<div class='header' style='text-align:left; position: absolute; top: 5%; left: 5%;'><small>Task 3 of 5</small></div><div class='instruxDiv'><p><strong>4) If you decided to share 4 out of 5 points with your partner, and they decided to share half of the amount they received with you, how many points would you receive back from them on this round?</strong></p><p>a) 16</p><p>b) 0</p><p>c) 8</p>","C","","","","","","","","","","",""
"html-keyboard-response","134","284522","0.0-16.0","5d2a49241d8d930001c263a7","bdp_trlrn","Tue Mar 14 2023 00:17:35 GMT-0400 (Eastern Daylight Time)","744489","Untrustworthy,Trustworthy","","844","","","","","","","<div class='header' style='text-align:left; position: absolute; top: 5%; left: 5%;'><small>Task 3 of 5</small></div><div class='instruxDiv'><p><strong>4) If you decided to share 4 out of 5 points with your partner, and they decided to share half of the amount they received with you, how many points would you receive back from them on this round?</strong></p><p>a) 16</p><p>b) 0</p><p style='color:#00FF00'>c) 8</p><h3 style='color:#00FF00'>Correct!</h3><h3 class='center-content'>The correct response is c).</h3><h3 class='center-content'>If you shared 4 out of 5 points with your partner and they decided to share half of the amount they received with you, you would receive 8 points back (i.e. (4 x 4)/2 = 8).</h3><p><em>Press SPACEBAR to continue</em></p></div>"," ","","","","","","","","","","",""
"html-keyboard-response","135","289624","0.0-17.0","5d2a49241d8d930001c263a7","bdp_trlrn","Tue Mar 14 2023 00:17:35 GMT-0400 (Eastern Daylight Time)","744489","Untrustworthy,Trustworthy","","null","","","","","","","<div class='header' style='text-align:left; position: absolute; top: 5%; left: 5%;'><small>Task 3 of 5</small></div><div class='instruxDiv'><p>Thank you for completing the quiz<p>These are the actual partners you will be interacting with in the next block:<p><div class='tc' align='center'><img class='introPic' src='trustrating_stim/white_mw063.bmp'><br><strong>Sean</strong></div><div class='bl' align='center'><img class='introPic' src='trustrating_stim/white_00299_940422_fa_edt.bmp'><br><strong>Caleb</strong></div><div class='br' align='center'><img class='introPic' src='trustrating_stim/white_00602_940928_fb_edt.bmp'><br><strong>David</strong></div></div><p>Across <strong>66 rounds</strong> you will interact with each partner <strong>22 times</strong> (in random order).<p style='align:center; color:white'><font <em>Press SPACEBAR to continue</em></p>","null","","","","","","","","","","",""
"instructions","136","290866","0.0-18.0","5d2a49241d8d930001c263a7","bdp_trlrn","Tue Mar 14 2023 00:17:35 GMT-0400 (Eastern Daylight Time)","744489","Untrustworthy,Trustworthy","[{""page_index"":0,""viewing_time"":540},{""page_index"":1,""viewing_time"":701}]","1241","","","","","","","","","","","","","","","","","","",""
"html-keyboard-response","137","293385","0.0-19.0-1.0","5d2a49241d8d930001c263a7","bdp_trlrn","Tue Mar 14 2023 00:17:35 GMT-0400 (Eastern Daylight Time)","744489","Untrustworthy,Trustworthy","","2416","","","","decision","","","<div class='trialDiv'><img src='trustrating_stim/white_00602_940928_fb_edt.bmp'><br><font class='baseline'><strong>David</strong><p>Choose number of points to send.</font><div class='respPicDiv'><img src='img/responseButtonOffersNo0L.png' class='respPic'></div></div>","4","1","David","11","Shared","0.35,0.8","10","0.35","trustrating_stim/white_00602_940928_fb_edt.bmp","7","5","1"
"html-keyboard-response","138","293637","0.0-19.0-2.0","5d2a49241d8d930001c263a7","bdp_trlrn","Tue Mar 14 2023 00:17:35 GMT-0400 (Eastern Daylight Time)","744489","Untrustworthy,Trustworthy","","null","","","","decisionFB","","","<div class='trialDiv'><img src='trustrating_stim/white_00602_940928_fb_edt.bmp'><br><font class='baseline'><strong>David</strong><p>Choose number of points to send.</font><div class='respPicDiv'><img src='img/responseButtonOffersNo0L4.png' class='respPic'></div></div>","null","1","David","11","Shared","0.35,0.8","10","0.35","trustrating_stim/white_00602_940928_fb_edt.bmp","7","1","1"
"html-keyboard-response","139","294638","0.0-19.0-3.0","5d2a49241d8d930001c263a7","bdp_trlrn","Tue Mar 14 2023 00:17:35 GMT-0400 (Eastern Daylight Time)","744489","Untrustworthy,Trustworthy","","null","","","","feedback","","","<div class='trialDiv'><img src='trustrating_stim/white_00602_940928_fb_edt.bmp'><br><font class='baseline'><strong>David</strong><p>Received: <strong>16</strong></font> &nbsp; &nbsp; &nbsp; &nbsp; &nbsp; &nbsp;<font class='posOutcome'>Shared back: <strong>8</strong></font></font><div class='respPicDiv'><img src='img/responseButtonOffersNo0_wht.png' class='respPic'></div></div>","null","1","David","11","Shared","0.35,0.8","10","0.35","trustrating_stim/white_00602_940928_fb_edt.bmp","7","9","1"
"html-keyboard-response","140","296828","0.0-19.0-1.1","5d2a49241d8d930001c263a7","bdp_trlrn","Tue Mar 14 2023 00:17:35 GMT-0400 (Eastern Daylight Time)","744489","Untrustworthy,Trustworthy","","2189","","","","decision","","","<div class='trialDiv'><img src='trustrating_stim/white_00299_940422_fa_edt.bmp'><br><font class='baseline'><strong>Caleb</strong><p>Choose number of points to send.</font><div class='respPicDiv'><img src='img/responseButtonOffersNo0L.png' class='respPic'></div></div>","3","1","Caleb","4","Shared","0.65,0.35","12","0.65","trustrating_stim/white_00299_940422_fa_edt.bmp","4.5","14","2"
"html-keyboard-response","141","297081","0.0-19.0-2.1","5d2a49241d8d930001c263a7","bdp_trlrn","Tue Mar 14 2023 00:17:35 GMT-0400 (Eastern Daylight Time)","744489","Untrustworthy,Trustworthy","","null","","","","decisionFB","","","<div class='trialDiv'><img src='trustrating_stim/white_00299_940422_fa_edt.bmp'><br><font class='baseline'><strong>Caleb</strong><p>Choose number of points to send.</font><div class='respPicDiv'><img src='img/responseButtonOffersNo0L3.png' class='respPic'></div></div>","null","1","Caleb","4","Shared","0.65,0.35","12","0.65","trustrating_stim/white_00299_940422_fa_edt.bmp","4.5","11","2"
"html-keyboard-response","142","298082","0.0-19.0-3.1","5d2a49241d8d930001c263a7","bdp_trlrn","Tue Mar 14 2023 00:17:35 GMT-0400 (Eastern Daylight Time)","744489","Untrustworthy,Trustworthy","","null","","","","feedback","","","<div class='trialDiv'><img src='trustrating_stim/white_00299_940422_fa_edt.bmp'><br><font class='baseline'><strong>Caleb</strong><p>Received: <strong>12</strong></font> &nbsp; &nbsp; &nbsp; &nbsp; &nbsp; &nbsp;<font class='posOutcome'>Shared back: <strong>6</strong></font></font><div class='respPicDiv'><img src='img/responseButtonOffersNo0_wht.png' class='respPic'></div></div>","null","1","Caleb","4","Shared","0.65,0.35","12","0.65","trustrating_stim/white_00299_940422_fa_edt.bmp","4.5","17","2"
"html-keyboard-response","143","300156","0.0-19.0-1.2","5d2a49241d8d930001c263a7","bdp_trlrn","Tue Mar 14 2023 00:17:35 GMT-0400 (Eastern Daylight Time)","744489","Untrustworthy,Trustworthy","","2073","","","","decision","","","<div class='trialDiv'><img src='trustrating_stim/white_mw063.bmp'><br><font class='baseline'><strong>Sean</strong><p>Choose number of points to send.</font><div class='respPicDiv'><img src='img/responseButtonOffersNo0L.png' class='respPic'></div></div>","2","1","Sean","2","Shared","0.8,0.35","14","0.8","trustrating_stim/white_mw063.bmp","2.5","22","3"
"html-keyboard-response","144","300409","0.0-19.0-2.2","5d2a49241d8d930001c263a7","bdp_trlrn","Tue Mar 14 2023 00:17:35 GMT-0400 (Eastern Daylight Time)","744489","Untrustworthy,Trustworthy","","null","","","","decisionFB","","","<div class='trialDiv'><img src='trustrating_stim/white_mw063.bmp'><br><font class='baseline'><strong>Sean</strong><p>Choose number of points to send.</font><div class='respPicDiv'><img src='img/responseButtonOffersNo0L2.png' class='respPic'></div></div>","null","1","Sean","2","Shared","0.8,0.35","14","0.8","trustrating_stim/white_mw063.bmp","2.5","20","3"
"html-keyboard-response","145","301411","0.0-19.0-3.2","5d2a49241d8d930001c263a7","bdp_trlrn","Tue Mar 14 2023 00:17:35 GMT-0400 (Eastern Daylight Time)","744489","Untrustworthy,Trustworthy","","null","","","","feedback","","","<div class='trialDiv'><img src='trustrating_stim/white_mw063.bmp'><br><font class='baseline'><strong>Sean</strong><p>Received: <strong>8</strong></font> &nbsp; &nbsp; &nbsp; &nbsp; &nbsp; &nbsp;<font class='posOutcome'>Shared back: <strong>4</strong></font></font><div class='respPicDiv'><img src='img/responseButtonOffersNo0_wht.png' class='respPic'></div></div>","null","1","Sean","2","Shared","0.8,0.35","14","0.8","trustrating_stim/white_mw063.bmp","2.5","24","3"
"html-keyboard-response","146","303957","0.0-19.0-1.3","5d2a49241d8d930001c263a7","bdp_trlrn","Tue Mar 14 2023 00:17:35 GMT-0400 (Eastern Daylight Time)","744489","Untrustworthy,Trustworthy","","2545","","","","decision","","","<div class='trialDiv'><img src='trustrating_stim/white_00299_940422_fa_edt.bmp'><br><font class='baseline'><strong>Caleb</strong><p>Choose number of points to send.</font><div class='respPicDiv'><img src='img/responseButtonOffersNo0L.png' class='respPic'></div></div>","2","2","Caleb","4","Kept","0.65,0.35","12","0.65","trustrating_stim/white_00299_940422_fa_edt.bmp","4.5","29","4"
"html-keyboard-response","147","304209","0.0-19.0-2.3","5d2a49241d8d930001c263a7","bdp_trlrn","Tue Mar 14 2023 00:17:35 GMT-0400 (Eastern Daylight Time)","744489","Untrustworthy,Trustworthy","","null","","","","decisionFB","","","<div class='trialDiv'><img src='trustrating_stim/white_00299_940422_fa_edt.bmp'><br><font class='baseline'><strong>Caleb</strong><p>Choose number of points to send.</font><div class='respPicDiv'><img src='img/responseButtonOffersNo0L2.png' class='respPic'></div></div>","null","2","Caleb","4","Kept","0.65,0.35","12","0.65","trustrating_stim/white_00299_940422_fa_edt.bmp","4.5","27","4"
"html-keyboard-response","148","305211","0.0-19.0-3.3","5d2a49241d8d930001c263a7","bdp_trlrn","Tue Mar 14 2023 00:17:35 GMT-0400 (Eastern Daylight Time)","744489","Untrustworthy,Trustworthy","","null","","","","feedback","","","<div class='trialDiv'><img src='trustrating_stim/white_00299_940422_fa_edt.bmp'><br><font class='baseline'><strong>Caleb</strong><p>Received: <strong>8</strong></font> &nbsp; &nbsp; &nbsp; &nbsp; &nbsp; &nbsp;<font class='negOutcome'>Shared back: <strong>0</strong></font></font><div class='respPicDiv'><img src='img/responseButtonOffersNo0_wht.png' class='respPic'></div></div>","null","2","Caleb","4","Kept","0.65,0.35","12","0.65","trustrating_stim/white_00299_940422_fa_edt.bmp","4.5","27","4"
"html-keyboard-response","149","306908","0.0-19.0-1.4","5d2a49241d8d930001c263a7","bdp_trlrn","Tue Mar 14 2023 00:17:35 GMT-0400 (Eastern Daylight Time)","744489","Untrustworthy,Trustworthy","","1696","","","","decision","","","<div class='trialDiv'><img src='trustrating_stim/white_00602_940928_fb_edt.bmp'><br><font class='baseline'><strong>David</strong><p>Choose number of points to send.</font><div class='respPicDiv'><img src='img/responseButtonOffersNo0L.png' class='respPic'></div></div>","4","2","David","11","Kept","0.35,0.8","10","0.35","trustrating_stim/white_00602_940928_fb_edt.bmp","7","32","5"
"html-keyboard-response","150","307159","0.0-19.0-2.4","5d2a49241d8d930001c263a7","bdp_trlrn","Tue Mar 14 2023 00:17:35 GMT-0400 (Eastern Daylight Time)","744489","Untrustworthy,Trustworthy","","null","","","","decisionFB","","","<div class='trialDiv'><img src='trustrating_stim/white_00602_940928_fb_edt.bmp'><br><font class='baseline'><strong>David</strong><p>Choose number of points to send.</font><div class='respPicDiv'><img src='img/responseButtonOffersNo0L4.png' class='respPic'></div></div>","null","2","David","11","Kept","0.35,0.8","10","0.35","trustrating_stim/white_00602_940928_fb_edt.bmp","7","28","5"
"html-keyboard-response","151","308161","0.0-19.0-3.4","5d2a49241d8d930001c263a7","bdp_trlrn","Tue Mar 14 2023 00:17:35 GMT-0400 (Eastern Daylight Time)","744489","Untrustworthy,Trustworthy","","null","","","","feedback","","","<div class='trialDiv'><img src='trustrating_stim/white_00602_940928_fb_edt.bmp'><br><font class='baseline'><strong>David</strong><p>Received: <strong>16</strong></font> &nbsp; &nbsp; &nbsp; &nbsp; &nbsp; &nbsp;<font class='negOutcome'>Shared back: <strong>0</strong></font></font><div class='respPicDiv'><img src='img/responseButtonOffersNo0_wht.png' class='respPic'></div></div>","null","2","David","11","Kept","0.35,0.8","10","0.35","trustrating_stim/white_00602_940928_fb_edt.bmp","7","28","5"
"html-keyboard-response","152","309717","0.0-19.0-1.5","5d2a49241d8d930001c263a7","bdp_trlrn","Tue Mar 14 2023 00:17:35 GMT-0400 (Eastern Daylight Time)","744489","Untrustworthy,Trustworthy","","1555","","","","decision","","","<div class='trialDiv'><img src='trustrating_stim/white_mw063.bmp'><br><font class='baseline'><strong>Sean</strong><p>Choose number of points to send.</font><div class='respPicDiv'><img src='img/responseButtonOffersNo0L.png' class='respPic'></div></div>","3","2","Sean","2","Shared","0.8,0.35","14","0.8","trustrating_stim/white_mw063.bmp","2.5","33","6"
"html-keyboard-response","153","309983","0.0-19.0-2.5","5d2a49241d8d930001c263a7","bdp_trlrn","Tue Mar 14 2023 00:17:35 GMT-0400 (Eastern Daylight Time)","744489","Untrustworthy,Trustworthy","","null","","","","decisionFB","","","<div class='trialDiv'><img src='trustrating_stim/white_mw063.bmp'><br><font class='baseline'><strong>Sean</strong><p>Choose number of points to send.</font><div class='respPicDiv'><img src='img/responseButtonOffersNo0L3.png' class='respPic'></div></div>","null","2","Sean","2","Shared","0.8,0.35","14","0.8","trustrating_stim/white_mw063.bmp","2.5","30","6"
"html-keyboard-response","154","310984","0.0-19.0-3.5","5d2a49241d8d930001c263a7","bdp_trlrn","Tue Mar 14 2023 00:17:35 GMT-0400 (Eastern Daylight Time)","744489","Untrustworthy,Trustworthy","","null","","","","feedback","","","<div class='trialDiv'><img src='trustrating_stim/white_mw063.bmp'><br><font class='baseline'><strong>Sean</strong><p>Received: <strong>12</strong></font> &nbsp; &nbsp; &nbsp; &nbsp; &nbsp; &nbsp;<font class='posOutcome'>Shared back: <strong>6</strong></font></font><div class='respPicDiv'><img src='img/responseButtonOffersNo0_wht.png' class='respPic'></div></div>","null","2","Sean","2","Shared","0.8,0.35","14","0.8","trustrating_stim/white_mw063.bmp","2.5","36","6"
"html-keyboard-response","155","313092","0.0-19.0-1.6","5d2a49241d8d930001c263a7","bdp_trlrn","Tue Mar 14 2023 00:17:35 GMT-0400 (Eastern Daylight Time)","744489","Untrustworthy,Trustworthy","","2107","","","","decision","","","<div class='trialDiv'><img src='trustrating_stim/white_00299_940422_fa_edt.bmp'><br><font class='baseline'><strong>Caleb</strong><p>Choose number of points to send.</font><div class='respPicDiv'><img src='img/responseButtonOffersNo0L.png' class='respPic'></div></div>","2","3","Caleb","4","Kept","0.65,0.35","12","0.65","trustrating_stim/white_00299_940422_fa_edt.bmp","4.5","41","7"
"html-keyboard-response","156","313344","0.0-19.0-2.6","5d2a49241d8d930001c263a7","bdp_trlrn","Tue Mar 14 2023 00:17:35 GMT-0400 (Eastern Daylight Time)","744489","Untrustworthy,Trustworthy","","null","","","","decisionFB","","","<div class='trialDiv'><img src='trustrating_stim/white_00299_940422_fa_edt.bmp'><br><font class='baseline'><strong>Caleb</strong><p>Choose number of points to send.</font><div class='respPicDiv'><img src='img/responseButtonOffersNo0L2.png' class='respPic'></div></div>","null","3","Caleb","4","Kept","0.65,0.35","12","0.65","trustrating_stim/white_00299_940422_fa_edt.bmp","4.5","39","7"
"html-keyboard-response","157","314346","0.0-19.0-3.6","5d2a49241d8d930001c263a7","bdp_trlrn","Tue Mar 14 2023 00:17:35 GMT-0400 (Eastern Daylight Time)","744489","Untrustworthy,Trustworthy","","null","","","","feedback","","","<div class='trialDiv'><img src='trustrating_stim/white_00299_940422_fa_edt.bmp'><br><font class='baseline'><strong>Caleb</strong><p>Received: <strong>8</strong></font> &nbsp; &nbsp; &nbsp; &nbsp; &nbsp; &nbsp;<font class='negOutcome'>Shared back: <strong>0</strong></font></font><div class='respPicDiv'><img src='img/responseButtonOffersNo0_wht.png' class='respPic'></div></div>","null","3","Caleb","4","Kept","0.65,0.35","12","0.65","trustrating_stim/white_00299_940422_fa_edt.bmp","4.5","39","7"
"html-keyboard-response","158","315679","0.0-19.0-1.7","5d2a49241d8d930001c263a7","bdp_trlrn","Tue Mar 14 2023 00:17:35 GMT-0400 (Eastern Daylight Time)","744489","Untrustworthy,Trustworthy","","1332","","","","decision","","","<div class='trialDiv'><img src='trustrating_stim/white_mw063.bmp'><br><font class='baseline'><strong>Sean</strong><p>Choose number of points to send.</font><div class='respPicDiv'><img src='img/responseButtonOffersNo0L.png' class='respPic'></div></div>","1","3","Sean","2","Shared","0.8,0.35","14","0.8","trustrating_stim/white_mw063.bmp","2.5","44","8"
"html-keyboard-response","159","315931","0.0-19.0-2.7","5d2a49241d8d930001c263a7","bdp_trlrn","Tue Mar 14 2023 00:17:35 GMT-0400 (Eastern Daylight Time)","744489","Untrustworthy,Trustworthy","","null","","","","decisionFB","","","<div class='trialDiv'><img src='trustrating_stim/white_mw063.bmp'><br><font class='baseline'><strong>Sean</strong><p>Choose number of points to send.</font><div class='respPicDiv'><img src='img/responseButtonOffersNo0L1.png' class='respPic'></div></div>","null","3","Sean","2","Shared","0.8,0.35","14","0.8","trustrating_stim/white_mw063.bmp","2.5","43","8"
"html-keyboard-response","160","316933","0.0-19.0-3.7","5d2a49241d8d930001c263a7","bdp_trlrn","Tue Mar 14 2023 00:17:35 GMT-0400 (Eastern Daylight Time)","744489","Untrustworthy,Trustworthy","","null","","","","feedback","","","<div class='trialDiv'><img src='trustrating_stim/white_mw063.bmp'><br><font class='baseline'><strong>Sean</strong><p>Received: <strong>4</strong></font> &nbsp; &nbsp; &nbsp; &nbsp; &nbsp; &nbsp;<font class='posOutcome'>Shared back: <strong>2</strong></font></font><div class='respPicDiv'><img src='img/responseButtonOffersNo0_wht.png' class='respPic'></div></div>","null","3","Sean","2","Shared","0.8,0.35","14","0.8","trustrating_stim/white_mw063.bmp","2.5","45","8"
"html-keyboard-response","161","321625","0.0-19.0-1.8","5d2a49241d8d930001c263a7","bdp_trlrn","Tue Mar 14 2023 00:17:35 GMT-0400 (Eastern Daylight Time)","744489","Untrustworthy,Trustworthy","","4690","","","","decision","","","<div class='trialDiv'><img src='trustrating_stim/white_00602_940928_fb_edt.bmp'><br><font class='baseline'><strong>David</strong><p>Choose number of points to send.</font><div class='respPicDiv'><img src='img/responseButtonOffersNo0L.png' class='respPic'></div></div>","5","3","David","11","Shared","0.35,0.8","10","0.35","trustrating_stim/white_00602_940928_fb_edt.bmp","7","50","9"
"html-keyboard-response","162","321876","0.0-19.0-2.8","5d2a49241d8d930001c263a7","bdp_trlrn","Tue Mar 14 2023 00:17:35 GMT-0400 (Eastern Daylight Time)","744489","Untrustworthy,Trustworthy","","null","","","","decisionFB","","","<div class='trialDiv'><img src='trustrating_stim/white_00602_940928_fb_edt.bmp'><br><font class='baseline'><strong>David</strong><p>Choose number of points to send.</font><div class='respPicDiv'><img src='img/responseButtonOffersNo0L5.png' class='respPic'></div></div>","null","3","David","11","Shared","0.35,0.8","10","0.35","trustrating_stim/white_00602_940928_fb_edt.bmp","7","45","9"
"html-keyboard-response","163","322878","0.0-19.0-3.8","5d2a49241d8d930001c263a7","bdp_trlrn","Tue Mar 14 2023 00:17:35 GMT-0400 (Eastern Daylight Time)","744489","Untrustworthy,Trustworthy","","null","","","","feedback","","","<div class='trialDiv'><img src='trustrating_stim/white_00602_940928_fb_edt.bmp'><br><font class='baseline'><strong>David</strong><p>Received: <strong>20</strong></font> &nbsp; &nbsp; &nbsp; &nbsp; &nbsp; &nbsp;<font class='posOutcome'>Shared back: <strong>10</strong></font></font><div class='respPicDiv'><img src='img/responseButtonOffersNo0_wht.png' class='respPic'></div></div>","null","3","David","11","Shared","0.35,0.8","10","0.35","trustrating_stim/white_00602_940928_fb_edt.bmp","7","55","9"
"html-keyboard-response","164","325850","0.0-19.0-1.9","5d2a49241d8d930001c263a7","bdp_trlrn","Tue Mar 14 2023 00:17:35 GMT-0400 (Eastern Daylight Time)","744489","Untrustworthy,Trustworthy","","2971","","","","decision","","","<div class='trialDiv'><img src='trustrating_stim/white_00299_940422_fa_edt.bmp'><br><font class='baseline'><strong>Caleb</strong><p>Choose number of points to send.</font><div class='respPicDiv'><img src='img/responseButtonOffersNo0L.png' class='respPic'></div></div>","4","4","Caleb","4","Kept","0.65,0.35","12","0.65","trustrating_stim/white_00299_940422_fa_edt.bmp","4.5","60","10"
"html-keyboard-response","165","326102","0.0-19.0-2.9","5d2a49241d8d930001c263a7","bdp_trlrn","Tue Mar 14 2023 00:17:35 GMT-0400 (Eastern Daylight Time)","744489","Untrustworthy,Trustworthy","","null","","","","decisionFB","","","<div class='trialDiv'><img src='trustrating_stim/white_00299_940422_fa_edt.bmp'><br><font class='baseline'><strong>Caleb</strong><p>Choose number of points to send.</font><div class='respPicDiv'><img src='img/responseButtonOffersNo0L4.png' class='respPic'></div></div>","null","4","Caleb","4","Kept","0.65,0.35","12","0.65","trustrating_stim/white_00299_940422_fa_edt.bmp","4.5","56","10"
"html-keyboard-response","166","327104","0.0-19.0-3.9","5d2a49241d8d930001c263a7","bdp_trlrn","Tue Mar 14 2023 00:17:35 GMT-0400 (Eastern Daylight Time)","744489","Untrustworthy,Trustworthy","","null","","","","feedback","","","<div class='trialDiv'><img src='trustrating_stim/white_00299_940422_fa_edt.bmp'><br><font class='baseline'><strong>Caleb</strong><p>Received: <strong>16</strong></font> &nbsp; &nbsp; &nbsp; &nbsp; &nbsp; &nbsp;<font class='negOutcome'>Shared back: <strong>0</strong></font></font><div class='respPicDiv'><img src='img/responseButtonOffersNo0_wht.png' class='respPic'></div></div>","null","4","Caleb","4","Kept","0.65,0.35","12","0.65","trustrating_stim/white_00299_940422_fa_edt.bmp","4.5","56","10"
"html-keyboard-response","167","328596","0.0-19.0-1.10","5d2a49241d8d930001c263a7","bdp_trlrn","Tue Mar 14 2023 00:17:35 GMT-0400 (Eastern Daylight Time)","744489","Untrustworthy,Trustworthy","","1491","","","","decision","","","<div class='trialDiv'><img src='trustrating_stim/white_mw063.bmp'><br><font class='baseline'><strong>Sean</strong><p>Choose number of points to send.</font><div class='respPicDiv'><img src='img/responseButtonOffersNo0L.png' class='respPic'></div></div>","2","4","Sean","2","Kept","0.8,0.35","14","0.8","trustrating_stim/white_mw063.bmp","2.5","61","11"
"html-keyboard-response","168","328848","0.0-19.0-2.10","5d2a49241d8d930001c263a7","bdp_trlrn","Tue Mar 14 2023 00:17:35 GMT-0400 (Eastern Daylight Time)","744489","Untrustworthy,Trustworthy","","null","","","","decisionFB","","","<div class='trialDiv'><img src='trustrating_stim/white_mw063.bmp'><br><font class='baseline'><strong>Sean</strong><p>Choose number of points to send.</font><div class='respPicDiv'><img src='img/responseButtonOffersNo0L2.png' class='respPic'></div></div>","null","4","Sean","2","Kept","0.8,0.35","14","0.8","trustrating_stim/white_mw063.bmp","2.5","59","11"
"html-keyboard-response","169","329852","0.0-19.0-3.10","5d2a49241d8d930001c263a7","bdp_trlrn","Tue Mar 14 2023 00:17:35 GMT-0400 (Eastern Daylight Time)","744489","Untrustworthy,Trustworthy","","null","","","","feedback","","","<div class='trialDiv'><img src='trustrating_stim/white_mw063.bmp'><br><font class='baseline'><strong>Sean</strong><p>Received: <strong>8</strong></font> &nbsp; &nbsp; &nbsp; &nbsp; &nbsp; &nbsp;<font class='negOutcome'>Shared back: <strong>0</strong></font></font><div class='respPicDiv'><img src='img/responseButtonOffersNo0_wht.png' class='respPic'></div></div>","null","4","Sean","2","Kept","0.8,0.35","14","0.8","trustrating_stim/white_mw063.bmp","2.5","59","11"
"html-keyboard-response","170","331004","0.0-19.0-1.11","5d2a49241d8d930001c263a7","bdp_trlrn","Tue Mar 14 2023 00:17:35 GMT-0400 (Eastern Daylight Time)","744489","Untrustworthy,Trustworthy","","1151","","","","decision","","","<div class='trialDiv'><img src='trustrating_stim/white_00602_940928_fb_edt.bmp'><br><font class='baseline'><strong>David</strong><p>Choose number of points to send.</font><div class='respPicDiv'><img src='img/responseButtonOffersNo0L.png' class='respPic'></div></div>","5","4","David","11","Shared","0.35,0.8","10","0.35","trustrating_stim/white_00602_940928_fb_edt.bmp","7","64","12"
"html-keyboard-response","171","331256","0.0-19.0-2.11","5d2a49241d8d930001c263a7","bdp_trlrn","Tue Mar 14 2023 00:17:35 GMT-0400 (Eastern Daylight Time)","744489","Untrustworthy,Trustworthy","","null","","","","decisionFB","","","<div class='trialDiv'><img src='trustrating_stim/white_00602_940928_fb_edt.bmp'><br><font class='baseline'><strong>David</strong><p>Choose number of points to send.</font><div class='respPicDiv'><img src='img/responseButtonOffersNo0L5.png' class='respPic'></div></div>","null","4","David","11","Shared","0.35,0.8","10","0.35","trustrating_stim/white_00602_940928_fb_edt.bmp","7","59","12"
"html-keyboard-response","172","332257","0.0-19.0-3.11","5d2a49241d8d930001c263a7","bdp_trlrn","Tue Mar 14 2023 00:17:35 GMT-0400 (Eastern Daylight Time)","744489","Untrustworthy,Trustworthy","","null","","","","feedback","","","<div class='trialDiv'><img src='trustrating_stim/white_00602_940928_fb_edt.bmp'><br><font class='baseline'><strong>David</strong><p>Received: <strong>20</strong></font> &nbsp; &nbsp; &nbsp; &nbsp; &nbsp; &nbsp;<font class='posOutcome'>Shared back: <strong>10</strong></font></font><div class='respPicDiv'><img src='img/responseButtonOffersNo0_wht.png' class='respPic'></div></div>","null","4","David","11","Shared","0.35,0.8","10","0.35","trustrating_stim/white_00602_940928_fb_edt.bmp","7","69","12"
"html-keyboard-response","173","334267","0.0-19.0-1.12","5d2a49241d8d930001c263a7","bdp_trlrn","Tue Mar 14 2023 00:17:35 GMT-0400 (Eastern Daylight Time)","744489","Untrustworthy,Trustworthy","","2009","","","","decision","","","<div class='trialDiv'><img src='trustrating_stim/white_mw063.bmp'><br><font class='baseline'><strong>Sean</strong><p>Choose number of points to send.</font><div class='respPicDiv'><img src='img/responseButtonOffersNo0L.png' class='respPic'></div></div>","2","5","Sean","2","Shared","0.8,0.35","14","0.8","trustrating_stim/white_mw063.bmp","2.5","74","13"
"html-keyboard-response","174","334518","0.0-19.0-2.12","5d2a49241d8d930001c263a7","bdp_trlrn","Tue Mar 14 2023 00:17:35 GMT-0400 (Eastern Daylight Time)","744489","Untrustworthy,Trustworthy","","null","","","","decisionFB","","","<div class='trialDiv'><img src='trustrating_stim/white_mw063.bmp'><br><font class='baseline'><strong>Sean</strong><p>Choose number of points to send.</font><div class='respPicDiv'><img src='img/responseButtonOffersNo0L2.png' class='respPic'></div></div>","null","5","Sean","2","Shared","0.8,0.35","14","0.8","trustrating_stim/white_mw063.bmp","2.5","72","13"
"html-keyboard-response","175","335520","0.0-19.0-3.12","5d2a49241d8d930001c263a7","bdp_trlrn","Tue Mar 14 2023 00:17:35 GMT-0400 (Eastern Daylight Time)","744489","Untrustworthy,Trustworthy","","null","","","","feedback","","","<div class='trialDiv'><img src='trustrating_stim/white_mw063.bmp'><br><font class='baseline'><strong>Sean</strong><p>Received: <strong>8</strong></font> &nbsp; &nbsp; &nbsp; &nbsp; &nbsp; &nbsp;<font class='posOutcome'>Shared back: <strong>4</strong></font></font><div class='respPicDiv'><img src='img/responseButtonOffersNo0_wht.png' class='respPic'></div></div>","null","5","Sean","2","Shared","0.8,0.35","14","0.8","trustrating_stim/white_mw063.bmp","2.5","76","13"
"html-keyboard-response","176","340474","0.0-19.0-1.13","5d2a49241d8d930001c263a7","bdp_trlrn","Tue Mar 14 2023 00:17:35 GMT-0400 (Eastern Daylight Time)","744489","Untrustworthy,Trustworthy","","4954","","","","decision","","","<div class='trialDiv'><img src='trustrating_stim/white_00299_940422_fa_edt.bmp'><br><font class='baseline'><strong>Caleb</strong><p>Choose number of points to send.</font><div class='respPicDiv'><img src='img/responseButtonOffersNo0L.png' class='respPic'></div></div>","3","5","Caleb","4","Kept","0.65,0.35","12","0.65","trustrating_stim/white_00299_940422_fa_edt.bmp","4.5","81","14"
"html-keyboard-response","177","340726","0.0-19.0-2.13","5d2a49241d8d930001c263a7","bdp_trlrn","Tue Mar 14 2023 00:17:35 GMT-0400 (Eastern Daylight Time)","744489","Untrustworthy,Trustworthy","","null","","","","decisionFB","","","<div class='trialDiv'><img src='trustrating_stim/white_00299_940422_fa_edt.bmp'><br><font class='baseline'><strong>Caleb</strong><p>Choose number of points to send.</font><div class='respPicDiv'><img src='img/responseButtonOffersNo0L3.png' class='respPic'></div></div>","null","5","Caleb","4","Kept","0.65,0.35","12","0.65","trustrating_stim/white_00299_940422_fa_edt.bmp","4.5","78","14"
"html-keyboard-response","178","341729","0.0-19.0-3.13","5d2a49241d8d930001c263a7","bdp_trlrn","Tue Mar 14 2023 00:17:35 GMT-0400 (Eastern Daylight Time)","744489","Untrustworthy,Trustworthy","","null","","","","feedback","","","<div class='trialDiv'><img src='trustrating_stim/white_00299_940422_fa_edt.bmp'><br><font class='baseline'><strong>Caleb</strong><p>Received: <strong>12</strong></font> &nbsp; &nbsp; &nbsp; &nbsp; &nbsp; &nbsp;<font class='negOutcome'>Shared back: <strong>0</strong></font></font><div class='respPicDiv'><img src='img/responseButtonOffersNo0_wht.png' class='respPic'></div></div>","null","5","Caleb","4","Kept","0.65,0.35","12","0.65","trustrating_stim/white_00299_940422_fa_edt.bmp","4.5","78","14"
"html-keyboard-response","179","343198","0.0-19.0-1.14","5d2a49241d8d930001c263a7","bdp_trlrn","Tue Mar 14 2023 00:17:35 GMT-0400 (Eastern Daylight Time)","744489","Untrustworthy,Trustworthy","","1467","","","","decision","","","<div class='trialDiv'><img src='trustrating_stim/white_00602_940928_fb_edt.bmp'><br><font class='baseline'><strong>David</strong><p>Choose number of points to send.</font><div class='respPicDiv'><img src='img/responseButtonOffersNo0L.png' class='respPic'></div></div>","4","5","David","11","Kept","0.35,0.8","10","0.35","trustrating_stim/white_00602_940928_fb_edt.bmp","7","83","15"
"html-keyboard-response","180","343448","0.0-19.0-2.14","5d2a49241d8d930001c263a7","bdp_trlrn","Tue Mar 14 2023 00:17:35 GMT-0400 (Eastern Daylight Time)","744489","Untrustworthy,Trustworthy","","null","","","","decisionFB","","","<div class='trialDiv'><img src='trustrating_stim/white_00602_940928_fb_edt.bmp'><br><font class='baseline'><strong>David</strong><p>Choose number of points to send.</font><div class='respPicDiv'><img src='img/responseButtonOffersNo0L4.png' class='respPic'></div></div>","null","5","David","11","Kept","0.35,0.8","10","0.35","trustrating_stim/white_00602_940928_fb_edt.bmp","7","79","15"
"html-keyboard-response","181","344449","0.0-19.0-3.14","5d2a49241d8d930001c263a7","bdp_trlrn","Tue Mar 14 2023 00:17:35 GMT-0400 (Eastern Daylight Time)","744489","Untrustworthy,Trustworthy","","null","","","","feedback","","","<div class='trialDiv'><img src='trustrating_stim/white_00602_940928_fb_edt.bmp'><br><font class='baseline'><strong>David</strong><p>Received: <strong>16</strong></font> &nbsp; &nbsp; &nbsp; &nbsp; &nbsp; &nbsp;<font class='negOutcome'>Shared back: <strong>0</strong></font></font><div class='respPicDiv'><img src='img/responseButtonOffersNo0_wht.png' class='respPic'></div></div>","null","5","David","11","Kept","0.35,0.8","10","0.35","trustrating_stim/white_00602_940928_fb_edt.bmp","7","79","15"
"html-keyboard-response","182","345810","0.0-19.0-1.15","5d2a49241d8d930001c263a7","bdp_trlrn","Tue Mar 14 2023 00:17:35 GMT-0400 (Eastern Daylight Time)","744489","Untrustworthy,Trustworthy","","1359","","","","decision","","","<div class='trialDiv'><img src='trustrating_stim/white_mw063.bmp'><br><font class='baseline'><strong>Sean</strong><p>Choose number of points to send.</font><div class='respPicDiv'><img src='img/responseButtonOffersNo0L.png' class='respPic'></div></div>","1","6","Sean","2","Shared","0.8,0.35","14","0.8","trustrating_stim/white_mw063.bmp","2.5","84","16"
"html-keyboard-response","183","346062","0.0-19.0-2.15","5d2a49241d8d930001c263a7","bdp_trlrn","Tue Mar 14 2023 00:17:35 GMT-0400 (Eastern Daylight Time)","744489","Untrustworthy,Trustworthy","","null","","","","decisionFB","","","<div class='trialDiv'><img src='trustrating_stim/white_mw063.bmp'><br><font class='baseline'><strong>Sean</strong><p>Choose number of points to send.</font><div class='respPicDiv'><img src='img/responseButtonOffersNo0L1.png' class='respPic'></div></div>","null","6","Sean","2","Shared","0.8,0.35","14","0.8","trustrating_stim/white_mw063.bmp","2.5","83","16"
"html-keyboard-response","184","347064","0.0-19.0-3.15","5d2a49241d8d930001c263a7","bdp_trlrn","Tue Mar 14 2023 00:17:35 GMT-0400 (Eastern Daylight Time)","744489","Untrustworthy,Trustworthy","","null","","","","feedback","","","<div class='trialDiv'><img src='trustrating_stim/white_mw063.bmp'><br><font class='baseline'><strong>Sean</strong><p>Received: <strong>4</strong></font> &nbsp; &nbsp; &nbsp; &nbsp; &nbsp; &nbsp;<font class='posOutcome'>Shared back: <strong>2</strong></font></font><div class='respPicDiv'><img src='img/responseButtonOffersNo0_wht.png' class='respPic'></div></div>","null","6","Sean","2","Shared","0.8,0.35","14","0.8","trustrating_stim/white_mw063.bmp","2.5","85","16"
"html-keyboard-response","185","348755","0.0-19.0-1.16","5d2a49241d8d930001c263a7","bdp_trlrn","Tue Mar 14 2023 00:17:35 GMT-0400 (Eastern Daylight Time)","744489","Untrustworthy,Trustworthy","","1690","","","","decision","","","<div class='trialDiv'><img src='trustrating_stim/white_00299_940422_fa_edt.bmp'><br><font class='baseline'><strong>Caleb</strong><p>Choose number of points to send.</font><div class='respPicDiv'><img src='img/responseButtonOffersNo0L.png' class='respPic'></div></div>","2","6","Caleb","4","Kept","0.65,0.35","12","0.65","trustrating_stim/white_00299_940422_fa_edt.bmp","4.5","90","17"
"html-keyboard-response","186","349007","0.0-19.0-2.16","5d2a49241d8d930001c263a7","bdp_trlrn","Tue Mar 14 2023 00:17:35 GMT-0400 (Eastern Daylight Time)","744489","Untrustworthy,Trustworthy","","null","","","","decisionFB","","","<div class='trialDiv'><img src='trustrating_stim/white_00299_940422_fa_edt.bmp'><br><font class='baseline'><strong>Caleb</strong><p>Choose number of points to send.</font><div class='respPicDiv'><img src='img/responseButtonOffersNo0L2.png' class='respPic'></div></div>","null","6","Caleb","4","Kept","0.65,0.35","12","0.65","trustrating_stim/white_00299_940422_fa_edt.bmp","4.5","88","17"
"html-keyboard-response","187","350008","0.0-19.0-3.16","5d2a49241d8d930001c263a7","bdp_trlrn","Tue Mar 14 2023 00:17:35 GMT-0400 (Eastern Daylight Time)","744489","Untrustworthy,Trustworthy","","null","","","","feedback","","","<div class='trialDiv'><img src='trustrating_stim/white_00299_940422_fa_edt.bmp'><br><font class='baseline'><strong>Caleb</strong><p>Received: <strong>8</strong></font> &nbsp; &nbsp; &nbsp; &nbsp; &nbsp; &nbsp;<font class='negOutcome'>Shared back: <strong>0</strong></font></font><div class='respPicDiv'><img src='img/responseButtonOffersNo0_wht.png' class='respPic'></div></div>","null","6","Caleb","4","Kept","0.65,0.35","12","0.65","trustrating_stim/white_00299_940422_fa_edt.bmp","4.5","88","17"
"html-keyboard-response","188","353502","0.0-19.0-1.17","5d2a49241d8d930001c263a7","bdp_trlrn","Tue Mar 14 2023 00:17:35 GMT-0400 (Eastern Daylight Time)","744489","Untrustworthy,Trustworthy","","3494","","","","decision","","","<div class='trialDiv'><img src='trustrating_stim/white_00602_940928_fb_edt.bmp'><br><font class='baseline'><strong>David</strong><p>Choose number of points to send.</font><div class='respPicDiv'><img src='img/responseButtonOffersNo0L.png' class='respPic'></div></div>","4","6","David","11","Kept","0.35,0.8","10","0.35","trustrating_stim/white_00602_940928_fb_edt.bmp","7","93","18"
"html-keyboard-response","189","353754","0.0-19.0-2.17","5d2a49241d8d930001c263a7","bdp_trlrn","Tue Mar 14 2023 00:17:35 GMT-0400 (Eastern Daylight Time)","744489","Untrustworthy,Trustworthy","","null","","","","decisionFB","","","<div class='trialDiv'><img src='trustrating_stim/white_00602_940928_fb_edt.bmp'><br><font class='baseline'><strong>David</strong><p>Choose number of points to send.</font><div class='respPicDiv'><img src='img/responseButtonOffersNo0L4.png' class='respPic'></div></div>","null","6","David","11","Kept","0.35,0.8","10","0.35","trustrating_stim/white_00602_940928_fb_edt.bmp","7","89","18"
"html-keyboard-response","190","354755","0.0-19.0-3.17","5d2a49241d8d930001c263a7","bdp_trlrn","Tue Mar 14 2023 00:17:35 GMT-0400 (Eastern Daylight Time)","744489","Untrustworthy,Trustworthy","","null","","","","feedback","","","<div class='trialDiv'><img src='trustrating_stim/white_00602_940928_fb_edt.bmp'><br><font class='baseline'><strong>David</strong><p>Received: <strong>16</strong></font> &nbsp; &nbsp; &nbsp; &nbsp; &nbsp; &nbsp;<font class='negOutcome'>Shared back: <strong>0</strong></font></font><div class='respPicDiv'><img src='img/responseButtonOffersNo0_wht.png' class='respPic'></div></div>","null","6","David","11","Kept","0.35,0.8","10","0.35","trustrating_stim/white_00602_940928_fb_edt.bmp","7","89","18"
"html-keyboard-response","191","356430","0.0-19.0-1.18","5d2a49241d8d930001c263a7","bdp_trlrn","Tue Mar 14 2023 00:17:35 GMT-0400 (Eastern Daylight Time)","744489","Untrustworthy,Trustworthy","","1673","","","","decision","","","<div class='trialDiv'><img src='trustrating_stim/white_mw063.bmp'><br><font class='baseline'><strong>Sean</strong><p>Choose number of points to send.</font><div class='respPicDiv'><img src='img/responseButtonOffersNo0L.png' class='respPic'></div></div>","2","7","Sean","2","Kept","0.8,0.35","14","0.8","trustrating_stim/white_mw063.bmp","2.5","94","19"
"html-keyboard-response","192","356682","0.0-19.0-2.18","5d2a49241d8d930001c263a7","bdp_trlrn","Tue Mar 14 2023 00:17:35 GMT-0400 (Eastern Daylight Time)","744489","Untrustworthy,Trustworthy","","null","","","","decisionFB","","","<div class='trialDiv'><img src='trustrating_stim/white_mw063.bmp'><br><font class='baseline'><strong>Sean</strong><p>Choose number of points to send.</font><div class='respPicDiv'><img src='img/responseButtonOffersNo0L2.png' class='respPic'></div></div>","null","7","Sean","2","Kept","0.8,0.35","14","0.8","trustrating_stim/white_mw063.bmp","2.5","92","19"
"html-keyboard-response","193","357683","0.0-19.0-3.18","5d2a49241d8d930001c263a7","bdp_trlrn","Tue Mar 14 2023 00:17:35 GMT-0400 (Eastern Daylight Time)","744489","Untrustworthy,Trustworthy","","null","","","","feedback","","","<div class='trialDiv'><img src='trustrating_stim/white_mw063.bmp'><br><font class='baseline'><strong>Sean</strong><p>Received: <strong>8</strong></font> &nbsp; &nbsp; &nbsp; &nbsp; &nbsp; &nbsp;<font class='negOutcome'>Shared back: <strong>0</strong></font></font><div class='respPicDiv'><img src='img/responseButtonOffersNo0_wht.png' class='respPic'></div></div>","null","7","Sean","2","Kept","0.8,0.35","14","0.8","trustrating_stim/white_mw063.bmp","2.5","92","19"
"html-keyboard-response","194","363876","0.0-19.0-1.19","5d2a49241d8d930001c263a7","bdp_trlrn","Tue Mar 14 2023 00:17:35 GMT-0400 (Eastern Daylight Time)","744489","Untrustworthy,Trustworthy","","6192","","","","decision","","","<div class='trialDiv'><img src='trustrating_stim/white_00299_940422_fa_edt.bmp'><br><font class='baseline'><strong>Caleb</strong><p>Choose number of points to send.</font><div class='respPicDiv'><img src='img/responseButtonOffersNo0L.png' class='respPic'></div></div>","3","7","Caleb","4","Shared","0.65,0.35","12","0.65","trustrating_stim/white_00299_940422_fa_edt.bmp","4.5","97","20"
"html-keyboard-response","195","364127","0.0-19.0-2.19","5d2a49241d8d930001c263a7","bdp_trlrn","Tue Mar 14 2023 00:17:35 GMT-0400 (Eastern Daylight Time)","744489","Untrustworthy,Trustworthy","","null","","","","decisionFB","","","<div class='trialDiv'><img src='trustrating_stim/white_00299_940422_fa_edt.bmp'><br><font class='baseline'><strong>Caleb</strong><p>Choose number of points to send.</font><div class='respPicDiv'><img src='img/responseButtonOffersNo0L3.png' class='respPic'></div></div>","null","7","Caleb","4","Shared","0.65,0.35","12","0.65","trustrating_stim/white_00299_940422_fa_edt.bmp","4.5","94","20"
"html-keyboard-response","196","365129","0.0-19.0-3.19","5d2a49241d8d930001c263a7","bdp_trlrn","Tue Mar 14 2023 00:17:35 GMT-0400 (Eastern Daylight Time)","744489","Untrustworthy,Trustworthy","","null","","","","feedback","","","<div class='trialDiv'><img src='trustrating_stim/white_00299_940422_fa_edt.bmp'><br><font class='baseline'><strong>Caleb</strong><p>Received: <strong>12</strong></font> &nbsp; &nbsp; &nbsp; &nbsp; &nbsp; &nbsp;<font class='posOutcome'>Shared back: <strong>6</strong></font></font><div class='respPicDiv'><img src='img/responseButtonOffersNo0_wht.png' class='respPic'></div></div>","null","7","Caleb","4","Shared","0.65,0.35","12","0.65","trustrating_stim/white_00299_940422_fa_edt.bmp","4.5","100","20"
"html-keyboard-response","197","366373","0.0-19.0-1.20","5d2a49241d8d930001c263a7","bdp_trlrn","Tue Mar 14 2023 00:17:35 GMT-0400 (Eastern Daylight Time)","744489","Untrustworthy,Trustworthy","","1243","","","","decision","","","<div class='trialDiv'><img src='trustrating_stim/white_00602_940928_fb_edt.bmp'><br><font class='baseline'><strong>David</strong><p>Choose number of points to send.</font><div class='respPicDiv'><img src='img/responseButtonOffersNo0L.png' class='respPic'></div></div>","5","7","David","11","Kept","0.35,0.8","10","0.35","trustrating_stim/white_00602_940928_fb_edt.bmp","7","105","21"
"html-keyboard-response","198","366624","0.0-19.0-2.20","5d2a49241d8d930001c263a7","bdp_trlrn","Tue Mar 14 2023 00:17:35 GMT-0400 (Eastern Daylight Time)","744489","Untrustworthy,Trustworthy","","null","","","","decisionFB","","","<div class='trialDiv'><img src='trustrating_stim/white_00602_940928_fb_edt.bmp'><br><font class='baseline'><strong>David</strong><p>Choose number of points to send.</font><div class='respPicDiv'><img src='img/responseButtonOffersNo0L5.png' class='respPic'></div></div>","null","7","David","11","Kept","0.35,0.8","10","0.35","trustrating_stim/white_00602_940928_fb_edt.bmp","7","100","21"
"html-keyboard-response","199","367626","0.0-19.0-3.20","5d2a49241d8d930001c263a7","bdp_trlrn","Tue Mar 14 2023 00:17:35 GMT-0400 (Eastern Daylight Time)","744489","Untrustworthy,Trustworthy","","null","","","","feedback","","","<div class='trialDiv'><img src='trustrating_stim/white_00602_940928_fb_edt.bmp'><br><font class='baseline'><strong>David</strong><p>Received: <strong>20</strong></font> &nbsp; &nbsp; &nbsp; &nbsp; &nbsp; &nbsp;<font class='negOutcome'>Shared back: <strong>0</strong></font></font><div class='respPicDiv'><img src='img/responseButtonOffersNo0_wht.png' class='respPic'></div></div>","null","7","David","11","Kept","0.35,0.8","10","0.35","trustrating_stim/white_00602_940928_fb_edt.bmp","7","100","21"
"html-keyboard-response","200","369300","0.0-19.0-1.21","5d2a49241d8d930001c263a7","bdp_trlrn","Tue Mar 14 2023 00:17:35 GMT-0400 (Eastern Daylight Time)","744489","Untrustworthy,Trustworthy","","1673","","","","decision","","","<div class='trialDiv'><img src='trustrating_stim/white_mw063.bmp'><br><font class='baseline'><strong>Sean</strong><p>Choose number of points to send.</font><div class='respPicDiv'><img src='img/responseButtonOffersNo0L.png' class='respPic'></div></div>","1","8","Sean","2","Shared","0.8,0.35","14","0.8","trustrating_stim/white_mw063.bmp","2.5","105","22"
"html-keyboard-response","201","369551","0.0-19.0-2.21","5d2a49241d8d930001c263a7","bdp_trlrn","Tue Mar 14 2023 00:17:35 GMT-0400 (Eastern Daylight Time)","744489","Untrustworthy,Trustworthy","","null","","","","decisionFB","","","<div class='trialDiv'><img src='trustrating_stim/white_mw063.bmp'><br><font class='baseline'><strong>Sean</strong><p>Choose number of points to send.</font><div class='respPicDiv'><img src='img/responseButtonOffersNo0L1.png' class='respPic'></div></div>","null","8","Sean","2","Shared","0.8,0.35","14","0.8","trustrating_stim/white_mw063.bmp","2.5","104","22"
"html-keyboard-response","202","370553","0.0-19.0-3.21","5d2a49241d8d930001c263a7","bdp_trlrn","Tue Mar 14 2023 00:17:35 GMT-0400 (Eastern Daylight Time)","744489","Untrustworthy,Trustworthy","","null","","","","feedback","","","<div class='trialDiv'><img src='trustrating_stim/white_mw063.bmp'><br><font class='baseline'><strong>Sean</strong><p>Received: <strong>4</strong></font> &nbsp; &nbsp; &nbsp; &nbsp; &nbsp; &nbsp;<font class='posOutcome'>Shared back: <strong>2</strong></font></font><div class='respPicDiv'><img src='img/responseButtonOffersNo0_wht.png' class='respPic'></div></div>","null","8","Sean","2","Shared","0.8,0.35","14","0.8","trustrating_stim/white_mw063.bmp","2.5","106","22"
"html-keyboard-response","203","372069","0.0-19.0-1.22","5d2a49241d8d930001c263a7","bdp_trlrn","Tue Mar 14 2023 00:17:35 GMT-0400 (Eastern Daylight Time)","744489","Untrustworthy,Trustworthy","","1515","","","","decision","","","<div class='trialDiv'><img src='trustrating_stim/white_00602_940928_fb_edt.bmp'><br><font class='baseline'><strong>David</strong><p>Choose number of points to send.</font><div class='respPicDiv'><img src='img/responseButtonOffersNo0L.png' class='respPic'></div></div>","4","8","David","11","Shared","0.35,0.8","10","0.35","trustrating_stim/white_00602_940928_fb_edt.bmp","7","111","23"
"html-keyboard-response","204","372320","0.0-19.0-2.22","5d2a49241d8d930001c263a7","bdp_trlrn","Tue Mar 14 2023 00:17:35 GMT-0400 (Eastern Daylight Time)","744489","Untrustworthy,Trustworthy","","null","","","","decisionFB","","","<div class='trialDiv'><img src='trustrating_stim/white_00602_940928_fb_edt.bmp'><br><font class='baseline'><strong>David</strong><p>Choose number of points to send.</font><div class='respPicDiv'><img src='img/responseButtonOffersNo0L4.png' class='respPic'></div></div>","null","8","David","11","Shared","0.35,0.8","10","0.35","trustrating_stim/white_00602_940928_fb_edt.bmp","7","107","23"
"html-keyboard-response","205","373334","0.0-19.0-3.22","5d2a49241d8d930001c263a7","bdp_trlrn","Tue Mar 14 2023 00:17:35 GMT-0400 (Eastern Daylight Time)","744489","Untrustworthy,Trustworthy","","null","","","","feedback","","","<div class='trialDiv'><img src='trustrating_stim/white_00602_940928_fb_edt.bmp'><br><font class='baseline'><strong>David</strong><p>Received: <strong>16</strong></font> &nbsp; &nbsp; &nbsp; &nbsp; &nbsp; &nbsp;<font class='posOutcome'>Shared back: <strong>8</strong></font></font><div class='respPicDiv'><img src='img/responseButtonOffersNo0_wht.png' class='respPic'></div></div>","null","8","David","11","Shared","0.35,0.8","10","0.35","trustrating_stim/white_00602_940928_fb_edt.bmp","7","115","23"
"html-keyboard-response","206","374809","0.0-19.0-1.23","5d2a49241d8d930001c263a7","bdp_trlrn","Tue Mar 14 2023 00:17:35 GMT-0400 (Eastern Daylight Time)","744489","Untrustworthy,Trustworthy","","1474","","","","decision","","","<div class='trialDiv'><img src='trustrating_stim/white_00299_940422_fa_edt.bmp'><br><font class='baseline'><strong>Caleb</strong><p>Choose number of points to send.</font><div class='respPicDiv'><img src='img/responseButtonOffersNo0L.png' class='respPic'></div></div>","3","8","Caleb","4","Shared","0.65,0.35","12","0.65","trustrating_stim/white_00299_940422_fa_edt.bmp","4.5","120","24"
"html-keyboard-response","207","375062","0.0-19.0-2.23","5d2a49241d8d930001c263a7","bdp_trlrn","Tue Mar 14 2023 00:17:35 GMT-0400 (Eastern Daylight Time)","744489","Untrustworthy,Trustworthy","","null","","","","decisionFB","","","<div class='trialDiv'><img src='trustrating_stim/white_00299_940422_fa_edt.bmp'><br><font class='baseline'><strong>Caleb</strong><p>Choose number of points to send.</font><div class='respPicDiv'><img src='img/responseButtonOffersNo0L3.png' class='respPic'></div></div>","null","8","Caleb","4","Shared","0.65,0.35","12","0.65","trustrating_stim/white_00299_940422_fa_edt.bmp","4.5","117","24"
"html-keyboard-response","208","376073","0.0-19.0-3.23","5d2a49241d8d930001c263a7","bdp_trlrn","Tue Mar 14 2023 00:17:35 GMT-0400 (Eastern Daylight Time)","744489","Untrustworthy,Trustworthy","","null","","","","feedback","","","<div class='trialDiv'><img src='trustrating_stim/white_00299_940422_fa_edt.bmp'><br><font class='baseline'><strong>Caleb</strong><p>Received: <strong>12</strong></font> &nbsp; &nbsp; &nbsp; &nbsp; &nbsp; &nbsp;<font class='posOutcome'>Shared back: <strong>6</strong></font></font><div class='respPicDiv'><img src='img/responseButtonOffersNo0_wht.png' class='respPic'></div></div>","null","8","Caleb","4","Shared","0.65,0.35","12","0.65","trustrating_stim/white_00299_940422_fa_edt.bmp","4.5","123","24"
"html-keyboard-response","209","383048","0.0-19.0-1.24","5d2a49241d8d930001c263a7","bdp_trlrn","Tue Mar 14 2023 00:17:35 GMT-0400 (Eastern Daylight Time)","744489","Untrustworthy,Trustworthy","","6974","","","","decision","","","<div class='trialDiv'><img src='trustrating_stim/white_mw063.bmp'><br><font class='baseline'><strong>Sean</strong><p>Choose number of points to send.</font><div class='respPicDiv'><img src='img/responseButtonOffersNo0L.png' class='respPic'></div></div>","2","9","Sean","2","Shared","0.8,0.35","14","0.8","trustrating_stim/white_mw063.bmp","2.5","128","25"
"html-keyboard-response","210","383301","0.0-19.0-2.24","5d2a49241d8d930001c263a7","bdp_trlrn","Tue Mar 14 2023 00:17:35 GMT-0400 (Eastern Daylight Time)","744489","Untrustworthy,Trustworthy","","null","","","","decisionFB","","","<div class='trialDiv'><img src='trustrating_stim/white_mw063.bmp'><br><font class='baseline'><strong>Sean</strong><p>Choose number of points to send.</font><div class='respPicDiv'><img src='img/responseButtonOffersNo0L2.png' class='respPic'></div></div>","null","9","Sean","2","Shared","0.8,0.35","14","0.8","trustrating_stim/white_mw063.bmp","2.5","126","25"
"html-keyboard-response","211","384301","0.0-19.0-3.24","5d2a49241d8d930001c263a7","bdp_trlrn","Tue Mar 14 2023 00:17:35 GMT-0400 (Eastern Daylight Time)","744489","Untrustworthy,Trustworthy","","null","","","","feedback","","","<div class='trialDiv'><img src='trustrating_stim/white_mw063.bmp'><br><font class='baseline'><strong>Sean</strong><p>Received: <strong>8</strong></font> &nbsp; &nbsp; &nbsp; &nbsp; &nbsp; &nbsp;<font class='posOutcome'>Shared back: <strong>4</strong></font></font><div class='respPicDiv'><img src='img/responseButtonOffersNo0_wht.png' class='respPic'></div></div>","null","9","Sean","2","Shared","0.8,0.35","14","0.8","trustrating_stim/white_mw063.bmp","2.5","130","25"
"html-keyboard-response","212","385701","0.0-19.0-1.25","5d2a49241d8d930001c263a7","bdp_trlrn","Tue Mar 14 2023 00:17:35 GMT-0400 (Eastern Daylight Time)","744489","Untrustworthy,Trustworthy","","1398","","","","decision","","","<div class='trialDiv'><img src='trustrating_stim/white_00602_940928_fb_edt.bmp'><br><font class='baseline'><strong>David</strong><p>Choose number of points to send.</font><div class='respPicDiv'><img src='img/responseButtonOffersNo0L.png' class='respPic'></div></div>","4","9","David","11","Kept","0.35,0.8","10","0.35","trustrating_stim/white_00602_940928_fb_edt.bmp","7","135","26"
"html-keyboard-response","213","385953","0.0-19.0-2.25","5d2a49241d8d930001c263a7","bdp_trlrn","Tue Mar 14 2023 00:17:35 GMT-0400 (Eastern Daylight Time)","744489","Untrustworthy,Trustworthy","","null","","","","decisionFB","","","<div class='trialDiv'><img src='trustrating_stim/white_00602_940928_fb_edt.bmp'><br><font class='baseline'><strong>David</strong><p>Choose number of points to send.</font><div class='respPicDiv'><img src='img/responseButtonOffersNo0L4.png' class='respPic'></div></div>","null","9","David","11","Kept","0.35,0.8","10","0.35","trustrating_stim/white_00602_940928_fb_edt.bmp","7","131","26"
"html-keyboard-response","214","386955","0.0-19.0-3.25","5d2a49241d8d930001c263a7","bdp_trlrn","Tue Mar 14 2023 00:17:35 GMT-0400 (Eastern Daylight Time)","744489","Untrustworthy,Trustworthy","","null","","","","feedback","","","<div class='trialDiv'><img src='trustrating_stim/white_00602_940928_fb_edt.bmp'><br><font class='baseline'><strong>David</strong><p>Received: <strong>16</strong></font> &nbsp; &nbsp; &nbsp; &nbsp; &nbsp; &nbsp;<font class='negOutcome'>Shared back: <strong>0</strong></font></font><div class='respPicDiv'><img src='img/responseButtonOffersNo0_wht.png' class='respPic'></div></div>","null","9","David","11","Kept","0.35,0.8","10","0.35","trustrating_stim/white_00602_940928_fb_edt.bmp","7","131","26"
"html-keyboard-response","215","388197","0.0-19.0-1.26","5d2a49241d8d930001c263a7","bdp_trlrn","Tue Mar 14 2023 00:17:35 GMT-0400 (Eastern Daylight Time)","744489","Untrustworthy,Trustworthy","","1241","","","","decision","","","<div class='trialDiv'><img src='trustrating_stim/white_00299_940422_fa_edt.bmp'><br><font class='baseline'><strong>Caleb</strong><p>Choose number of points to send.</font><div class='respPicDiv'><img src='img/responseButtonOffersNo0L.png' class='respPic'></div></div>","3","9","Caleb","4","Kept","0.65,0.35","12","0.65","trustrating_stim/white_00299_940422_fa_edt.bmp","4.5","136","27"
