"event","trial","time","trialtype","subject_id","task","startTime","totalTime","labels","trial_type","trial_index","time_elapsed","internal_node_id","view_history","rt","success","stimulus","key_press","aground","name","faceID","outcome","agenttype","agentswpt","agentcurrpshare","face","avgRating","point_total","round"
"focus","0","0","focusevent","63d80b500adef5b476e289a4","bdp_trlrn","Mon Mar 13 2023 14:36:54 GMT-0400 (Eastern Daylight Time)","427435","Untrustworthy,Trustworthy","","","","","","","","","","","","","","","","","","","",""
"","","","","63d80b500adef5b476e289a4","bdp_trlrn","Mon Mar 13 2023 14:36:54 GMT-0400 (Eastern Daylight Time)","427435","Untrustworthy,Trustworthy","pavlovia","0","3","0.0-0.0","","","","","","","","","","","","","","","",""
"","","","","63d80b500adef5b476e289a4","bdp_trlrn","Mon Mar 13 2023 14:36:54 GMT-0400 (Eastern Daylight Time)","427435","Untrustworthy,Trustworthy","instructions","1","2120","0.0-1.0","[{""page_index"":0,""viewing_time"":2117}]","2117","","","","","","","","","","","","","",""
"fullscreenexit","2","5458","fullscreenexit","63d80b500adef5b476e289a4","bdp_trlrn","Mon Mar 13 2023 14:36:54 GMT-0400 (Eastern Daylight Time)","427435","Untrustworthy,Trustworthy","","","","","","","","","","","","","","","","","","","",""
"","","","","63d80b500adef5b476e289a4","bdp_trlrn","Mon Mar 13 2023 14:36:54 GMT-0400 (Eastern Daylight Time)","427435","Untrustworthy,Trustworthy","fullscreen","2","6445","0.0-2.0","","","true","","","","","","","","","","","","",""
"","","","fullscreenfail","63d80b500adef5b476e289a4","bdp_trlrn","Mon Mar 13 2023 14:36:54 GMT-0400 (Eastern Daylight Time)","427435","Untrustworthy,Trustworthy","image-keyboard-response","3","8532","0.0-3.0-0.0","","2085","","","32","","","","","","","","","","",""
"","","","","63d80b500adef5b476e289a4","bdp_trlrn","Mon Mar 13 2023 14:36:54 GMT-0400 (Eastern Daylight Time)","427435","Untrustworthy,Trustworthy","instructions","4","12474","0.0-4.0","[{""page_index"":0,""viewing_time"":2749},{""page_index"":1,""viewing_time"":941}]","3690","","","","","","","","","","","","","",""
"","","","","63d80b500adef5b476e289a4","bdp_trlrn","Mon Mar 13 2023 14:36:54 GMT-0400 (Eastern Daylight Time)","427435","Untrustworthy,Trustworthy","instructions","5","13256","0.0-5.0","[{""page_index"":0,""viewing_time"":781}]","781","","","","","","","","","","","","","",""
"","","","rating","63d80b500adef5b476e289a4","bdp_trlrn","Mon Mar 13 2023 14:36:54 GMT-0400 (Eastern Daylight Time)","427435","Untrustworthy,Trustworthy","image-keyboard-response","6","15101","0.0-6.0-1.0","","1738","","trustrating_stim/white_mw053.bmp","6","","","","","","","","","","",""
"","","","ratingFB","63d80b500adef5b476e289a4","bdp_trlrn","Mon Mar 13 2023 14:36:54 GMT-0400 (Eastern Daylight Time)","427435","Untrustworthy,Trustworthy","image-keyboard-response","7","15307","0.0-6.0-2.0","","null","","trustrating_stim/white_mw053.bmp","null","","","","","","","","","","",""
"","","","rating","63d80b500adef5b476e289a4","bdp_trlrn","Mon Mar 13 2023 14:36:54 GMT-0400 (Eastern Daylight Time)","427435","Untrustworthy,Trustworthy","image-keyboard-response","8","16348","0.0-6.0-1.1","","938","","trustrating_stim/white_00109_931230_fa_edt.bmp","5","","","","","","","","","","",""
"","","","ratingFB","63d80b500adef5b476e289a4","bdp_trlrn","Mon Mar 13 2023 14:36:54 GMT-0400 (Eastern Daylight Time)","427435","Untrustworthy,Trustworthy","image-keyboard-response","9","16552","0.0-6.0-2.1","","null","","trustrating_stim/white_00109_931230_fa_edt.bmp","null","","","","","","","","","","",""
"","","","rating","63d80b500adef5b476e289a4","bdp_trlrn","Mon Mar 13 2023 14:36:54 GMT-0400 (Eastern Daylight Time)","427435","Untrustworthy,Trustworthy","image-keyboard-response","10","18061","0.0-6.0-1.2","","1407","","trustrating_stim/white_00659_941121_fa_edt.bmp","5","","","","","","","","","","",""
"","","","ratingFB","63d80b500adef5b476e289a4","bdp_trlrn","Mon Mar 13 2023 14:36:54 GMT-0400 (Eastern Daylight Time)","427435","Untrustworthy,Trustworthy","image-keyboard-response","11","18265","0.0-6.0-2.2","","null","","trustrating_stim/white_00659_941121_fa_edt.bmp","null","","","","","","","","","","",""
"","","","rating","63d80b500adef5b476e289a4","bdp_trlrn","Mon Mar 13 2023 14:36:54 GMT-0400 (Eastern Daylight Time)","427435","Untrustworthy,Trustworthy","image-keyboard-response","12","19280","0.0-6.0-1.3","","911","","trustrating_stim/white_00129_931230_fb_edt.bmp","5","","","","","","","","","","",""
"","","","ratingFB","63d80b500adef5b476e289a4","bdp_trlrn","Mon Mar 13 2023 14:36:54 GMT-0400 (Eastern Daylight Time)","427435","Untrustworthy,Trustworthy","image-keyboard-response","13","19485","0.0-6.0-2.3","","null","","trustrating_stim/white_00129_931230_fb_edt.bmp","null","","","","","","","","","","",""
"","","","rating","63d80b500adef5b476e289a4","bdp_trlrn","Mon Mar 13 2023 14:36:54 GMT-0400 (Eastern Daylight Time)","427435","Untrustworthy,Trustworthy","image-keyboard-response","14","20568","0.0-6.0-1.4","","976","","trustrating_stim/white_mw033.bmp","5","","","","","","","","","","",""
"","","","ratingFB","63d80b500adef5b476e289a4","bdp_trlrn","Mon Mar 13 2023 14:36:54 GMT-0400 (Eastern Daylight Time)","427435","Untrustworthy,Trustworthy","image-keyboard-response","15","20772","0.0-6.0-2.4","","null","","trustrating_stim/white_mw033.bmp","null","","","","","","","","","","",""
"","","","rating","63d80b500adef5b476e289a4","bdp_trlrn","Mon Mar 13 2023 14:36:54 GMT-0400 (Eastern Daylight Time)","427435","Untrustworthy,Trustworthy","image-keyboard-response","16","21787","0.0-6.0-1.5","","909","","trustrating_stim/white_00807_941205_fb_edt.bmp","6","","","","","","","","","","",""
"","","","ratingFB","63d80b500adef5b476e289a4","bdp_trlrn","Mon Mar 13 2023 14:36:54 GMT-0400 (Eastern Daylight Time)","427435","Untrustworthy,Trustworthy","image-keyboard-response","17","21990","0.0-6.0-2.5","","null","","trustrating_stim/white_00807_941205_fb_edt.bmp","null","","","","","","","","","","",""
"","","","rating","63d80b500adef5b476e289a4","bdp_trlrn","Mon Mar 13 2023 14:36:54 GMT-0400 (Eastern Daylight Time)","427435","Untrustworthy,Trustworthy","image-keyboard-response","18","23490","0.0-6.0-1.6","","1393","","trustrating_stim/white_mw084.bmp","4","","","","","","","","","","",""
"","","","ratingFB","63d80b500adef5b476e289a4","bdp_trlrn","Mon Mar 13 2023 14:36:54 GMT-0400 (Eastern Daylight Time)","427435","Untrustworthy,Trustworthy","image-keyboard-response","19","23694","0.0-6.0-2.6","","null","","trustrating_stim/white_mw084.bmp","null","","","","","","","","","","",""
"","","","rating","63d80b500adef5b476e289a4","bdp_trlrn","Mon Mar 13 2023 14:36:54 GMT-0400 (Eastern Daylight Time)","427435","Untrustworthy,Trustworthy","image-keyboard-response","20","25736","0.0-6.0-1.7","","1940","","trustrating_stim/white_mw046.bmp","4","","","","","","","","","","",""
"","","","ratingFB","63d80b500adef5b476e289a4","bdp_trlrn","Mon Mar 13 2023 14:36:54 GMT-0400 (Eastern Daylight Time)","427435","Untrustworthy,Trustworthy","image-keyboard-response","21","25939","0.0-6.0-2.7","","null","","trustrating_stim/white_mw046.bmp","null","","","","","","","","","","",""
"","","","rating","63d80b500adef5b476e289a4","bdp_trlrn","Mon Mar 13 2023 14:36:54 GMT-0400 (Eastern Daylight Time)","427435","Untrustworthy,Trustworthy","image-keyboard-response","22","27311","0.0-6.0-1.8","","1268","","trustrating_stim/white_00223_940128_fb_edt.bmp","4","","","","","","","","","","",""
"","","","ratingFB","63d80b500adef5b476e289a4","bdp_trlrn","Mon Mar 13 2023 14:36:54 GMT-0400 (Eastern Daylight Time)","427435","Untrustworthy,Trustworthy","image-keyboard-response","23","27516","0.0-6.0-2.8","","null","","trustrating_stim/white_00223_940128_fb_edt.bmp","null","","","","","","","","","","",""
"","","","rating","63d80b500adef5b476e289a4","bdp_trlrn","Mon Mar 13 2023 14:36:54 GMT-0400 (Eastern Daylight Time)","427435","Untrustworthy,Trustworthy","image-keyboard-response","24","28518","0.0-6.0-1.9","","896","","trustrating_stim/white_00602_940928_fb_edt.bmp","5","","","","","","","","","","",""
"","","","ratingFB","63d80b500adef5b476e289a4","bdp_trlrn","Mon Mar 13 2023 14:36:54 GMT-0400 (Eastern Daylight Time)","427435","Untrustworthy,Trustworthy","image-keyboard-response","25","28721","0.0-6.0-2.9","","null","","trustrating_stim/white_00602_940928_fb_edt.bmp","null","","","","","","","","","","",""
"","","","rating","63d80b500adef5b476e289a4","bdp_trlrn","Mon Mar 13 2023 14:36:54 GMT-0400 (Eastern Daylight Time)","427435","Untrustworthy,Trustworthy","image-keyboard-response","26","29754","0.0-6.0-1.10","","928","","trustrating_stim/white_mw089.bmp","4","","","","","","","","","","",""
"","","","ratingFB","63d80b500adef5b476e289a4","bdp_trlrn","Mon Mar 13 2023 14:36:54 GMT-0400 (Eastern Daylight Time)","427435","Untrustworthy,Trustworthy","image-keyboard-response","27","29957","0.0-6.0-2.10","","null","","trustrating_stim/white_mw089.bmp","null","","","","","","","","","","",""
"","","","rating","63d80b500adef5b476e289a4","bdp_trlrn","Mon Mar 13 2023 14:36:54 GMT-0400 (Eastern Daylight Time)","427435","Untrustworthy,Trustworthy","image-keyboard-response","28","31121","0.0-6.0-1.11","","1059","","trustrating_stim/white_00898_960530_fa_edt.bmp","5","","","","","","","","","","",""
"","","","ratingFB","63d80b500adef5b476e289a4","bdp_trlrn","Mon Mar 13 2023 14:36:54 GMT-0400 (Eastern Daylight Time)","427435","Untrustworthy,Trustworthy","image-keyboard-response","29","31325","0.0-6.0-2.11","","null","","trustrating_stim/white_00898_960530_fa_edt.bmp","null","","","","","","","","","","",""
"","","","rating","63d80b500adef5b476e289a4","bdp_trlrn","Mon Mar 13 2023 14:36:54 GMT-0400 (Eastern Daylight Time)","427435","Untrustworthy,Trustworthy","image-keyboard-response","30","32314","0.0-6.0-1.12","","884","","trustrating_stim/white_mw099.bmp","4","","","","","","","","","","",""
"","","","ratingFB","63d80b500adef5b476e289a4","bdp_trlrn","Mon Mar 13 2023 14:36:54 GMT-0400 (Eastern Daylight Time)","427435","Untrustworthy,Trustworthy","image-keyboard-response","31","32518","0.0-6.0-2.12","","null","","trustrating_stim/white_mw099.bmp","null","","","","","","","","","","",""
"","","","rating","63d80b500adef5b476e289a4","bdp_trlrn","Mon Mar 13 2023 14:36:54 GMT-0400 (Eastern Daylight Time)","427435","Untrustworthy,Trustworthy","image-keyboard-response","32","33941","0.0-6.0-1.13","","1318","","trustrating_stim/white_00785_941205_fb_edt.bmp","4","","","","","","","","","","",""
"","","","ratingFB","63d80b500adef5b476e289a4","bdp_trlrn","Mon Mar 13 2023 14:36:54 GMT-0400 (Eastern Daylight Time)","427435","Untrustworthy,Trustworthy","image-keyboard-response","33","34145","0.0-6.0-2.13","","null","","trustrating_stim/white_00785_941205_fb_edt.bmp","null","","","","","","","","","","",""
"","","","rating","63d80b500adef5b476e289a4","bdp_trlrn","Mon Mar 13 2023 14:36:54 GMT-0400 (Eastern Daylight Time)","427435","Untrustworthy,Trustworthy","image-keyboard-response","34","36865","0.0-6.0-1.14","","2614","","trustrating_stim/white_00761_941201_fb_edt.bmp","5","","","","","","","","","","",""
"","","","ratingFB","63d80b500adef5b476e289a4","bdp_trlrn","Mon Mar 13 2023 14:36:54 GMT-0400 (Eastern Daylight Time)","427435","Untrustworthy,Trustworthy","image-keyboard-response","35","37069","0.0-6.0-2.14","","null","","trustrating_stim/white_00761_941201_fb_edt.bmp","null","","","","","","","","","","",""
"","","","rating","63d80b500adef5b476e289a4","bdp_trlrn","Mon Mar 13 2023 14:36:54 GMT-0400 (Eastern Daylight Time)","427435","Untrustworthy,Trustworthy","image-keyboard-response","36","38092","0.0-6.0-1.15","","916","","trustrating_stim/white_mw060.bmp","4","","","","","","","","","","",""
"","","","ratingFB","63d80b500adef5b476e289a4","bdp_trlrn","Mon Mar 13 2023 14:36:54 GMT-0400 (Eastern Daylight Time)","427435","Untrustworthy,Trustworthy","image-keyboard-response","37","38294","0.0-6.0-2.15","","null","","trustrating_stim/white_mw060.bmp","null","","","","","","","","","","",""
"","","","rating","63d80b500adef5b476e289a4","bdp_trlrn","Mon Mar 13 2023 14:36:54 GMT-0400 (Eastern Daylight Time)","427435","Untrustworthy,Trustworthy","image-keyboard-response","38","39072","0.0-6.0-1.16","","672","","trustrating_stim/white_00757_941201_fa_edt.bmp","4","","","","","","","","","","",""
"","","","ratingFB","63d80b500adef5b476e289a4","bdp_trlrn","Mon Mar 13 2023 14:36:54 GMT-0400 (Eastern Daylight Time)","427435","Untrustworthy,Trustworthy","image-keyboard-response","39","39275","0.0-6.0-2.16","","null","","trustrating_stim/white_00757_941201_fa_edt.bmp","null","","","","","","","","","","",""
"","","","rating","63d80b500adef5b476e289a4","bdp_trlrn","Mon Mar 13 2023 14:36:54 GMT-0400 (Eastern Daylight Time)","427435","Untrustworthy,Trustworthy","image-keyboard-response","40","40258","0.0-6.0-1.17","","878","","trustrating_stim/white_mw035.bmp","4","","","","","","","","","","",""
"","","","ratingFB","63d80b500adef5b476e289a4","bdp_trlrn","Mon Mar 13 2023 14:36:54 GMT-0400 (Eastern Daylight Time)","427435","Untrustworthy,Trustworthy","image-keyboard-response","41","40463","0.0-6.0-2.17","","null","","trustrating_stim/white_mw035.bmp","null","","","","","","","","","","",""
"","","","rating","63d80b500adef5b476e289a4","bdp_trlrn","Mon Mar 13 2023 14:36:54 GMT-0400 (Eastern Daylight Time)","427435","Untrustworthy,Trustworthy","image-keyboard-response","42","41327","0.0-6.0-1.18","","757","","trustrating_stim/white_mw097.bmp","4","","","","","","","","","","",""
"","","","ratingFB","63d80b500adef5b476e289a4","bdp_trlrn","Mon Mar 13 2023 14:36:54 GMT-0400 (Eastern Daylight Time)","427435","Untrustworthy,Trustworthy","image-keyboard-response","43","41530","0.0-6.0-2.18","","null","","trustrating_stim/white_mw097.bmp","null","","","","","","","","","","",""
"","","","rating","63d80b500adef5b476e289a4","bdp_trlrn","Mon Mar 13 2023 14:36:54 GMT-0400 (Eastern Daylight Time)","427435","Untrustworthy,Trustworthy","image-keyboard-response","44","42516","0.0-6.0-1.19","","879","","trustrating_stim/white_mw048.bmp","4","","","","","","","","","","",""
"","","","ratingFB","63d80b500adef5b476e289a4","bdp_trlrn","Mon Mar 13 2023 14:36:54 GMT-0400 (Eastern Daylight Time)","427435","Untrustworthy,Trustworthy","image-keyboard-response","45","42719","0.0-6.0-2.19","","null","","trustrating_stim/white_mw048.bmp","null","","","","","","","","","","",""
"","","","rating","63d80b500adef5b476e289a4","bdp_trlrn","Mon Mar 13 2023 14:36:54 GMT-0400 (Eastern Daylight Time)","427435","Untrustworthy,Trustworthy","image-keyboard-response","46","43846","0.0-6.0-1.20","","1019","","trustrating_stim/white_00577_940928_fa_edt.bmp","3","","","","","","","","","","",""
"","","","ratingFB","63d80b500adef5b476e289a4","bdp_trlrn","Mon Mar 13 2023 14:36:54 GMT-0400 (Eastern Daylight Time)","427435","Untrustworthy,Trustworthy","image-keyboard-response","47","44050","0.0-6.0-2.20","","null","","trustrating_stim/white_00577_940928_fa_edt.bmp","null","","","","","","","","","","",""
"","","","rating","63d80b500adef5b476e289a4","bdp_trlrn","Mon Mar 13 2023 14:36:54 GMT-0400 (Eastern Daylight Time)","427435","Untrustworthy,Trustworthy","image-keyboard-response","48","45086","0.0-6.0-1.21","","929","","trustrating_stim/white_mw049.bmp","4","","","","","","","","","","",""
"","","","ratingFB","63d80b500adef5b476e289a4","bdp_trlrn","Mon Mar 13 2023 14:36:54 GMT-0400 (Eastern Daylight Time)","427435","Untrustworthy,Trustworthy","image-keyboard-response","49","45290","0.0-6.0-2.21","","null","","trustrating_stim/white_mw049.bmp","null","","","","","","","","","","",""
"","","","rating","63d80b500adef5b476e289a4","bdp_trlrn","Mon Mar 13 2023 14:36:54 GMT-0400 (Eastern Daylight Time)","427435","Untrustworthy,Trustworthy","image-keyboard-response","50","46236","0.0-6.0-1.22","","839","","trustrating_stim/white_mw066.bmp","5","","","","","","","","","","",""
"","","","ratingFB","63d80b500adef5b476e289a4","bdp_trlrn","Mon Mar 13 2023 14:36:54 GMT-0400 (Eastern Daylight Time)","427435","Untrustworthy,Trustworthy","image-keyboard-response","51","46439","0.0-6.0-2.22","","null","","trustrating_stim/white_mw066.bmp","null","","","","","","","","","","",""
"","","","rating","63d80b500adef5b476e289a4","bdp_trlrn","Mon Mar 13 2023 14:36:54 GMT-0400 (Eastern Daylight Time)","427435","Untrustworthy,Trustworthy","image-keyboard-response","52","47484","0.0-6.0-1.23","","938","","trustrating_stim/white_00120_931230_fa_edt.bmp","6","","","","","","","","","","",""
"","","","ratingFB","63d80b500adef5b476e289a4","bdp_trlrn","Mon Mar 13 2023 14:36:54 GMT-0400 (Eastern Daylight Time)","427435","Untrustworthy,Trustworthy","image-keyboard-response","53","47688","0.0-6.0-2.23","","null","","trustrating_stim/white_00120_931230_fa_edt.bmp","null","","","","","","","","","","",""
"","","","rating","63d80b500adef5b476e289a4","bdp_trlrn","Mon Mar 13 2023 14:36:54 GMT-0400 (Eastern Daylight Time)","427435","Untrustworthy,Trustworthy","image-keyboard-response","54","49056","0.0-6.0-1.24","","1261","","trustrating_stim/white_00519_940519_fb_edt.bmp","5","","","","","","","","","","",""
"","","","ratingFB","63d80b500adef5b476e289a4","bdp_trlrn","Mon Mar 13 2023 14:36:54 GMT-0400 (Eastern Daylight Time)","427435","Untrustworthy,Trustworthy","image-keyboard-response","55","49260","0.0-6.0-2.24","","null","","trustrating_stim/white_00519_940519_fb_edt.bmp","null","","","","","","","","","","",""
"","","","rating","63d80b500adef5b476e289a4","bdp_trlrn","Mon Mar 13 2023 14:36:54 GMT-0400 (Eastern Daylight Time)","427435","Untrustworthy,Trustworthy","image-keyboard-response","56","50244","0.0-6.0-1.25","","878","","trustrating_stim/white_mw063.bmp","4","","","","","","","","","","",""
"","","","ratingFB","63d80b500adef5b476e289a4","bdp_trlrn","Mon Mar 13 2023 14:36:54 GMT-0400 (Eastern Daylight Time)","427435","Untrustworthy,Trustworthy","image-keyboard-response","57","50448","0.0-6.0-2.25","","null","","trustrating_stim/white_mw063.bmp","null","","","","","","","","","","",""
"","","","rating","63d80b500adef5b476e289a4","bdp_trlrn","Mon Mar 13 2023 14:36:54 GMT-0400 (Eastern Daylight Time)","427435","Untrustworthy,Trustworthy","image-keyboard-response","58","51585","0.0-6.0-1.26","","1031","","trustrating_stim/white_mw056.bmp","5","","","","","","","","","","",""
"","","","ratingFB","63d80b500adef5b476e289a4","bdp_trlrn","Mon Mar 13 2023 14:36:54 GMT-0400 (Eastern Daylight Time)","427435","Untrustworthy,Trustworthy","image-keyboard-response","59","51788","0.0-6.0-2.26","","null","","trustrating_stim/white_mw056.bmp","null","","","","","","","","","","",""
"","","","rating","63d80b500adef5b476e289a4","bdp_trlrn","Mon Mar 13 2023 14:36:54 GMT-0400 (Eastern Daylight Time)","427435","Untrustworthy,Trustworthy","image-keyboard-response","60","53010","0.0-6.0-1.27","","1119","","trustrating_stim/white_mw071.bmp","5","","","","","","","","","","",""
"","","","ratingFB","63d80b500adef5b476e289a4","bdp_trlrn","Mon Mar 13 2023 14:36:54 GMT-0400 (Eastern Daylight Time)","427435","Untrustworthy,Trustworthy","image-keyboard-response","61","53215","0.0-6.0-2.27","","null","","trustrating_stim/white_mw071.bmp","null","","","","","","","","","","",""
"","","","rating","63d80b500adef5b476e289a4","bdp_trlrn","Mon Mar 13 2023 14:36:54 GMT-0400 (Eastern Daylight Time)","427435","Untrustworthy,Trustworthy","image-keyboard-response","62","54651","0.0-6.0-1.28","","1327","","trustrating_stim/white_00340_940422_fa_edt.bmp","5","","","","","","","","","","",""
"","","","ratingFB","63d80b500adef5b476e289a4","bdp_trlrn","Mon Mar 13 2023 14:36:54 GMT-0400 (Eastern Daylight Time)","427435","Untrustworthy,Trustworthy","image-keyboard-response","63","54855","0.0-6.0-2.28","","null","","trustrating_stim/white_00340_940422_fa_edt.bmp","null","","","","","","","","","","",""
"","","","rating","63d80b500adef5b476e289a4","bdp_trlrn","Mon Mar 13 2023 14:36:54 GMT-0400 (Eastern Daylight Time)","427435","Untrustworthy,Trustworthy","image-keyboard-response","64","55944","0.0-6.0-1.29","","981","","trustrating_stim/white_00299_940422_fa_edt.bmp","5","","","","","","","","","","",""
"","","","ratingFB","63d80b500adef5b476e289a4","bdp_trlrn","Mon Mar 13 2023 14:36:54 GMT-0400 (Eastern Daylight Time)","427435","Untrustworthy,Trustworthy","image-keyboard-response","65","56149","0.0-6.0-2.29","","null","","trustrating_stim/white_00299_940422_fa_edt.bmp","null","","","","","","","","","","",""
"","","","rating","63d80b500adef5b476e289a4","bdp_trlrn","Mon Mar 13 2023 14:36:54 GMT-0400 (Eastern Daylight Time)","427435","Untrustworthy,Trustworthy","image-keyboard-response","66","56945","0.0-6.0-1.30","","692","","trustrating_stim/white_00577_940928_fa_edt.bmp","4","","","","","","","","","","",""
"","","","ratingFB","63d80b500adef5b476e289a4","bdp_trlrn","Mon Mar 13 2023 14:36:54 GMT-0400 (Eastern Daylight Time)","427435","Untrustworthy,Trustworthy","image-keyboard-response","67","57149","0.0-6.0-2.30","","null","","trustrating_stim/white_00577_940928_fa_edt.bmp","null","","","","","","","","","","",""
"","","","rating","63d80b500adef5b476e289a4","bdp_trlrn","Mon Mar 13 2023 14:36:54 GMT-0400 (Eastern Daylight Time)","427435","Untrustworthy,Trustworthy","image-keyboard-response","68","58023","0.0-6.0-1.31","","767","","trustrating_stim/white_mw084.bmp","4","","","","","","","","","","",""
"","","","ratingFB","63d80b500adef5b476e289a4","bdp_trlrn","Mon Mar 13 2023 14:36:54 GMT-0400 (Eastern Daylight Time)","427435","Untrustworthy,Trustworthy","image-keyboard-response","69","58226","0.0-6.0-2.31","","null","","trustrating_stim/white_mw084.bmp","null","","","","","","","","","","",""
"","","","rating","63d80b500adef5b476e289a4","bdp_trlrn","Mon Mar 13 2023 14:36:54 GMT-0400 (Eastern Daylight Time)","427435","Untrustworthy,Trustworthy","image-keyboard-response","70","59475","0.0-6.0-1.32","","1143","","trustrating_stim/white_mw060.bmp","4","","","","","","","","","","",""
"","","","ratingFB","63d80b500adef5b476e289a4","bdp_trlrn","Mon Mar 13 2023 14:36:54 GMT-0400 (Eastern Daylight Time)","427435","Untrustworthy,Trustworthy","image-keyboard-response","71","59680","0.0-6.0-2.32","","null","","trustrating_stim/white_mw060.bmp","null","","","","","","","","","","",""
"","","","rating","63d80b500adef5b476e289a4","bdp_trlrn","Mon Mar 13 2023 14:36:54 GMT-0400 (Eastern Daylight Time)","427435","Untrustworthy,Trustworthy","image-keyboard-response","72","60724","0.0-6.0-1.33","","935","","trustrating_stim/white_mw066.bmp","5","","","","","","","","","","",""
"","","","ratingFB","63d80b500adef5b476e289a4","bdp_trlrn","Mon Mar 13 2023 14:36:54 GMT-0400 (Eastern Daylight Time)","427435","Untrustworthy,Trustworthy","image-keyboard-response","73","60930","0.0-6.0-2.33","","null","","trustrating_stim/white_mw066.bmp","null","","","","","","","","","","",""
"","","","rating","63d80b500adef5b476e289a4","bdp_trlrn","Mon Mar 13 2023 14:36:54 GMT-0400 (Eastern Daylight Time)","427435","Untrustworthy,Trustworthy","image-keyboard-response","74","62967","0.0-6.0-1.34","","1932","","trustrating_stim/white_mw046.bmp","5","","","","","","","","","","",""
"","","","ratingFB","63d80b500adef5b476e289a4","bdp_trlrn","Mon Mar 13 2023 14:36:54 GMT-0400 (Eastern Daylight Time)","427435","Untrustworthy,Trustworthy","image-keyboard-response","75","63171","0.0-6.0-2.34","","null","","trustrating_stim/white_mw046.bmp","null","","","","","","","","","","",""
"","","","rating","63d80b500adef5b476e289a4","bdp_trlrn","Mon Mar 13 2023 14:36:54 GMT-0400 (Eastern Daylight Time)","427435","Untrustworthy,Trustworthy","image-keyboard-response","76","64167","0.0-6.0-1.35","","888","","trustrating_stim/white_mw048.bmp","4","","","","","","","","","","",""
"","","","ratingFB","63d80b500adef5b476e289a4","bdp_trlrn","Mon Mar 13 2023 14:36:54 GMT-0400 (Eastern Daylight Time)","427435","Untrustworthy,Trustworthy","image-keyboard-response","77","64370","0.0-6.0-2.35","","null","","trustrating_stim/white_mw048.bmp","null","","","","","","","","","","",""
"","","","rating","63d80b500adef5b476e289a4","bdp_trlrn","Mon Mar 13 2023 14:36:54 GMT-0400 (Eastern Daylight Time)","427435","Untrustworthy,Trustworthy","image-keyboard-response","78","65347","0.0-6.0-1.36","","874","","trustrating_stim/white_00807_941205_fb_edt.bmp","6","","","","","","","","","","",""
"","","","ratingFB","63d80b500adef5b476e289a4","bdp_trlrn","Mon Mar 13 2023 14:36:54 GMT-0400 (Eastern Daylight Time)","427435","Untrustworthy,Trustworthy","image-keyboard-response","79","65550","0.0-6.0-2.36","","null","","trustrating_stim/white_00807_941205_fb_edt.bmp","null","","","","","","","","","","",""
"","","","rating","63d80b500adef5b476e289a4","bdp_trlrn","Mon Mar 13 2023 14:36:54 GMT-0400 (Eastern Daylight Time)","427435","Untrustworthy,Trustworthy","image-keyboard-response","80","66484","0.0-6.0-1.37","","829","","trustrating_stim/white_00519_940519_fb_edt.bmp","5","","","","","","","","","","",""
"","","","ratingFB","63d80b500adef5b476e289a4","bdp_trlrn","Mon Mar 13 2023 14:36:54 GMT-0400 (Eastern Daylight Time)","427435","Untrustworthy,Trustworthy","image-keyboard-response","81","66685","0.0-6.0-2.37","","null","","trustrating_stim/white_00519_940519_fb_edt.bmp","null","","","","","","","","","","",""
"","","","rating","63d80b500adef5b476e289a4","bdp_trlrn","Mon Mar 13 2023 14:36:54 GMT-0400 (Eastern Daylight Time)","427435","Untrustworthy,Trustworthy","image-keyboard-response","82","67802","0.0-6.0-1.38","","1009","","trustrating_stim/white_00785_941205_fb_edt.bmp","5","","","","","","","","","","",""
"","","","ratingFB","63d80b500adef5b476e289a4","bdp_trlrn","Mon Mar 13 2023 14:36:54 GMT-0400 (Eastern Daylight Time)","427435","Untrustworthy,Trustworthy","image-keyboard-response","83","68006","0.0-6.0-2.38","","null","","trustrating_stim/white_00785_941205_fb_edt.bmp","null","","","","","","","","","","",""
"","","","rating","63d80b500adef5b476e289a4","bdp_trlrn","Mon Mar 13 2023 14:36:54 GMT-0400 (Eastern Daylight Time)","427435","Untrustworthy,Trustworthy","image-keyboard-response","84","68992","0.0-6.0-1.39","","882","","trustrating_stim/white_00299_940422_fa_edt.bmp","5","","","","","","","","","","",""
"","","","ratingFB","63d80b500adef5b476e289a4","bdp_trlrn","Mon Mar 13 2023 14:36:54 GMT-0400 (Eastern Daylight Time)","427435","Untrustworthy,Trustworthy","image-keyboard-response","85","69196","0.0-6.0-2.39","","null","","trustrating_stim/white_00299_940422_fa_edt.bmp","null","","","","","","","","","","",""
"","","","rating","63d80b500adef5b476e289a4","bdp_trlrn","Mon Mar 13 2023 14:36:54 GMT-0400 (Eastern Daylight Time)","427435","Untrustworthy,Trustworthy","image-keyboard-response","86","70261","0.0-6.0-1.40","","961","","trustrating_stim/white_00109_931230_fa_edt.bmp","5","","","","","","","","","","",""
"","","","ratingFB","63d80b500adef5b476e289a4","bdp_trlrn","Mon Mar 13 2023 14:36:54 GMT-0400 (Eastern Daylight Time)","427435","Untrustworthy,Trustworthy","image-keyboard-response","87","70465","0.0-6.0-2.40","","null","","trustrating_stim/white_00109_931230_fa_edt.bmp","null","","","","","","","","","","",""
"","","","rating","63d80b500adef5b476e289a4","bdp_trlrn","Mon Mar 13 2023 14:36:54 GMT-0400 (Eastern Daylight Time)","427435","Untrustworthy,Trustworthy","image-keyboard-response","88","71475","0.0-6.0-1.41","","903","","trustrating_stim/white_mw035.bmp","5","","","","","","","","","","",""
"","","","ratingFB","63d80b500adef5b476e289a4","bdp_trlrn","Mon Mar 13 2023 14:36:54 GMT-0400 (Eastern Daylight Time)","427435","Untrustworthy,Trustworthy","image-keyboard-response","89","71679","0.0-6.0-2.41","","null","","trustrating_stim/white_mw035.bmp","null","","","","","","","","","","",""
"","","","rating","63d80b500adef5b476e289a4","bdp_trlrn","Mon Mar 13 2023 14:36:54 GMT-0400 (Eastern Daylight Time)","427435","Untrustworthy,Trustworthy","image-keyboard-response","90","72446","0.0-6.0-1.42","","660","","trustrating_stim/white_00757_941201_fa_edt.bmp","5","","","","","","","","","","",""
"","","","ratingFB","63d80b500adef5b476e289a4","bdp_trlrn","Mon Mar 13 2023 14:36:54 GMT-0400 (Eastern Daylight Time)","427435","Untrustworthy,Trustworthy","image-keyboard-response","91","72650","0.0-6.0-2.42","","null","","trustrating_stim/white_00757_941201_fa_edt.bmp","null","","","","","","","","","","",""
"","","","rating","63d80b500adef5b476e289a4","bdp_trlrn","Mon Mar 13 2023 14:36:54 GMT-0400 (Eastern Daylight Time)","427435","Untrustworthy,Trustworthy","image-keyboard-response","92","73499","0.0-6.0-1.43","","745","","trustrating_stim/white_00602_940928_fb_edt.bmp","5","","","","","","","","","","",""
"","","","ratingFB","63d80b500adef5b476e289a4","bdp_trlrn","Mon Mar 13 2023 14:36:54 GMT-0400 (Eastern Daylight Time)","427435","Untrustworthy,Trustworthy","image-keyboard-response","93","73704","0.0-6.0-2.43","","null","","trustrating_stim/white_00602_940928_fb_edt.bmp","null","","","","","","","","","","",""
"","","","rating","63d80b500adef5b476e289a4","bdp_trlrn","Mon Mar 13 2023 14:36:54 GMT-0400 (Eastern Daylight Time)","427435","Untrustworthy,Trustworthy","image-keyboard-response","94","74660","0.0-6.0-1.44","","853","","trustrating_stim/white_00223_940128_fb_edt.bmp","4","","","","","","","","","","",""
"","","","ratingFB","63d80b500adef5b476e289a4","bdp_trlrn","Mon Mar 13 2023 14:36:54 GMT-0400 (Eastern Daylight Time)","427435","Untrustworthy,Trustworthy","image-keyboard-response","95","74863","0.0-6.0-2.44","","null","","trustrating_stim/white_00223_940128_fb_edt.bmp","null","","","","","","","","","","",""
"","","","rating","63d80b500adef5b476e289a4","bdp_trlrn","Mon Mar 13 2023 14:36:54 GMT-0400 (Eastern Daylight Time)","427435","Untrustworthy,Trustworthy","image-keyboard-response","96","75684","0.0-6.0-1.45","","717","","trustrating_stim/white_mw099.bmp","5","","","","","","","","","","",""
"","","","ratingFB","63d80b500adef5b476e289a4","bdp_trlrn","Mon Mar 13 2023 14:36:54 GMT-0400 (Eastern Daylight Time)","427435","Untrustworthy,Trustworthy","image-keyboard-response","97","75887","0.0-6.0-2.45","","null","","trustrating_stim/white_mw099.bmp","null","","","","","","","","","","",""
"","","","rating","63d80b500adef5b476e289a4","bdp_trlrn","Mon Mar 13 2023 14:36:54 GMT-0400 (Eastern Daylight Time)","427435","Untrustworthy,Trustworthy","image-keyboard-response","98","76779","0.0-6.0-1.46","","785","","trustrating_stim/white_mw049.bmp","4","","","","","","","","","","",""
"","","","ratingFB","63d80b500adef5b476e289a4","bdp_trlrn","Mon Mar 13 2023 14:36:54 GMT-0400 (Eastern Daylight Time)","427435","Untrustworthy,Trustworthy","image-keyboard-response","99","76984","0.0-6.0-2.46","","null","","trustrating_stim/white_mw049.bmp","null","","","","","","","","","","",""
"","","","rating","63d80b500adef5b476e289a4","bdp_trlrn","Mon Mar 13 2023 14:36:54 GMT-0400 (Eastern Daylight Time)","427435","Untrustworthy,Trustworthy","image-keyboard-response","100","77729","0.0-6.0-1.47","","641","","trustrating_stim/white_00340_940422_fa_edt.bmp","5","","","","","","","","","","",""
"","","","ratingFB","63d80b500adef5b476e289a4","bdp_trlrn","Mon Mar 13 2023 14:36:54 GMT-0400 (Eastern Daylight Time)","427435","Untrustworthy,Trustworthy","image-keyboard-response","101","77932","0.0-6.0-2.47","","null","","trustrating_stim/white_00340_940422_fa_edt.bmp","null","","","","","","","","","","",""
"","","","rating","63d80b500adef5b476e289a4","bdp_trlrn","Mon Mar 13 2023 14:36:54 GMT-0400 (Eastern Daylight Time)","427435","Untrustworthy,Trustworthy","image-keyboard-response","102","78783","0.0-6.0-1.48","","744","","trustrating_stim/white_mw089.bmp","4","","","","","","","","","","",""
"","","","ratingFB","63d80b500adef5b476e289a4","bdp_trlrn","Mon Mar 13 2023 14:36:54 GMT-0400 (Eastern Daylight Time)","427435","Untrustworthy,Trustworthy","image-keyboard-response","103","78986","0.0-6.0-2.48","","null","","trustrating_stim/white_mw089.bmp","null","","","","","","","","","","",""
"","","","rating","63d80b500adef5b476e289a4","bdp_trlrn","Mon Mar 13 2023 14:36:54 GMT-0400 (Eastern Daylight Time)","427435","Untrustworthy,Trustworthy","image-keyboard-response","104","79969","0.0-6.0-1.49","","878","","trustrating_stim/white_mw033.bmp","4","","","","","","","","","","",""
"","","","ratingFB","63d80b500adef5b476e289a4","bdp_trlrn","Mon Mar 13 2023 14:36:54 GMT-0400 (Eastern Daylight Time)","427435","Untrustworthy,Trustworthy","image-keyboard-response","105","80172","0.0-6.0-2.49","","null","","trustrating_stim/white_mw033.bmp","null","","","","","","","","","","",""
"","","","rating","63d80b500adef5b476e289a4","bdp_trlrn","Mon Mar 13 2023 14:36:54 GMT-0400 (Eastern Daylight Time)","427435","Untrustworthy,Trustworthy","image-keyboard-response","106","81236","0.0-6.0-1.50","","957","","trustrating_stim/white_mw053.bmp","6","","","","","","","","","","",""
"","","","ratingFB","63d80b500adef5b476e289a4","bdp_trlrn","Mon Mar 13 2023 14:36:54 GMT-0400 (Eastern Daylight Time)","427435","Untrustworthy,Trustworthy","image-keyboard-response","107","81441","0.0-6.0-2.50","","null","","trustrating_stim/white_mw053.bmp","null","","","","","","","","","","",""
"","","","rating","63d80b500adef5b476e289a4","bdp_trlrn","Mon Mar 13 2023 14:36:54 GMT-0400 (Eastern Daylight Time)","427435","Untrustworthy,Trustworthy","image-keyboard-response","108","82351","0.0-6.0-1.51","","805","","trustrating_stim/white_00129_931230_fb_edt.bmp","5","","","","","","","","","","",""
"","","","ratingFB","63d80b500adef5b476e289a4","bdp_trlrn","Mon Mar 13 2023 14:36:54 GMT-0400 (Eastern Daylight Time)","427435","Untrustworthy,Trustworthy","image-keyboard-response","109","82555","0.0-6.0-2.51","","null","","trustrating_stim/white_00129_931230_fb_edt.bmp","null","","","","","","","","","","",""
"","","","rating","63d80b500adef5b476e289a4","bdp_trlrn","Mon Mar 13 2023 14:36:54 GMT-0400 (Eastern Daylight Time)","427435","Untrustworthy,Trustworthy","image-keyboard-response","110","83559","0.0-6.0-1.52","","897","","trustrating_stim/white_00120_931230_fa_edt.bmp","6","","","","","","","","","","",""
"","","","ratingFB","63d80b500adef5b476e289a4","bdp_trlrn","Mon Mar 13 2023 14:36:54 GMT-0400 (Eastern Daylight Time)","427435","Untrustworthy,Trustworthy","image-keyboard-response","111","83762","0.0-6.0-2.52","","null","","trustrating_stim/white_00120_931230_fa_edt.bmp","null","","","","","","","","","","",""
"","","","rating","63d80b500adef5b476e289a4","bdp_trlrn","Mon Mar 13 2023 14:36:54 GMT-0400 (Eastern Daylight Time)","427435","Untrustworthy,Trustworthy","image-keyboard-response","112","84628","0.0-6.0-1.53","","757","","trustrating_stim/white_mw056.bmp","5","","","","","","","","","","",""
"","","","ratingFB","63d80b500adef5b476e289a4","bdp_trlrn","Mon Mar 13 2023 14:36:54 GMT-0400 (Eastern Daylight Time)","427435","Untrustworthy,Trustworthy","image-keyboard-response","113","84831","0.0-6.0-2.53","","null","","trustrating_stim/white_mw056.bmp","null","","","","","","","","","","",""
"","","","rating","63d80b500adef5b476e289a4","bdp_trlrn","Mon Mar 13 2023 14:36:54 GMT-0400 (Eastern Daylight Time)","427435","Untrustworthy,Trustworthy","image-keyboard-response","114","85780","0.0-6.0-1.54","","845","","trustrating_stim/white_mw063.bmp","5","","","","","","","","","","",""
"","","","ratingFB","63d80b500adef5b476e289a4","bdp_trlrn","Mon Mar 13 2023 14:36:54 GMT-0400 (Eastern Daylight Time)","427435","Untrustworthy,Trustworthy","image-keyboard-response","115","85985","0.0-6.0-2.54","","null","","trustrating_stim/white_mw063.bmp","null","","","","","","","","","","",""
"","","","rating","63d80b500adef5b476e289a4","bdp_trlrn","Mon Mar 13 2023 14:36:54 GMT-0400 (Eastern Daylight Time)","427435","Untrustworthy,Trustworthy","image-keyboard-response","116","86952","0.0-6.0-1.55","","865","","trustrating_stim/white_00659_941121_fa_edt.bmp","5","","","","","","","","","","",""
"","","","ratingFB","63d80b500adef5b476e289a4","bdp_trlrn","Mon Mar 13 2023 14:36:54 GMT-0400 (Eastern Daylight Time)","427435","Untrustworthy,Trustworthy","image-keyboard-response","117","87155","0.0-6.0-2.55","","null","","trustrating_stim/white_00659_941121_fa_edt.bmp","null","","","","","","","","","","",""
"","","","rating","63d80b500adef5b476e289a4","bdp_trlrn","Mon Mar 13 2023 14:36:54 GMT-0400 (Eastern Daylight Time)","427435","Untrustworthy,Trustworthy","image-keyboard-response","118","88153","0.0-6.0-1.56","","891","","trustrating_stim/white_00898_960530_fa_edt.bmp","6","","","","","","","","","","",""
"","","","ratingFB","63d80b500adef5b476e289a4","bdp_trlrn","Mon Mar 13 2023 14:36:54 GMT-0400 (Eastern Daylight Time)","427435","Untrustworthy,Trustworthy","image-keyboard-response","119","88357","0.0-6.0-2.56","","null","","trustrating_stim/white_00898_960530_fa_edt.bmp","null","","","","","","","","","","",""
"","","","rating","63d80b500adef5b476e289a4","bdp_trlrn","Mon Mar 13 2023 14:36:54 GMT-0400 (Eastern Daylight Time)","427435","Untrustworthy,Trustworthy","image-keyboard-response","120","89617","0.0-6.0-1.57","","1157","","trustrating_stim/white_mw097.bmp","5","","","","","","","","","","",""
"","","","ratingFB","63d80b500adef5b476e289a4","bdp_trlrn","Mon Mar 13 2023 14:36:54 GMT-0400 (Eastern Daylight Time)","427435","Untrustworthy,Trustworthy","image-keyboard-response","121","89820","0.0-6.0-2.57","","null","","trustrating_stim/white_mw097.bmp","null","","","","","","","","","","",""
"","","","rating","63d80b500adef5b476e289a4","bdp_trlrn","Mon Mar 13 2023 14:36:54 GMT-0400 (Eastern Daylight Time)","427435","Untrustworthy,Trustworthy","image-keyboard-response","122","91081","0.0-6.0-1.58","","1153","","trustrating_stim/white_00761_941201_fb_edt.bmp","5","","","","","","","","","","",""
"","","","ratingFB","63d80b500adef5b476e289a4","bdp_trlrn","Mon Mar 13 2023 14:36:54 GMT-0400 (Eastern Daylight Time)","427435","Untrustworthy,Trustworthy","image-keyboard-response","123","91283","0.0-6.0-2.58","","null","","trustrating_stim/white_00761_941201_fb_edt.bmp","null","","","","","","","","","","",""
"","","","rating","63d80b500adef5b476e289a4","bdp_trlrn","Mon Mar 13 2023 14:36:54 GMT-0400 (Eastern Daylight Time)","427435","Untrustworthy,Trustworthy","image-keyboard-response","124","92055","0.0-6.0-1.59","","668","","trustrating_stim/white_mw071.bmp","5","","","","","","","","","","",""
"","","","ratingFB","63d80b500adef5b476e289a4","bdp_trlrn","Mon Mar 13 2023 14:36:54 GMT-0400 (Eastern Daylight Time)","427435","Untrustworthy,Trustworthy","image-keyboard-response","125","92260","0.0-6.0-2.59","","null","","trustrating_stim/white_mw071.bmp","null","","","","","","","","","","",""
"","","","","63d80b500adef5b476e289a4","bdp_trlrn","Mon Mar 13 2023 14:36:54 GMT-0400 (Eastern Daylight Time)","427435","Untrustworthy,Trustworthy","instructions","126","93612","0.0-7.0","[{""page_index"":0,""viewing_time"":1245}]","1246","","","","","","","","","","","","","",""
"","","","","63d80b500adef5b476e289a4","bdp_trlrn","Mon Mar 13 2023 14:36:54 GMT-0400 (Eastern Daylight Time)","427435","Untrustworthy,Trustworthy","instructions","127","150031","0.0-8.0","[{""page_index"":0,""viewing_time"":12932},{""page_index"":1,""viewing_time"":5195},{""page_index"":2,""viewing_time"":4858},{""page_index"":3,""viewing_time"":7014},{""page_index"":4,""viewing_time"":1932},{""page_index"":5,""viewing_time"":5498},{""page_index"":6,""viewing_time"":14576},{""page_index"":7,""viewing_time"":4309}]","56314","","","","","","","","","","","","","",""
"","","","","63d80b500adef5b476e289a4","bdp_trlrn","Mon Mar 13 2023 14:36:54 GMT-0400 (Eastern Daylight Time)","427435","Untrustworthy,Trustworthy","html-keyboard-response","128","153316","0.0-9.0","","3283","","<div class='header' style='text-align:left; position: absolute; top: 5%; left: 5%;'><small>Task 3 of 5</small></div><div class='instruxDiv'><p><strong>1) What is the minimum number of points you can choose to send to your partner?</strong></p><p>a) 0</p><p>b) 1</p><p>c) 5</p>","C","","","","","","","","","","",""
"","","","","63d80b500adef5b476e289a4","bdp_trlrn","Mon Mar 13 2023 14:36:54 GMT-0400 (Eastern Daylight Time)","427435","Untrustworthy,Trustworthy","html-keyboard-response","129","156971","0.0-10.0","","3550","","<div class='header' style='text-align:left; position: absolute; top: 5%; left: 5%;'><small>Task 3 of 5</small></div><div class='instruxDiv'><p><strong>1) What is the minimum number of points you can choose to send to your partner?</strong></p><p>a) 1</p><p>b) 1</p><p style='color:#FF0000'>c) 5</p><h3 style='color:#FF0000'>Incorrect!</h3><h3 class='center-content'>The correct response is b).</h3><h3 class='center-content'>The minimum number of points you can choose to send to your partner is 1 point.</h3><p><em>Press SPACEBAR to continue</em></p></div>"," ","","","","","","","","","","",""
"","","","","63d80b500adef5b476e289a4","bdp_trlrn","Mon Mar 13 2023 14:36:54 GMT-0400 (Eastern Daylight Time)","427435","Untrustworthy,Trustworthy","html-keyboard-response","130","161019","0.0-11.0","","3947","","<div class='header' style='text-align:left; position: absolute; top: 5%; left: 5%;'><small>Task 3 of 5</small></div><div class='instruxDiv'><p><strong>2) What is the maximum number of points you can choose to send to your partner?</strong></p><p>a) 8</p><p>b) 5</p><p>c) 3</p>","B","","","","","","","","","","",""
"","","","","63d80b500adef5b476e289a4","bdp_trlrn","Mon Mar 13 2023 14:36:54 GMT-0400 (Eastern Daylight Time)","427435","Untrustworthy,Trustworthy","html-keyboard-response","131","161779","0.0-12.0","","657","","<div class='header' style='text-align:left; position: absolute; top: 5%; left: 5%;'><small>Task 3 of 5</small></div><div class='instruxDiv'><p><strong>2) What is the maximum number of points you can choose to send to your partner?</strong></p><p>a) 8</p><p style='color:#00FF00'>b) 5</p><p>c) 3</p><h3 style='color:#00FF00'>Correct!</h3><h3 class='center-content'>The correct response is b).</h3><h3 class='center-content'>The maximum number of points you can choose to send to your partner is 5 points.</h3><p><em>Press SPACEBAR to continue</em></p></div>"," ","","","","","","","","","","",""
"","","","","63d80b500adef5b476e289a4","bdp_trlrn","Mon Mar 13 2023 14:36:54 GMT-0400 (Eastern Daylight Time)","427435","Untrustworthy,Trustworthy","html-keyboard-response","132","165010","0.0-13.0","","3127","","<div class='header' style='text-align:left; position: absolute; top: 5%; left: 5%;'><small>Task 3 of 5</small></div><div class='instruxDiv'><p><strong>3) What happens to the amount of points you send to your partner?</strong></p><p>a) Nothing</p><p>b) It doubles</p><p>c) It quadruples</p>","C","","","","","","","","","","",""
"","","","","63d80b500adef5b476e289a4","bdp_trlrn","Mon Mar 13 2023 14:36:54 GMT-0400 (Eastern Daylight Time)","427435","Untrustworthy,Trustworthy","html-keyboard-response","133","166090","0.0-14.0","","973","","<div class='header' style='text-align:left; position: absolute; top: 5%; left: 5%;'><small>Task 3 of 5</small></div><div class='instruxDiv'><p><strong>3) What happens to the amount of points you send to your partner?</strong></p><p>a) Nothing</p><p>b) It doubles</p><p style='color:#00FF00'>c) It quadruples</p><h3 style='color:#00FF00'>Correct!</h3><h3 class='center-content'>The correct response is c).</h3><h3 class='center-content'>The amount of points you send to your partner quadruples.</h3><p><em>Press SPACEBAR to continue</em></p></div>"," ","","","","","","","","","","",""
"","","","","63d80b500adef5b476e289a4","bdp_trlrn","Mon Mar 13 2023 14:36:54 GMT-0400 (Eastern Daylight Time)","427435","Untrustworthy,Trustworthy","html-keyboard-response","134","175088","0.0-15.0","","8892","","<div class='header' style='text-align:left; position: absolute; top: 5%; left: 5%;'><small>Task 3 of 5</small></div><div class='instruxDiv'><p><strong>4) If you decided to share 4 out of 5 points with your partner, and they decided to share half of the amount they received with you, how many points would you receive back from them on this round?</strong></p><p>a) 16</p><p>b) 0</p><p>c) 8</p>","C","","","","","","","","","","",""
"","","","","63d80b500adef5b476e289a4","bdp_trlrn","Mon Mar 13 2023 14:36:54 GMT-0400 (Eastern Daylight Time)","427435","Untrustworthy,Trustworthy","html-keyboard-response","135","175838","0.0-16.0","","644","","<div class='header' style='text-align:left; position: absolute; top: 5%; left: 5%;'><small>Task 3 of 5</small></div><div class='instruxDiv'><p><strong>4) If you decided to share 4 out of 5 points with your partner, and they decided to share half of the amount they received with you, how many points would you receive back from them on this round?</strong></p><p>a) 16</p><p>b) 0</p><p style='color:#00FF00'>c) 8</p><h3 style='color:#00FF00'>Correct!</h3><h3 class='center-content'>The correct response is c).</h3><h3 class='center-content'>If you shared 4 out of 5 points with your partner and they decided to share half of the amount they received with you, you would receive 8 points back (i.e. (4 x 4)/2 = 8).</h3><p><em>Press SPACEBAR to continue</em></p></div>"," ","","","","","","","","","","",""
"","","","","63d80b500adef5b476e289a4","bdp_trlrn","Mon Mar 13 2023 14:36:54 GMT-0400 (Eastern Daylight Time)","427435","Untrustworthy,Trustworthy","html-keyboard-response","136","180950","0.0-17.0","","null","","<div class='header' style='text-align:left; position: absolute; top: 5%; left: 5%;'><small>Task 3 of 5</small></div><div class='instruxDiv'><p>Thank you for completing the quiz<p>These are the actual partners you will be interacting with in the next block:<p><div class='tc' align='center'><img class='introPic' src='trustrating_stim/white_00223_940128_fb_edt.bmp'><br><strong>Aaron</strong></div><div class='bl' align='center'><img class='introPic' src='trustrating_stim/white_mw046.bmp'><br><strong>Matthew</strong></div><div class='br' align='center'><img class='introPic' src='trustrating_stim/white_00898_960530_fa_edt.bmp'><br><strong>Chris</strong></div></div><p>Across <strong>66 rounds</strong> you will interact with each partner <strong>22 times</strong> (in random order).<p style='align:center; color:white'><font <em>Press SPACEBAR to continue</em></p>","null","","","","","","","","","","",""
"","","","","63d80b500adef5b476e289a4","bdp_trlrn","Mon Mar 13 2023 14:36:54 GMT-0400 (Eastern Daylight Time)","427435","Untrustworthy,Trustworthy","instructions","137","183162","0.0-18.0","[{""page_index"":0,""viewing_time"":606},{""page_index"":1,""viewing_time"":1605}]","2211","","","","","","","","","","","","","",""
"","","","decision","63d80b500adef5b476e289a4","bdp_trlrn","Mon Mar 13 2023 14:36:54 GMT-0400 (Eastern Daylight Time)","427435","Untrustworthy,Trustworthy","html-keyboard-response","138","186972","0.0-19.0-1.0","","3705","","<div class='trialDiv'><img src='trustrating_stim/white_00223_940128_fb_edt.bmp'><br><font class='baseline'><strong>Aaron</strong><p>Choose number of points to send.</font><div class='respPicDiv'><img src='img/responseButtonOffersNo0L.png' class='respPic'></div></div>","5","1","Aaron","1","Kept","0.35,0.8","8","0.35","trustrating_stim/white_00223_940128_fb_edt.bmp","4","5","1"
"","","","decisionFB","63d80b500adef5b476e289a4","bdp_trlrn","Mon Mar 13 2023 14:36:54 GMT-0400 (Eastern Daylight Time)","427435","Untrustworthy,Trustworthy","html-keyboard-response","139","187227","0.0-19.0-2.0","","null","","<div class='trialDiv'><img src='trustrating_stim/white_00223_940128_fb_edt.bmp'><br><font class='baseline'><strong>Aaron</strong><p>Choose number of points to send.</font><div class='respPicDiv'><img src='img/responseButtonOffersNo0L5.png' class='respPic'></div></div>","null","1","Aaron","1","Kept","0.35,0.8","8","0.35","trustrating_stim/white_00223_940128_fb_edt.bmp","4","0","1"
"","","","feedback","63d80b500adef5b476e289a4","bdp_trlrn","Mon Mar 13 2023 14:36:54 GMT-0400 (Eastern Daylight Time)","427435","Untrustworthy,Trustworthy","html-keyboard-response","140","188233","0.0-19.0-3.0","","null","","<div class='trialDiv'><img src='trustrating_stim/white_00223_940128_fb_edt.bmp'><br><font class='baseline'><strong>Aaron</strong><p>Received: <strong>20</strong></font> &nbsp; &nbsp; &nbsp; &nbsp; &nbsp; &nbsp;<font class='negOutcome'>Shared back: <strong>0</strong></font></font><div class='respPicDiv'><img src='img/responseButtonOffersNo0_wht.png' class='respPic'></div></div>","null","1","Aaron","1","Kept","0.35,0.8","8","0.35","trustrating_stim/white_00223_940128_fb_edt.bmp","4","0","1"
"","","","decision","63d80b500adef5b476e289a4","bdp_trlrn","Mon Mar 13 2023 14:36:54 GMT-0400 (Eastern Daylight Time)","427435","Untrustworthy,Trustworthy","html-keyboard-response","141","188326","0.0-19.0-1.1","","92","","<div class='trialDiv'><img src='trustrating_stim/white_mw046.bmp'><br><font class='baseline'><strong>Matthew</strong><p>Choose number of points to send.</font><div class='respPicDiv'><img src='img/responseButtonOffersNo0L.png' class='respPic'></div></div>","5","1","Matthew","4","Shared","0.2,0.8","8","0.2","trustrating_stim/white_mw046.bmp","4.5","5","2"
"","","","decisionFB","63d80b500adef5b476e289a4","bdp_trlrn","Mon Mar 13 2023 14:36:54 GMT-0400 (Eastern Daylight Time)","427435","Untrustworthy,Trustworthy","html-keyboard-response","142","188579","0.0-19.0-2.1","","null","","<div class='trialDiv'><img src='trustrating_stim/white_mw046.bmp'><br><font class='baseline'><strong>Matthew</strong><p>Choose number of points to send.</font><div class='respPicDiv'><img src='img/responseButtonOffersNo0L5.png' class='respPic'></div></div>","null","1","Matthew","4","Shared","0.2,0.8","8","0.2","trustrating_stim/white_mw046.bmp","4.5","0","2"
"","","","feedback","63d80b500adef5b476e289a4","bdp_trlrn","Mon Mar 13 2023 14:36:54 GMT-0400 (Eastern Daylight Time)","427435","Untrustworthy,Trustworthy","html-keyboard-response","143","189584","0.0-19.0-3.1","","null","","<div class='trialDiv'><img src='trustrating_stim/white_mw046.bmp'><br><font class='baseline'><strong>Matthew</strong><p>Received: <strong>20</strong></font> &nbsp; &nbsp; &nbsp; &nbsp; &nbsp; &nbsp;<font class='posOutcome'>Shared back: <strong>10</strong></font></font><div class='respPicDiv'><img src='img/responseButtonOffersNo0_wht.png' class='respPic'></div></div>","null","1","Matthew","4","Shared","0.2,0.8","8","0.2","trustrating_stim/white_mw046.bmp","4.5","10","2"
"","","","decision","63d80b500adef5b476e289a4","bdp_trlrn","Mon Mar 13 2023 14:36:54 GMT-0400 (Eastern Daylight Time)","427435","Untrustworthy,Trustworthy","html-keyboard-response","144","190097","0.0-19.0-1.2","","511","","<div class='trialDiv'><img src='trustrating_stim/white_00898_960530_fa_edt.bmp'><br><font class='baseline'><strong>Chris</strong><p>Choose number of points to send.</font><div class='respPicDiv'><img src='img/responseButtonOffersNo0L.png' class='respPic'></div></div>","5","1","Chris","8","Kept","0.65,0.2","8","0.65","trustrating_stim/white_00898_960530_fa_edt.bmp","5.5","15","3"
"","","","decisionFB","63d80b500adef5b476e289a4","bdp_trlrn","Mon Mar 13 2023 14:36:54 GMT-0400 (Eastern Daylight Time)","427435","Untrustworthy,Trustworthy","html-keyboard-response","145","190353","0.0-19.0-2.2","","null","","<div class='trialDiv'><img src='trustrating_stim/white_00898_960530_fa_edt.bmp'><br><font class='baseline'><strong>Chris</strong><p>Choose number of points to send.</font><div class='respPicDiv'><img src='img/responseButtonOffersNo0L5.png' class='respPic'></div></div>","null","1","Chris","8","Kept","0.65,0.2","8","0.65","trustrating_stim/white_00898_960530_fa_edt.bmp","5.5","10","3"
"","","","feedback","63d80b500adef5b476e289a4","bdp_trlrn","Mon Mar 13 2023 14:36:54 GMT-0400 (Eastern Daylight Time)","427435","Untrustworthy,Trustworthy","html-keyboard-response","146","191358","0.0-19.0-3.2","","null","","<div class='trialDiv'><img src='trustrating_stim/white_00898_960530_fa_edt.bmp'><br><font class='baseline'><strong>Chris</strong><p>Received: <strong>20</strong></font> &nbsp; &nbsp; &nbsp; &nbsp; &nbsp; &nbsp;<font class='negOutcome'>Shared back: <strong>0</strong></font></font><div class='respPicDiv'><img src='img/responseButtonOffersNo0_wht.png' class='respPic'></div></div>","null","1","Chris","8","Kept","0.65,0.2","8","0.65","trustrating_stim/white_00898_960530_fa_edt.bmp","5.5","10","3"
"","","","decision","63d80b500adef5b476e289a4","bdp_trlrn","Mon Mar 13 2023 14:36:54 GMT-0400 (Eastern Daylight Time)","427435","Untrustworthy,Trustworthy","html-keyboard-response","147","191741","0.0-19.0-1.3","","381","","<div class='trialDiv'><img src='trustrating_stim/white_mw046.bmp'><br><font class='baseline'><strong>Matthew</strong><p>Choose number of points to send.</font><div class='respPicDiv'><img src='img/responseButtonOffersNo0L.png' class='respPic'></div></div>","5","2","Matthew","4","Kept","0.2,0.8","8","0.2","trustrating_stim/white_mw046.bmp","4.5","15","4"
"","","","decisionFB","63d80b500adef5b476e289a4","bdp_trlrn","Mon Mar 13 2023 14:36:54 GMT-0400 (Eastern Daylight Time)","427435","Untrustworthy,Trustworthy","html-keyboard-response","148","191995","0.0-19.0-2.3","","null","","<div class='trialDiv'><img src='trustrating_stim/white_mw046.bmp'><br><font class='baseline'><strong>Matthew</strong><p>Choose number of points to send.</font><div class='respPicDiv'><img src='img/responseButtonOffersNo0L5.png' class='respPic'></div></div>","null","2","Matthew","4","Kept","0.2,0.8","8","0.2","trustrating_stim/white_mw046.bmp","4.5","10","4"
"","","","feedback","63d80b500adef5b476e289a4","bdp_trlrn","Mon Mar 13 2023 14:36:54 GMT-0400 (Eastern Daylight Time)","427435","Untrustworthy,Trustworthy","html-keyboard-response","149","193001","0.0-19.0-3.3","","null","","<div class='trialDiv'><img src='trustrating_stim/white_mw046.bmp'><br><font class='baseline'><strong>Matthew</strong><p>Received: <strong>20</strong></font> &nbsp; &nbsp; &nbsp; &nbsp; &nbsp; &nbsp;<font class='negOutcome'>Shared back: <strong>0</strong></font></font><div class='respPicDiv'><img src='img/responseButtonOffersNo0_wht.png' class='respPic'></div></div>","null","2","Matthew","4","Kept","0.2,0.8","8","0.2","trustrating_stim/white_mw046.bmp","4.5","10","4"
"","","","decision","63d80b500adef5b476e289a4","bdp_trlrn","Mon Mar 13 2023 14:36:54 GMT-0400 (Eastern Daylight Time)","427435","Untrustworthy,Trustworthy","html-keyboard-response","150","193315","0.0-19.0-1.4","","313","","<div class='trialDiv'><img src='trustrating_stim/white_00898_960530_fa_edt.bmp'><br><font class='baseline'><strong>Chris</strong><p>Choose number of points to send.</font><div class='respPicDiv'><img src='img/responseButtonOffersNo0L.png' class='respPic'></div></div>","5","2","Chris","8","Shared","0.65,0.2","8","0.65","trustrating_stim/white_00898_960530_fa_edt.bmp","5.5","15","5"
"","","","decisionFB","63d80b500adef5b476e289a4","bdp_trlrn","Mon Mar 13 2023 14:36:54 GMT-0400 (Eastern Daylight Time)","427435","Untrustworthy,Trustworthy","html-keyboard-response","151","193571","0.0-19.0-2.4","","null","","<div class='trialDiv'><img src='trustrating_stim/white_00898_960530_fa_edt.bmp'><br><font class='baseline'><strong>Chris</strong><p>Choose number of points to send.</font><div class='respPicDiv'><img src='img/responseButtonOffersNo0L5.png' class='respPic'></div></div>","null","2","Chris","8","Shared","0.65,0.2","8","0.65","trustrating_stim/white_00898_960530_fa_edt.bmp","5.5","10","5"
"","","","feedback","63d80b500adef5b476e289a4","bdp_trlrn","Mon Mar 13 2023 14:36:54 GMT-0400 (Eastern Daylight Time)","427435","Untrustworthy,Trustworthy","html-keyboard-response","152","194576","0.0-19.0-3.4","","null","","<div class='trialDiv'><img src='trustrating_stim/white_00898_960530_fa_edt.bmp'><br><font class='baseline'><strong>Chris</strong><p>Received: <strong>20</strong></font> &nbsp; &nbsp; &nbsp; &nbsp; &nbsp; &nbsp;<font class='posOutcome'>Shared back: <strong>10</strong></font></font><div class='respPicDiv'><img src='img/responseButtonOffersNo0_wht.png' class='respPic'></div></div>","null","2","Chris","8","Shared","0.65,0.2","8","0.65","trustrating_stim/white_00898_960530_fa_edt.bmp","5.5","20","5"
"","","","decision","63d80b500adef5b476e289a4","bdp_trlrn","Mon Mar 13 2023 14:36:54 GMT-0400 (Eastern Daylight Time)","427435","Untrustworthy,Trustworthy","html-keyboard-response","153","194938","0.0-19.0-1.5","","360","","<div class='trialDiv'><img src='trustrating_stim/white_00223_940128_fb_edt.bmp'><br><font class='baseline'><strong>Aaron</strong><p>Choose number of points to send.</font><div class='respPicDiv'><img src='img/responseButtonOffersNo0L.png' class='respPic'></div></div>","5","2","Aaron","1","Kept","0.35,0.8","8","0.35","trustrating_stim/white_00223_940128_fb_edt.bmp","4","25","6"
"","","","decisionFB","63d80b500adef5b476e289a4","bdp_trlrn","Mon Mar 13 2023 14:36:54 GMT-0400 (Eastern Daylight Time)","427435","Untrustworthy,Trustworthy","html-keyboard-response","154","195194","0.0-19.0-2.5","","null","","<div class='trialDiv'><img src='trustrating_stim/white_00223_940128_fb_edt.bmp'><br><font class='baseline'><strong>Aaron</strong><p>Choose number of points to send.</font><div class='respPicDiv'><img src='img/responseButtonOffersNo0L5.png' class='respPic'></div></div>","null","2","Aaron","1","Kept","0.35,0.8","8","0.35","trustrating_stim/white_00223_940128_fb_edt.bmp","4","20","6"
"","","","feedback","63d80b500adef5b476e289a4","bdp_trlrn","Mon Mar 13 2023 14:36:54 GMT-0400 (Eastern Daylight Time)","427435","Untrustworthy,Trustworthy","html-keyboard-response","155","196194","0.0-19.0-3.5","","null","","<div class='trialDiv'><img src='trustrating_stim/white_00223_940128_fb_edt.bmp'><br><font class='baseline'><strong>Aaron</strong><p>Received: <strong>20</strong></font> &nbsp; &nbsp; &nbsp; &nbsp; &nbsp; &nbsp;<font class='negOutcome'>Shared back: <strong>0</strong></font></font><div class='respPicDiv'><img src='img/responseButtonOffersNo0_wht.png' class='respPic'></div></div>","null","2","Aaron","1","Kept","0.35,0.8","8","0.35","trustrating_stim/white_00223_940128_fb_edt.bmp","4","20","6"
"","","","decision","63d80b500adef5b476e289a4","bdp_trlrn","Mon Mar 13 2023 14:36:54 GMT-0400 (Eastern Daylight Time)","427435","Untrustworthy,Trustworthy","html-keyboard-response","156","196583","0.0-19.0-1.6","","386","","<div class='trialDiv'><img src='trustrating_stim/white_00898_960530_fa_edt.bmp'><br><font class='baseline'><strong>Chris</strong><p>Choose number of points to send.</font><div class='respPicDiv'><img src='img/responseButtonOffersNo0L.png' class='respPic'></div></div>","5","3","Chris","8","Shared","0.65,0.2","8","0.65","trustrating_stim/white_00898_960530_fa_edt.bmp","5.5","25","7"
"","","","decisionFB","63d80b500adef5b476e289a4","bdp_trlrn","Mon Mar 13 2023 14:36:54 GMT-0400 (Eastern Daylight Time)","427435","Untrustworthy,Trustworthy","html-keyboard-response","157","196838","0.0-19.0-2.6","","null","","<div class='trialDiv'><img src='trustrating_stim/white_00898_960530_fa_edt.bmp'><br><font class='baseline'><strong>Chris</strong><p>Choose number of points to send.</font><div class='respPicDiv'><img src='img/responseButtonOffersNo0L5.png' class='respPic'></div></div>","null","3","Chris","8","Shared","0.65,0.2","8","0.65","trustrating_stim/white_00898_960530_fa_edt.bmp","5.5","20","7"
"","","","feedback","63d80b500adef5b476e289a4","bdp_trlrn","Mon Mar 13 2023 14:36:54 GMT-0400 (Eastern Daylight Time)","427435","Untrustworthy,Trustworthy","html-keyboard-response","158","197844","0.0-19.0-3.6","","null","","<div class='trialDiv'><img src='trustrating_stim/white_00898_960530_fa_edt.bmp'><br><font class='baseline'><strong>Chris</strong><p>Received: <strong>20</strong></font> &nbsp; &nbsp; &nbsp; &nbsp; &nbsp; &nbsp;<font class='posOutcome'>Shared back: <strong>10</strong></font></font><div class='respPicDiv'><img src='img/responseButtonOffersNo0_wht.png' class='respPic'></div></div>","null","3","Chris","8","Shared","0.65,0.2","8","0.65","trustrating_stim/white_00898_960530_fa_edt.bmp","5.5","30","7"
"","","","decision","63d80b500adef5b476e289a4","bdp_trlrn","Mon Mar 13 2023 14:36:54 GMT-0400 (Eastern Daylight Time)","427435","Untrustworthy,Trustworthy","html-keyboard-response","159","198210","0.0-19.0-1.7","","365","","<div class='trialDiv'><img src='trustrating_stim/white_00223_940128_fb_edt.bmp'><br><font class='baseline'><strong>Aaron</strong><p>Choose number of points to send.</font><div class='respPicDiv'><img src='img/responseButtonOffersNo0L.png' class='respPic'></div></div>","5","3","Aaron","1","Kept","0.35,0.8","8","0.35","trustrating_stim/white_00223_940128_fb_edt.bmp","4","35","8"
"","","","decisionFB","63d80b500adef5b476e289a4","bdp_trlrn","Mon Mar 13 2023 14:36:54 GMT-0400 (Eastern Daylight Time)","427435","Untrustworthy,Trustworthy","html-keyboard-response","160","198466","0.0-19.0-2.7","","null","","<div class='trialDiv'><img src='trustrating_stim/white_00223_940128_fb_edt.bmp'><br><font class='baseline'><strong>Aaron</strong><p>Choose number of points to send.</font><div class='respPicDiv'><img src='img/responseButtonOffersNo0L5.png' class='respPic'></div></div>","null","3","Aaron","1","Kept","0.35,0.8","8","0.35","trustrating_stim/white_00223_940128_fb_edt.bmp","4","30","8"
"","","","feedback","63d80b500adef5b476e289a4","bdp_trlrn","Mon Mar 13 2023 14:36:54 GMT-0400 (Eastern Daylight Time)","427435","Untrustworthy,Trustworthy","html-keyboard-response","161","199472","0.0-19.0-3.7","","null","","<div class='trialDiv'><img src='trustrating_stim/white_00223_940128_fb_edt.bmp'><br><font class='baseline'><strong>Aaron</strong><p>Received: <strong>20</strong></font> &nbsp; &nbsp; &nbsp; &nbsp; &nbsp; &nbsp;<font class='negOutcome'>Shared back: <strong>0</strong></font></font><div class='respPicDiv'><img src='img/responseButtonOffersNo0_wht.png' class='respPic'></div></div>","null","3","Aaron","1","Kept","0.35,0.8","8","0.35","trustrating_stim/white_00223_940128_fb_edt.bmp","4","30","8"
"","","","decision","63d80b500adef5b476e289a4","bdp_trlrn","Mon Mar 13 2023 14:36:54 GMT-0400 (Eastern Daylight Time)","427435","Untrustworthy,Trustworthy","html-keyboard-response","162","199761","0.0-19.0-1.8","","287","","<div class='trialDiv'><img src='trustrating_stim/white_mw046.bmp'><br><font class='baseline'><strong>Matthew</strong><p>Choose number of points to send.</font><div class='respPicDiv'><img src='img/responseButtonOffersNo0L.png' class='respPic'></div></div>","5","3","Matthew","4","Kept","0.2,0.8","8","0.2","trustrating_stim/white_mw046.bmp","4.5","35","9"
"","","","decisionFB","63d80b500adef5b476e289a4","bdp_trlrn","Mon Mar 13 2023 14:36:54 GMT-0400 (Eastern Daylight Time)","427435","Untrustworthy,Trustworthy","html-keyboard-response","163","200015","0.0-19.0-2.8","","null","","<div class='trialDiv'><img src='trustrating_stim/white_mw046.bmp'><br><font class='baseline'><strong>Matthew</strong><p>Choose number of points to send.</font><div class='respPicDiv'><img src='img/responseButtonOffersNo0L5.png' class='respPic'></div></div>","null","3","Matthew","4","Kept","0.2,0.8","8","0.2","trustrating_stim/white_mw046.bmp","4.5","30","9"
"","","","feedback","63d80b500adef5b476e289a4","bdp_trlrn","Mon Mar 13 2023 14:36:54 GMT-0400 (Eastern Daylight Time)","427435","Untrustworthy,Trustworthy","html-keyboard-response","164","201019","0.0-19.0-3.8","","null","","<div class='trialDiv'><img src='trustrating_stim/white_mw046.bmp'><br><font class='baseline'><strong>Matthew</strong><p>Received: <strong>20</strong></font> &nbsp; &nbsp; &nbsp; &nbsp; &nbsp; &nbsp;<font class='negOutcome'>Shared back: <strong>0</strong></font></font><div class='respPicDiv'><img src='img/responseButtonOffersNo0_wht.png' class='respPic'></div></div>","null","3","Matthew","4","Kept","0.2,0.8","8","0.2","trustrating_stim/white_mw046.bmp","4.5","30","9"
"","","","decision","63d80b500adef5b476e289a4","bdp_trlrn","Mon Mar 13 2023 14:36:54 GMT-0400 (Eastern Daylight Time)","427435","Untrustworthy,Trustworthy","html-keyboard-response","165","201343","0.0-19.0-1.9","","324","","<div class='trialDiv'><img src='trustrating_stim/white_00223_940128_fb_edt.bmp'><br><font class='baseline'><strong>Aaron</strong><p>Choose number of points to send.</font><div class='respPicDiv'><img src='img/responseButtonOffersNo0L.png' class='respPic'></div></div>","5","4","Aaron","1","Kept","0.35,0.8","8","0.35","trustrating_stim/white_00223_940128_fb_edt.bmp","4","35","10"
"","","","decisionFB","63d80b500adef5b476e289a4","bdp_trlrn","Mon Mar 13 2023 14:36:54 GMT-0400 (Eastern Daylight Time)","427435","Untrustworthy,Trustworthy","html-keyboard-response","166","201594","0.0-19.0-2.9","","null","","<div class='trialDiv'><img src='trustrating_stim/white_00223_940128_fb_edt.bmp'><br><font class='baseline'><strong>Aaron</strong><p>Choose number of points to send.</font><div class='respPicDiv'><img src='img/responseButtonOffersNo0L5.png' class='respPic'></div></div>","null","4","Aaron","1","Kept","0.35,0.8","8","0.35","trustrating_stim/white_00223_940128_fb_edt.bmp","4","30","10"
"","","","feedback","63d80b500adef5b476e289a4","bdp_trlrn","Mon Mar 13 2023 14:36:54 GMT-0400 (Eastern Daylight Time)","427435","Untrustworthy,Trustworthy","html-keyboard-response","167","202596","0.0-19.0-3.9","","null","","<div class='trialDiv'><img src='trustrating_stim/white_00223_940128_fb_edt.bmp'><br><font class='baseline'><strong>Aaron</strong><p>Received: <strong>20</strong></font> &nbsp; &nbsp; &nbsp; &nbsp; &nbsp; &nbsp;<font class='negOutcome'>Shared back: <strong>0</strong></font></font><div class='respPicDiv'><img src='img/responseButtonOffersNo0_wht.png' class='respPic'></div></div>","null","4","Aaron","1","Kept","0.35,0.8","8","0.35","trustrating_stim/white_00223_940128_fb_edt.bmp","4","30","10"
"","","","decision","63d80b500adef5b476e289a4","bdp_trlrn","Mon Mar 13 2023 14:36:54 GMT-0400 (Eastern Daylight Time)","427435","Untrustworthy,Trustworthy","html-keyboard-response","168","202918","0.0-19.0-1.10","","322","","<div class='trialDiv'><img src='trustrating_stim/white_00898_960530_fa_edt.bmp'><br><font class='baseline'><strong>Chris</strong><p>Choose number of points to send.</font><div class='respPicDiv'><img src='img/responseButtonOffersNo0L.png' class='respPic'></div></div>","5","4","Chris","8","Shared","0.65,0.2","8","0.65","trustrating_stim/white_00898_960530_fa_edt.bmp","5.5","35","11"
"","","","decisionFB","63d80b500adef5b476e289a4","bdp_trlrn","Mon Mar 13 2023 14:36:54 GMT-0400 (Eastern Daylight Time)","427435","Untrustworthy,Trustworthy","html-keyboard-response","169","203175","0.0-19.0-2.10","","null","","<div class='trialDiv'><img src='trustrating_stim/white_00898_960530_fa_edt.bmp'><br><font class='baseline'><strong>Chris</strong><p>Choose number of points to send.</font><div class='respPicDiv'><img src='img/responseButtonOffersNo0L5.png' class='respPic'></div></div>","null","4","Chris","8","Shared","0.65,0.2","8","0.65","trustrating_stim/white_00898_960530_fa_edt.bmp","5.5","30","11"
"","","","feedback","63d80b500adef5b476e289a4","bdp_trlrn","Mon Mar 13 2023 14:36:54 GMT-0400 (Eastern Daylight Time)","427435","Untrustworthy,Trustworthy","html-keyboard-response","170","204181","0.0-19.0-3.10","","null","","<div class='trialDiv'><img src='trustrating_stim/white_00898_960530_fa_edt.bmp'><br><font class='baseline'><strong>Chris</strong><p>Received: <strong>20</strong></font> &nbsp; &nbsp; &nbsp; &nbsp; &nbsp; &nbsp;<font class='posOutcome'>Shared back: <strong>10</strong></font></font><div class='respPicDiv'><img src='img/responseButtonOffersNo0_wht.png' class='respPic'></div></div>","null","4","Chris","8","Shared","0.65,0.2","8","0.65","trustrating_stim/white_00898_960530_fa_edt.bmp","5.5","40","11"
"","","","decision","63d80b500adef5b476e289a4","bdp_trlrn","Mon Mar 13 2023 14:36:54 GMT-0400 (Eastern Daylight Time)","427435","Untrustworthy,Trustworthy","html-keyboard-response","171","204494","0.0-19.0-1.11","","313","","<div class='trialDiv'><img src='trustrating_stim/white_mw046.bmp'><br><font class='baseline'><strong>Matthew</strong><p>Choose number of points to send.</font><div class='respPicDiv'><img src='img/responseButtonOffersNo0L.png' class='respPic'></div></div>","5","4","Matthew","4","Shared","0.2,0.8","8","0.2","trustrating_stim/white_mw046.bmp","4.5","45","12"
"","","","decisionFB","63d80b500adef5b476e289a4","bdp_trlrn","Mon Mar 13 2023 14:36:54 GMT-0400 (Eastern Daylight Time)","427435","Untrustworthy,Trustworthy","html-keyboard-response","172","204746","0.0-19.0-2.11","","null","","<div class='trialDiv'><img src='trustrating_stim/white_mw046.bmp'><br><font class='baseline'><strong>Matthew</strong><p>Choose number of points to send.</font><div class='respPicDiv'><img src='img/responseButtonOffersNo0L5.png' class='respPic'></div></div>","null","4","Matthew","4","Shared","0.2,0.8","8","0.2","trustrating_stim/white_mw046.bmp","4.5","40","12"
"","","","feedback","63d80b500adef5b476e289a4","bdp_trlrn","Mon Mar 13 2023 14:36:54 GMT-0400 (Eastern Daylight Time)","427435","Untrustworthy,Trustworthy","html-keyboard-response","173","205753","0.0-19.0-3.11","","null","","<div class='trialDiv'><img src='trustrating_stim/white_mw046.bmp'><br><font class='baseline'><strong>Matthew</strong><p>Received: <strong>20</strong></font> &nbsp; &nbsp; &nbsp; &nbsp; &nbsp; &nbsp;<font class='posOutcome'>Shared back: <strong>10</strong></font></font><div class='respPicDiv'><img src='img/responseButtonOffersNo0_wht.png' class='respPic'></div></div>","null","4","Matthew","4","Shared","0.2,0.8","8","0.2","trustrating_stim/white_mw046.bmp","4.5","50","12"
"","","","decision","63d80b500adef5b476e289a4","bdp_trlrn","Mon Mar 13 2023 14:36:54 GMT-0400 (Eastern Daylight Time)","427435","Untrustworthy,Trustworthy","html-keyboard-response","174","206068","0.0-19.0-1.12","","315","","<div class='trialDiv'><img src='trustrating_stim/white_00898_960530_fa_edt.bmp'><br><font class='baseline'><strong>Chris</strong><p>Choose number of points to send.</font><div class='respPicDiv'><img src='img/responseButtonOffersNo0L.png' class='respPic'></div></div>","5","5","Chris","8","Shared","0.65,0.2","8","0.65","trustrating_stim/white_00898_960530_fa_edt.bmp","5.5","55","13"
"","","","decisionFB","63d80b500adef5b476e289a4","bdp_trlrn","Mon Mar 13 2023 14:36:54 GMT-0400 (Eastern Daylight Time)","427435","Untrustworthy,Trustworthy","html-keyboard-response","175","206323","0.0-19.0-2.12","","null","","<div class='trialDiv'><img src='trustrating_stim/white_00898_960530_fa_edt.bmp'><br><font class='baseline'><strong>Chris</strong><p>Choose number of points to send.</font><div class='respPicDiv'><img src='img/responseButtonOffersNo0L5.png' class='respPic'></div></div>","null","5","Chris","8","Shared","0.65,0.2","8","0.65","trustrating_stim/white_00898_960530_fa_edt.bmp","5.5","50","13"
"","","","feedback","63d80b500adef5b476e289a4","bdp_trlrn","Mon Mar 13 2023 14:36:54 GMT-0400 (Eastern Daylight Time)","427435","Untrustworthy,Trustworthy","html-keyboard-response","176","207330","0.0-19.0-3.12","","null","","<div class='trialDiv'><img src='trustrating_stim/white_00898_960530_fa_edt.bmp'><br><font class='baseline'><strong>Chris</strong><p>Received: <strong>20</strong></font> &nbsp; &nbsp; &nbsp; &nbsp; &nbsp; &nbsp;<font class='posOutcome'>Shared back: <strong>10</strong></font></font><div class='respPicDiv'><img src='img/responseButtonOffersNo0_wht.png' class='respPic'></div></div>","null","5","Chris","8","Shared","0.65,0.2","8","0.65","trustrating_stim/white_00898_960530_fa_edt.bmp","5.5","60","13"
"","","","decision","63d80b500adef5b476e289a4","bdp_trlrn","Mon Mar 13 2023 14:36:54 GMT-0400 (Eastern Daylight Time)","427435","Untrustworthy,Trustworthy","html-keyboard-response","177","207678","0.0-19.0-1.13","","348","","<div class='trialDiv'><img src='trustrating_stim/white_00223_940128_fb_edt.bmp'><br><font class='baseline'><strong>Aaron</strong><p>Choose number of points to send.</font><div class='respPicDiv'><img src='img/responseButtonOffersNo0L.png' class='respPic'></div></div>","5","5","Aaron","1","Kept","0.35,0.8","8","0.35","trustrating_stim/white_00223_940128_fb_edt.bmp","4","65","14"
"","","","decisionFB","63d80b500adef5b476e289a4","bdp_trlrn","Mon Mar 13 2023 14:36:54 GMT-0400 (Eastern Daylight Time)","427435","Untrustworthy,Trustworthy","html-keyboard-response","178","207931","0.0-19.0-2.13","","null","","<div class='trialDiv'><img src='trustrating_stim/white_00223_940128_fb_edt.bmp'><br><font class='baseline'><strong>Aaron</strong><p>Choose number of points to send.</font><div class='respPicDiv'><img src='img/responseButtonOffersNo0L5.png' class='respPic'></div></div>","null","5","Aaron","1","Kept","0.35,0.8","8","0.35","trustrating_stim/white_00223_940128_fb_edt.bmp","4","60","14"
"","","","feedback","63d80b500adef5b476e289a4","bdp_trlrn","Mon Mar 13 2023 14:36:54 GMT-0400 (Eastern Daylight Time)","427435","Untrustworthy,Trustworthy","html-keyboard-response","179","208937","0.0-19.0-3.13","","null","","<div class='trialDiv'><img src='trustrating_stim/white_00223_940128_fb_edt.bmp'><br><font class='baseline'><strong>Aaron</strong><p>Received: <strong>20</strong></font> &nbsp; &nbsp; &nbsp; &nbsp; &nbsp; &nbsp;<font class='negOutcome'>Shared back: <strong>0</strong></font></font><div class='respPicDiv'><img src='img/responseButtonOffersNo0_wht.png' class='respPic'></div></div>","null","5","Aaron","1","Kept","0.35,0.8","8","0.35","trustrating_stim/white_00223_940128_fb_edt.bmp","4","60","14"
"","","","decision","63d80b500adef5b476e289a4","bdp_trlrn","Mon Mar 13 2023 14:36:54 GMT-0400 (Eastern Daylight Time)","427435","Untrustworthy,Trustworthy","html-keyboard-response","180","209011","0.0-19.0-1.14","","72","","<div class='trialDiv'><img src='trustrating_stim/white_mw046.bmp'><br><font class='baseline'><strong>Matthew</strong><p>Choose number of points to send.</font><div class='respPicDiv'><img src='img/responseButtonOffersNo0L.png' class='respPic'></div></div>","5","5","Matthew","4","Shared","0.2,0.8","8","0.2","trustrating_stim/white_mw046.bmp","4.5","65","15"
"","","","decisionFB","63d80b500adef5b476e289a4","bdp_trlrn","Mon Mar 13 2023 14:36:54 GMT-0400 (Eastern Daylight Time)","427435","Untrustworthy,Trustworthy","html-keyboard-response","181","209264","0.0-19.0-2.14","","null","","<div class='trialDiv'><img src='trustrating_stim/white_mw046.bmp'><br><font class='baseline'><strong>Matthew</strong><p>Choose number of points to send.</font><div class='respPicDiv'><img src='img/responseButtonOffersNo0L5.png' class='respPic'></div></div>","null","5","Matthew","4","Shared","0.2,0.8","8","0.2","trustrating_stim/white_mw046.bmp","4.5","60","15"
"","","","feedback","63d80b500adef5b476e289a4","bdp_trlrn","Mon Mar 13 2023 14:36:54 GMT-0400 (Eastern Daylight Time)","427435","Untrustworthy,Trustworthy","html-keyboard-response","182","210270","0.0-19.0-3.14","","null","","<div class='trialDiv'><img src='trustrating_stim/white_mw046.bmp'><br><font class='baseline'><strong>Matthew</strong><p>Received: <strong>20</strong></font> &nbsp; &nbsp; &nbsp; &nbsp; &nbsp; &nbsp;<font class='posOutcome'>Shared back: <strong>10</strong></font></font><div class='respPicDiv'><img src='img/responseButtonOffersNo0_wht.png' class='respPic'></div></div>","null","5","Matthew","4","Shared","0.2,0.8","8","0.2","trustrating_stim/white_mw046.bmp","4.5","70","15"
"","","","decision","63d80b500adef5b476e289a4","bdp_trlrn","Mon Mar 13 2023 14:36:54 GMT-0400 (Eastern Daylight Time)","427435","Untrustworthy,Trustworthy","html-keyboard-response","183","210621","0.0-19.0-1.15","","350","","<div class='trialDiv'><img src='trustrating_stim/white_00898_960530_fa_edt.bmp'><br><font class='baseline'><strong>Chris</strong><p>Choose number of points to send.</font><div class='respPicDiv'><img src='img/responseButtonOffersNo0L.png' class='respPic'></div></div>","5","6","Chris","8","Shared","0.65,0.2","8","0.65","trustrating_stim/white_00898_960530_fa_edt.bmp","5.5","75","16"
"","","","decisionFB","63d80b500adef5b476e289a4","bdp_trlrn","Mon Mar 13 2023 14:36:54 GMT-0400 (Eastern Daylight Time)","427435","Untrustworthy,Trustworthy","html-keyboard-response","184","210877","0.0-19.0-2.15","","null","","<div class='trialDiv'><img src='trustrating_stim/white_00898_960530_fa_edt.bmp'><br><font class='baseline'><strong>Chris</strong><p>Choose number of points to send.</font><div class='respPicDiv'><img src='img/responseButtonOffersNo0L5.png' class='respPic'></div></div>","null","6","Chris","8","Shared","0.65,0.2","8","0.65","trustrating_stim/white_00898_960530_fa_edt.bmp","5.5","70","16"
"","","","feedback","63d80b500adef5b476e289a4","bdp_trlrn","Mon Mar 13 2023 14:36:54 GMT-0400 (Eastern Daylight Time)","427435","Untrustworthy,Trustworthy","html-keyboard-response","185","211884","0.0-19.0-3.15","","null","","<div class='trialDiv'><img src='trustrating_stim/white_00898_960530_fa_edt.bmp'><br><font class='baseline'><strong>Chris</strong><p>Received: <strong>20</strong></font> &nbsp; &nbsp; &nbsp; &nbsp; &nbsp; &nbsp;<font class='posOutcome'>Shared back: <strong>10</strong></font></font><div class='respPicDiv'><img src='img/responseButtonOffersNo0_wht.png' class='respPic'></div></div>","null","6","Chris","8","Shared","0.65,0.2","8","0.65","trustrating_stim/white_00898_960530_fa_edt.bmp","5.5","80","16"
"","","","decision","63d80b500adef5b476e289a4","bdp_trlrn","Mon Mar 13 2023 14:36:54 GMT-0400 (Eastern Daylight Time)","427435","Untrustworthy,Trustworthy","html-keyboard-response","186","212248","0.0-19.0-1.16","","363","","<div class='trialDiv'><img src='trustrating_stim/white_00223_940128_fb_edt.bmp'><br><font class='baseline'><strong>Aaron</strong><p>Choose number of points to send.</font><div class='respPicDiv'><img src='img/responseButtonOffersNo0L.png' class='respPic'></div></div>","5","6","Aaron","1","Shared","0.35,0.8","8","0.35","trustrating_stim/white_00223_940128_fb_edt.bmp","4","85","17"
"","","","decisionFB","63d80b500adef5b476e289a4","bdp_trlrn","Mon Mar 13 2023 14:36:54 GMT-0400 (Eastern Daylight Time)","427435","Untrustworthy,Trustworthy","html-keyboard-response","187","212504","0.0-19.0-2.16","","null","","<div class='trialDiv'><img src='trustrating_stim/white_00223_940128_fb_edt.bmp'><br><font class='baseline'><strong>Aaron</strong><p>Choose number of points to send.</font><div class='respPicDiv'><img src='img/responseButtonOffersNo0L5.png' class='respPic'></div></div>","null","6","Aaron","1","Shared","0.35,0.8","8","0.35","trustrating_stim/white_00223_940128_fb_edt.bmp","4","80","17"
"","","","feedback","63d80b500adef5b476e289a4","bdp_trlrn","Mon Mar 13 2023 14:36:54 GMT-0400 (Eastern Daylight Time)","427435","Untrustworthy,Trustworthy","html-keyboard-response","188","213510","0.0-19.0-3.16","","null","","<div class='trialDiv'><img src='trustrating_stim/white_00223_940128_fb_edt.bmp'><br><font class='baseline'><strong>Aaron</strong><p>Received: <strong>20</strong></font> &nbsp; &nbsp; &nbsp; &nbsp; &nbsp; &nbsp;<font class='posOutcome'>Shared back: <strong>10</strong></font></font><div class='respPicDiv'><img src='img/responseButtonOffersNo0_wht.png' class='respPic'></div></div>","null","6","Aaron","1","Shared","0.35,0.8","8","0.35","trustrating_stim/white_00223_940128_fb_edt.bmp","4","90","17"
"","","","decision","63d80b500adef5b476e289a4","bdp_trlrn","Mon Mar 13 2023 14:36:54 GMT-0400 (Eastern Daylight Time)","427435","Untrustworthy,Trustworthy","html-keyboard-response","189","213960","0.0-19.0-1.17","","448","","<div class='trialDiv'><img src='trustrating_stim/white_mw046.bmp'><br><font class='baseline'><strong>Matthew</strong><p>Choose number of points to send.</font><div class='respPicDiv'><img src='img/responseButtonOffersNo0L.png' class='respPic'></div></div>","5","6","Matthew","4","Kept","0.2,0.8","8","0.2","trustrating_stim/white_mw046.bmp","4.5","95","18"
"","","","decisionFB","63d80b500adef5b476e289a4","bdp_trlrn","Mon Mar 13 2023 14:36:54 GMT-0400 (Eastern Daylight Time)","427435","Untrustworthy,Trustworthy","html-keyboard-response","190","214214","0.0-19.0-2.17","","null","","<div class='trialDiv'><img src='trustrating_stim/white_mw046.bmp'><br><font class='baseline'><strong>Matthew</strong><p>Choose number of points to send.</font><div class='respPicDiv'><img src='img/responseButtonOffersNo0L5.png' class='respPic'></div></div>","null","6","Matthew","4","Kept","0.2,0.8","8","0.2","trustrating_stim/white_mw046.bmp","4.5","90","18"
"","","","feedback","63d80b500adef5b476e289a4","bdp_trlrn","Mon Mar 13 2023 14:36:54 GMT-0400 (Eastern Daylight Time)","427435","Untrustworthy,Trustworthy","html-keyboard-response","191","215215","0.0-19.0-3.17","","null","","<div class='trialDiv'><img src='trustrating_stim/white_mw046.bmp'><br><font class='baseline'><strong>Matthew</strong><p>Received: <strong>20</strong></font> &nbsp; &nbsp; &nbsp; &nbsp; &nbsp; &nbsp;<font class='negOutcome'>Shared back: <strong>0</strong></font></font><div class='respPicDiv'><img src='img/responseButtonOffersNo0_wht.png' class='respPic'></div></div>","null","6","Matthew","4","Kept","0.2,0.8","8","0.2","trustrating_stim/white_mw046.bmp","4.5","90","18"
"","","","decision","63d80b500adef5b476e289a4","bdp_trlrn","Mon Mar 13 2023 14:36:54 GMT-0400 (Eastern Daylight Time)","427435","Untrustworthy,Trustworthy","html-keyboard-response","192","215236","0.0-19.0-1.18","","20","","<div class='trialDiv'><img src='trustrating_stim/white_00898_960530_fa_edt.bmp'><br><font class='baseline'><strong>Chris</strong><p>Choose number of points to send.</font><div class='respPicDiv'><img src='img/responseButtonOffersNo0L.png' class='respPic'></div></div>","5","7","Chris","8","Kept","0.65,0.2","8","0.65","trustrating_stim/white_00898_960530_fa_edt.bmp","5.5","95","19"
"","","","decisionFB","63d80b500adef5b476e289a4","bdp_trlrn","Mon Mar 13 2023 14:36:54 GMT-0400 (Eastern Daylight Time)","427435","Untrustworthy,Trustworthy","html-keyboard-response","193","215487","0.0-19.0-2.18","","null","","<div class='trialDiv'><img src='trustrating_stim/white_00898_960530_fa_edt.bmp'><br><font class='baseline'><strong>Chris</strong><p>Choose number of points to send.</font><div class='respPicDiv'><img src='img/responseButtonOffersNo0L5.png' class='respPic'></div></div>","null","7","Chris","8","Kept","0.65,0.2","8","0.65","trustrating_stim/white_00898_960530_fa_edt.bmp","5.5","90","19"
"","","","feedback","63d80b500adef5b476e289a4","bdp_trlrn","Mon Mar 13 2023 14:36:54 GMT-0400 (Eastern Daylight Time)","427435","Untrustworthy,Trustworthy","html-keyboard-response","194","216491","0.0-19.0-3.18","","null","","<div class='trialDiv'><img src='trustrating_stim/white_00898_960530_fa_edt.bmp'><br><font class='baseline'><strong>Chris</strong><p>Received: <strong>20</strong></font> &nbsp; &nbsp; &nbsp; &nbsp; &nbsp; &nbsp;<font class='negOutcome'>Shared back: <strong>0</strong></font></font><div class='respPicDiv'><img src='img/responseButtonOffersNo0_wht.png' class='respPic'></div></div>","null","7","Chris","8","Kept","0.65,0.2","8","0.65","trustrating_stim/white_00898_960530_fa_edt.bmp","5.5","90","19"
"","","","decision","63d80b500adef5b476e289a4","bdp_trlrn","Mon Mar 13 2023 14:36:54 GMT-0400 (Eastern Daylight Time)","427435","Untrustworthy,Trustworthy","html-keyboard-response","195","216803","0.0-19.0-1.19","","311","","<div class='trialDiv'><img src='trustrating_stim/white_00223_940128_fb_edt.bmp'><br><font class='baseline'><strong>Aaron</strong><p>Choose number of points to send.</font><div class='respPicDiv'><img src='img/responseButtonOffersNo0L.png' class='respPic'></div></div>","5","7","Aaron","1","Shared","0.35,0.8","8","0.35","trustrating_stim/white_00223_940128_fb_edt.bmp","4","95","20"
"","","","decisionFB","63d80b500adef5b476e289a4","bdp_trlrn","Mon Mar 13 2023 14:36:54 GMT-0400 (Eastern Daylight Time)","427435","Untrustworthy,Trustworthy","html-keyboard-response","196","217058","0.0-19.0-2.19","","null","","<div class='trialDiv'><img src='trustrating_stim/white_00223_940128_fb_edt.bmp'><br><font class='baseline'><strong>Aaron</strong><p>Choose number of points to send.</font><div class='respPicDiv'><img src='img/responseButtonOffersNo0L5.png' class='respPic'></div></div>","null","7","Aaron","1","Shared","0.35,0.8","8","0.35","trustrating_stim/white_00223_940128_fb_edt.bmp","4","90","20"
"","","","feedback","63d80b500adef5b476e289a4","bdp_trlrn","Mon Mar 13 2023 14:36:54 GMT-0400 (Eastern Daylight Time)","427435","Untrustworthy,Trustworthy","html-keyboard-response","197","218060","0.0-19.0-3.19","","null","","<div class='trialDiv'><img src='trustrating_stim/white_00223_940128_fb_edt.bmp'><br><font class='baseline'><strong>Aaron</strong><p>Received: <strong>20</strong></font> &nbsp; &nbsp; &nbsp; &nbsp; &nbsp; &nbsp;<font class='posOutcome'>Shared back: <strong>10</strong></font></font><div class='respPicDiv'><img src='img/responseButtonOffersNo0_wht.png' class='respPic'></div></div>","null","7","Aaron","1","Shared","0.35,0.8","8","0.35","trustrating_stim/white_00223_940128_fb_edt.bmp","4","100","20"
"","","","decision","63d80b500adef5b476e289a4","bdp_trlrn","Mon Mar 13 2023 14:36:54 GMT-0400 (Eastern Daylight Time)","427435","Untrustworthy,Trustworthy","html-keyboard-response","198","219618","0.0-19.0-1.20","","1557","","<div class='trialDiv'><img src='trustrating_stim/white_mw046.bmp'><br><font class='baseline'><strong>Matthew</strong><p>Choose number of points to send.</font><div class='respPicDiv'><img src='img/responseButtonOffersNo0L.png' class='respPic'></div></div>","5","7","Matthew","4","Kept","0.2,0.8","8","0.2","trustrating_stim/white_mw046.bmp","4.5","105","21"
"","","","decisionFB","63d80b500adef5b476e289a4","bdp_trlrn","Mon Mar 13 2023 14:36:54 GMT-0400 (Eastern Daylight Time)","427435","Untrustworthy,Trustworthy","html-keyboard-response","199","219874","0.0-19.0-2.20","","null","","<div class='trialDiv'><img src='trustrating_stim/white_mw046.bmp'><br><font class='baseline'><strong>Matthew</strong><p>Choose number of points to send.</font><div class='respPicDiv'><img src='img/responseButtonOffersNo0L5.png' class='respPic'></div></div>","null","7","Matthew","4","Kept","0.2,0.8","8","0.2","trustrating_stim/white_mw046.bmp","4.5","100","21"
"","","","feedback","63d80b500adef5b476e289a4","bdp_trlrn","Mon Mar 13 2023 14:36:54 GMT-0400 (Eastern Daylight Time)","427435","Untrustworthy,Trustworthy","html-keyboard-response","200","220881","0.0-19.0-3.20","","null","","<div class='trialDiv'><img src='trustrating_stim/white_mw046.bmp'><br><font class='baseline'><strong>Matthew</strong><p>Received: <strong>20</strong></font> &nbsp; &nbsp; &nbsp; &nbsp; &nbsp; &nbsp;<font class='negOutcome'>Shared back: <strong>0</strong></font></font><div class='respPicDiv'><img src='img/responseButtonOffersNo0_wht.png' class='respPic'></div></div>","null","7","Matthew","4","Kept","0.2,0.8","8","0.2","trustrating_stim/white_mw046.bmp","4.5","100","21"
"","","","decision","63d80b500adef5b476e289a4","bdp_trlrn","Mon Mar 13 2023 14:36:54 GMT-0400 (Eastern Daylight Time)","427435","Untrustworthy,Trustworthy","html-keyboard-response","201","222254","0.0-19.0-1.21","","1371","","<div class='trialDiv'><img src='trustrating_stim/white_00223_940128_fb_edt.bmp'><br><font class='baseline'><strong>Aaron</strong><p>Choose number of points to send.</font><div class='respPicDiv'><img src='img/responseButtonOffersNo0L.png' class='respPic'></div></div>","5","8","Aaron","1","Shared","0.35,0.8","8","0.35","trustrating_stim/white_00223_940128_fb_edt.bmp","4","105","22"
"","","","decisionFB","63d80b500adef5b476e289a4","bdp_trlrn","Mon Mar 13 2023 14:36:54 GMT-0400 (Eastern Daylight Time)","427435","Untrustworthy,Trustworthy","html-keyboard-response","202","222510","0.0-19.0-2.21","","null","","<div class='trialDiv'><img src='trustrating_stim/white_00223_940128_fb_edt.bmp'><br><font class='baseline'><strong>Aaron</strong><p>Choose number of points to send.</font><div class='respPicDiv'><img src='img/responseButtonOffersNo0L5.png' class='respPic'></div></div>","null","8","Aaron","1","Shared","0.35,0.8","8","0.35","trustrating_stim/white_00223_940128_fb_edt.bmp","4","100","22"
"","","","feedback","63d80b500adef5b476e289a4","bdp_trlrn","Mon Mar 13 2023 14:36:54 GMT-0400 (Eastern Daylight Time)","427435","Untrustworthy,Trustworthy","html-keyboard-response","203","223515","0.0-19.0-3.21","","null","","<div class='trialDiv'><img src='trustrating_stim/white_00223_940128_fb_edt.bmp'><br><font class='baseline'><strong>Aaron</strong><p>Received: <strong>20</strong></font> &nbsp; &nbsp; &nbsp; &nbsp; &nbsp; &nbsp;<font class='posOutcome'>Shared back: <strong>10</strong></font></font><div class='respPicDiv'><img src='img/responseButtonOffersNo0_wht.png' class='respPic'></div></div>","null","8","Aaron","1","Shared","0.35,0.8","8","0.35","trustrating_stim/white_00223_940128_fb_edt.bmp","4","110","22"
"","","","decision","63d80b500adef5b476e289a4","bdp_trlrn","Mon Mar 13 2023 14:36:54 GMT-0400 (Eastern Daylight Time)","427435","Untrustworthy,Trustworthy","html-keyboard-response","204","224178","0.0-19.0-1.22","","662","","<div class='trialDiv'><img src='trustrating_stim/white_00898_960530_fa_edt.bmp'><br><font class='baseline'><strong>Chris</strong><p>Choose number of points to send.</font><div class='respPicDiv'><img src='img/responseButtonOffersNo0L.png' class='respPic'></div></div>","5","8","Chris","8","Kept","0.65,0.2","8","0.65","trustrating_stim/white_00898_960530_fa_edt.bmp","5.5","115","23"
"","","","decisionFB","63d80b500adef5b476e289a4","bdp_trlrn","Mon Mar 13 2023 14:36:54 GMT-0400 (Eastern Daylight Time)","427435","Untrustworthy,Trustworthy","html-keyboard-response","205","224434","0.0-19.0-2.22","","null","","<div class='trialDiv'><img src='trustrating_stim/white_00898_960530_fa_edt.bmp'><br><font class='baseline'><strong>Chris</strong><p>Choose number of points to send.</font><div class='respPicDiv'><img src='img/responseButtonOffersNo0L5.png' class='respPic'></div></div>","null","8","Chris","8","Kept","0.65,0.2","8","0.65","trustrating_stim/white_00898_960530_fa_edt.bmp","5.5","110","23"
"","","","feedback","63d80b500adef5b476e289a4","bdp_trlrn","Mon Mar 13 2023 14:36:54 GMT-0400 (Eastern Daylight Time)","427435","Untrustworthy,Trustworthy","html-keyboard-response","206","225440","0.0-19.0-3.22","","null","","<div class='trialDiv'><img src='trustrating_stim/white_00898_960530_fa_edt.bmp'><br><font class='baseline'><strong>Chris</strong><p>Received: <strong>20</strong></font> &nbsp; &nbsp; &nbsp; &nbsp; &nbsp; &nbsp;<font class='negOutcome'>Shared back: <strong>0</strong></font></font><div class='respPicDiv'><img src='img/responseButtonOffersNo0_wht.png' class='respPic'></div></div>","null","8","Chris","8","Kept","0.65,0.2","8","0.65","trustrating_stim/white_00898_960530_fa_edt.bmp","5.5","110","23"
"","","","decision","63d80b500adef5b476e289a4","bdp_trlrn","Mon Mar 13 2023 14:36:54 GMT-0400 (Eastern Daylight Time)","427435","Untrustworthy,Trustworthy","html-keyboard-response","207","225783","0.0-19.0-1.23","","342","","<div class='trialDiv'><img src='trustrating_stim/white_mw046.bmp'><br><font class='baseline'><strong>Matthew</strong><p>Choose number of points to send.</font><div class='respPicDiv'><img src='img/responseButtonOffersNo0L.png' class='respPic'></div></div>","5","8","Matthew","4","Shared","0.2,0.8","8","0.2","trustrating_stim/white_mw046.bmp","4.5","115","24"
"","","","decisionFB","63d80b500adef5b476e289a4","bdp_trlrn","Mon Mar 13 2023 14:36:54 GMT-0400 (Eastern Daylight Time)","427435","Untrustworthy,Trustworthy","html-keyboard-response","208","226038","0.0-19.0-2.23","","null","","<div class='trialDiv'><img src='trustrating_stim/white_mw046.bmp'><br><font class='baseline'><strong>Matthew</strong><p>Choose number of points to send.</font><div class='respPicDiv'><img src='img/responseButtonOffersNo0L5.png' class='respPic'></div></div>","null","8","Matthew","4","Shared","0.2,0.8","8","0.2","trustrating_stim/white_mw046.bmp","4.5","110","24"
"","","","feedback","63d80b500adef5b476e289a4","bdp_trlrn","Mon Mar 13 2023 14:36:54 GMT-0400 (Eastern Daylight Time)","427435","Untrustworthy,Trustworthy","html-keyboard-response","209","227045","0.0-19.0-3.23","","null","","<div class='trialDiv'><img src='trustrating_stim/white_mw046.bmp'><br><font class='baseline'><strong>Matthew</strong><p>Received: <strong>20</strong></font> &nbsp; &nbsp; &nbsp; &nbsp; &nbsp; &nbsp;<font class='posOutcome'>Shared back: <strong>10</strong></font></font><div class='respPicDiv'><img src='img/responseButtonOffersNo0_wht.png' class='respPic'></div></div>","null","8","Matthew","4","Shared","0.2,0.8","8","0.2","trustrating_stim/white_mw046.bmp","4.5","120","24"
"","","","decision","63d80b500adef5b476e289a4","bdp_trlrn","Mon Mar 13 2023 14:36:54 GMT-0400 (Eastern Daylight Time)","427435","Untrustworthy,Trustworthy","html-keyboard-response","210","227425","0.0-19.0-1.24","","380","","<div class='trialDiv'><img src='trustrating_stim/white_00898_960530_fa_edt.bmp'><br><font class='baseline'><strong>Chris</strong><p>Choose number of points to send.</font><div class='respPicDiv'><img src='img/responseButtonOffersNo0L.png' class='respPic'></div></div>","5","9","Chris","8","Shared","0.65,0.2","8","0.65","trustrating_stim/white_00898_960530_fa_edt.bmp","5.5","125","25"
"","","","decisionFB","63d80b500adef5b476e289a4","bdp_trlrn","Mon Mar 13 2023 14:36:54 GMT-0400 (Eastern Daylight Time)","427435","Untrustworthy,Trustworthy","html-keyboard-response","211","227681","0.0-19.0-2.24","","null","","<div class='trialDiv'><img src='trustrating_stim/white_00898_960530_fa_edt.bmp'><br><font class='baseline'><strong>Chris</strong><p>Choose number of points to send.</font><div class='respPicDiv'><img src='img/responseButtonOffersNo0L5.png' class='respPic'></div></div>","null","9","Chris","8","Shared","0.65,0.2","8","0.65","trustrating_stim/white_00898_960530_fa_edt.bmp","5.5","120","25"
"","","","feedback","63d80b500adef5b476e289a4","bdp_trlrn","Mon Mar 13 2023 14:36:54 GMT-0400 (Eastern Daylight Time)","427435","Untrustworthy,Trustworthy","html-keyboard-response","212","228683","0.0-19.0-3.24","","null","","<div class='trialDiv'><img src='trustrating_stim/white_00898_960530_fa_edt.bmp'><br><font class='baseline'><strong>Chris</strong><p>Received: <strong>20</strong></font> &nbsp; &nbsp; &nbsp; &nbsp; &nbsp; &nbsp;<font class='posOutcome'>Shared back: <strong>10</strong></font></font><div class='respPicDiv'><img src='img/responseButtonOffersNo0_wht.png' class='respPic'></div></div>","null","9","Chris","8","Shared","0.65,0.2","8","0.65","trustrating_stim/white_00898_960530_fa_edt.bmp","5.5","130","25"
"","","","decision","63d80b500adef5b476e289a4","bdp_trlrn","Mon Mar 13 2023 14:36:54 GMT-0400 (Eastern Daylight Time)","427435","Untrustworthy,Trustworthy","html-keyboard-response","213","228995","0.0-19.0-1.25","","309","","<div class='trialDiv'><img src='trustrating_stim/white_mw046.bmp'><br><font class='baseline'><strong>Matthew</strong><p>Choose number of points to send.</font><div class='respPicDiv'><img src='img/responseButtonOffersNo0L.png' class='respPic'></div></div>","5","9","Matthew","4","Kept","0.2,0.8","8","0.2","trustrating_stim/white_mw046.bmp","4.5","135","26"
"","","","decisionFB","63d80b500adef5b476e289a4","bdp_trlrn","Mon Mar 13 2023 14:36:54 GMT-0400 (Eastern Daylight Time)","427435","Untrustworthy,Trustworthy","html-keyboard-response","214","229251","0.0-19.0-2.25","","null","","<div class='trialDiv'><img src='trustrating_stim/white_mw046.bmp'><br><font class='baseline'><strong>Matthew</strong><p>Choose number of points to send.</font><div class='respPicDiv'><img src='img/responseButtonOffersNo0L5.png' class='respPic'></div></div>","null","9","Matthew","4","Kept","0.2,0.8","8","0.2","trustrating_stim/white_mw046.bmp","4.5","130","26"
"","","","feedback","63d80b500adef5b476e289a4","bdp_trlrn","Mon Mar 13 2023 14:36:54 GMT-0400 (Eastern Daylight Time)","427435","Untrustworthy,Trustworthy","html-keyboard-response","215","230256","0.0-19.0-3.25","","null","","<div class='trialDiv'><img src='trustrating_stim/white_mw046.bmp'><br><font class='baseline'><strong>Matthew</strong><p>Received: <strong>20</strong></font> &nbsp; &nbsp; &nbsp; &nbsp; &nbsp; &nbsp;<font class='negOutcome'>Shared back: <strong>0</strong></font></font><div class='respPicDiv'><img src='img/responseButtonOffersNo0_wht.png' class='respPic'></div></div>","null","9","Matthew","4","Kept","0.2,0.8","8","0.2","trustrating_stim/white_mw046.bmp","4.5","130","26"
"","","","decision","63d80b500adef5b476e289a4","bdp_trlrn","Mon Mar 13 2023 14:36:54 GMT-0400 (Eastern Daylight Time)","427435","Untrustworthy,Trustworthy","html-keyboard-response","216","230603","0.0-19.0-1.26","","344","","<div class='trialDiv'><img src='trustrating_stim/white_00223_940128_fb_edt.bmp'><br><font class='baseline'><strong>Aaron</strong><p>Choose number of points to send.</font><div class='respPicDiv'><img src='img/responseButtonOffersNo0L.png' class='respPic'></div></div>","5","9","Aaron","1","Kept","0.35,0.8","8","0.35","trustrating_stim/white_00223_940128_fb_edt.bmp","4","135","27"
"","","","decisionFB","63d80b500adef5b476e289a4","bdp_trlrn","Mon Mar 13 2023 14:36:54 GMT-0400 (Eastern Daylight Time)","427435","Untrustworthy,Trustworthy","html-keyboard-response","217","230857","0.0-19.0-2.26","","null","","<div class='trialDiv'><img src='trustrating_stim/white_00223_940128_fb_edt.bmp'><br><font class='baseline'><strong>Aaron</strong><p>Choose number of points to send.</font><div class='respPicDiv'><img src='img/responseButtonOffersNo0L5.png' class='respPic'></div></div>","null","9","Aaron","1","Kept","0.35,0.8","8","0.35","trustrating_stim/white_00223_940128_fb_edt.bmp","4","130","27"
"","","","feedback","63d80b500adef5b476e289a4","bdp_trlrn","Mon Mar 13 2023 14:36:54 GMT-0400 (Eastern Daylight Time)","427435","Untrustworthy,Trustworthy","html-keyboard-response","218","231864","0.0-19.0-3.26","","null","","<div class='trialDiv'><img src='trustrating_stim/white_00223_940128_fb_edt.bmp'><br><font class='baseline'><strong>Aaron</strong><p>Received: <strong>20</strong></font> &nbsp; &nbsp; &nbsp; &nbsp; &nbsp; &nbsp;<font class='negOutcome'>Shared back: <strong>0</strong></font></font><div class='respPicDiv'><img src='img/responseButtonOffersNo0_wht.png' class='respPic'></div></div>","null","9","Aaron","1","Kept","0.35,0.8","8","0.35","trustrating_stim/white_00223_940128_fb_edt.bmp","4","130","27"
"","","","decision","63d80b500adef5b476e289a4","bdp_trlrn","Mon Mar 13 2023 14:36:54 GMT-0400 (Eastern Daylight Time)","427435","Untrustworthy,Trustworthy","html-keyboard-response","219","231869","0.0-19.0-1.27","","4","","<div class='trialDiv'><img src='trustrating_stim/white_mw046.bmp'><br><font class='baseline'><strong>Matthew</strong><p>Choose number of points to send.</font><div class='respPicDiv'><img src='img/responseButtonOffersNo0L.png' class='respPic'></div></div>","5","10","Matthew","4","Shared","0.2,0.8","8","0.2","trustrating_stim/white_mw046.bmp","4.5","135","28"
"","","","decisionFB","63d80b500adef5b476e289a4","bdp_trlrn","Mon Mar 13 2023 14:36:54 GMT-0400 (Eastern Daylight Time)","427435","Untrustworthy,Trustworthy","html-keyboard-response","220","232126","0.0-19.0-2.27","","null","","<div class='trialDiv'><img src='trustrating_stim/white_mw046.bmp'><br><font class='baseline'><strong>Matthew</strong><p>Choose number of points to send.</font><div class='respPicDiv'><img src='img/responseButtonOffersNo0L5.png' class='respPic'></div></div>","null","10","Matthew","4","Shared","0.2,0.8","8","0.2","trustrating_stim/white_mw046.bmp","4.5","130","28"
