"trial_type","trial_index","time_elapsed","internal_node_id","subject_id","task","startTime","totalTime","labels","view_history","rt","event","trial","time","trialtype","success","stimulus","key_press","aground","name","faceID","outcome","agenttype","agentswpt","agentcurrpshare","face","avgRating","point_total","round"
"pavlovia","0","17","0.0-0.0","62dc4a5fef307ee53c61afcc","bdp_trlrn","Tue Mar 14 2023 17:08:43 GMT-0800 (Alaska Daylight Time)","504251","Untrustworthy,Trustworthy","","","","","","","","","","","","","","","","","","","",""
"instructions","1","4378","0.0-1.0","62dc4a5fef307ee53c61afcc","bdp_trlrn","Tue Mar 14 2023 17:08:43 GMT-0800 (Alaska Daylight Time)","504251","Untrustworthy,Trustworthy","[{""page_index"":0,""viewing_time"":4356}]","4357","","","","","","","","","","","","","","","","","",""
"","","","","62dc4a5fef307ee53c61afcc","bdp_trlrn","Tue Mar 14 2023 17:08:43 GMT-0800 (Alaska Daylight Time)","504251","Untrustworthy,Trustworthy","","","fullscreenenter","2","10241","fullscreenenter","","","","","","","","","","","","","",""
"fullscreen","2","11228","0.0-2.0","62dc4a5fef307ee53c61afcc","bdp_trlrn","Tue Mar 14 2023 17:08:43 GMT-0800 (Alaska Daylight Time)","504251","Untrustworthy,Trustworthy","","","","","","","true","","","","","","","","","","","","",""
"instructions","3","18189","0.0-4.0","62dc4a5fef307ee53c61afcc","bdp_trlrn","Tue Mar 14 2023 17:08:43 GMT-0800 (Alaska Daylight Time)","504251","Untrustworthy,Trustworthy","[{""page_index"":0,""viewing_time"":5758},{""page_index"":1,""viewing_time"":1186}]","6945","","","","","","","","","","","","","","","","","",""
"instructions","4","19136","0.0-5.0","62dc4a5fef307ee53c61afcc","bdp_trlrn","Tue Mar 14 2023 17:08:43 GMT-0800 (Alaska Daylight Time)","504251","Untrustworthy,Trustworthy","[{""page_index"":0,""viewing_time"":942}]","943","","","","","","","","","","","","","","","","","",""
"image-keyboard-response","5","22825","0.0-6.0-1.0","62dc4a5fef307ee53c61afcc","bdp_trlrn","Tue Mar 14 2023 17:08:43 GMT-0800 (Alaska Daylight Time)","504251","Untrustworthy,Trustworthy","","3573","","","","rating","","trustrating_stim/white_mw099.bmp","6","","","","","","","","","","",""
"image-keyboard-response","6","23029","0.0-6.0-2.0","62dc4a5fef307ee53c61afcc","bdp_trlrn","Tue Mar 14 2023 17:08:43 GMT-0800 (Alaska Daylight Time)","504251","Untrustworthy,Trustworthy","","null","","","","ratingFB","","trustrating_stim/white_mw099.bmp","null","","","","","","","","","","",""
"image-keyboard-response","7","25219","0.0-6.0-1.1","62dc4a5fef307ee53c61afcc","bdp_trlrn","Tue Mar 14 2023 17:08:43 GMT-0800 (Alaska Daylight Time)","504251","Untrustworthy,Trustworthy","","2076","","","","rating","","trustrating_stim/white_00761_941201_fb_edt.bmp","7","","","","","","","","","","",""
"image-keyboard-response","8","25423","0.0-6.0-2.1","62dc4a5fef307ee53c61afcc","bdp_trlrn","Tue Mar 14 2023 17:08:43 GMT-0800 (Alaska Daylight Time)","504251","Untrustworthy,Trustworthy","","null","","","","ratingFB","","trustrating_stim/white_00761_941201_fb_edt.bmp","null","","","","","","","","","","",""
"image-keyboard-response","9","26889","0.0-6.0-1.2","62dc4a5fef307ee53c61afcc","bdp_trlrn","Tue Mar 14 2023 17:08:43 GMT-0800 (Alaska Daylight Time)","504251","Untrustworthy,Trustworthy","","1358","","","","rating","","trustrating_stim/white_mw084.bmp","4","","","","","","","","","","",""
"image-keyboard-response","10","27095","0.0-6.0-2.2","62dc4a5fef307ee53c61afcc","bdp_trlrn","Tue Mar 14 2023 17:08:43 GMT-0800 (Alaska Daylight Time)","504251","Untrustworthy,Trustworthy","","null","","","","ratingFB","","trustrating_stim/white_mw084.bmp","null","","","","","","","","","","",""
"image-keyboard-response","11","28602","0.0-6.0-1.3","62dc4a5fef307ee53c61afcc","bdp_trlrn","Tue Mar 14 2023 17:08:43 GMT-0800 (Alaska Daylight Time)","504251","Untrustworthy,Trustworthy","","1393","","","","rating","","trustrating_stim/white_00120_931230_fa_edt.bmp","6","","","","","","","","","","",""
"image-keyboard-response","12","28806","0.0-6.0-2.3","62dc4a5fef307ee53c61afcc","bdp_trlrn","Tue Mar 14 2023 17:08:43 GMT-0800 (Alaska Daylight Time)","504251","Untrustworthy,Trustworthy","","null","","","","ratingFB","","trustrating_stim/white_00120_931230_fa_edt.bmp","null","","","","","","","","","","",""
"image-keyboard-response","13","30044","0.0-6.0-1.4","62dc4a5fef307ee53c61afcc","bdp_trlrn","Tue Mar 14 2023 17:08:43 GMT-0800 (Alaska Daylight Time)","504251","Untrustworthy,Trustworthy","","1127","","","","rating","","trustrating_stim/white_mw035.bmp","4","","","","","","","","","","",""
"image-keyboard-response","14","30248","0.0-6.0-2.4","62dc4a5fef307ee53c61afcc","bdp_trlrn","Tue Mar 14 2023 17:08:43 GMT-0800 (Alaska Daylight Time)","504251","Untrustworthy,Trustworthy","","null","","","","ratingFB","","trustrating_stim/white_mw035.bmp","null","","","","","","","","","","",""
"image-keyboard-response","15","31455","0.0-6.0-1.5","62dc4a5fef307ee53c61afcc","bdp_trlrn","Tue Mar 14 2023 17:08:43 GMT-0800 (Alaska Daylight Time)","504251","Untrustworthy,Trustworthy","","1100","","","","rating","","trustrating_stim/white_mw063.bmp","6","","","","","","","","","","",""
"image-keyboard-response","16","31659","0.0-6.0-2.5","62dc4a5fef307ee53c61afcc","bdp_trlrn","Tue Mar 14 2023 17:08:43 GMT-0800 (Alaska Daylight Time)","504251","Untrustworthy,Trustworthy","","null","","","","ratingFB","","trustrating_stim/white_mw063.bmp","null","","","","","","","","","","",""
"image-keyboard-response","17","33215","0.0-6.0-1.6","62dc4a5fef307ee53c61afcc","bdp_trlrn","Tue Mar 14 2023 17:08:43 GMT-0800 (Alaska Daylight Time)","504251","Untrustworthy,Trustworthy","","1450","","","","rating","","trustrating_stim/white_00659_941121_fa_edt.bmp","4","","","","","","","","","","",""
"image-keyboard-response","18","33418","0.0-6.0-2.6","62dc4a5fef307ee53c61afcc","bdp_trlrn","Tue Mar 14 2023 17:08:43 GMT-0800 (Alaska Daylight Time)","504251","Untrustworthy,Trustworthy","","null","","","","ratingFB","","trustrating_stim/white_00659_941121_fa_edt.bmp","null","","","","","","","","","","",""
"image-keyboard-response","19","35298","0.0-6.0-1.7","62dc4a5fef307ee53c61afcc","bdp_trlrn","Tue Mar 14 2023 17:08:43 GMT-0800 (Alaska Daylight Time)","504251","Untrustworthy,Trustworthy","","1772","","","","rating","","trustrating_stim/white_00757_941201_fa_edt.bmp","3","","","","","","","","","","",""
"image-keyboard-response","20","35504","0.0-6.0-2.7","62dc4a5fef307ee53c61afcc","bdp_trlrn","Tue Mar 14 2023 17:08:43 GMT-0800 (Alaska Daylight Time)","504251","Untrustworthy,Trustworthy","","null","","","","ratingFB","","trustrating_stim/white_00757_941201_fa_edt.bmp","null","","","","","","","","","","",""
"image-keyboard-response","21","36734","0.0-6.0-1.8","62dc4a5fef307ee53c61afcc","bdp_trlrn","Tue Mar 14 2023 17:08:43 GMT-0800 (Alaska Daylight Time)","504251","Untrustworthy,Trustworthy","","1123","","","","rating","","trustrating_stim/white_00807_941205_fb_edt.bmp","2","","","","","","","","","","",""
"image-keyboard-response","22","36937","0.0-6.0-2.8","62dc4a5fef307ee53c61afcc","bdp_trlrn","Tue Mar 14 2023 17:08:43 GMT-0800 (Alaska Daylight Time)","504251","Untrustworthy,Trustworthy","","null","","","","ratingFB","","trustrating_stim/white_00807_941205_fb_edt.bmp","null","","","","","","","","","","",""
"image-keyboard-response","23","38144","0.0-6.0-1.9","62dc4a5fef307ee53c61afcc","bdp_trlrn","Tue Mar 14 2023 17:08:43 GMT-0800 (Alaska Daylight Time)","504251","Untrustworthy,Trustworthy","","1099","","","","rating","","trustrating_stim/white_mw060.bmp","2","","","","","","","","","","",""
"image-keyboard-response","24","38350","0.0-6.0-2.9","62dc4a5fef307ee53c61afcc","bdp_trlrn","Tue Mar 14 2023 17:08:43 GMT-0800 (Alaska Daylight Time)","504251","Untrustworthy,Trustworthy","","null","","","","ratingFB","","trustrating_stim/white_mw060.bmp","null","","","","","","","","","","",""
"image-keyboard-response","25","39353","0.0-6.0-1.10","62dc4a5fef307ee53c61afcc","bdp_trlrn","Tue Mar 14 2023 17:08:43 GMT-0800 (Alaska Daylight Time)","504251","Untrustworthy,Trustworthy","","897","","","","rating","","trustrating_stim/white_mw033.bmp","7","","","","","","","","","","",""
"image-keyboard-response","26","39559","0.0-6.0-2.10","62dc4a5fef307ee53c61afcc","bdp_trlrn","Tue Mar 14 2023 17:08:43 GMT-0800 (Alaska Daylight Time)","504251","Untrustworthy,Trustworthy","","null","","","","ratingFB","","trustrating_stim/white_mw033.bmp","null","","","","","","","","","","",""
"image-keyboard-response","27","40631","0.0-6.0-1.11","62dc4a5fef307ee53c61afcc","bdp_trlrn","Tue Mar 14 2023 17:08:43 GMT-0800 (Alaska Daylight Time)","504251","Untrustworthy,Trustworthy","","958","","","","rating","","trustrating_stim/white_mw046.bmp","6","","","","","","","","","","",""
"image-keyboard-response","28","40835","0.0-6.0-2.11","62dc4a5fef307ee53c61afcc","bdp_trlrn","Tue Mar 14 2023 17:08:43 GMT-0800 (Alaska Daylight Time)","504251","Untrustworthy,Trustworthy","","null","","","","ratingFB","","trustrating_stim/white_mw046.bmp","null","","","","","","","","","","",""
"image-keyboard-response","29","41748","0.0-6.0-1.12","62dc4a5fef307ee53c61afcc","bdp_trlrn","Tue Mar 14 2023 17:08:43 GMT-0800 (Alaska Daylight Time)","504251","Untrustworthy,Trustworthy","","805","","","","rating","","trustrating_stim/white_00340_940422_fa_edt.bmp","6","","","","","","","","","","",""
"image-keyboard-response","30","41951","0.0-6.0-2.12","62dc4a5fef307ee53c61afcc","bdp_trlrn","Tue Mar 14 2023 17:08:43 GMT-0800 (Alaska Daylight Time)","504251","Untrustworthy,Trustworthy","","null","","","","ratingFB","","trustrating_stim/white_00340_940422_fa_edt.bmp","null","","","","","","","","","","",""
"image-keyboard-response","31","43878","0.0-6.0-1.13","62dc4a5fef307ee53c61afcc","bdp_trlrn","Tue Mar 14 2023 17:08:43 GMT-0800 (Alaska Daylight Time)","504251","Untrustworthy,Trustworthy","","1819","","","","rating","","trustrating_stim/white_mw071.bmp","3","","","","","","","","","","",""
"image-keyboard-response","32","44083","0.0-6.0-2.13","62dc4a5fef307ee53c61afcc","bdp_trlrn","Tue Mar 14 2023 17:08:43 GMT-0800 (Alaska Daylight Time)","504251","Untrustworthy,Trustworthy","","null","","","","ratingFB","","trustrating_stim/white_mw071.bmp","null","","","","","","","","","","",""
"image-keyboard-response","33","45817","0.0-6.0-1.14","62dc4a5fef307ee53c61afcc","bdp_trlrn","Tue Mar 14 2023 17:08:43 GMT-0800 (Alaska Daylight Time)","504251","Untrustworthy,Trustworthy","","1607","","","","rating","","trustrating_stim/white_mw053.bmp","3","","","","","","","","","","",""
"image-keyboard-response","34","46024","0.0-6.0-2.14","62dc4a5fef307ee53c61afcc","bdp_trlrn","Tue Mar 14 2023 17:08:43 GMT-0800 (Alaska Daylight Time)","504251","Untrustworthy,Trustworthy","","null","","","","ratingFB","","trustrating_stim/white_mw053.bmp","null","","","","","","","","","","",""
"image-keyboard-response","35","47152","0.0-6.0-1.15","62dc4a5fef307ee53c61afcc","bdp_trlrn","Tue Mar 14 2023 17:08:43 GMT-0800 (Alaska Daylight Time)","504251","Untrustworthy,Trustworthy","","1019","","","","rating","","trustrating_stim/white_00129_931230_fb_edt.bmp","7","","","","","","","","","","",""
"image-keyboard-response","36","47358","0.0-6.0-2.15","62dc4a5fef307ee53c61afcc","bdp_trlrn","Tue Mar 14 2023 17:08:43 GMT-0800 (Alaska Daylight Time)","504251","Untrustworthy,Trustworthy","","null","","","","ratingFB","","trustrating_stim/white_00129_931230_fb_edt.bmp","null","","","","","","","","","","",""
"image-keyboard-response","37","49793","0.0-6.0-1.16","62dc4a5fef307ee53c61afcc","bdp_trlrn","Tue Mar 14 2023 17:08:43 GMT-0800 (Alaska Daylight Time)","504251","Untrustworthy,Trustworthy","","2328","","","","rating","","trustrating_stim/white_00577_940928_fa_edt.bmp","2","","","","","","","","","","",""
"image-keyboard-response","38","50003","0.0-6.0-2.16","62dc4a5fef307ee53c61afcc","bdp_trlrn","Tue Mar 14 2023 17:08:43 GMT-0800 (Alaska Daylight Time)","504251","Untrustworthy,Trustworthy","","null","","","","ratingFB","","trustrating_stim/white_00577_940928_fa_edt.bmp","null","","","","","","","","","","",""
"image-keyboard-response","39","51416","0.0-6.0-1.17","62dc4a5fef307ee53c61afcc","bdp_trlrn","Tue Mar 14 2023 17:08:43 GMT-0800 (Alaska Daylight Time)","504251","Untrustworthy,Trustworthy","","1307","","","","rating","","trustrating_stim/white_00223_940128_fb_edt.bmp","2","","","","","","","","","","",""
"image-keyboard-response","40","51622","0.0-6.0-2.17","62dc4a5fef307ee53c61afcc","bdp_trlrn","Tue Mar 14 2023 17:08:43 GMT-0800 (Alaska Daylight Time)","504251","Untrustworthy,Trustworthy","","null","","","","ratingFB","","trustrating_stim/white_00223_940128_fb_edt.bmp","null","","","","","","","","","","",""
"image-keyboard-response","41","52909","0.0-6.0-1.18","62dc4a5fef307ee53c61afcc","bdp_trlrn","Tue Mar 14 2023 17:08:43 GMT-0800 (Alaska Daylight Time)","504251","Untrustworthy,Trustworthy","","1180","","","","rating","","trustrating_stim/white_00898_960530_fa_edt.bmp","6","","","","","","","","","","",""
"image-keyboard-response","42","53115","0.0-6.0-2.18","62dc4a5fef307ee53c61afcc","bdp_trlrn","Tue Mar 14 2023 17:08:43 GMT-0800 (Alaska Daylight Time)","504251","Untrustworthy,Trustworthy","","null","","","","ratingFB","","trustrating_stim/white_00898_960530_fa_edt.bmp","null","","","","","","","","","","",""
"image-keyboard-response","43","54373","0.0-6.0-1.19","62dc4a5fef307ee53c61afcc","bdp_trlrn","Tue Mar 14 2023 17:08:43 GMT-0800 (Alaska Daylight Time)","504251","Untrustworthy,Trustworthy","","1149","","","","rating","","trustrating_stim/white_00299_940422_fa_edt.bmp","4","","","","","","","","","","",""
"image-keyboard-response","44","54578","0.0-6.0-2.19","62dc4a5fef307ee53c61afcc","bdp_trlrn","Tue Mar 14 2023 17:08:43 GMT-0800 (Alaska Daylight Time)","504251","Untrustworthy,Trustworthy","","null","","","","ratingFB","","trustrating_stim/white_00299_940422_fa_edt.bmp","null","","","","","","","","","","",""
"image-keyboard-response","45","56144","0.0-6.0-1.20","62dc4a5fef307ee53c61afcc","bdp_trlrn","Tue Mar 14 2023 17:08:43 GMT-0800 (Alaska Daylight Time)","504251","Untrustworthy,Trustworthy","","1458","","","","rating","","trustrating_stim/white_00785_941205_fb_edt.bmp","4","","","","","","","","","","",""
"image-keyboard-response","46","56350","0.0-6.0-2.20","62dc4a5fef307ee53c61afcc","bdp_trlrn","Tue Mar 14 2023 17:08:43 GMT-0800 (Alaska Daylight Time)","504251","Untrustworthy,Trustworthy","","null","","","","ratingFB","","trustrating_stim/white_00785_941205_fb_edt.bmp","null","","","","","","","","","","",""
"image-keyboard-response","47","58040","0.0-6.0-1.21","62dc4a5fef307ee53c61afcc","bdp_trlrn","Tue Mar 14 2023 17:08:43 GMT-0800 (Alaska Daylight Time)","504251","Untrustworthy,Trustworthy","","1579","","","","rating","","trustrating_stim/white_mw049.bmp","7","","","","","","","","","","",""
"image-keyboard-response","48","58249","0.0-6.0-2.21","62dc4a5fef307ee53c61afcc","bdp_trlrn","Tue Mar 14 2023 17:08:43 GMT-0800 (Alaska Daylight Time)","504251","Untrustworthy,Trustworthy","","null","","","","ratingFB","","trustrating_stim/white_mw049.bmp","null","","","","","","","","","","",""
"image-keyboard-response","49","59998","0.0-6.0-1.22","62dc4a5fef307ee53c61afcc","bdp_trlrn","Tue Mar 14 2023 17:08:43 GMT-0800 (Alaska Daylight Time)","504251","Untrustworthy,Trustworthy","","1638","","","","rating","","trustrating_stim/white_mw097.bmp","4","","","","","","","","","","",""
"image-keyboard-response","50","60203","0.0-6.0-2.22","62dc4a5fef307ee53c61afcc","bdp_trlrn","Tue Mar 14 2023 17:08:43 GMT-0800 (Alaska Daylight Time)","504251","Untrustworthy,Trustworthy","","null","","","","ratingFB","","trustrating_stim/white_mw097.bmp","null","","","","","","","","","","",""
"image-keyboard-response","51","61487","0.0-6.0-1.23","62dc4a5fef307ee53c61afcc","bdp_trlrn","Tue Mar 14 2023 17:08:43 GMT-0800 (Alaska Daylight Time)","504251","Untrustworthy,Trustworthy","","1174","","","","rating","","trustrating_stim/white_mw066.bmp","3","","","","","","","","","","",""
"image-keyboard-response","52","61694","0.0-6.0-2.23","62dc4a5fef307ee53c61afcc","bdp_trlrn","Tue Mar 14 2023 17:08:43 GMT-0800 (Alaska Daylight Time)","504251","Untrustworthy,Trustworthy","","null","","","","ratingFB","","trustrating_stim/white_mw066.bmp","null","","","","","","","","","","",""
"image-keyboard-response","53","62642","0.0-6.0-1.24","62dc4a5fef307ee53c61afcc","bdp_trlrn","Tue Mar 14 2023 17:08:43 GMT-0800 (Alaska Daylight Time)","504251","Untrustworthy,Trustworthy","","844","","","","rating","","trustrating_stim/white_00109_931230_fa_edt.bmp","3","","","","","","","","","","",""
"image-keyboard-response","54","62846","0.0-6.0-2.24","62dc4a5fef307ee53c61afcc","bdp_trlrn","Tue Mar 14 2023 17:08:43 GMT-0800 (Alaska Daylight Time)","504251","Untrustworthy,Trustworthy","","null","","","","ratingFB","","trustrating_stim/white_00109_931230_fa_edt.bmp","null","","","","","","","","","","",""
"image-keyboard-response","55","65310","0.0-6.0-1.25","62dc4a5fef307ee53c61afcc","bdp_trlrn","Tue Mar 14 2023 17:08:43 GMT-0800 (Alaska Daylight Time)","504251","Untrustworthy,Trustworthy","","2350","","","","rating","","trustrating_stim/white_00519_940519_fb_edt.bmp","5","","","","","","","","","","",""
"image-keyboard-response","56","65515","0.0-6.0-2.25","62dc4a5fef307ee53c61afcc","bdp_trlrn","Tue Mar 14 2023 17:08:43 GMT-0800 (Alaska Daylight Time)","504251","Untrustworthy,Trustworthy","","null","","","","ratingFB","","trustrating_stim/white_00519_940519_fb_edt.bmp","null","","","","","","","","","","",""
"image-keyboard-response","57","67062","0.0-6.0-1.26","62dc4a5fef307ee53c61afcc","bdp_trlrn","Tue Mar 14 2023 17:08:43 GMT-0800 (Alaska Daylight Time)","504251","Untrustworthy,Trustworthy","","1431","","","","rating","","trustrating_stim/white_00602_940928_fb_edt.bmp","6","","","","","","","","","","",""
"image-keyboard-response","58","67267","0.0-6.0-2.26","62dc4a5fef307ee53c61afcc","bdp_trlrn","Tue Mar 14 2023 17:08:43 GMT-0800 (Alaska Daylight Time)","504251","Untrustworthy,Trustworthy","","null","","","","ratingFB","","trustrating_stim/white_00602_940928_fb_edt.bmp","null","","","","","","","","","","",""
"image-keyboard-response","59","68699","0.0-6.0-1.27","62dc4a5fef307ee53c61afcc","bdp_trlrn","Tue Mar 14 2023 17:08:43 GMT-0800 (Alaska Daylight Time)","504251","Untrustworthy,Trustworthy","","1321","","","","rating","","trustrating_stim/white_mw089.bmp","3","","","","","","","","","","",""
"image-keyboard-response","60","68903","0.0-6.0-2.27","62dc4a5fef307ee53c61afcc","bdp_trlrn","Tue Mar 14 2023 17:08:43 GMT-0800 (Alaska Daylight Time)","504251","Untrustworthy,Trustworthy","","null","","","","ratingFB","","trustrating_stim/white_mw089.bmp","null","","","","","","","","","","",""
"image-keyboard-response","61","70128","0.0-6.0-1.28","62dc4a5fef307ee53c61afcc","bdp_trlrn","Tue Mar 14 2023 17:08:43 GMT-0800 (Alaska Daylight Time)","504251","Untrustworthy,Trustworthy","","1112","","","","rating","","trustrating_stim/white_mw048.bmp","6","","","","","","","","","","",""
"image-keyboard-response","62","70332","0.0-6.0-2.28","62dc4a5fef307ee53c61afcc","bdp_trlrn","Tue Mar 14 2023 17:08:43 GMT-0800 (Alaska Daylight Time)","504251","Untrustworthy,Trustworthy","","null","","","","ratingFB","","trustrating_stim/white_mw048.bmp","null","","","","","","","","","","",""
"image-keyboard-response","63","71479","0.0-6.0-1.29","62dc4a5fef307ee53c61afcc","bdp_trlrn","Tue Mar 14 2023 17:08:43 GMT-0800 (Alaska Daylight Time)","504251","Untrustworthy,Trustworthy","","1034","","","","rating","","trustrating_stim/white_mw056.bmp","6","","","","","","","","","","",""
"image-keyboard-response","64","71686","0.0-6.0-2.29","62dc4a5fef307ee53c61afcc","bdp_trlrn","Tue Mar 14 2023 17:08:43 GMT-0800 (Alaska Daylight Time)","504251","Untrustworthy,Trustworthy","","null","","","","ratingFB","","trustrating_stim/white_mw056.bmp","null","","","","","","","","","","",""
"image-keyboard-response","65","72683","0.0-6.0-1.30","62dc4a5fef307ee53c61afcc","bdp_trlrn","Tue Mar 14 2023 17:08:43 GMT-0800 (Alaska Daylight Time)","504251","Untrustworthy,Trustworthy","","883","","","","rating","","trustrating_stim/white_00223_940128_fb_edt.bmp","3","","","","","","","","","","",""
"image-keyboard-response","66","72888","0.0-6.0-2.30","62dc4a5fef307ee53c61afcc","bdp_trlrn","Tue Mar 14 2023 17:08:43 GMT-0800 (Alaska Daylight Time)","504251","Untrustworthy,Trustworthy","","null","","","","ratingFB","","trustrating_stim/white_00223_940128_fb_edt.bmp","null","","","","","","","","","","",""
"image-keyboard-response","67","74110","0.0-6.0-1.31","62dc4a5fef307ee53c61afcc","bdp_trlrn","Tue Mar 14 2023 17:08:43 GMT-0800 (Alaska Daylight Time)","504251","Untrustworthy,Trustworthy","","1105","","","","rating","","trustrating_stim/white_mw089.bmp","3","","","","","","","","","","",""
"image-keyboard-response","68","74313","0.0-6.0-2.31","62dc4a5fef307ee53c61afcc","bdp_trlrn","Tue Mar 14 2023 17:08:43 GMT-0800 (Alaska Daylight Time)","504251","Untrustworthy,Trustworthy","","null","","","","ratingFB","","trustrating_stim/white_mw089.bmp","null","","","","","","","","","","",""
"image-keyboard-response","69","76510","0.0-6.0-1.32","62dc4a5fef307ee53c61afcc","bdp_trlrn","Tue Mar 14 2023 17:08:43 GMT-0800 (Alaska Daylight Time)","504251","Untrustworthy,Trustworthy","","2083","","","","rating","","trustrating_stim/white_00602_940928_fb_edt.bmp","6","","","","","","","","","","",""
"image-keyboard-response","70","76718","0.0-6.0-2.32","62dc4a5fef307ee53c61afcc","bdp_trlrn","Tue Mar 14 2023 17:08:43 GMT-0800 (Alaska Daylight Time)","504251","Untrustworthy,Trustworthy","","null","","","","ratingFB","","trustrating_stim/white_00602_940928_fb_edt.bmp","null","","","","","","","","","","",""
"image-keyboard-response","71","79053","0.0-6.0-1.33","62dc4a5fef307ee53c61afcc","bdp_trlrn","Tue Mar 14 2023 17:08:43 GMT-0800 (Alaska Daylight Time)","504251","Untrustworthy,Trustworthy","","2222","","","","rating","","trustrating_stim/white_00761_941201_fb_edt.bmp","8","","","","","","","","","","",""
"image-keyboard-response","72","79259","0.0-6.0-2.33","62dc4a5fef307ee53c61afcc","bdp_trlrn","Tue Mar 14 2023 17:08:43 GMT-0800 (Alaska Daylight Time)","504251","Untrustworthy,Trustworthy","","null","","","","ratingFB","","trustrating_stim/white_00761_941201_fb_edt.bmp","null","","","","","","","","","","",""
"image-keyboard-response","73","80556","0.0-6.0-1.34","62dc4a5fef307ee53c61afcc","bdp_trlrn","Tue Mar 14 2023 17:08:43 GMT-0800 (Alaska Daylight Time)","504251","Untrustworthy,Trustworthy","","1184","","","","rating","","trustrating_stim/white_00129_931230_fb_edt.bmp","7","","","","","","","","","","",""
"image-keyboard-response","74","80761","0.0-6.0-2.34","62dc4a5fef307ee53c61afcc","bdp_trlrn","Tue Mar 14 2023 17:08:43 GMT-0800 (Alaska Daylight Time)","504251","Untrustworthy,Trustworthy","","null","","","","ratingFB","","trustrating_stim/white_00129_931230_fb_edt.bmp","null","","","","","","","","","","",""
"image-keyboard-response","75","81875","0.0-6.0-1.35","62dc4a5fef307ee53c61afcc","bdp_trlrn","Tue Mar 14 2023 17:08:43 GMT-0800 (Alaska Daylight Time)","504251","Untrustworthy,Trustworthy","","1004","","","","rating","","trustrating_stim/white_00577_940928_fa_edt.bmp","2","","","","","","","","","","",""
"image-keyboard-response","76","82079","0.0-6.0-2.35","62dc4a5fef307ee53c61afcc","bdp_trlrn","Tue Mar 14 2023 17:08:43 GMT-0800 (Alaska Daylight Time)","504251","Untrustworthy,Trustworthy","","null","","","","ratingFB","","trustrating_stim/white_00577_940928_fa_edt.bmp","null","","","","","","","","","","",""
"image-keyboard-response","77","83540","0.0-6.0-1.36","62dc4a5fef307ee53c61afcc","bdp_trlrn","Tue Mar 14 2023 17:08:43 GMT-0800 (Alaska Daylight Time)","504251","Untrustworthy,Trustworthy","","1346","","","","rating","","trustrating_stim/white_mw063.bmp","2","","","","","","","","","","",""
"image-keyboard-response","78","83744","0.0-6.0-2.36","62dc4a5fef307ee53c61afcc","bdp_trlrn","Tue Mar 14 2023 17:08:43 GMT-0800 (Alaska Daylight Time)","504251","Untrustworthy,Trustworthy","","null","","","","ratingFB","","trustrating_stim/white_mw063.bmp","null","","","","","","","","","","",""
"image-keyboard-response","79","84954","0.0-6.0-1.37","62dc4a5fef307ee53c61afcc","bdp_trlrn","Tue Mar 14 2023 17:08:43 GMT-0800 (Alaska Daylight Time)","504251","Untrustworthy,Trustworthy","","1097","","","","rating","","trustrating_stim/white_mw053.bmp","7","","","","","","","","","","",""
"image-keyboard-response","80","85160","0.0-6.0-2.37","62dc4a5fef307ee53c61afcc","bdp_trlrn","Tue Mar 14 2023 17:08:43 GMT-0800 (Alaska Daylight Time)","504251","Untrustworthy,Trustworthy","","null","","","","ratingFB","","trustrating_stim/white_mw053.bmp","null","","","","","","","","","","",""
"image-keyboard-response","81","86973","0.0-6.0-1.38","62dc4a5fef307ee53c61afcc","bdp_trlrn","Tue Mar 14 2023 17:08:43 GMT-0800 (Alaska Daylight Time)","504251","Untrustworthy,Trustworthy","","1701","","","","rating","","trustrating_stim/white_mw097.bmp","3","","","","","","","","","","",""
"image-keyboard-response","82","87177","0.0-6.0-2.38","62dc4a5fef307ee53c61afcc","bdp_trlrn","Tue Mar 14 2023 17:08:43 GMT-0800 (Alaska Daylight Time)","504251","Untrustworthy,Trustworthy","","null","","","","ratingFB","","trustrating_stim/white_mw097.bmp","null","","","","","","","","","","",""
"image-keyboard-response","83","88835","0.0-6.0-1.39","62dc4a5fef307ee53c61afcc","bdp_trlrn","Tue Mar 14 2023 17:08:43 GMT-0800 (Alaska Daylight Time)","504251","Untrustworthy,Trustworthy","","1545","","","","rating","","trustrating_stim/white_mw056.bmp","3","","","","","","","","","","",""
"image-keyboard-response","84","89040","0.0-6.0-2.39","62dc4a5fef307ee53c61afcc","bdp_trlrn","Tue Mar 14 2023 17:08:43 GMT-0800 (Alaska Daylight Time)","504251","Untrustworthy,Trustworthy","","null","","","","ratingFB","","trustrating_stim/white_mw056.bmp","null","","","","","","","","","","",""
"image-keyboard-response","85","90025","0.0-6.0-1.40","62dc4a5fef307ee53c61afcc","bdp_trlrn","Tue Mar 14 2023 17:08:43 GMT-0800 (Alaska Daylight Time)","504251","Untrustworthy,Trustworthy","","874","","","","rating","","trustrating_stim/white_00757_941201_fa_edt.bmp","3","","","","","","","","","","",""
"image-keyboard-response","86","90231","0.0-6.0-2.40","62dc4a5fef307ee53c61afcc","bdp_trlrn","Tue Mar 14 2023 17:08:43 GMT-0800 (Alaska Daylight Time)","504251","Untrustworthy,Trustworthy","","null","","","","ratingFB","","trustrating_stim/white_00757_941201_fa_edt.bmp","null","","","","","","","","","","",""
"image-keyboard-response","87","91393","0.0-6.0-1.41","62dc4a5fef307ee53c61afcc","bdp_trlrn","Tue Mar 14 2023 17:08:43 GMT-0800 (Alaska Daylight Time)","504251","Untrustworthy,Trustworthy","","1047","","","","rating","","trustrating_stim/white_mw035.bmp","7","","","","","","","","","","",""
"image-keyboard-response","88","91598","0.0-6.0-2.41","62dc4a5fef307ee53c61afcc","bdp_trlrn","Tue Mar 14 2023 17:08:43 GMT-0800 (Alaska Daylight Time)","504251","Untrustworthy,Trustworthy","","null","","","","ratingFB","","trustrating_stim/white_mw035.bmp","null","","","","","","","","","","",""
"image-keyboard-response","89","93782","0.0-6.0-1.42","62dc4a5fef307ee53c61afcc","bdp_trlrn","Tue Mar 14 2023 17:08:43 GMT-0800 (Alaska Daylight Time)","504251","Untrustworthy,Trustworthy","","2070","","","","rating","","trustrating_stim/white_mw048.bmp","3","","","","","","","","","","",""
"image-keyboard-response","90","93985","0.0-6.0-2.42","62dc4a5fef307ee53c61afcc","bdp_trlrn","Tue Mar 14 2023 17:08:43 GMT-0800 (Alaska Daylight Time)","504251","Untrustworthy,Trustworthy","","null","","","","ratingFB","","trustrating_stim/white_mw048.bmp","null","","","","","","","","","","",""
"image-keyboard-response","91","95356","0.0-6.0-1.43","62dc4a5fef307ee53c61afcc","bdp_trlrn","Tue Mar 14 2023 17:08:43 GMT-0800 (Alaska Daylight Time)","504251","Untrustworthy,Trustworthy","","1257","","","","rating","","trustrating_stim/white_00898_960530_fa_edt.bmp","6","","","","","","","","","","",""
"image-keyboard-response","92","95561","0.0-6.0-2.43","62dc4a5fef307ee53c61afcc","bdp_trlrn","Tue Mar 14 2023 17:08:43 GMT-0800 (Alaska Daylight Time)","504251","Untrustworthy,Trustworthy","","null","","","","ratingFB","","trustrating_stim/white_00898_960530_fa_edt.bmp","null","","","","","","","","","","",""
"image-keyboard-response","93","96954","0.0-6.0-1.44","62dc4a5fef307ee53c61afcc","bdp_trlrn","Tue Mar 14 2023 17:08:43 GMT-0800 (Alaska Daylight Time)","504251","Untrustworthy,Trustworthy","","1279","","","","rating","","trustrating_stim/white_00340_940422_fa_edt.bmp","5","","","","","","","","","","",""
"image-keyboard-response","94","97158","0.0-6.0-2.44","62dc4a5fef307ee53c61afcc","bdp_trlrn","Tue Mar 14 2023 17:08:43 GMT-0800 (Alaska Daylight Time)","504251","Untrustworthy,Trustworthy","","null","","","","ratingFB","","trustrating_stim/white_00340_940422_fa_edt.bmp","null","","","","","","","","","","",""
"image-keyboard-response","95","99516","0.0-6.0-1.45","62dc4a5fef307ee53c61afcc","bdp_trlrn","Tue Mar 14 2023 17:08:43 GMT-0800 (Alaska Daylight Time)","504251","Untrustworthy,Trustworthy","","2247","","","","rating","","trustrating_stim/white_mw099.bmp","6","","","","","","","","","","",""
"image-keyboard-response","96","99721","0.0-6.0-2.45","62dc4a5fef307ee53c61afcc","bdp_trlrn","Tue Mar 14 2023 17:08:43 GMT-0800 (Alaska Daylight Time)","504251","Untrustworthy,Trustworthy","","null","","","","ratingFB","","trustrating_stim/white_mw099.bmp","null","","","","","","","","","","",""
"image-keyboard-response","97","100890","0.0-6.0-1.46","62dc4a5fef307ee53c61afcc","bdp_trlrn","Tue Mar 14 2023 17:08:43 GMT-0800 (Alaska Daylight Time)","504251","Untrustworthy,Trustworthy","","1054","","","","rating","","trustrating_stim/white_mw084.bmp","3","","","","","","","","","","",""
"image-keyboard-response","98","101096","0.0-6.0-2.46","62dc4a5fef307ee53c61afcc","bdp_trlrn","Tue Mar 14 2023 17:08:43 GMT-0800 (Alaska Daylight Time)","504251","Untrustworthy,Trustworthy","","null","","","","ratingFB","","trustrating_stim/white_mw084.bmp","null","","","","","","","","","","",""
"image-keyboard-response","99","102510","0.0-6.0-1.47","62dc4a5fef307ee53c61afcc","bdp_trlrn","Tue Mar 14 2023 17:08:43 GMT-0800 (Alaska Daylight Time)","504251","Untrustworthy,Trustworthy","","1296","","","","rating","","trustrating_stim/white_00299_940422_fa_edt.bmp","6","","","","","","","","","","",""
"image-keyboard-response","100","102714","0.0-6.0-2.47","62dc4a5fef307ee53c61afcc","bdp_trlrn","Tue Mar 14 2023 17:08:43 GMT-0800 (Alaska Daylight Time)","504251","Untrustworthy,Trustworthy","","null","","","","ratingFB","","trustrating_stim/white_00299_940422_fa_edt.bmp","null","","","","","","","","","","",""
"image-keyboard-response","101","106302","0.0-6.0-1.48","62dc4a5fef307ee53c61afcc","bdp_trlrn","Tue Mar 14 2023 17:08:43 GMT-0800 (Alaska Daylight Time)","504251","Untrustworthy,Trustworthy","","3473","","","","rating","","trustrating_stim/white_00519_940519_fb_edt.bmp","5","","","","","","","","","","",""
"image-keyboard-response","102","106507","0.0-6.0-2.48","62dc4a5fef307ee53c61afcc","bdp_trlrn","Tue Mar 14 2023 17:08:43 GMT-0800 (Alaska Daylight Time)","504251","Untrustworthy,Trustworthy","","null","","","","ratingFB","","trustrating_stim/white_00519_940519_fb_edt.bmp","null","","","","","","","","","","",""
"image-keyboard-response","103","107474","0.0-6.0-1.49","62dc4a5fef307ee53c61afcc","bdp_trlrn","Tue Mar 14 2023 17:08:43 GMT-0800 (Alaska Daylight Time)","504251","Untrustworthy,Trustworthy","","855","","","","rating","","trustrating_stim/white_00109_931230_fa_edt.bmp","6","","","","","","","","","","",""
"image-keyboard-response","104","107680","0.0-6.0-2.49","62dc4a5fef307ee53c61afcc","bdp_trlrn","Tue Mar 14 2023 17:08:43 GMT-0800 (Alaska Daylight Time)","504251","Untrustworthy,Trustworthy","","null","","","","ratingFB","","trustrating_stim/white_00109_931230_fa_edt.bmp","null","","","","","","","","","","",""
"image-keyboard-response","105","108752","0.0-6.0-1.50","62dc4a5fef307ee53c61afcc","bdp_trlrn","Tue Mar 14 2023 17:08:43 GMT-0800 (Alaska Daylight Time)","504251","Untrustworthy,Trustworthy","","959","","","","rating","","trustrating_stim/white_mw071.bmp","3","","","","","","","","","","",""
"image-keyboard-response","106","108956","0.0-6.0-2.50","62dc4a5fef307ee53c61afcc","bdp_trlrn","Tue Mar 14 2023 17:08:43 GMT-0800 (Alaska Daylight Time)","504251","Untrustworthy,Trustworthy","","null","","","","ratingFB","","trustrating_stim/white_mw071.bmp","null","","","","","","","","","","",""
"image-keyboard-response","107","109955","0.0-6.0-1.51","62dc4a5fef307ee53c61afcc","bdp_trlrn","Tue Mar 14 2023 17:08:43 GMT-0800 (Alaska Daylight Time)","504251","Untrustworthy,Trustworthy","","886","","","","rating","","trustrating_stim/white_mw066.bmp","6","","","","","","","","","","",""
"image-keyboard-response","108","110161","0.0-6.0-2.51","62dc4a5fef307ee53c61afcc","bdp_trlrn","Tue Mar 14 2023 17:08:43 GMT-0800 (Alaska Daylight Time)","504251","Untrustworthy,Trustworthy","","null","","","","ratingFB","","trustrating_stim/white_mw066.bmp","null","","","","","","","","","","",""
"image-keyboard-response","109","112073","0.0-6.0-1.52","62dc4a5fef307ee53c61afcc","bdp_trlrn","Tue Mar 14 2023 17:08:43 GMT-0800 (Alaska Daylight Time)","504251","Untrustworthy,Trustworthy","","1797","","","","rating","","trustrating_stim/white_mw049.bmp","4","","","","","","","","","","",""
"image-keyboard-response","110","112277","0.0-6.0-2.52","62dc4a5fef307ee53c61afcc","bdp_trlrn","Tue Mar 14 2023 17:08:43 GMT-0800 (Alaska Daylight Time)","504251","Untrustworthy,Trustworthy","","null","","","","ratingFB","","trustrating_stim/white_mw049.bmp","null","","","","","","","","","","",""
"image-keyboard-response","111","113544","0.0-6.0-1.53","62dc4a5fef307ee53c61afcc","bdp_trlrn","Tue Mar 14 2023 17:08:43 GMT-0800 (Alaska Daylight Time)","504251","Untrustworthy,Trustworthy","","1151","","","","rating","","trustrating_stim/white_mw033.bmp","3","","","","","","","","","","",""
"image-keyboard-response","112","113750","0.0-6.0-2.53","62dc4a5fef307ee53c61afcc","bdp_trlrn","Tue Mar 14 2023 17:08:43 GMT-0800 (Alaska Daylight Time)","504251","Untrustworthy,Trustworthy","","null","","","","ratingFB","","trustrating_stim/white_mw033.bmp","null","","","","","","","","","","",""
"image-keyboard-response","113","115041","0.0-6.0-1.54","62dc4a5fef307ee53c61afcc","bdp_trlrn","Tue Mar 14 2023 17:08:43 GMT-0800 (Alaska Daylight Time)","504251","Untrustworthy,Trustworthy","","1182","","","","rating","","trustrating_stim/white_00785_941205_fb_edt.bmp","2","","","","","","","","","","",""
"image-keyboard-response","114","115247","0.0-6.0-2.54","62dc4a5fef307ee53c61afcc","bdp_trlrn","Tue Mar 14 2023 17:08:43 GMT-0800 (Alaska Daylight Time)","504251","Untrustworthy,Trustworthy","","null","","","","ratingFB","","trustrating_stim/white_00785_941205_fb_edt.bmp","null","","","","","","","","","","",""
"image-keyboard-response","115","116381","0.0-6.0-1.55","62dc4a5fef307ee53c61afcc","bdp_trlrn","Tue Mar 14 2023 17:08:43 GMT-0800 (Alaska Daylight Time)","504251","Untrustworthy,Trustworthy","","1018","","","","rating","","trustrating_stim/white_00807_941205_fb_edt.bmp","2","","","","","","","","","","",""
"image-keyboard-response","116","116585","0.0-6.0-2.55","62dc4a5fef307ee53c61afcc","bdp_trlrn","Tue Mar 14 2023 17:08:43 GMT-0800 (Alaska Daylight Time)","504251","Untrustworthy,Trustworthy","","null","","","","ratingFB","","trustrating_stim/white_00807_941205_fb_edt.bmp","null","","","","","","","","","","",""
"image-keyboard-response","117","117439","0.0-6.0-1.56","62dc4a5fef307ee53c61afcc","bdp_trlrn","Tue Mar 14 2023 17:08:43 GMT-0800 (Alaska Daylight Time)","504251","Untrustworthy,Trustworthy","","738","","","","rating","","trustrating_stim/white_00659_941121_fa_edt.bmp","7","","","","","","","","","","",""
"image-keyboard-response","118","117646","0.0-6.0-2.56","62dc4a5fef307ee53c61afcc","bdp_trlrn","Tue Mar 14 2023 17:08:43 GMT-0800 (Alaska Daylight Time)","504251","Untrustworthy,Trustworthy","","null","","","","ratingFB","","trustrating_stim/white_00659_941121_fa_edt.bmp","null","","","","","","","","","","",""
"image-keyboard-response","119","118395","0.0-6.0-1.57","62dc4a5fef307ee53c61afcc","bdp_trlrn","Tue Mar 14 2023 17:08:43 GMT-0800 (Alaska Daylight Time)","504251","Untrustworthy,Trustworthy","","637","","","","rating","","trustrating_stim/white_mw046.bmp","6","","","","","","","","","","",""
"image-keyboard-response","120","118600","0.0-6.0-2.57","62dc4a5fef307ee53c61afcc","bdp_trlrn","Tue Mar 14 2023 17:08:43 GMT-0800 (Alaska Daylight Time)","504251","Untrustworthy,Trustworthy","","null","","","","ratingFB","","trustrating_stim/white_mw046.bmp","null","","","","","","","","","","",""
"image-keyboard-response","121","119637","0.0-6.0-1.58","62dc4a5fef307ee53c61afcc","bdp_trlrn","Tue Mar 14 2023 17:08:43 GMT-0800 (Alaska Daylight Time)","504251","Untrustworthy,Trustworthy","","919","","","","rating","","trustrating_stim/white_mw060.bmp","3","","","","","","","","","","",""
"image-keyboard-response","122","119842","0.0-6.0-2.58","62dc4a5fef307ee53c61afcc","bdp_trlrn","Tue Mar 14 2023 17:08:43 GMT-0800 (Alaska Daylight Time)","504251","Untrustworthy,Trustworthy","","null","","","","ratingFB","","trustrating_stim/white_mw060.bmp","null","","","","","","","","","","",""
"image-keyboard-response","123","120862","0.0-6.0-1.59","62dc4a5fef307ee53c61afcc","bdp_trlrn","Tue Mar 14 2023 17:08:43 GMT-0800 (Alaska Daylight Time)","504251","Untrustworthy,Trustworthy","","913","","","","rating","","trustrating_stim/white_00120_931230_fa_edt.bmp","2","","","","","","","","","","",""
"image-keyboard-response","124","121065","0.0-6.0-2.59","62dc4a5fef307ee53c61afcc","bdp_trlrn","Tue Mar 14 2023 17:08:43 GMT-0800 (Alaska Daylight Time)","504251","Untrustworthy,Trustworthy","","null","","","","ratingFB","","trustrating_stim/white_00120_931230_fa_edt.bmp","null","","","","","","","","","","",""
"instructions","125","122762","0.0-7.0","62dc4a5fef307ee53c61afcc","bdp_trlrn","Tue Mar 14 2023 17:08:43 GMT-0800 (Alaska Daylight Time)","504251","Untrustworthy,Trustworthy","[{""page_index"":0,""viewing_time"":1585}]","1587","","","","","","","","","","","","","","","","","",""
"instructions","126","166166","0.0-8.0","62dc4a5fef307ee53c61afcc","bdp_trlrn","Tue Mar 14 2023 17:08:43 GMT-0800 (Alaska Daylight Time)","504251","Untrustworthy,Trustworthy","[{""page_index"":0,""viewing_time"":15550},{""page_index"":1,""viewing_time"":4555},{""page_index"":2,""viewing_time"":4014},{""page_index"":3,""viewing_time"":5403},{""page_index"":4,""viewing_time"":2266},{""page_index"":5,""viewing_time"":4332},{""page_index"":6,""viewing_time"":4108},{""page_index"":7,""viewing_time"":3073}]","43301","","","","","","","","","","","","","","","","","",""
"html-keyboard-response","127","171401","0.0-9.0","62dc4a5fef307ee53c61afcc","bdp_trlrn","Tue Mar 14 2023 17:08:43 GMT-0800 (Alaska Daylight Time)","504251","Untrustworthy,Trustworthy","","5229","","","","","","<div class='header' style='text-align:left; position: absolute; top: 5%; left: 5%;'><small>Task 3 of 5</small></div><div class='instruxDiv'><p><strong>1) What is the minimum number of points you can choose to send to your partner?</strong></p><p>a) 0</p><p>b) 1</p><p>c) 5</p>","C","","","","","","","","","","",""
"html-keyboard-response","128","175122","0.0-10.0","62dc4a5fef307ee53c61afcc","bdp_trlrn","Tue Mar 14 2023 17:08:43 GMT-0800 (Alaska Daylight Time)","504251","Untrustworthy,Trustworthy","","3610","","","","","","<div class='header' style='text-align:left; position: absolute; top: 5%; left: 5%;'><small>Task 3 of 5</small></div><div class='instruxDiv'><p><strong>1) What is the minimum number of points you can choose to send to your partner?</strong></p><p>a) 1</p><p>b) 1</p><p style='color:#FF0000'>c) 5</p><h3 style='color:#FF0000'>Incorrect!</h3><h3 class='center-content'>The correct response is b).</h3><h3 class='center-content'>The minimum number of points you can choose to send to your partner is 1 point.</h3><p><em>Press SPACEBAR to continue</em></p></div>"," ","","","","","","","","","","",""
"html-keyboard-response","129","179729","0.0-11.0","62dc4a5fef307ee53c61afcc","bdp_trlrn","Tue Mar 14 2023 17:08:43 GMT-0800 (Alaska Daylight Time)","504251","Untrustworthy,Trustworthy","","4503","","","","","","<div class='header' style='text-align:left; position: absolute; top: 5%; left: 5%;'><small>Task 3 of 5</small></div><div class='instruxDiv'><p><strong>2) What is the maximum number of points you can choose to send to your partner?</strong></p><p>a) 8</p><p>b) 5</p><p>c) 3</p>","A","","","","","","","","","","",""
"html-keyboard-response","130","181843","0.0-12.0","62dc4a5fef307ee53c61afcc","bdp_trlrn","Tue Mar 14 2023 17:08:43 GMT-0800 (Alaska Daylight Time)","504251","Untrustworthy,Trustworthy","","2006","","","","","","<div class='header' style='text-align:left; position: absolute; top: 5%; left: 5%;'><small>Task 3 of 5</small></div><div class='instruxDiv'><p><strong>2) What is the maximum number of points you can choose to send to your partner?</strong></p><p style='color:#FF0000'>a) 8</p><p>b) 5</p><p>c) 3</p><h3 style='color:#FF0000'>Incorrect!</h3><h3 class='center-content'>The correct response is b).</h3><h3 class='center-content'>The maximum number of points you can choose to send to your partner is 5 points.</h3><p><em>Press SPACEBAR to continue</em></p></div>"," ","","","","","","","","","","",""
"html-keyboard-response","131","186471","0.0-13.0","62dc4a5fef307ee53c61afcc","bdp_trlrn","Tue Mar 14 2023 17:08:43 GMT-0800 (Alaska Daylight Time)","504251","Untrustworthy,Trustworthy","","4523","","","","","","<div class='header' style='text-align:left; position: absolute; top: 5%; left: 5%;'><small>Task 3 of 5</small></div><div class='instruxDiv'><p><strong>3) What happens to the amount of points you send to your partner?</strong></p><p>a) Nothing</p><p>b) It doubles</p><p>c) It quadruples</p>","C","","","","","","","","","","",""
"html-keyboard-response","132","187332","0.0-14.0","62dc4a5fef307ee53c61afcc","bdp_trlrn","Tue Mar 14 2023 17:08:43 GMT-0800 (Alaska Daylight Time)","504251","Untrustworthy,Trustworthy","","754","","","","","","<div class='header' style='text-align:left; position: absolute; top: 5%; left: 5%;'><small>Task 3 of 5</small></div><div class='instruxDiv'><p><strong>3) What happens to the amount of points you send to your partner?</strong></p><p>a) Nothing</p><p>b) It doubles</p><p style='color:#00FF00'>c) It quadruples</p><h3 style='color:#00FF00'>Correct!</h3><h3 class='center-content'>The correct response is c).</h3><h3 class='center-content'>The amount of points you send to your partner quadruples.</h3><p><em>Press SPACEBAR to continue</em></p></div>"," ","","","","","","","","","","",""
"html-keyboard-response","133","197464","0.0-15.0","62dc4a5fef307ee53c61afcc","bdp_trlrn","Tue Mar 14 2023 17:08:43 GMT-0800 (Alaska Daylight Time)","504251","Untrustworthy,Trustworthy","","10028","","","","","","<div class='header' style='text-align:left; position: absolute; top: 5%; left: 5%;'><small>Task 3 of 5</small></div><div class='instruxDiv'><p><strong>4) If you decided to share 4 out of 5 points with your partner, and they decided to share half of the amount they received with you, how many points would you receive back from them on this round?</strong></p><p>a) 16</p><p>b) 0</p><p>c) 8</p>","C","","","","","","","","","","",""
"html-keyboard-response","134","198866","0.0-16.0","62dc4a5fef307ee53c61afcc","bdp_trlrn","Tue Mar 14 2023 17:08:43 GMT-0800 (Alaska Daylight Time)","504251","Untrustworthy,Trustworthy","","1296","","","","","","<div class='header' style='text-align:left; position: absolute; top: 5%; left: 5%;'><small>Task 3 of 5</small></div><div class='instruxDiv'><p><strong>4) If you decided to share 4 out of 5 points with your partner, and they decided to share half of the amount they received with you, how many points would you receive back from them on this round?</strong></p><p>a) 16</p><p>b) 0</p><p style='color:#00FF00'>c) 8</p><h3 style='color:#00FF00'>Correct!</h3><h3 class='center-content'>The correct response is c).</h3><h3 class='center-content'>If you shared 4 out of 5 points with your partner and they decided to share half of the amount they received with you, you would receive 8 points back (i.e. (4 x 4)/2 = 8).</h3><p><em>Press SPACEBAR to continue</em></p></div>"," ","","","","","","","","","","",""
"html-keyboard-response","135","203974","0.0-17.0","62dc4a5fef307ee53c61afcc","bdp_trlrn","Tue Mar 14 2023 17:08:43 GMT-0800 (Alaska Daylight Time)","504251","Untrustworthy,Trustworthy","","null","","","","","","<div class='header' style='text-align:left; position: absolute; top: 5%; left: 5%;'><small>Task 3 of 5</small></div><div class='instruxDiv'><p>Thank you for completing the quiz<p>These are the actual partners you will be interacting with in the next block:<p><div class='tc' align='center'><img class='introPic' src='trustrating_stim/white_00807_941205_fb_edt.bmp'><br><strong>Gavin</strong></div><div class='bl' align='center'><img class='introPic' src='trustrating_stim/white_mw056.bmp'><br><strong>Chris</strong></div><div class='br' align='center'><img class='introPic' src='trustrating_stim/white_00129_931230_fb_edt.bmp'><br><strong>Aaron</strong></div></div><p>Across <strong>66 rounds</strong> you will interact with each partner <strong>22 times</strong> (in random order).<p style='align:center; color:white'><font <em>Press SPACEBAR to continue</em></p>","null","","","","","","","","","","",""
"instructions","136","206782","0.0-18.0","62dc4a5fef307ee53c61afcc","bdp_trlrn","Tue Mar 14 2023 17:08:43 GMT-0800 (Alaska Daylight Time)","504251","Untrustworthy,Trustworthy","[{""page_index"":0,""viewing_time"":1297},{""page_index"":1,""viewing_time"":1507}]","2804","","","","","","","","","","","","","","","","","",""
"html-keyboard-response","137","211344","0.0-19.0-1.0","62dc4a5fef307ee53c61afcc","bdp_trlrn","Tue Mar 14 2023 17:08:43 GMT-0800 (Alaska Daylight Time)","504251","Untrustworthy,Trustworthy","","4456","","","","decision","","<div class='trialDiv'><img src='trustrating_stim/white_00129_931230_fb_edt.bmp'><br><font class='baseline'><strong>Aaron</strong><p>Choose number of points to send.</font><div class='respPicDiv'><img src='img/responseButtonOffersNo0L.png' class='respPic'></div></div>","4","1","Aaron","10","Shared","0.65,0.2","8","0.65","trustrating_stim/white_00129_931230_fb_edt.bmp","7","5","1"
"html-keyboard-response","138","211606","0.0-19.0-2.0","62dc4a5fef307ee53c61afcc","bdp_trlrn","Tue Mar 14 2023 17:08:43 GMT-0800 (Alaska Daylight Time)","504251","Untrustworthy,Trustworthy","","null","","","","decisionFB","","<div class='trialDiv'><img src='trustrating_stim/white_00129_931230_fb_edt.bmp'><br><font class='baseline'><strong>Aaron</strong><p>Choose number of points to send.</font><div class='respPicDiv'><img src='img/responseButtonOffersNo0L4.png' class='respPic'></div></div>","null","1","Aaron","10","Shared","0.65,0.2","8","0.65","trustrating_stim/white_00129_931230_fb_edt.bmp","7","1","1"
"html-keyboard-response","139","212615","0.0-19.0-3.0","62dc4a5fef307ee53c61afcc","bdp_trlrn","Tue Mar 14 2023 17:08:43 GMT-0800 (Alaska Daylight Time)","504251","Untrustworthy,Trustworthy","","null","","","","feedback","","<div class='trialDiv'><img src='trustrating_stim/white_00129_931230_fb_edt.bmp'><br><font class='baseline'><strong>Aaron</strong><p>Received: <strong>16</strong></font> &nbsp; &nbsp; &nbsp; &nbsp; &nbsp; &nbsp;<font class='posOutcome'>Shared back: <strong>8</strong></font></font><div class='respPicDiv'><img src='img/responseButtonOffersNo0_wht.png' class='respPic'></div></div>","null","1","Aaron","10","Shared","0.65,0.2","8","0.65","trustrating_stim/white_00129_931230_fb_edt.bmp","7","9","1"
"html-keyboard-response","140","214332","0.0-19.0-1.1","62dc4a5fef307ee53c61afcc","bdp_trlrn","Tue Mar 14 2023 17:08:43 GMT-0800 (Alaska Daylight Time)","504251","Untrustworthy,Trustworthy","","1713","","","","decision","","<div class='trialDiv'><img src='trustrating_stim/white_mw056.bmp'><br><font class='baseline'><strong>Chris</strong><p>Choose number of points to send.</font><div class='respPicDiv'><img src='img/responseButtonOffersNo0L.png' class='respPic'></div></div>","3","1","Chris","5","Shared","0.2,0.8","9","0.2","trustrating_stim/white_mw056.bmp","4.5","14","2"
"html-keyboard-response","141","214588","0.0-19.0-2.1","62dc4a5fef307ee53c61afcc","bdp_trlrn","Tue Mar 14 2023 17:08:43 GMT-0800 (Alaska Daylight Time)","504251","Untrustworthy,Trustworthy","","null","","","","decisionFB","","<div class='trialDiv'><img src='trustrating_stim/white_mw056.bmp'><br><font class='baseline'><strong>Chris</strong><p>Choose number of points to send.</font><div class='respPicDiv'><img src='img/responseButtonOffersNo0L3.png' class='respPic'></div></div>","null","1","Chris","5","Shared","0.2,0.8","9","0.2","trustrating_stim/white_mw056.bmp","4.5","11","2"
"html-keyboard-response","142","215594","0.0-19.0-3.1","62dc4a5fef307ee53c61afcc","bdp_trlrn","Tue Mar 14 2023 17:08:43 GMT-0800 (Alaska Daylight Time)","504251","Untrustworthy,Trustworthy","","null","","","","feedback","","<div class='trialDiv'><img src='trustrating_stim/white_mw056.bmp'><br><font class='baseline'><strong>Chris</strong><p>Received: <strong>12</strong></font> &nbsp; &nbsp; &nbsp; &nbsp; &nbsp; &nbsp;<font class='posOutcome'>Shared back: <strong>6</strong></font></font><div class='respPicDiv'><img src='img/responseButtonOffersNo0_wht.png' class='respPic'></div></div>","null","1","Chris","5","Shared","0.2,0.8","9","0.2","trustrating_stim/white_mw056.bmp","4.5","17","2"
"html-keyboard-response","143","216044","0.0-19.0-1.2","62dc4a5fef307ee53c61afcc","bdp_trlrn","Tue Mar 14 2023 17:08:43 GMT-0800 (Alaska Daylight Time)","504251","Untrustworthy,Trustworthy","","444","","","","decision","","<div class='trialDiv'><img src='trustrating_stim/white_00807_941205_fb_edt.bmp'><br><font class='baseline'><strong>Gavin</strong><p>Choose number of points to send.</font><div class='respPicDiv'><img src='img/responseButtonOffersNo0L.png' class='respPic'></div></div>","3","1","Gavin","0","Shared","0.2,0.65","11","0.2","trustrating_stim/white_00807_941205_fb_edt.bmp","2","22","3"
"html-keyboard-response","144","216300","0.0-19.0-2.2","62dc4a5fef307ee53c61afcc","bdp_trlrn","Tue Mar 14 2023 17:08:43 GMT-0800 (Alaska Daylight Time)","504251","Untrustworthy,Trustworthy","","null","","","","decisionFB","","<div class='trialDiv'><img src='trustrating_stim/white_00807_941205_fb_edt.bmp'><br><font class='baseline'><strong>Gavin</strong><p>Choose number of points to send.</font><div class='respPicDiv'><img src='img/responseButtonOffersNo0L3.png' class='respPic'></div></div>","null","1","Gavin","0","Shared","0.2,0.65","11","0.2","trustrating_stim/white_00807_941205_fb_edt.bmp","2","19","3"
"html-keyboard-response","145","217309","0.0-19.0-3.2","62dc4a5fef307ee53c61afcc","bdp_trlrn","Tue Mar 14 2023 17:08:43 GMT-0800 (Alaska Daylight Time)","504251","Untrustworthy,Trustworthy","","null","","","","feedback","","<div class='trialDiv'><img src='trustrating_stim/white_00807_941205_fb_edt.bmp'><br><font class='baseline'><strong>Gavin</strong><p>Received: <strong>12</strong></font> &nbsp; &nbsp; &nbsp; &nbsp; &nbsp; &nbsp;<font class='posOutcome'>Shared back: <strong>6</strong></font></font><div class='respPicDiv'><img src='img/responseButtonOffersNo0_wht.png' class='respPic'></div></div>","null","1","Gavin","0","Shared","0.2,0.65","11","0.2","trustrating_stim/white_00807_941205_fb_edt.bmp","2","25","3"
"html-keyboard-response","146","218067","0.0-19.0-1.3","62dc4a5fef307ee53c61afcc","bdp_trlrn","Tue Mar 14 2023 17:08:43 GMT-0800 (Alaska Daylight Time)","504251","Untrustworthy,Trustworthy","","753","","","","decision","","<div class='trialDiv'><img src='trustrating_stim/white_mw056.bmp'><br><font class='baseline'><strong>Chris</strong><p>Choose number of points to send.</font><div class='respPicDiv'><img src='img/responseButtonOffersNo0L.png' class='respPic'></div></div>","4","2","Chris","5","Shared","0.2,0.8","9","0.2","trustrating_stim/white_mw056.bmp","4.5","30","4"
"html-keyboard-response","147","218323","0.0-19.0-2.3","62dc4a5fef307ee53c61afcc","bdp_trlrn","Tue Mar 14 2023 17:08:43 GMT-0800 (Alaska Daylight Time)","504251","Untrustworthy,Trustworthy","","null","","","","decisionFB","","<div class='trialDiv'><img src='trustrating_stim/white_mw056.bmp'><br><font class='baseline'><strong>Chris</strong><p>Choose number of points to send.</font><div class='respPicDiv'><img src='img/responseButtonOffersNo0L4.png' class='respPic'></div></div>","null","2","Chris","5","Shared","0.2,0.8","9","0.2","trustrating_stim/white_mw056.bmp","4.5","26","4"
"html-keyboard-response","148","219331","0.0-19.0-3.3","62dc4a5fef307ee53c61afcc","bdp_trlrn","Tue Mar 14 2023 17:08:43 GMT-0800 (Alaska Daylight Time)","504251","Untrustworthy,Trustworthy","","null","","","","feedback","","<div class='trialDiv'><img src='trustrating_stim/white_mw056.bmp'><br><font class='baseline'><strong>Chris</strong><p>Received: <strong>16</strong></font> &nbsp; &nbsp; &nbsp; &nbsp; &nbsp; &nbsp;<font class='posOutcome'>Shared back: <strong>8</strong></font></font><div class='respPicDiv'><img src='img/responseButtonOffersNo0_wht.png' class='respPic'></div></div>","null","2","Chris","5","Shared","0.2,0.8","9","0.2","trustrating_stim/white_mw056.bmp","4.5","34","4"
"html-keyboard-response","149","220211","0.0-19.0-1.4","62dc4a5fef307ee53c61afcc","bdp_trlrn","Tue Mar 14 2023 17:08:43 GMT-0800 (Alaska Daylight Time)","504251","Untrustworthy,Trustworthy","","874","","","","decision","","<div class='trialDiv'><img src='trustrating_stim/white_00129_931230_fb_edt.bmp'><br><font class='baseline'><strong>Aaron</strong><p>Choose number of points to send.</font><div class='respPicDiv'><img src='img/responseButtonOffersNo0L.png' class='respPic'></div></div>","2","2","Aaron","10","Shared","0.65,0.2","8","0.65","trustrating_stim/white_00129_931230_fb_edt.bmp","7","39","5"
"html-keyboard-response","150","220463","0.0-19.0-2.4","62dc4a5fef307ee53c61afcc","bdp_trlrn","Tue Mar 14 2023 17:08:43 GMT-0800 (Alaska Daylight Time)","504251","Untrustworthy,Trustworthy","","null","","","","decisionFB","","<div class='trialDiv'><img src='trustrating_stim/white_00129_931230_fb_edt.bmp'><br><font class='baseline'><strong>Aaron</strong><p>Choose number of points to send.</font><div class='respPicDiv'><img src='img/responseButtonOffersNo0L2.png' class='respPic'></div></div>","null","2","Aaron","10","Shared","0.65,0.2","8","0.65","trustrating_stim/white_00129_931230_fb_edt.bmp","7","37","5"
"html-keyboard-response","151","221468","0.0-19.0-3.4","62dc4a5fef307ee53c61afcc","bdp_trlrn","Tue Mar 14 2023 17:08:43 GMT-0800 (Alaska Daylight Time)","504251","Untrustworthy,Trustworthy","","null","","","","feedback","","<div class='trialDiv'><img src='trustrating_stim/white_00129_931230_fb_edt.bmp'><br><font class='baseline'><strong>Aaron</strong><p>Received: <strong>8</strong></font> &nbsp; &nbsp; &nbsp; &nbsp; &nbsp; &nbsp;<font class='posOutcome'>Shared back: <strong>4</strong></font></font><div class='respPicDiv'><img src='img/responseButtonOffersNo0_wht.png' class='respPic'></div></div>","null","2","Aaron","10","Shared","0.65,0.2","8","0.65","trustrating_stim/white_00129_931230_fb_edt.bmp","7","41","5"
"html-keyboard-response","152","223635","0.0-19.0-1.5","62dc4a5fef307ee53c61afcc","bdp_trlrn","Tue Mar 14 2023 17:08:43 GMT-0800 (Alaska Daylight Time)","504251","Untrustworthy,Trustworthy","","2161","","","","decision","","<div class='trialDiv'><img src='trustrating_stim/white_00807_941205_fb_edt.bmp'><br><font class='baseline'><strong>Gavin</strong><p>Choose number of points to send.</font><div class='respPicDiv'><img src='img/responseButtonOffersNo0L.png' class='respPic'></div></div>","1","2","Gavin","0","Kept","0.2,0.65","11","0.2","trustrating_stim/white_00807_941205_fb_edt.bmp","2","46","6"
"html-keyboard-response","153","223892","0.0-19.0-2.5","62dc4a5fef307ee53c61afcc","bdp_trlrn","Tue Mar 14 2023 17:08:43 GMT-0800 (Alaska Daylight Time)","504251","Untrustworthy,Trustworthy","","null","","","","decisionFB","","<div class='trialDiv'><img src='trustrating_stim/white_00807_941205_fb_edt.bmp'><br><font class='baseline'><strong>Gavin</strong><p>Choose number of points to send.</font><div class='respPicDiv'><img src='img/responseButtonOffersNo0L1.png' class='respPic'></div></div>","null","2","Gavin","0","Kept","0.2,0.65","11","0.2","trustrating_stim/white_00807_941205_fb_edt.bmp","2","45","6"
"html-keyboard-response","154","224899","0.0-19.0-3.5","62dc4a5fef307ee53c61afcc","bdp_trlrn","Tue Mar 14 2023 17:08:43 GMT-0800 (Alaska Daylight Time)","504251","Untrustworthy,Trustworthy","","null","","","","feedback","","<div class='trialDiv'><img src='trustrating_stim/white_00807_941205_fb_edt.bmp'><br><font class='baseline'><strong>Gavin</strong><p>Received: <strong>4</strong></font> &nbsp; &nbsp; &nbsp; &nbsp; &nbsp; &nbsp;<font class='negOutcome'>Shared back: <strong>0</strong></font></font><div class='respPicDiv'><img src='img/responseButtonOffersNo0_wht.png' class='respPic'></div></div>","null","2","Gavin","0","Kept","0.2,0.65","11","0.2","trustrating_stim/white_00807_941205_fb_edt.bmp","2","45","6"
"html-keyboard-response","155","225753","0.0-19.0-1.6","62dc4a5fef307ee53c61afcc","bdp_trlrn","Tue Mar 14 2023 17:08:43 GMT-0800 (Alaska Daylight Time)","504251","Untrustworthy,Trustworthy","","845","","","","decision","","<div class='trialDiv'><img src='trustrating_stim/white_mw056.bmp'><br><font class='baseline'><strong>Chris</strong><p>Choose number of points to send.</font><div class='respPicDiv'><img src='img/responseButtonOffersNo0L.png' class='respPic'></div></div>","4","3","Chris","5","Kept","0.2,0.8","9","0.2","trustrating_stim/white_mw056.bmp","4.5","50","7"
"html-keyboard-response","156","226011","0.0-19.0-2.6","62dc4a5fef307ee53c61afcc","bdp_trlrn","Tue Mar 14 2023 17:08:43 GMT-0800 (Alaska Daylight Time)","504251","Untrustworthy,Trustworthy","","null","","","","decisionFB","","<div class='trialDiv'><img src='trustrating_stim/white_mw056.bmp'><br><font class='baseline'><strong>Chris</strong><p>Choose number of points to send.</font><div class='respPicDiv'><img src='img/responseButtonOffersNo0L4.png' class='respPic'></div></div>","null","3","Chris","5","Kept","0.2,0.8","9","0.2","trustrating_stim/white_mw056.bmp","4.5","46","7"
"html-keyboard-response","157","227018","0.0-19.0-3.6","62dc4a5fef307ee53c61afcc","bdp_trlrn","Tue Mar 14 2023 17:08:43 GMT-0800 (Alaska Daylight Time)","504251","Untrustworthy,Trustworthy","","null","","","","feedback","","<div class='trialDiv'><img src='trustrating_stim/white_mw056.bmp'><br><font class='baseline'><strong>Chris</strong><p>Received: <strong>16</strong></font> &nbsp; &nbsp; &nbsp; &nbsp; &nbsp; &nbsp;<font class='negOutcome'>Shared back: <strong>0</strong></font></font><div class='respPicDiv'><img src='img/responseButtonOffersNo0_wht.png' class='respPic'></div></div>","null","3","Chris","5","Kept","0.2,0.8","9","0.2","trustrating_stim/white_mw056.bmp","4.5","46","7"
"html-keyboard-response","158","227972","0.0-19.0-1.7","62dc4a5fef307ee53c61afcc","bdp_trlrn","Tue Mar 14 2023 17:08:43 GMT-0800 (Alaska Daylight Time)","504251","Untrustworthy,Trustworthy","","945","","","","decision","","<div class='trialDiv'><img src='trustrating_stim/white_00807_941205_fb_edt.bmp'><br><font class='baseline'><strong>Gavin</strong><p>Choose number of points to send.</font><div class='respPicDiv'><img src='img/responseButtonOffersNo0L.png' class='respPic'></div></div>","1","3","Gavin","0","Kept","0.2,0.65","11","0.2","trustrating_stim/white_00807_941205_fb_edt.bmp","2","51","8"
"html-keyboard-response","159","228229","0.0-19.0-2.7","62dc4a5fef307ee53c61afcc","bdp_trlrn","Tue Mar 14 2023 17:08:43 GMT-0800 (Alaska Daylight Time)","504251","Untrustworthy,Trustworthy","","null","","","","decisionFB","","<div class='trialDiv'><img src='trustrating_stim/white_00807_941205_fb_edt.bmp'><br><font class='baseline'><strong>Gavin</strong><p>Choose number of points to send.</font><div class='respPicDiv'><img src='img/responseButtonOffersNo0L1.png' class='respPic'></div></div>","null","3","Gavin","0","Kept","0.2,0.65","11","0.2","trustrating_stim/white_00807_941205_fb_edt.bmp","2","50","8"
"html-keyboard-response","160","229238","0.0-19.0-3.7","62dc4a5fef307ee53c61afcc","bdp_trlrn","Tue Mar 14 2023 17:08:43 GMT-0800 (Alaska Daylight Time)","504251","Untrustworthy,Trustworthy","","null","","","","feedback","","<div class='trialDiv'><img src='trustrating_stim/white_00807_941205_fb_edt.bmp'><br><font class='baseline'><strong>Gavin</strong><p>Received: <strong>4</strong></font> &nbsp; &nbsp; &nbsp; &nbsp; &nbsp; &nbsp;<font class='negOutcome'>Shared back: <strong>0</strong></font></font><div class='respPicDiv'><img src='img/responseButtonOffersNo0_wht.png' class='respPic'></div></div>","null","3","Gavin","0","Kept","0.2,0.65","11","0.2","trustrating_stim/white_00807_941205_fb_edt.bmp","2","50","8"
"html-keyboard-response","161","230480","0.0-19.0-1.8","62dc4a5fef307ee53c61afcc","bdp_trlrn","Tue Mar 14 2023 17:08:43 GMT-0800 (Alaska Daylight Time)","504251","Untrustworthy,Trustworthy","","1233","","","","decision","","<div class='trialDiv'><img src='trustrating_stim/white_00129_931230_fb_edt.bmp'><br><font class='baseline'><strong>Aaron</strong><p>Choose number of points to send.</font><div class='respPicDiv'><img src='img/responseButtonOffersNo0L.png' class='respPic'></div></div>","3","3","Aaron","10","Shared","0.65,0.2","8","0.65","trustrating_stim/white_00129_931230_fb_edt.bmp","7","55","9"
"html-keyboard-response","162","230739","0.0-19.0-2.8","62dc4a5fef307ee53c61afcc","bdp_trlrn","Tue Mar 14 2023 17:08:43 GMT-0800 (Alaska Daylight Time)","504251","Untrustworthy,Trustworthy","","null","","","","decisionFB","","<div class='trialDiv'><img src='trustrating_stim/white_00129_931230_fb_edt.bmp'><br><font class='baseline'><strong>Aaron</strong><p>Choose number of points to send.</font><div class='respPicDiv'><img src='img/responseButtonOffersNo0L3.png' class='respPic'></div></div>","null","3","Aaron","10","Shared","0.65,0.2","8","0.65","trustrating_stim/white_00129_931230_fb_edt.bmp","7","52","9"
"html-keyboard-response","163","231748","0.0-19.0-3.8","62dc4a5fef307ee53c61afcc","bdp_trlrn","Tue Mar 14 2023 17:08:43 GMT-0800 (Alaska Daylight Time)","504251","Untrustworthy,Trustworthy","","null","","","","feedback","","<div class='trialDiv'><img src='trustrating_stim/white_00129_931230_fb_edt.bmp'><br><font class='baseline'><strong>Aaron</strong><p>Received: <strong>12</strong></font> &nbsp; &nbsp; &nbsp; &nbsp; &nbsp; &nbsp;<font class='posOutcome'>Shared back: <strong>6</strong></font></font><div class='respPicDiv'><img src='img/responseButtonOffersNo0_wht.png' class='respPic'></div></div>","null","3","Aaron","10","Shared","0.65,0.2","8","0.65","trustrating_stim/white_00129_931230_fb_edt.bmp","7","58","9"
"html-keyboard-response","164","232892","0.0-19.0-1.9","62dc4a5fef307ee53c61afcc","bdp_trlrn","Tue Mar 14 2023 17:08:43 GMT-0800 (Alaska Daylight Time)","504251","Untrustworthy,Trustworthy","","1139","","","","decision","","<div class='trialDiv'><img src='trustrating_stim/white_mw056.bmp'><br><font class='baseline'><strong>Chris</strong><p>Choose number of points to send.</font><div class='respPicDiv'><img src='img/responseButtonOffersNo0L.png' class='respPic'></div></div>","3","4","Chris","5","Shared","0.2,0.8","9","0.2","trustrating_stim/white_mw056.bmp","4.5","63","10"
"html-keyboard-response","165","233150","0.0-19.0-2.9","62dc4a5fef307ee53c61afcc","bdp_trlrn","Tue Mar 14 2023 17:08:43 GMT-0800 (Alaska Daylight Time)","504251","Untrustworthy,Trustworthy","","null","","","","decisionFB","","<div class='trialDiv'><img src='trustrating_stim/white_mw056.bmp'><br><font class='baseline'><strong>Chris</strong><p>Choose number of points to send.</font><div class='respPicDiv'><img src='img/responseButtonOffersNo0L3.png' class='respPic'></div></div>","null","4","Chris","5","Shared","0.2,0.8","9","0.2","trustrating_stim/white_mw056.bmp","4.5","60","10"
"html-keyboard-response","166","234157","0.0-19.0-3.9","62dc4a5fef307ee53c61afcc","bdp_trlrn","Tue Mar 14 2023 17:08:43 GMT-0800 (Alaska Daylight Time)","504251","Untrustworthy,Trustworthy","","null","","","","feedback","","<div class='trialDiv'><img src='trustrating_stim/white_mw056.bmp'><br><font class='baseline'><strong>Chris</strong><p>Received: <strong>12</strong></font> &nbsp; &nbsp; &nbsp; &nbsp; &nbsp; &nbsp;<font class='posOutcome'>Shared back: <strong>6</strong></font></font><div class='respPicDiv'><img src='img/responseButtonOffersNo0_wht.png' class='respPic'></div></div>","null","4","Chris","5","Shared","0.2,0.8","9","0.2","trustrating_stim/white_mw056.bmp","4.5","66","10"
"html-keyboard-response","167","235867","0.0-19.0-1.10","62dc4a5fef307ee53c61afcc","bdp_trlrn","Tue Mar 14 2023 17:08:43 GMT-0800 (Alaska Daylight Time)","504251","Untrustworthy,Trustworthy","","1705","","","","decision","","<div class='trialDiv'><img src='trustrating_stim/white_00129_931230_fb_edt.bmp'><br><font class='baseline'><strong>Aaron</strong><p>Choose number of points to send.</font><div class='respPicDiv'><img src='img/responseButtonOffersNo0L.png' class='respPic'></div></div>","4","4","Aaron","10","Kept","0.65,0.2","8","0.65","trustrating_stim/white_00129_931230_fb_edt.bmp","7","71","11"
"html-keyboard-response","168","236122","0.0-19.0-2.10","62dc4a5fef307ee53c61afcc","bdp_trlrn","Tue Mar 14 2023 17:08:43 GMT-0800 (Alaska Daylight Time)","504251","Untrustworthy,Trustworthy","","null","","","","decisionFB","","<div class='trialDiv'><img src='trustrating_stim/white_00129_931230_fb_edt.bmp'><br><font class='baseline'><strong>Aaron</strong><p>Choose number of points to send.</font><div class='respPicDiv'><img src='img/responseButtonOffersNo0L4.png' class='respPic'></div></div>","null","4","Aaron","10","Kept","0.65,0.2","8","0.65","trustrating_stim/white_00129_931230_fb_edt.bmp","7","67","11"
"html-keyboard-response","169","237128","0.0-19.0-3.10","62dc4a5fef307ee53c61afcc","bdp_trlrn","Tue Mar 14 2023 17:08:43 GMT-0800 (Alaska Daylight Time)","504251","Untrustworthy,Trustworthy","","null","","","","feedback","","<div class='trialDiv'><img src='trustrating_stim/white_00129_931230_fb_edt.bmp'><br><font class='baseline'><strong>Aaron</strong><p>Received: <strong>16</strong></font> &nbsp; &nbsp; &nbsp; &nbsp; &nbsp; &nbsp;<font class='negOutcome'>Shared back: <strong>0</strong></font></font><div class='respPicDiv'><img src='img/responseButtonOffersNo0_wht.png' class='respPic'></div></div>","null","4","Aaron","10","Kept","0.65,0.2","8","0.65","trustrating_stim/white_00129_931230_fb_edt.bmp","7","67","11"
"html-keyboard-response","170","237747","0.0-19.0-1.11","62dc4a5fef307ee53c61afcc","bdp_trlrn","Tue Mar 14 2023 17:08:43 GMT-0800 (Alaska Daylight Time)","504251","Untrustworthy,Trustworthy","","612","","","","decision","","<div class='trialDiv'><img src='trustrating_stim/white_00807_941205_fb_edt.bmp'><br><font class='baseline'><strong>Gavin</strong><p>Choose number of points to send.</font><div class='respPicDiv'><img src='img/responseButtonOffersNo0L.png' class='respPic'></div></div>","1","4","Gavin","0","Kept","0.2,0.65","11","0.2","trustrating_stim/white_00807_941205_fb_edt.bmp","2","72","12"
"html-keyboard-response","171","238001","0.0-19.0-2.11","62dc4a5fef307ee53c61afcc","bdp_trlrn","Tue Mar 14 2023 17:08:43 GMT-0800 (Alaska Daylight Time)","504251","Untrustworthy,Trustworthy","","null","","","","decisionFB","","<div class='trialDiv'><img src='trustrating_stim/white_00807_941205_fb_edt.bmp'><br><font class='baseline'><strong>Gavin</strong><p>Choose number of points to send.</font><div class='respPicDiv'><img src='img/responseButtonOffersNo0L1.png' class='respPic'></div></div>","null","4","Gavin","0","Kept","0.2,0.65","11","0.2","trustrating_stim/white_00807_941205_fb_edt.bmp","2","71","12"
"html-keyboard-response","172","239011","0.0-19.0-3.11","62dc4a5fef307ee53c61afcc","bdp_trlrn","Tue Mar 14 2023 17:08:43 GMT-0800 (Alaska Daylight Time)","504251","Untrustworthy,Trustworthy","","null","","","","feedback","","<div class='trialDiv'><img src='trustrating_stim/white_00807_941205_fb_edt.bmp'><br><font class='baseline'><strong>Gavin</strong><p>Received: <strong>4</strong></font> &nbsp; &nbsp; &nbsp; &nbsp; &nbsp; &nbsp;<font class='negOutcome'>Shared back: <strong>0</strong></font></font><div class='respPicDiv'><img src='img/responseButtonOffersNo0_wht.png' class='respPic'></div></div>","null","4","Gavin","0","Kept","0.2,0.65","11","0.2","trustrating_stim/white_00807_941205_fb_edt.bmp","2","71","12"
"html-keyboard-response","173","239859","0.0-19.0-1.12","62dc4a5fef307ee53c61afcc","bdp_trlrn","Tue Mar 14 2023 17:08:43 GMT-0800 (Alaska Daylight Time)","504251","Untrustworthy,Trustworthy","","841","","","","decision","","<div class='trialDiv'><img src='trustrating_stim/white_00129_931230_fb_edt.bmp'><br><font class='baseline'><strong>Aaron</strong><p>Choose number of points to send.</font><div class='respPicDiv'><img src='img/responseButtonOffersNo0L.png' class='respPic'></div></div>","3","5","Aaron","10","Shared","0.65,0.2","8","0.65","trustrating_stim/white_00129_931230_fb_edt.bmp","7","76","13"
"html-keyboard-response","174","240114","0.0-19.0-2.12","62dc4a5fef307ee53c61afcc","bdp_trlrn","Tue Mar 14 2023 17:08:43 GMT-0800 (Alaska Daylight Time)","504251","Untrustworthy,Trustworthy","","null","","","","decisionFB","","<div class='trialDiv'><img src='trustrating_stim/white_00129_931230_fb_edt.bmp'><br><font class='baseline'><strong>Aaron</strong><p>Choose number of points to send.</font><div class='respPicDiv'><img src='img/responseButtonOffersNo0L3.png' class='respPic'></div></div>","null","5","Aaron","10","Shared","0.65,0.2","8","0.65","trustrating_stim/white_00129_931230_fb_edt.bmp","7","73","13"
"html-keyboard-response","175","241123","0.0-19.0-3.12","62dc4a5fef307ee53c61afcc","bdp_trlrn","Tue Mar 14 2023 17:08:43 GMT-0800 (Alaska Daylight Time)","504251","Untrustworthy,Trustworthy","","null","","","","feedback","","<div class='trialDiv'><img src='trustrating_stim/white_00129_931230_fb_edt.bmp'><br><font class='baseline'><strong>Aaron</strong><p>Received: <strong>12</strong></font> &nbsp; &nbsp; &nbsp; &nbsp; &nbsp; &nbsp;<font class='posOutcome'>Shared back: <strong>6</strong></font></font><div class='respPicDiv'><img src='img/responseButtonOffersNo0_wht.png' class='respPic'></div></div>","null","5","Aaron","10","Shared","0.65,0.2","8","0.65","trustrating_stim/white_00129_931230_fb_edt.bmp","7","79","13"
"html-keyboard-response","176","242674","0.0-19.0-1.13","62dc4a5fef307ee53c61afcc","bdp_trlrn","Tue Mar 14 2023 17:08:43 GMT-0800 (Alaska Daylight Time)","504251","Untrustworthy,Trustworthy","","1542","","","","decision","","<div class='trialDiv'><img src='trustrating_stim/white_mw056.bmp'><br><font class='baseline'><strong>Chris</strong><p>Choose number of points to send.</font><div class='respPicDiv'><img src='img/responseButtonOffersNo0L.png' class='respPic'></div></div>","1","5","Chris","5","Kept","0.2,0.8","9","0.2","trustrating_stim/white_mw056.bmp","4.5","84","14"
"html-keyboard-response","177","242931","0.0-19.0-2.13","62dc4a5fef307ee53c61afcc","bdp_trlrn","Tue Mar 14 2023 17:08:43 GMT-0800 (Alaska Daylight Time)","504251","Untrustworthy,Trustworthy","","null","","","","decisionFB","","<div class='trialDiv'><img src='trustrating_stim/white_mw056.bmp'><br><font class='baseline'><strong>Chris</strong><p>Choose number of points to send.</font><div class='respPicDiv'><img src='img/responseButtonOffersNo0L1.png' class='respPic'></div></div>","null","5","Chris","5","Kept","0.2,0.8","9","0.2","trustrating_stim/white_mw056.bmp","4.5","83","14"
"html-keyboard-response","178","243937","0.0-19.0-3.13","62dc4a5fef307ee53c61afcc","bdp_trlrn","Tue Mar 14 2023 17:08:43 GMT-0800 (Alaska Daylight Time)","504251","Untrustworthy,Trustworthy","","null","","","","feedback","","<div class='trialDiv'><img src='trustrating_stim/white_mw056.bmp'><br><font class='baseline'><strong>Chris</strong><p>Received: <strong>4</strong></font> &nbsp; &nbsp; &nbsp; &nbsp; &nbsp; &nbsp;<font class='negOutcome'>Shared back: <strong>0</strong></font></font><div class='respPicDiv'><img src='img/responseButtonOffersNo0_wht.png' class='respPic'></div></div>","null","5","Chris","5","Kept","0.2,0.8","9","0.2","trustrating_stim/white_mw056.bmp","4.5","83","14"
"html-keyboard-response","179","244670","0.0-19.0-1.14","62dc4a5fef307ee53c61afcc","bdp_trlrn","Tue Mar 14 2023 17:08:43 GMT-0800 (Alaska Daylight Time)","504251","Untrustworthy,Trustworthy","","726","","","","decision","","<div class='trialDiv'><img src='trustrating_stim/white_00807_941205_fb_edt.bmp'><br><font class='baseline'><strong>Gavin</strong><p>Choose number of points to send.</font><div class='respPicDiv'><img src='img/responseButtonOffersNo0L.png' class='respPic'></div></div>","1","5","Gavin","0","Kept","0.2,0.65","11","0.2","trustrating_stim/white_00807_941205_fb_edt.bmp","2","88","15"
"html-keyboard-response","180","244925","0.0-19.0-2.14","62dc4a5fef307ee53c61afcc","bdp_trlrn","Tue Mar 14 2023 17:08:43 GMT-0800 (Alaska Daylight Time)","504251","Untrustworthy,Trustworthy","","null","","","","decisionFB","","<div class='trialDiv'><img src='trustrating_stim/white_00807_941205_fb_edt.bmp'><br><font class='baseline'><strong>Gavin</strong><p>Choose number of points to send.</font><div class='respPicDiv'><img src='img/responseButtonOffersNo0L1.png' class='respPic'></div></div>","null","5","Gavin","0","Kept","0.2,0.65","11","0.2","trustrating_stim/white_00807_941205_fb_edt.bmp","2","87","15"
"html-keyboard-response","181","245933","0.0-19.0-3.14","62dc4a5fef307ee53c61afcc","bdp_trlrn","Tue Mar 14 2023 17:08:43 GMT-0800 (Alaska Daylight Time)","504251","Untrustworthy,Trustworthy","","null","","","","feedback","","<div class='trialDiv'><img src='trustrating_stim/white_00807_941205_fb_edt.bmp'><br><font class='baseline'><strong>Gavin</strong><p>Received: <strong>4</strong></font> &nbsp; &nbsp; &nbsp; &nbsp; &nbsp; &nbsp;<font class='negOutcome'>Shared back: <strong>0</strong></font></font><div class='respPicDiv'><img src='img/responseButtonOffersNo0_wht.png' class='respPic'></div></div>","null","5","Gavin","0","Kept","0.2,0.65","11","0.2","trustrating_stim/white_00807_941205_fb_edt.bmp","2","87","15"
"html-keyboard-response","182","246921","0.0-19.0-1.15","62dc4a5fef307ee53c61afcc","bdp_trlrn","Tue Mar 14 2023 17:08:43 GMT-0800 (Alaska Daylight Time)","504251","Untrustworthy,Trustworthy","","981","","","","decision","","<div class='trialDiv'><img src='trustrating_stim/white_mw056.bmp'><br><font class='baseline'><strong>Chris</strong><p>Choose number of points to send.</font><div class='respPicDiv'><img src='img/responseButtonOffersNo0L.png' class='respPic'></div></div>","1","6","Chris","5","Kept","0.2,0.8","9","0.2","trustrating_stim/white_mw056.bmp","4.5","92","16"
"html-keyboard-response","183","247180","0.0-19.0-2.15","62dc4a5fef307ee53c61afcc","bdp_trlrn","Tue Mar 14 2023 17:08:43 GMT-0800 (Alaska Daylight Time)","504251","Untrustworthy,Trustworthy","","null","","","","decisionFB","","<div class='trialDiv'><img src='trustrating_stim/white_mw056.bmp'><br><font class='baseline'><strong>Chris</strong><p>Choose number of points to send.</font><div class='respPicDiv'><img src='img/responseButtonOffersNo0L1.png' class='respPic'></div></div>","null","6","Chris","5","Kept","0.2,0.8","9","0.2","trustrating_stim/white_mw056.bmp","4.5","91","16"
"html-keyboard-response","184","248189","0.0-19.0-3.15","62dc4a5fef307ee53c61afcc","bdp_trlrn","Tue Mar 14 2023 17:08:43 GMT-0800 (Alaska Daylight Time)","504251","Untrustworthy,Trustworthy","","null","","","","feedback","","<div class='trialDiv'><img src='trustrating_stim/white_mw056.bmp'><br><font class='baseline'><strong>Chris</strong><p>Received: <strong>4</strong></font> &nbsp; &nbsp; &nbsp; &nbsp; &nbsp; &nbsp;<font class='negOutcome'>Shared back: <strong>0</strong></font></font><div class='respPicDiv'><img src='img/responseButtonOffersNo0_wht.png' class='respPic'></div></div>","null","6","Chris","5","Kept","0.2,0.8","9","0.2","trustrating_stim/white_mw056.bmp","4.5","91","16"
"html-keyboard-response","185","248818","0.0-19.0-1.16","62dc4a5fef307ee53c61afcc","bdp_trlrn","Tue Mar 14 2023 17:08:43 GMT-0800 (Alaska Daylight Time)","504251","Untrustworthy,Trustworthy","","620","","","","decision","","<div class='trialDiv'><img src='trustrating_stim/white_00807_941205_fb_edt.bmp'><br><font class='baseline'><strong>Gavin</strong><p>Choose number of points to send.</font><div class='respPicDiv'><img src='img/responseButtonOffersNo0L.png' class='respPic'></div></div>","1","6","Gavin","0","Shared","0.2,0.65","11","0.2","trustrating_stim/white_00807_941205_fb_edt.bmp","2","96","17"
"html-keyboard-response","186","249075","0.0-19.0-2.16","62dc4a5fef307ee53c61afcc","bdp_trlrn","Tue Mar 14 2023 17:08:43 GMT-0800 (Alaska Daylight Time)","504251","Untrustworthy,Trustworthy","","null","","","","decisionFB","","<div class='trialDiv'><img src='trustrating_stim/white_00807_941205_fb_edt.bmp'><br><font class='baseline'><strong>Gavin</strong><p>Choose number of points to send.</font><div class='respPicDiv'><img src='img/responseButtonOffersNo0L1.png' class='respPic'></div></div>","null","6","Gavin","0","Shared","0.2,0.65","11","0.2","trustrating_stim/white_00807_941205_fb_edt.bmp","2","95","17"
"html-keyboard-response","187","250081","0.0-19.0-3.16","62dc4a5fef307ee53c61afcc","bdp_trlrn","Tue Mar 14 2023 17:08:43 GMT-0800 (Alaska Daylight Time)","504251","Untrustworthy,Trustworthy","","null","","","","feedback","","<div class='trialDiv'><img src='trustrating_stim/white_00807_941205_fb_edt.bmp'><br><font class='baseline'><strong>Gavin</strong><p>Received: <strong>4</strong></font> &nbsp; &nbsp; &nbsp; &nbsp; &nbsp; &nbsp;<font class='posOutcome'>Shared back: <strong>2</strong></font></font><div class='respPicDiv'><img src='img/responseButtonOffersNo0_wht.png' class='respPic'></div></div>","null","6","Gavin","0","Shared","0.2,0.65","11","0.2","trustrating_stim/white_00807_941205_fb_edt.bmp","2","97","17"
"html-keyboard-response","188","251091","0.0-19.0-1.17","62dc4a5fef307ee53c61afcc","bdp_trlrn","Tue Mar 14 2023 17:08:43 GMT-0800 (Alaska Daylight Time)","504251","Untrustworthy,Trustworthy","","1006","","","","decision","","<div class='trialDiv'><img src='trustrating_stim/white_00129_931230_fb_edt.bmp'><br><font class='baseline'><strong>Aaron</strong><p>Choose number of points to send.</font><div class='respPicDiv'><img src='img/responseButtonOffersNo0L.png' class='respPic'></div></div>","4","6","Aaron","10","Kept","0.65,0.2","8","0.65","trustrating_stim/white_00129_931230_fb_edt.bmp","7","102","18"
"html-keyboard-response","189","251346","0.0-19.0-2.17","62dc4a5fef307ee53c61afcc","bdp_trlrn","Tue Mar 14 2023 17:08:43 GMT-0800 (Alaska Daylight Time)","504251","Untrustworthy,Trustworthy","","null","","","","decisionFB","","<div class='trialDiv'><img src='trustrating_stim/white_00129_931230_fb_edt.bmp'><br><font class='baseline'><strong>Aaron</strong><p>Choose number of points to send.</font><div class='respPicDiv'><img src='img/responseButtonOffersNo0L4.png' class='respPic'></div></div>","null","6","Aaron","10","Kept","0.65,0.2","8","0.65","trustrating_stim/white_00129_931230_fb_edt.bmp","7","98","18"
"html-keyboard-response","190","252355","0.0-19.0-3.17","62dc4a5fef307ee53c61afcc","bdp_trlrn","Tue Mar 14 2023 17:08:43 GMT-0800 (Alaska Daylight Time)","504251","Untrustworthy,Trustworthy","","null","","","","feedback","","<div class='trialDiv'><img src='trustrating_stim/white_00129_931230_fb_edt.bmp'><br><font class='baseline'><strong>Aaron</strong><p>Received: <strong>16</strong></font> &nbsp; &nbsp; &nbsp; &nbsp; &nbsp; &nbsp;<font class='negOutcome'>Shared back: <strong>0</strong></font></font><div class='respPicDiv'><img src='img/responseButtonOffersNo0_wht.png' class='respPic'></div></div>","null","6","Aaron","10","Kept","0.65,0.2","8","0.65","trustrating_stim/white_00129_931230_fb_edt.bmp","7","98","18"
"html-keyboard-response","191","253682","0.0-19.0-1.18","62dc4a5fef307ee53c61afcc","bdp_trlrn","Tue Mar 14 2023 17:08:43 GMT-0800 (Alaska Daylight Time)","504251","Untrustworthy,Trustworthy","","1317","","","","decision","","<div class='trialDiv'><img src='trustrating_stim/white_mw056.bmp'><br><font class='baseline'><strong>Chris</strong><p>Choose number of points to send.</font><div class='respPicDiv'><img src='img/responseButtonOffersNo0L.png' class='respPic'></div></div>","2","7","Chris","5","Shared","0.2,0.8","9","0.2","trustrating_stim/white_mw056.bmp","4.5","103","19"
"html-keyboard-response","192","253937","0.0-19.0-2.18","62dc4a5fef307ee53c61afcc","bdp_trlrn","Tue Mar 14 2023 17:08:43 GMT-0800 (Alaska Daylight Time)","504251","Untrustworthy,Trustworthy","","null","","","","decisionFB","","<div class='trialDiv'><img src='trustrating_stim/white_mw056.bmp'><br><font class='baseline'><strong>Chris</strong><p>Choose number of points to send.</font><div class='respPicDiv'><img src='img/responseButtonOffersNo0L2.png' class='respPic'></div></div>","null","7","Chris","5","Shared","0.2,0.8","9","0.2","trustrating_stim/white_mw056.bmp","4.5","101","19"
"html-keyboard-response","193","254945","0.0-19.0-3.18","62dc4a5fef307ee53c61afcc","bdp_trlrn","Tue Mar 14 2023 17:08:43 GMT-0800 (Alaska Daylight Time)","504251","Untrustworthy,Trustworthy","","null","","","","feedback","","<div class='trialDiv'><img src='trustrating_stim/white_mw056.bmp'><br><font class='baseline'><strong>Chris</strong><p>Received: <strong>8</strong></font> &nbsp; &nbsp; &nbsp; &nbsp; &nbsp; &nbsp;<font class='posOutcome'>Shared back: <strong>4</strong></font></font><div class='respPicDiv'><img src='img/responseButtonOffersNo0_wht.png' class='respPic'></div></div>","null","7","Chris","5","Shared","0.2,0.8","9","0.2","trustrating_stim/white_mw056.bmp","4.5","105","19"
"html-keyboard-response","194","255715","0.0-19.0-1.19","62dc4a5fef307ee53c61afcc","bdp_trlrn","Tue Mar 14 2023 17:08:43 GMT-0800 (Alaska Daylight Time)","504251","Untrustworthy,Trustworthy","","763","","","","decision","","<div class='trialDiv'><img src='trustrating_stim/white_00807_941205_fb_edt.bmp'><br><font class='baseline'><strong>Gavin</strong><p>Choose number of points to send.</font><div class='respPicDiv'><img src='img/responseButtonOffersNo0L.png' class='respPic'></div></div>","1","7","Gavin","0","Kept","0.2,0.65","11","0.2","trustrating_stim/white_00807_941205_fb_edt.bmp","2","110","20"
"html-keyboard-response","195","255974","0.0-19.0-2.19","62dc4a5fef307ee53c61afcc","bdp_trlrn","Tue Mar 14 2023 17:08:43 GMT-0800 (Alaska Daylight Time)","504251","Untrustworthy,Trustworthy","","null","","","","decisionFB","","<div class='trialDiv'><img src='trustrating_stim/white_00807_941205_fb_edt.bmp'><br><font class='baseline'><strong>Gavin</strong><p>Choose number of points to send.</font><div class='respPicDiv'><img src='img/responseButtonOffersNo0L1.png' class='respPic'></div></div>","null","7","Gavin","0","Kept","0.2,0.65","11","0.2","trustrating_stim/white_00807_941205_fb_edt.bmp","2","109","20"
"html-keyboard-response","196","256983","0.0-19.0-3.19","62dc4a5fef307ee53c61afcc","bdp_trlrn","Tue Mar 14 2023 17:08:43 GMT-0800 (Alaska Daylight Time)","504251","Untrustworthy,Trustworthy","","null","","","","feedback","","<div class='trialDiv'><img src='trustrating_stim/white_00807_941205_fb_edt.bmp'><br><font class='baseline'><strong>Gavin</strong><p>Received: <strong>4</strong></font> &nbsp; &nbsp; &nbsp; &nbsp; &nbsp; &nbsp;<font class='negOutcome'>Shared back: <strong>0</strong></font></font><div class='respPicDiv'><img src='img/responseButtonOffersNo0_wht.png' class='respPic'></div></div>","null","7","Gavin","0","Kept","0.2,0.65","11","0.2","trustrating_stim/white_00807_941205_fb_edt.bmp","2","109","20"
"html-keyboard-response","197","258719","0.0-19.0-1.20","62dc4a5fef307ee53c61afcc","bdp_trlrn","Tue Mar 14 2023 17:08:43 GMT-0800 (Alaska Daylight Time)","504251","Untrustworthy,Trustworthy","","1727","","","","decision","","<div class='trialDiv'><img src='trustrating_stim/white_00129_931230_fb_edt.bmp'><br><font class='baseline'><strong>Aaron</strong><p>Choose number of points to send.</font><div class='respPicDiv'><img src='img/responseButtonOffersNo0L.png' class='respPic'></div></div>","4","7","Aaron","10","Shared","0.65,0.2","8","0.65","trustrating_stim/white_00129_931230_fb_edt.bmp","7","114","21"
"html-keyboard-response","198","258974","0.0-19.0-2.20","62dc4a5fef307ee53c61afcc","bdp_trlrn","Tue Mar 14 2023 17:08:43 GMT-0800 (Alaska Daylight Time)","504251","Untrustworthy,Trustworthy","","null","","","","decisionFB","","<div class='trialDiv'><img src='trustrating_stim/white_00129_931230_fb_edt.bmp'><br><font class='baseline'><strong>Aaron</strong><p>Choose number of points to send.</font><div class='respPicDiv'><img src='img/responseButtonOffersNo0L4.png' class='respPic'></div></div>","null","7","Aaron","10","Shared","0.65,0.2","8","0.65","trustrating_stim/white_00129_931230_fb_edt.bmp","7","110","21"
"html-keyboard-response","199","259982","0.0-19.0-3.20","62dc4a5fef307ee53c61afcc","bdp_trlrn","Tue Mar 14 2023 17:08:43 GMT-0800 (Alaska Daylight Time)","504251","Untrustworthy,Trustworthy","","null","","","","feedback","","<div class='trialDiv'><img src='trustrating_stim/white_00129_931230_fb_edt.bmp'><br><font class='baseline'><strong>Aaron</strong><p>Received: <strong>16</strong></font> &nbsp; &nbsp; &nbsp; &nbsp; &nbsp; &nbsp;<font class='posOutcome'>Shared back: <strong>8</strong></font></font><div class='respPicDiv'><img src='img/responseButtonOffersNo0_wht.png' class='respPic'></div></div>","null","7","Aaron","10","Shared","0.65,0.2","8","0.65","trustrating_stim/white_00129_931230_fb_edt.bmp","7","118","21"
"html-keyboard-response","200","261211","0.0-19.0-1.21","62dc4a5fef307ee53c61afcc","bdp_trlrn","Tue Mar 14 2023 17:08:43 GMT-0800 (Alaska Daylight Time)","504251","Untrustworthy,Trustworthy","","1221","","","","decision","","<div class='trialDiv'><img src='trustrating_stim/white_mw056.bmp'><br><font class='baseline'><strong>Chris</strong><p>Choose number of points to send.</font><div class='respPicDiv'><img src='img/responseButtonOffersNo0L.png' class='respPic'></div></div>","2","8","Chris","5","Kept","0.2,0.8","9","0.2","trustrating_stim/white_mw056.bmp","4.5","123","22"
"html-keyboard-response","201","261468","0.0-19.0-2.21","62dc4a5fef307ee53c61afcc","bdp_trlrn","Tue Mar 14 2023 17:08:43 GMT-0800 (Alaska Daylight Time)","504251","Untrustworthy,Trustworthy","","null","","","","decisionFB","","<div class='trialDiv'><img src='trustrating_stim/white_mw056.bmp'><br><font class='baseline'><strong>Chris</strong><p>Choose number of points to send.</font><div class='respPicDiv'><img src='img/responseButtonOffersNo0L2.png' class='respPic'></div></div>","null","8","Chris","5","Kept","0.2,0.8","9","0.2","trustrating_stim/white_mw056.bmp","4.5","121","22"
"html-keyboard-response","202","262478","0.0-19.0-3.21","62dc4a5fef307ee53c61afcc","bdp_trlrn","Tue Mar 14 2023 17:08:43 GMT-0800 (Alaska Daylight Time)","504251","Untrustworthy,Trustworthy","","null","","","","feedback","","<div class='trialDiv'><img src='trustrating_stim/white_mw056.bmp'><br><font class='baseline'><strong>Chris</strong><p>Received: <strong>8</strong></font> &nbsp; &nbsp; &nbsp; &nbsp; &nbsp; &nbsp;<font class='negOutcome'>Shared back: <strong>0</strong></font></font><div class='respPicDiv'><img src='img/responseButtonOffersNo0_wht.png' class='respPic'></div></div>","null","8","Chris","5","Kept","0.2,0.8","9","0.2","trustrating_stim/white_mw056.bmp","4.5","121","22"
"html-keyboard-response","203","263100","0.0-19.0-1.22","62dc4a5fef307ee53c61afcc","bdp_trlrn","Tue Mar 14 2023 17:08:43 GMT-0800 (Alaska Daylight Time)","504251","Untrustworthy,Trustworthy","","615","","","","decision","","<div class='trialDiv'><img src='trustrating_stim/white_00807_941205_fb_edt.bmp'><br><font class='baseline'><strong>Gavin</strong><p>Choose number of points to send.</font><div class='respPicDiv'><img src='img/responseButtonOffersNo0L.png' class='respPic'></div></div>","1","8","Gavin","0","Kept","0.2,0.65","11","0.2","trustrating_stim/white_00807_941205_fb_edt.bmp","2","126","23"
"html-keyboard-response","204","263356","0.0-19.0-2.22","62dc4a5fef307ee53c61afcc","bdp_trlrn","Tue Mar 14 2023 17:08:43 GMT-0800 (Alaska Daylight Time)","504251","Untrustworthy,Trustworthy","","null","","","","decisionFB","","<div class='trialDiv'><img src='trustrating_stim/white_00807_941205_fb_edt.bmp'><br><font class='baseline'><strong>Gavin</strong><p>Choose number of points to send.</font><div class='respPicDiv'><img src='img/responseButtonOffersNo0L1.png' class='respPic'></div></div>","null","8","Gavin","0","Kept","0.2,0.65","11","0.2","trustrating_stim/white_00807_941205_fb_edt.bmp","2","125","23"
"html-keyboard-response","205","264364","0.0-19.0-3.22","62dc4a5fef307ee53c61afcc","bdp_trlrn","Tue Mar 14 2023 17:08:43 GMT-0800 (Alaska Daylight Time)","504251","Untrustworthy,Trustworthy","","null","","","","feedback","","<div class='trialDiv'><img src='trustrating_stim/white_00807_941205_fb_edt.bmp'><br><font class='baseline'><strong>Gavin</strong><p>Received: <strong>4</strong></font> &nbsp; &nbsp; &nbsp; &nbsp; &nbsp; &nbsp;<font class='negOutcome'>Shared back: <strong>0</strong></font></font><div class='respPicDiv'><img src='img/responseButtonOffersNo0_wht.png' class='respPic'></div></div>","null","8","Gavin","0","Kept","0.2,0.65","11","0.2","trustrating_stim/white_00807_941205_fb_edt.bmp","2","125","23"
"html-keyboard-response","206","264987","0.0-19.0-1.23","62dc4a5fef307ee53c61afcc","bdp_trlrn","Tue Mar 14 2023 17:08:43 GMT-0800 (Alaska Daylight Time)","504251","Untrustworthy,Trustworthy","","616","","","","decision","","<div class='trialDiv'><img src='trustrating_stim/white_00129_931230_fb_edt.bmp'><br><font class='baseline'><strong>Aaron</strong><p>Choose number of points to send.</font><div class='respPicDiv'><img src='img/responseButtonOffersNo0L.png' class='respPic'></div></div>","4","8","Aaron","10","Kept","0.65,0.2","8","0.65","trustrating_stim/white_00129_931230_fb_edt.bmp","7","130","24"
"html-keyboard-response","207","265242","0.0-19.0-2.23","62dc4a5fef307ee53c61afcc","bdp_trlrn","Tue Mar 14 2023 17:08:43 GMT-0800 (Alaska Daylight Time)","504251","Untrustworthy,Trustworthy","","null","","","","decisionFB","","<div class='trialDiv'><img src='trustrating_stim/white_00129_931230_fb_edt.bmp'><br><font class='baseline'><strong>Aaron</strong><p>Choose number of points to send.</font><div class='respPicDiv'><img src='img/responseButtonOffersNo0L4.png' class='respPic'></div></div>","null","8","Aaron","10","Kept","0.65,0.2","8","0.65","trustrating_stim/white_00129_931230_fb_edt.bmp","7","126","24"
"html-keyboard-response","208","266251","0.0-19.0-3.23","62dc4a5fef307ee53c61afcc","bdp_trlrn","Tue Mar 14 2023 17:08:43 GMT-0800 (Alaska Daylight Time)","504251","Untrustworthy,Trustworthy","","null","","","","feedback","","<div class='trialDiv'><img src='trustrating_stim/white_00129_931230_fb_edt.bmp'><br><font class='baseline'><strong>Aaron</strong><p>Received: <strong>16</strong></font> &nbsp; &nbsp; &nbsp; &nbsp; &nbsp; &nbsp;<font class='negOutcome'>Shared back: <strong>0</strong></font></font><div class='respPicDiv'><img src='img/responseButtonOffersNo0_wht.png' class='respPic'></div></div>","null","8","Aaron","10","Kept","0.65,0.2","8","0.65","trustrating_stim/white_00129_931230_fb_edt.bmp","7","126","24"
"html-keyboard-response","209","267025","0.0-19.0-1.24","62dc4a5fef307ee53c61afcc","bdp_trlrn","Tue Mar 14 2023 17:08:43 GMT-0800 (Alaska Daylight Time)","504251","Untrustworthy,Trustworthy","","766","","","","decision","","<div class='trialDiv'><img src='trustrating_stim/white_00807_941205_fb_edt.bmp'><br><font class='baseline'><strong>Gavin</strong><p>Choose number of points to send.</font><div class='respPicDiv'><img src='img/responseButtonOffersNo0L.png' class='respPic'></div></div>","1","9","Gavin","0","Kept","0.2,0.65","11","0.2","trustrating_stim/white_00807_941205_fb_edt.bmp","2","131","25"
"html-keyboard-response","210","267284","0.0-19.0-2.24","62dc4a5fef307ee53c61afcc","bdp_trlrn","Tue Mar 14 2023 17:08:43 GMT-0800 (Alaska Daylight Time)","504251","Untrustworthy,Trustworthy","","null","","","","decisionFB","","<div class='trialDiv'><img src='trustrating_stim/white_00807_941205_fb_edt.bmp'><br><font class='baseline'><strong>Gavin</strong><p>Choose number of points to send.</font><div class='respPicDiv'><img src='img/responseButtonOffersNo0L1.png' class='respPic'></div></div>","null","9","Gavin","0","Kept","0.2,0.65","11","0.2","trustrating_stim/white_00807_941205_fb_edt.bmp","2","130","25"
"html-keyboard-response","211","268291","0.0-19.0-3.24","62dc4a5fef307ee53c61afcc","bdp_trlrn","Tue Mar 14 2023 17:08:43 GMT-0800 (Alaska Daylight Time)","504251","Untrustworthy,Trustworthy","","null","","","","feedback","","<div class='trialDiv'><img src='trustrating_stim/white_00807_941205_fb_edt.bmp'><br><font class='baseline'><strong>Gavin</strong><p>Received: <strong>4</strong></font> &nbsp; &nbsp; &nbsp; &nbsp; &nbsp; &nbsp;<font class='negOutcome'>Shared back: <strong>0</strong></font></font><div class='respPicDiv'><img src='img/responseButtonOffersNo0_wht.png' class='respPic'></div></div>","null","9","Gavin","0","Kept","0.2,0.65","11","0.2","trustrating_stim/white_00807_941205_fb_edt.bmp","2","130","25"
"html-keyboard-response","212","268615","0.0-19.0-1.25","62dc4a5fef307ee53c61afcc","bdp_trlrn","Tue Mar 14 2023 17:08:43 GMT-0800 (Alaska Daylight Time)","504251","Untrustworthy,Trustworthy","","315","","","","decision","","<div class='trialDiv'><img src='trustrating_stim/white_mw056.bmp'><br><font class='baseline'><strong>Chris</strong><p>Choose number of points to send.</font><div class='respPicDiv'><img src='img/responseButtonOffersNo0L.png' class='respPic'></div></div>","3","9","Chris","5","Shared","0.2,0.8","9","0.2","trustrating_stim/white_mw056.bmp","4.5","135","26"
"html-keyboard-response","213","268871","0.0-19.0-2.25","62dc4a5fef307ee53c61afcc","bdp_trlrn","Tue Mar 14 2023 17:08:43 GMT-0800 (Alaska Daylight Time)","504251","Untrustworthy,Trustworthy","","null","","","","decisionFB","","<div class='trialDiv'><img src='trustrating_stim/white_mw056.bmp'><br><font class='baseline'><strong>Chris</strong><p>Choose number of points to send.</font><div class='respPicDiv'><img src='img/responseButtonOffersNo0L3.png' class='respPic'></div></div>","null","9","Chris","5","Shared","0.2,0.8","9","0.2","trustrating_stim/white_mw056.bmp","4.5","132","26"
"html-keyboard-response","214","269876","0.0-19.0-3.25","62dc4a5fef307ee53c61afcc","bdp_trlrn","Tue Mar 14 2023 17:08:43 GMT-0800 (Alaska Daylight Time)","504251","Untrustworthy,Trustworthy","","null","","","","feedback","","<div class='trialDiv'><img src='trustrating_stim/white_mw056.bmp'><br><font class='baseline'><strong>Chris</strong><p>Received: <strong>12</strong></font> &nbsp; &nbsp; &nbsp; &nbsp; &nbsp; &nbsp;<font class='posOutcome'>Shared back: <strong>6</strong></font></font><div class='respPicDiv'><img src='img/responseButtonOffersNo0_wht.png' class='respPic'></div></div>","null","9","Chris","5","Shared","0.2,0.8","9","0.2","trustrating_stim/white_mw056.bmp","4.5","138","26"
"html-keyboard-response","215","270129","0.0-19.0-1.26","62dc4a5fef307ee53c61afcc","bdp_trlrn","Tue Mar 14 2023 17:08:43 GMT-0800 (Alaska Daylight Time)","504251","Untrustworthy,Trustworthy","","248","","","","decision","","<div class='trialDiv'><img src='trustrating_stim/white_00129_931230_fb_edt.bmp'><br><font class='baseline'><strong>Aaron</strong><p>Choose number of points to send.</font><div class='respPicDiv'><img src='img/responseButtonOffersNo0L.png' class='respPic'></div></div>","2","9","Aaron","10","Shared","0.65,0.2","8","0.65","trustrating_stim/white_00129_931230_fb_edt.bmp","7","143","27"
"html-keyboard-response","216","270384","0.0-19.0-2.26","62dc4a5fef307ee53c61afcc","bdp_trlrn","Tue Mar 14 2023 17:08:43 GMT-0800 (Alaska Daylight Time)","504251","Untrustworthy,Trustworthy","","null","","","","decisionFB","","<div class='trialDiv'><img src='trustrating_stim/white_00129_931230_fb_edt.bmp'><br><font class='baseline'><strong>Aaron</strong><p>Choose number of points to send.</font><div class='respPicDiv'><img src='img/responseButtonOffersNo0L2.png' class='respPic'></div></div>","null","9","Aaron","10","Shared","0.65,0.2","8","0.65","trustrating_stim/white_00129_931230_fb_edt.bmp","7","141","27"
"html-keyboard-response","217","271391","0.0-19.0-3.26","62dc4a5fef307ee53c61afcc","bdp_trlrn","Tue Mar 14 2023 17:08:43 GMT-0800 (Alaska Daylight Time)","504251","Untrustworthy,Trustworthy","","null","","","","feedback","","<div class='trialDiv'><img src='trustrating_stim/white_00129_931230_fb_edt.bmp'><br><font class='baseline'><strong>Aaron</strong><p>Received: <strong>8</strong></font> &nbsp; &nbsp; &nbsp; &nbsp; &nbsp; &nbsp;<font class='posOutcome'>Shared back: <strong>4</strong></font></font><div class='respPicDiv'><img src='img/responseButtonOffersNo0_wht.png' class='respPic'></div></div>","null","9","Aaron","10","Shared","0.65,0.2","8","0.65","trustrating_stim/white_00129_931230_fb_edt.bmp","7","145","27"
"html-keyboard-response","218","272156","0.0-19.0-1.27","62dc4a5fef307ee53c61afcc","bdp_trlrn","Tue Mar 14 2023 17:08:43 GMT-0800 (Alaska Daylight Time)","504251","Untrustworthy,Trustworthy","","758","","","","decision","","<div class='trialDiv'><img src='trustrating_stim/white_00807_941205_fb_edt.bmp'><br><font class='baseline'><strong>Gavin</strong><p>Choose number of points to send.</font><div class='respPicDiv'><img src='img/responseButtonOffersNo0L.png' class='respPic'></div></div>","2","10","Gavin","0","Kept","0.2,0.65","11","0.2","trustrating_stim/white_00807_941205_fb_edt.bmp","2","150","28"
"html-keyboard-response","219","272411","0.0-19.0-2.27","62dc4a5fef307ee53c61afcc","bdp_trlrn","Tue Mar 14 2023 17:08:43 GMT-0800 (Alaska Daylight Time)","504251","Untrustworthy,Trustworthy","","null","","","","decisionFB","","<div class='trialDiv'><img src='trustrating_stim/white_00807_941205_fb_edt.bmp'><br><font class='baseline'><strong>Gavin</strong><p>Choose number of points to send.</font><div class='respPicDiv'><img src='img/responseButtonOffersNo0L2.png' class='respPic'></div></div>","null","10","Gavin","0","Kept","0.2,0.65","11","0.2","trustrating_stim/white_00807_941205_fb_edt.bmp","2","148","28"
"html-keyboard-response","220","273418","0.0-19.0-3.27","62dc4a5fef307ee53c61afcc","bdp_trlrn","Tue Mar 14 2023 17:08:43 GMT-0800 (Alaska Daylight Time)","504251","Untrustworthy,Trustworthy","","null","","","","feedback","","<div class='trialDiv'><img src='trustrating_stim/white_00807_941205_fb_edt.bmp'><br><font class='baseline'><strong>Gavin</strong><p>Received: <strong>8</strong></font> &nbsp; &nbsp; &nbsp; &nbsp; &nbsp; &nbsp;<font class='negOutcome'>Shared back: <strong>0</strong></font></font><div class='respPicDiv'><img src='img/responseButtonOffersNo0_wht.png' class='respPic'></div></div>","null","10","Gavin","0","Kept","0.2,0.65","11","0.2","trustrating_stim/white_00807_941205_fb_edt.bmp","2","148","28"
