"trial_type","trial_index","time_elapsed","internal_node_id","subject_id","task","startTime","totalTime","labels","view_history","rt","event","trial","time","trialtype","success","stimulus","key_press","aground","name","faceID","outcome","agenttype","agentswpt","agentcurrpshare","face","avgRating","point_total","round"
"pavlovia","0","2","0.0-0.0","61010ed79b9d528dcd376bc7","bdp_trlrn","Sat Apr 08 2023 12:30:19 GMT-0400 (Eastern Daylight Time)","488506","Untrustworthy,Trustworthy","","","","","","","","","","","","","","","","","","","",""
"instructions","1","2964","0.0-1.0","61010ed79b9d528dcd376bc7","bdp_trlrn","Sat Apr 08 2023 12:30:19 GMT-0400 (Eastern Daylight Time)","488506","Untrustworthy,Trustworthy","[{""page_index"":0,""viewing_time"":2961}]","2962","","","","","","","","","","","","","","","","","",""
"","","","","61010ed79b9d528dcd376bc7","bdp_trlrn","Sat Apr 08 2023 12:30:19 GMT-0400 (Eastern Daylight Time)","488506","Untrustworthy,Trustworthy","","","fullscreenenter","2","5362","fullscreenenter","","","","","","","","","","","","","",""
"fullscreen","2","6362","0.0-2.0","61010ed79b9d528dcd376bc7","bdp_trlrn","Sat Apr 08 2023 12:30:19 GMT-0400 (Eastern Daylight Time)","488506","Untrustworthy,Trustworthy","","","","","","","true","","","","","","","","","","","","",""
"instructions","3","76194","0.0-4.0","61010ed79b9d528dcd376bc7","bdp_trlrn","Sat Apr 08 2023 12:30:19 GMT-0400 (Eastern Daylight Time)","488506","Untrustworthy,Trustworthy","[{""page_index"":0,""viewing_time"":67557},{""page_index"":1,""viewing_time"":2273}]","69830","","","","","","","","","","","","","","","","","",""
"instructions","4","77088","0.0-5.0","61010ed79b9d528dcd376bc7","bdp_trlrn","Sat Apr 08 2023 12:30:19 GMT-0400 (Eastern Daylight Time)","488506","Untrustworthy,Trustworthy","[{""page_index"":0,""viewing_time"":893}]","893","","","","","","","","","","","","","","","","","",""
"image-keyboard-response","5","78316","0.0-6.0-1.0","61010ed79b9d528dcd376bc7","bdp_trlrn","Sat Apr 08 2023 12:30:19 GMT-0400 (Eastern Daylight Time)","488506","Untrustworthy,Trustworthy","","1118","","","","rating","","trustrating_stim/white_mw048.bmp","1","","","","","","","","","","",""
"image-keyboard-response","6","78524","0.0-6.0-2.0","61010ed79b9d528dcd376bc7","bdp_trlrn","Sat Apr 08 2023 12:30:19 GMT-0400 (Eastern Daylight Time)","488506","Untrustworthy,Trustworthy","","null","","","","ratingFB","","trustrating_stim/white_mw048.bmp","null","","","","","","","","","","",""
"image-keyboard-response","7","79547","0.0-6.0-1.1","61010ed79b9d528dcd376bc7","bdp_trlrn","Sat Apr 08 2023 12:30:19 GMT-0400 (Eastern Daylight Time)","488506","Untrustworthy,Trustworthy","","911","","","","rating","","trustrating_stim/white_00223_940128_fb_edt.bmp","1","","","","","","","","","","",""
"image-keyboard-response","8","79756","0.0-6.0-2.1","61010ed79b9d528dcd376bc7","bdp_trlrn","Sat Apr 08 2023 12:30:19 GMT-0400 (Eastern Daylight Time)","488506","Untrustworthy,Trustworthy","","null","","","","ratingFB","","trustrating_stim/white_00223_940128_fb_edt.bmp","null","","","","","","","","","","",""
"image-keyboard-response","9","80650","0.0-6.0-1.2","61010ed79b9d528dcd376bc7","bdp_trlrn","Sat Apr 08 2023 12:30:19 GMT-0400 (Eastern Daylight Time)","488506","Untrustworthy,Trustworthy","","780","","","","rating","","trustrating_stim/white_mw060.bmp","1","","","","","","","","","","",""
"image-keyboard-response","10","80860","0.0-6.0-2.2","61010ed79b9d528dcd376bc7","bdp_trlrn","Sat Apr 08 2023 12:30:19 GMT-0400 (Eastern Daylight Time)","488506","Untrustworthy,Trustworthy","","null","","","","ratingFB","","trustrating_stim/white_mw060.bmp","null","","","","","","","","","","",""
"image-keyboard-response","11","81755","0.0-6.0-1.3","61010ed79b9d528dcd376bc7","bdp_trlrn","Sat Apr 08 2023 12:30:19 GMT-0400 (Eastern Daylight Time)","488506","Untrustworthy,Trustworthy","","782","","","","rating","","trustrating_stim/white_mw084.bmp","1","","","","","","","","","","",""
"image-keyboard-response","12","81964","0.0-6.0-2.3","61010ed79b9d528dcd376bc7","bdp_trlrn","Sat Apr 08 2023 12:30:19 GMT-0400 (Eastern Daylight Time)","488506","Untrustworthy,Trustworthy","","null","","","","ratingFB","","trustrating_stim/white_mw084.bmp","null","","","","","","","","","","",""
"image-keyboard-response","13","83035","0.0-6.0-1.4","61010ed79b9d528dcd376bc7","bdp_trlrn","Sat Apr 08 2023 12:30:19 GMT-0400 (Eastern Daylight Time)","488506","Untrustworthy,Trustworthy","","958","","","","rating","","trustrating_stim/white_mw049.bmp","2","","","","","","","","","","",""
"image-keyboard-response","14","83244","0.0-6.0-2.4","61010ed79b9d528dcd376bc7","bdp_trlrn","Sat Apr 08 2023 12:30:19 GMT-0400 (Eastern Daylight Time)","488506","Untrustworthy,Trustworthy","","null","","","","ratingFB","","trustrating_stim/white_mw049.bmp","null","","","","","","","","","","",""
"image-keyboard-response","15","84002","0.0-6.0-1.5","61010ed79b9d528dcd376bc7","bdp_trlrn","Sat Apr 08 2023 12:30:19 GMT-0400 (Eastern Daylight Time)","488506","Untrustworthy,Trustworthy","","644","","","","rating","","trustrating_stim/white_mw071.bmp","1","","","","","","","","","","",""
"image-keyboard-response","16","84211","0.0-6.0-2.5","61010ed79b9d528dcd376bc7","bdp_trlrn","Sat Apr 08 2023 12:30:19 GMT-0400 (Eastern Daylight Time)","488506","Untrustworthy,Trustworthy","","null","","","","ratingFB","","trustrating_stim/white_mw071.bmp","null","","","","","","","","","","",""
"image-keyboard-response","17","85178","0.0-6.0-1.6","61010ed79b9d528dcd376bc7","bdp_trlrn","Sat Apr 08 2023 12:30:19 GMT-0400 (Eastern Daylight Time)","488506","Untrustworthy,Trustworthy","","861","","","","rating","","trustrating_stim/white_00807_941205_fb_edt.bmp","1","","","","","","","","","","",""
"image-keyboard-response","18","85388","0.0-6.0-2.6","61010ed79b9d528dcd376bc7","bdp_trlrn","Sat Apr 08 2023 12:30:19 GMT-0400 (Eastern Daylight Time)","488506","Untrustworthy,Trustworthy","","null","","","","ratingFB","","trustrating_stim/white_00807_941205_fb_edt.bmp","null","","","","","","","","","","",""
"image-keyboard-response","19","86069","0.0-6.0-1.7","61010ed79b9d528dcd376bc7","bdp_trlrn","Sat Apr 08 2023 12:30:19 GMT-0400 (Eastern Daylight Time)","488506","Untrustworthy,Trustworthy","","567","","","","rating","","trustrating_stim/white_mw053.bmp","1","","","","","","","","","","",""
"image-keyboard-response","20","86273","0.0-6.0-2.7","61010ed79b9d528dcd376bc7","bdp_trlrn","Sat Apr 08 2023 12:30:19 GMT-0400 (Eastern Daylight Time)","488506","Untrustworthy,Trustworthy","","null","","","","ratingFB","","trustrating_stim/white_mw053.bmp","null","","","","","","","","","","",""
"image-keyboard-response","21","86964","0.0-6.0-1.8","61010ed79b9d528dcd376bc7","bdp_trlrn","Sat Apr 08 2023 12:30:19 GMT-0400 (Eastern Daylight Time)","488506","Untrustworthy,Trustworthy","","584","","","","rating","","trustrating_stim/white_00785_941205_fb_edt.bmp","1","","","","","","","","","","",""
"image-keyboard-response","22","87171","0.0-6.0-2.8","61010ed79b9d528dcd376bc7","bdp_trlrn","Sat Apr 08 2023 12:30:19 GMT-0400 (Eastern Daylight Time)","488506","Untrustworthy,Trustworthy","","null","","","","ratingFB","","trustrating_stim/white_00785_941205_fb_edt.bmp","null","","","","","","","","","","",""
"image-keyboard-response","23","88165","0.0-6.0-1.9","61010ed79b9d528dcd376bc7","bdp_trlrn","Sat Apr 08 2023 12:30:19 GMT-0400 (Eastern Daylight Time)","488506","Untrustworthy,Trustworthy","","887","","","","rating","","trustrating_stim/white_mw035.bmp","1","","","","","","","","","","",""
"image-keyboard-response","24","88371","0.0-6.0-2.9","61010ed79b9d528dcd376bc7","bdp_trlrn","Sat Apr 08 2023 12:30:19 GMT-0400 (Eastern Daylight Time)","488506","Untrustworthy,Trustworthy","","null","","","","ratingFB","","trustrating_stim/white_mw035.bmp","null","","","","","","","","","","",""
"image-keyboard-response","25","89090","0.0-6.0-1.10","61010ed79b9d528dcd376bc7","bdp_trlrn","Sat Apr 08 2023 12:30:19 GMT-0400 (Eastern Daylight Time)","488506","Untrustworthy,Trustworthy","","614","","","","rating","","trustrating_stim/white_00757_941201_fa_edt.bmp","1","","","","","","","","","","",""
"image-keyboard-response","26","89292","0.0-6.0-2.10","61010ed79b9d528dcd376bc7","bdp_trlrn","Sat Apr 08 2023 12:30:19 GMT-0400 (Eastern Daylight Time)","488506","Untrustworthy,Trustworthy","","null","","","","ratingFB","","trustrating_stim/white_00757_941201_fa_edt.bmp","null","","","","","","","","","","",""
"image-keyboard-response","27","90784","0.0-6.0-1.11","61010ed79b9d528dcd376bc7","bdp_trlrn","Sat Apr 08 2023 12:30:19 GMT-0400 (Eastern Daylight Time)","488506","Untrustworthy,Trustworthy","","1380","","","","rating","","trustrating_stim/white_00120_931230_fa_edt.bmp","3","","","","","","","","","","",""
"image-keyboard-response","28","90995","0.0-6.0-2.11","61010ed79b9d528dcd376bc7","bdp_trlrn","Sat Apr 08 2023 12:30:19 GMT-0400 (Eastern Daylight Time)","488506","Untrustworthy,Trustworthy","","null","","","","ratingFB","","trustrating_stim/white_00120_931230_fa_edt.bmp","null","","","","","","","","","","",""
"image-keyboard-response","29","91727","0.0-6.0-1.12","61010ed79b9d528dcd376bc7","bdp_trlrn","Sat Apr 08 2023 12:30:19 GMT-0400 (Eastern Daylight Time)","488506","Untrustworthy,Trustworthy","","626","","","","rating","","trustrating_stim/white_mw099.bmp","1","","","","","","","","","","",""
"image-keyboard-response","30","91939","0.0-6.0-2.12","61010ed79b9d528dcd376bc7","bdp_trlrn","Sat Apr 08 2023 12:30:19 GMT-0400 (Eastern Daylight Time)","488506","Untrustworthy,Trustworthy","","null","","","","ratingFB","","trustrating_stim/white_mw099.bmp","null","","","","","","","","","","",""
"image-keyboard-response","31","92666","0.0-6.0-1.13","61010ed79b9d528dcd376bc7","bdp_trlrn","Sat Apr 08 2023 12:30:19 GMT-0400 (Eastern Daylight Time)","488506","Untrustworthy,Trustworthy","","622","","","","rating","","trustrating_stim/white_mw066.bmp","1","","","","","","","","","","",""
"image-keyboard-response","32","92876","0.0-6.0-2.13","61010ed79b9d528dcd376bc7","bdp_trlrn","Sat Apr 08 2023 12:30:19 GMT-0400 (Eastern Daylight Time)","488506","Untrustworthy,Trustworthy","","null","","","","ratingFB","","trustrating_stim/white_mw066.bmp","null","","","","","","","","","","",""
"image-keyboard-response","33","93445","0.0-6.0-1.14","61010ed79b9d528dcd376bc7","bdp_trlrn","Sat Apr 08 2023 12:30:19 GMT-0400 (Eastern Daylight Time)","488506","Untrustworthy,Trustworthy","","457","","","","rating","","trustrating_stim/white_mw089.bmp","1","","","","","","","","","","",""
"image-keyboard-response","34","93651","0.0-6.0-2.14","61010ed79b9d528dcd376bc7","bdp_trlrn","Sat Apr 08 2023 12:30:19 GMT-0400 (Eastern Daylight Time)","488506","Untrustworthy,Trustworthy","","null","","","","ratingFB","","trustrating_stim/white_mw089.bmp","null","","","","","","","","","","",""
"image-keyboard-response","35","94843","0.0-6.0-1.15","61010ed79b9d528dcd376bc7","bdp_trlrn","Sat Apr 08 2023 12:30:19 GMT-0400 (Eastern Daylight Time)","488506","Untrustworthy,Trustworthy","","1086","","","","rating","","trustrating_stim/white_00602_940928_fb_edt.bmp","2","","","","","","","","","","",""
"image-keyboard-response","36","95051","0.0-6.0-2.15","61010ed79b9d528dcd376bc7","bdp_trlrn","Sat Apr 08 2023 12:30:19 GMT-0400 (Eastern Daylight Time)","488506","Untrustworthy,Trustworthy","","null","","","","ratingFB","","trustrating_stim/white_00602_940928_fb_edt.bmp","null","","","","","","","","","","",""
"image-keyboard-response","37","95806","0.0-6.0-1.16","61010ed79b9d528dcd376bc7","bdp_trlrn","Sat Apr 08 2023 12:30:19 GMT-0400 (Eastern Daylight Time)","488506","Untrustworthy,Trustworthy","","649","","","","rating","","trustrating_stim/white_00577_940928_fa_edt.bmp","1","","","","","","","","","","",""
"image-keyboard-response","38","96013","0.0-6.0-2.16","61010ed79b9d528dcd376bc7","bdp_trlrn","Sat Apr 08 2023 12:30:19 GMT-0400 (Eastern Daylight Time)","488506","Untrustworthy,Trustworthy","","null","","","","ratingFB","","trustrating_stim/white_00577_940928_fa_edt.bmp","null","","","","","","","","","","",""
"image-keyboard-response","39","96730","0.0-6.0-1.17","61010ed79b9d528dcd376bc7","bdp_trlrn","Sat Apr 08 2023 12:30:19 GMT-0400 (Eastern Daylight Time)","488506","Untrustworthy,Trustworthy","","605","","","","rating","","trustrating_stim/white_00519_940519_fb_edt.bmp","1","","","","","","","","","","",""
"image-keyboard-response","40","96940","0.0-6.0-2.17","61010ed79b9d528dcd376bc7","bdp_trlrn","Sat Apr 08 2023 12:30:19 GMT-0400 (Eastern Daylight Time)","488506","Untrustworthy,Trustworthy","","null","","","","ratingFB","","trustrating_stim/white_00519_940519_fb_edt.bmp","null","","","","","","","","","","",""
"image-keyboard-response","41","98373","0.0-6.0-1.18","61010ed79b9d528dcd376bc7","bdp_trlrn","Sat Apr 08 2023 12:30:19 GMT-0400 (Eastern Daylight Time)","488506","Untrustworthy,Trustworthy","","1320","","","","rating","","trustrating_stim/white_00129_931230_fb_edt.bmp","3","","","","","","","","","","",""
"image-keyboard-response","42","98579","0.0-6.0-2.18","61010ed79b9d528dcd376bc7","bdp_trlrn","Sat Apr 08 2023 12:30:19 GMT-0400 (Eastern Daylight Time)","488506","Untrustworthy,Trustworthy","","null","","","","ratingFB","","trustrating_stim/white_00129_931230_fb_edt.bmp","null","","","","","","","","","","",""
"image-keyboard-response","43","99167","0.0-6.0-1.19","61010ed79b9d528dcd376bc7","bdp_trlrn","Sat Apr 08 2023 12:30:19 GMT-0400 (Eastern Daylight Time)","488506","Untrustworthy,Trustworthy","","483","","","","rating","","trustrating_stim/white_mw033.bmp","1","","","","","","","","","","",""
"image-keyboard-response","44","99379","0.0-6.0-2.19","61010ed79b9d528dcd376bc7","bdp_trlrn","Sat Apr 08 2023 12:30:19 GMT-0400 (Eastern Daylight Time)","488506","Untrustworthy,Trustworthy","","null","","","","ratingFB","","trustrating_stim/white_mw033.bmp","null","","","","","","","","","","",""
"image-keyboard-response","45","100161","0.0-6.0-1.20","61010ed79b9d528dcd376bc7","bdp_trlrn","Sat Apr 08 2023 12:30:19 GMT-0400 (Eastern Daylight Time)","488506","Untrustworthy,Trustworthy","","668","","","","rating","","trustrating_stim/white_mw063.bmp","1","","","","","","","","","","",""
"image-keyboard-response","46","100371","0.0-6.0-2.20","61010ed79b9d528dcd376bc7","bdp_trlrn","Sat Apr 08 2023 12:30:19 GMT-0400 (Eastern Daylight Time)","488506","Untrustworthy,Trustworthy","","null","","","","ratingFB","","trustrating_stim/white_mw063.bmp","null","","","","","","","","","","",""
"image-keyboard-response","47","100972","0.0-6.0-1.21","61010ed79b9d528dcd376bc7","bdp_trlrn","Sat Apr 08 2023 12:30:19 GMT-0400 (Eastern Daylight Time)","488506","Untrustworthy,Trustworthy","","496","","","","rating","","trustrating_stim/white_00898_960530_fa_edt.bmp","1","","","","","","","","","","",""
"image-keyboard-response","48","101180","0.0-6.0-2.21","61010ed79b9d528dcd376bc7","bdp_trlrn","Sat Apr 08 2023 12:30:19 GMT-0400 (Eastern Daylight Time)","488506","Untrustworthy,Trustworthy","","null","","","","ratingFB","","trustrating_stim/white_00898_960530_fa_edt.bmp","null","","","","","","","","","","",""
"image-keyboard-response","49","102298","0.0-6.0-1.22","61010ed79b9d528dcd376bc7","bdp_trlrn","Sat Apr 08 2023 12:30:19 GMT-0400 (Eastern Daylight Time)","488506","Untrustworthy,Trustworthy","","1013","","","","rating","","trustrating_stim/white_00299_940422_fa_edt.bmp","1","","","","","","","","","","",""
"image-keyboard-response","50","102507","0.0-6.0-2.22","61010ed79b9d528dcd376bc7","bdp_trlrn","Sat Apr 08 2023 12:30:19 GMT-0400 (Eastern Daylight Time)","488506","Untrustworthy,Trustworthy","","null","","","","ratingFB","","trustrating_stim/white_00299_940422_fa_edt.bmp","null","","","","","","","","","","",""
"image-keyboard-response","51","103097","0.0-6.0-1.23","61010ed79b9d528dcd376bc7","bdp_trlrn","Sat Apr 08 2023 12:30:19 GMT-0400 (Eastern Daylight Time)","488506","Untrustworthy,Trustworthy","","477","","","","rating","","trustrating_stim/white_mw046.bmp","1","","","","","","","","","","",""
"image-keyboard-response","52","103304","0.0-6.0-2.23","61010ed79b9d528dcd376bc7","bdp_trlrn","Sat Apr 08 2023 12:30:19 GMT-0400 (Eastern Daylight Time)","488506","Untrustworthy,Trustworthy","","null","","","","ratingFB","","trustrating_stim/white_mw046.bmp","null","","","","","","","","","","",""
"image-keyboard-response","53","104071","0.0-6.0-1.24","61010ed79b9d528dcd376bc7","bdp_trlrn","Sat Apr 08 2023 12:30:19 GMT-0400 (Eastern Daylight Time)","488506","Untrustworthy,Trustworthy","","658","","","","rating","","trustrating_stim/white_mw097.bmp","1","","","","","","","","","","",""
"image-keyboard-response","54","104283","0.0-6.0-2.24","61010ed79b9d528dcd376bc7","bdp_trlrn","Sat Apr 08 2023 12:30:19 GMT-0400 (Eastern Daylight Time)","488506","Untrustworthy,Trustworthy","","null","","","","ratingFB","","trustrating_stim/white_mw097.bmp","null","","","","","","","","","","",""
"image-keyboard-response","55","104941","0.0-6.0-1.25","61010ed79b9d528dcd376bc7","bdp_trlrn","Sat Apr 08 2023 12:30:19 GMT-0400 (Eastern Daylight Time)","488506","Untrustworthy,Trustworthy","","545","","","","rating","","trustrating_stim/white_00761_941201_fb_edt.bmp","1","","","","","","","","","","",""
"image-keyboard-response","56","105147","0.0-6.0-2.25","61010ed79b9d528dcd376bc7","bdp_trlrn","Sat Apr 08 2023 12:30:19 GMT-0400 (Eastern Daylight Time)","488506","Untrustworthy,Trustworthy","","null","","","","ratingFB","","trustrating_stim/white_00761_941201_fb_edt.bmp","null","","","","","","","","","","",""
"image-keyboard-response","57","105723","0.0-6.0-1.26","61010ed79b9d528dcd376bc7","bdp_trlrn","Sat Apr 08 2023 12:30:19 GMT-0400 (Eastern Daylight Time)","488506","Untrustworthy,Trustworthy","","463","","","","rating","","trustrating_stim/white_mw056.bmp","1","","","","","","","","","","",""
"image-keyboard-response","58","105931","0.0-6.0-2.26","61010ed79b9d528dcd376bc7","bdp_trlrn","Sat Apr 08 2023 12:30:19 GMT-0400 (Eastern Daylight Time)","488506","Untrustworthy,Trustworthy","","null","","","","ratingFB","","trustrating_stim/white_mw056.bmp","null","","","","","","","","","","",""
"image-keyboard-response","59","106656","0.0-6.0-1.27","61010ed79b9d528dcd376bc7","bdp_trlrn","Sat Apr 08 2023 12:30:19 GMT-0400 (Eastern Daylight Time)","488506","Untrustworthy,Trustworthy","","612","","","","rating","","trustrating_stim/white_00340_940422_fa_edt.bmp","1","","","","","","","","","","",""
"image-keyboard-response","60","106866","0.0-6.0-2.27","61010ed79b9d528dcd376bc7","bdp_trlrn","Sat Apr 08 2023 12:30:19 GMT-0400 (Eastern Daylight Time)","488506","Untrustworthy,Trustworthy","","null","","","","ratingFB","","trustrating_stim/white_00340_940422_fa_edt.bmp","null","","","","","","","","","","",""
"image-keyboard-response","61","107744","0.0-6.0-1.28","61010ed79b9d528dcd376bc7","bdp_trlrn","Sat Apr 08 2023 12:30:19 GMT-0400 (Eastern Daylight Time)","488506","Untrustworthy,Trustworthy","","772","","","","rating","","trustrating_stim/white_00659_941121_fa_edt.bmp","1","","","","","","","","","","",""
"image-keyboard-response","62","107955","0.0-6.0-2.28","61010ed79b9d528dcd376bc7","bdp_trlrn","Sat Apr 08 2023 12:30:19 GMT-0400 (Eastern Daylight Time)","488506","Untrustworthy,Trustworthy","","null","","","","ratingFB","","trustrating_stim/white_00659_941121_fa_edt.bmp","null","","","","","","","","","","",""
"image-keyboard-response","63","110956","0.0-6.0-1.29","61010ed79b9d528dcd376bc7","bdp_trlrn","Sat Apr 08 2023 12:30:19 GMT-0400 (Eastern Daylight Time)","488506","Untrustworthy,Trustworthy","","2888","","","","rating","","trustrating_stim/white_00109_931230_fa_edt.bmp","1","","","","","","","","","","",""
"image-keyboard-response","64","111160","0.0-6.0-2.29","61010ed79b9d528dcd376bc7","bdp_trlrn","Sat Apr 08 2023 12:30:19 GMT-0400 (Eastern Daylight Time)","488506","Untrustworthy,Trustworthy","","null","","","","ratingFB","","trustrating_stim/white_00109_931230_fa_edt.bmp","null","","","","","","","","","","",""
"image-keyboard-response","65","111664","0.0-6.0-1.30","61010ed79b9d528dcd376bc7","bdp_trlrn","Sat Apr 08 2023 12:30:19 GMT-0400 (Eastern Daylight Time)","488506","Untrustworthy,Trustworthy","","396","","","","rating","","trustrating_stim/white_00761_941201_fb_edt.bmp","1","","","","","","","","","","",""
"image-keyboard-response","66","111875","0.0-6.0-2.30","61010ed79b9d528dcd376bc7","bdp_trlrn","Sat Apr 08 2023 12:30:19 GMT-0400 (Eastern Daylight Time)","488506","Untrustworthy,Trustworthy","","null","","","","ratingFB","","trustrating_stim/white_00761_941201_fb_edt.bmp","null","","","","","","","","","","",""
"image-keyboard-response","67","112429","0.0-6.0-1.31","61010ed79b9d528dcd376bc7","bdp_trlrn","Sat Apr 08 2023 12:30:19 GMT-0400 (Eastern Daylight Time)","488506","Untrustworthy,Trustworthy","","441","","","","rating","","trustrating_stim/white_mw048.bmp","1","","","","","","","","","","",""
"image-keyboard-response","68","112635","0.0-6.0-2.31","61010ed79b9d528dcd376bc7","bdp_trlrn","Sat Apr 08 2023 12:30:19 GMT-0400 (Eastern Daylight Time)","488506","Untrustworthy,Trustworthy","","null","","","","ratingFB","","trustrating_stim/white_mw048.bmp","null","","","","","","","","","","",""
"image-keyboard-response","69","113450","0.0-6.0-1.32","61010ed79b9d528dcd376bc7","bdp_trlrn","Sat Apr 08 2023 12:30:19 GMT-0400 (Eastern Daylight Time)","488506","Untrustworthy,Trustworthy","","701","","","","rating","","trustrating_stim/white_00109_931230_fa_edt.bmp","1","","","","","","","","","","",""
"image-keyboard-response","70","113659","0.0-6.0-2.32","61010ed79b9d528dcd376bc7","bdp_trlrn","Sat Apr 08 2023 12:30:19 GMT-0400 (Eastern Daylight Time)","488506","Untrustworthy,Trustworthy","","null","","","","ratingFB","","trustrating_stim/white_00109_931230_fa_edt.bmp","null","","","","","","","","","","",""
"image-keyboard-response","71","114121","0.0-6.0-1.33","61010ed79b9d528dcd376bc7","bdp_trlrn","Sat Apr 08 2023 12:30:19 GMT-0400 (Eastern Daylight Time)","488506","Untrustworthy,Trustworthy","","349","","","","rating","","trustrating_stim/white_mw049.bmp","1","","","","","","","","","","",""
"image-keyboard-response","72","114331","0.0-6.0-2.33","61010ed79b9d528dcd376bc7","bdp_trlrn","Sat Apr 08 2023 12:30:19 GMT-0400 (Eastern Daylight Time)","488506","Untrustworthy,Trustworthy","","null","","","","ratingFB","","trustrating_stim/white_mw049.bmp","null","","","","","","","","","","",""
"image-keyboard-response","73","114883","0.0-6.0-1.34","61010ed79b9d528dcd376bc7","bdp_trlrn","Sat Apr 08 2023 12:30:19 GMT-0400 (Eastern Daylight Time)","488506","Untrustworthy,Trustworthy","","439","","","","rating","","trustrating_stim/white_00757_941201_fa_edt.bmp","1","","","","","","","","","","",""
"image-keyboard-response","74","115091","0.0-6.0-2.34","61010ed79b9d528dcd376bc7","bdp_trlrn","Sat Apr 08 2023 12:30:19 GMT-0400 (Eastern Daylight Time)","488506","Untrustworthy,Trustworthy","","null","","","","ratingFB","","trustrating_stim/white_00757_941201_fa_edt.bmp","null","","","","","","","","","","",""
"image-keyboard-response","75","115538","0.0-6.0-1.35","61010ed79b9d528dcd376bc7","bdp_trlrn","Sat Apr 08 2023 12:30:19 GMT-0400 (Eastern Daylight Time)","488506","Untrustworthy,Trustworthy","","335","","","","rating","","trustrating_stim/white_mw066.bmp","1","","","","","","","","","","",""
"image-keyboard-response","76","115747","0.0-6.0-2.35","61010ed79b9d528dcd376bc7","bdp_trlrn","Sat Apr 08 2023 12:30:19 GMT-0400 (Eastern Daylight Time)","488506","Untrustworthy,Trustworthy","","null","","","","ratingFB","","trustrating_stim/white_mw066.bmp","null","","","","","","","","","","",""
"image-keyboard-response","77","116274","0.0-6.0-1.36","61010ed79b9d528dcd376bc7","bdp_trlrn","Sat Apr 08 2023 12:30:19 GMT-0400 (Eastern Daylight Time)","488506","Untrustworthy,Trustworthy","","414","","","","rating","","trustrating_stim/white_mw097.bmp","1","","","","","","","","","","",""
"image-keyboard-response","78","116483","0.0-6.0-2.36","61010ed79b9d528dcd376bc7","bdp_trlrn","Sat Apr 08 2023 12:30:19 GMT-0400 (Eastern Daylight Time)","488506","Untrustworthy,Trustworthy","","null","","","","ratingFB","","trustrating_stim/white_mw097.bmp","null","","","","","","","","","","",""
"image-keyboard-response","79","117028","0.0-6.0-1.37","61010ed79b9d528dcd376bc7","bdp_trlrn","Sat Apr 08 2023 12:30:19 GMT-0400 (Eastern Daylight Time)","488506","Untrustworthy,Trustworthy","","432","","","","rating","","trustrating_stim/white_mw071.bmp","1","","","","","","","","","","",""
"image-keyboard-response","80","117235","0.0-6.0-2.37","61010ed79b9d528dcd376bc7","bdp_trlrn","Sat Apr 08 2023 12:30:19 GMT-0400 (Eastern Daylight Time)","488506","Untrustworthy,Trustworthy","","null","","","","ratingFB","","trustrating_stim/white_mw071.bmp","null","","","","","","","","","","",""
"image-keyboard-response","81","117742","0.0-6.0-1.38","61010ed79b9d528dcd376bc7","bdp_trlrn","Sat Apr 08 2023 12:30:19 GMT-0400 (Eastern Daylight Time)","488506","Untrustworthy,Trustworthy","","393","","","","rating","","trustrating_stim/white_00785_941205_fb_edt.bmp","1","","","","","","","","","","",""
"image-keyboard-response","82","117947","0.0-6.0-2.38","61010ed79b9d528dcd376bc7","bdp_trlrn","Sat Apr 08 2023 12:30:19 GMT-0400 (Eastern Daylight Time)","488506","Untrustworthy,Trustworthy","","null","","","","ratingFB","","trustrating_stim/white_00785_941205_fb_edt.bmp","null","","","","","","","","","","",""
"image-keyboard-response","83","118574","0.0-6.0-1.39","61010ed79b9d528dcd376bc7","bdp_trlrn","Sat Apr 08 2023 12:30:19 GMT-0400 (Eastern Daylight Time)","488506","Untrustworthy,Trustworthy","","514","","","","rating","","trustrating_stim/white_00340_940422_fa_edt.bmp","1","","","","","","","","","","",""
"image-keyboard-response","84","118779","0.0-6.0-2.39","61010ed79b9d528dcd376bc7","bdp_trlrn","Sat Apr 08 2023 12:30:19 GMT-0400 (Eastern Daylight Time)","488506","Untrustworthy,Trustworthy","","null","","","","ratingFB","","trustrating_stim/white_00340_940422_fa_edt.bmp","null","","","","","","","","","","",""
"image-keyboard-response","85","119258","0.0-6.0-1.40","61010ed79b9d528dcd376bc7","bdp_trlrn","Sat Apr 08 2023 12:30:19 GMT-0400 (Eastern Daylight Time)","488506","Untrustworthy,Trustworthy","","366","","","","rating","","trustrating_stim/white_mw046.bmp","1","","","","","","","","","","",""
"image-keyboard-response","86","119466","0.0-6.0-2.40","61010ed79b9d528dcd376bc7","bdp_trlrn","Sat Apr 08 2023 12:30:19 GMT-0400 (Eastern Daylight Time)","488506","Untrustworthy,Trustworthy","","null","","","","ratingFB","","trustrating_stim/white_mw046.bmp","null","","","","","","","","","","",""
"image-keyboard-response","87","120095","0.0-6.0-1.41","61010ed79b9d528dcd376bc7","bdp_trlrn","Sat Apr 08 2023 12:30:19 GMT-0400 (Eastern Daylight Time)","488506","Untrustworthy,Trustworthy","","514","","","","rating","","trustrating_stim/white_mw035.bmp","1","","","","","","","","","","",""
"image-keyboard-response","88","120307","0.0-6.0-2.41","61010ed79b9d528dcd376bc7","bdp_trlrn","Sat Apr 08 2023 12:30:19 GMT-0400 (Eastern Daylight Time)","488506","Untrustworthy,Trustworthy","","null","","","","ratingFB","","trustrating_stim/white_mw035.bmp","null","","","","","","","","","","",""
"image-keyboard-response","89","120810","0.0-6.0-1.42","61010ed79b9d528dcd376bc7","bdp_trlrn","Sat Apr 08 2023 12:30:19 GMT-0400 (Eastern Daylight Time)","488506","Untrustworthy,Trustworthy","","391","","","","rating","","trustrating_stim/white_mw099.bmp","1","","","","","","","","","","",""
"image-keyboard-response","90","121020","0.0-6.0-2.42","61010ed79b9d528dcd376bc7","bdp_trlrn","Sat Apr 08 2023 12:30:19 GMT-0400 (Eastern Daylight Time)","488506","Untrustworthy,Trustworthy","","null","","","","ratingFB","","trustrating_stim/white_mw099.bmp","null","","","","","","","","","","",""
"image-keyboard-response","91","121532","0.0-6.0-1.43","61010ed79b9d528dcd376bc7","bdp_trlrn","Sat Apr 08 2023 12:30:19 GMT-0400 (Eastern Daylight Time)","488506","Untrustworthy,Trustworthy","","400","","","","rating","","trustrating_stim/white_mw056.bmp","1","","","","","","","","","","",""
"image-keyboard-response","92","121739","0.0-6.0-2.43","61010ed79b9d528dcd376bc7","bdp_trlrn","Sat Apr 08 2023 12:30:19 GMT-0400 (Eastern Daylight Time)","488506","Untrustworthy,Trustworthy","","null","","","","ratingFB","","trustrating_stim/white_mw056.bmp","null","","","","","","","","","","",""
"image-keyboard-response","93","122200","0.0-6.0-1.44","61010ed79b9d528dcd376bc7","bdp_trlrn","Sat Apr 08 2023 12:30:19 GMT-0400 (Eastern Daylight Time)","488506","Untrustworthy,Trustworthy","","348","","","","rating","","trustrating_stim/white_00223_940128_fb_edt.bmp","1","","","","","","","","","","",""
"image-keyboard-response","94","122411","0.0-6.0-2.44","61010ed79b9d528dcd376bc7","bdp_trlrn","Sat Apr 08 2023 12:30:19 GMT-0400 (Eastern Daylight Time)","488506","Untrustworthy,Trustworthy","","null","","","","ratingFB","","trustrating_stim/white_00223_940128_fb_edt.bmp","null","","","","","","","","","","",""
"image-keyboard-response","95","123559","0.0-6.0-1.45","61010ed79b9d528dcd376bc7","bdp_trlrn","Sat Apr 08 2023 12:30:19 GMT-0400 (Eastern Daylight Time)","488506","Untrustworthy,Trustworthy","","1034","","","","rating","","trustrating_stim/white_00129_931230_fb_edt.bmp","3","","","","","","","","","","",""
"image-keyboard-response","96","123771","0.0-6.0-2.45","61010ed79b9d528dcd376bc7","bdp_trlrn","Sat Apr 08 2023 12:30:19 GMT-0400 (Eastern Daylight Time)","488506","Untrustworthy,Trustworthy","","null","","","","ratingFB","","trustrating_stim/white_00129_931230_fb_edt.bmp","null","","","","","","","","","","",""
"image-keyboard-response","97","124543","0.0-6.0-1.46","61010ed79b9d528dcd376bc7","bdp_trlrn","Sat Apr 08 2023 12:30:19 GMT-0400 (Eastern Daylight Time)","488506","Untrustworthy,Trustworthy","","659","","","","rating","","trustrating_stim/white_mw060.bmp","1","","","","","","","","","","",""
"image-keyboard-response","98","124755","0.0-6.0-2.46","61010ed79b9d528dcd376bc7","bdp_trlrn","Sat Apr 08 2023 12:30:19 GMT-0400 (Eastern Daylight Time)","488506","Untrustworthy,Trustworthy","","null","","","","ratingFB","","trustrating_stim/white_mw060.bmp","null","","","","","","","","","","",""
"image-keyboard-response","99","125429","0.0-6.0-1.47","61010ed79b9d528dcd376bc7","bdp_trlrn","Sat Apr 08 2023 12:30:19 GMT-0400 (Eastern Daylight Time)","488506","Untrustworthy,Trustworthy","","562","","","","rating","","trustrating_stim/white_00519_940519_fb_edt.bmp","1","","","","","","","","","","",""
"image-keyboard-response","100","125635","0.0-6.0-2.47","61010ed79b9d528dcd376bc7","bdp_trlrn","Sat Apr 08 2023 12:30:19 GMT-0400 (Eastern Daylight Time)","488506","Untrustworthy,Trustworthy","","null","","","","ratingFB","","trustrating_stim/white_00519_940519_fb_edt.bmp","null","","","","","","","","","","",""
"image-keyboard-response","101","126245","0.0-6.0-1.48","61010ed79b9d528dcd376bc7","bdp_trlrn","Sat Apr 08 2023 12:30:19 GMT-0400 (Eastern Daylight Time)","488506","Untrustworthy,Trustworthy","","497","","","","rating","","trustrating_stim/white_mw053.bmp","1","","","","","","","","","","",""
"image-keyboard-response","102","126451","0.0-6.0-2.48","61010ed79b9d528dcd376bc7","bdp_trlrn","Sat Apr 08 2023 12:30:19 GMT-0400 (Eastern Daylight Time)","488506","Untrustworthy,Trustworthy","","null","","","","ratingFB","","trustrating_stim/white_mw053.bmp","null","","","","","","","","","","",""
"image-keyboard-response","103","127049","0.0-6.0-1.49","61010ed79b9d528dcd376bc7","bdp_trlrn","Sat Apr 08 2023 12:30:19 GMT-0400 (Eastern Daylight Time)","488506","Untrustworthy,Trustworthy","","486","","","","rating","","trustrating_stim/white_mw063.bmp","1","","","","","","","","","","",""
"image-keyboard-response","104","127259","0.0-6.0-2.49","61010ed79b9d528dcd376bc7","bdp_trlrn","Sat Apr 08 2023 12:30:19 GMT-0400 (Eastern Daylight Time)","488506","Untrustworthy,Trustworthy","","null","","","","ratingFB","","trustrating_stim/white_mw063.bmp","null","","","","","","","","","","",""
"image-keyboard-response","105","127785","0.0-6.0-1.50","61010ed79b9d528dcd376bc7","bdp_trlrn","Sat Apr 08 2023 12:30:19 GMT-0400 (Eastern Daylight Time)","488506","Untrustworthy,Trustworthy","","412","","","","rating","","trustrating_stim/white_mw033.bmp","1","","","","","","","","","","",""
"image-keyboard-response","106","127995","0.0-6.0-2.50","61010ed79b9d528dcd376bc7","bdp_trlrn","Sat Apr 08 2023 12:30:19 GMT-0400 (Eastern Daylight Time)","488506","Untrustworthy,Trustworthy","","null","","","","ratingFB","","trustrating_stim/white_mw033.bmp","null","","","","","","","","","","",""
"image-keyboard-response","107","128642","0.0-6.0-1.51","61010ed79b9d528dcd376bc7","bdp_trlrn","Sat Apr 08 2023 12:30:19 GMT-0400 (Eastern Daylight Time)","488506","Untrustworthy,Trustworthy","","534","","","","rating","","trustrating_stim/white_00299_940422_fa_edt.bmp","1","","","","","","","","","","",""
"image-keyboard-response","108","128851","0.0-6.0-2.51","61010ed79b9d528dcd376bc7","bdp_trlrn","Sat Apr 08 2023 12:30:19 GMT-0400 (Eastern Daylight Time)","488506","Untrustworthy,Trustworthy","","null","","","","ratingFB","","trustrating_stim/white_00299_940422_fa_edt.bmp","null","","","","","","","","","","",""
"image-keyboard-response","109","129548","0.0-6.0-1.52","61010ed79b9d528dcd376bc7","bdp_trlrn","Sat Apr 08 2023 12:30:19 GMT-0400 (Eastern Daylight Time)","488506","Untrustworthy,Trustworthy","","585","","","","rating","","trustrating_stim/white_00659_941121_fa_edt.bmp","1","","","","","","","","","","",""
"image-keyboard-response","110","129755","0.0-6.0-2.52","61010ed79b9d528dcd376bc7","bdp_trlrn","Sat Apr 08 2023 12:30:19 GMT-0400 (Eastern Daylight Time)","488506","Untrustworthy,Trustworthy","","null","","","","ratingFB","","trustrating_stim/white_00659_941121_fa_edt.bmp","null","","","","","","","","","","",""
"image-keyboard-response","111","130469","0.0-6.0-1.53","61010ed79b9d528dcd376bc7","bdp_trlrn","Sat Apr 08 2023 12:30:19 GMT-0400 (Eastern Daylight Time)","488506","Untrustworthy,Trustworthy","","601","","","","rating","","trustrating_stim/white_00602_940928_fb_edt.bmp","1","","","","","","","","","","",""
"image-keyboard-response","112","130675","0.0-6.0-2.53","61010ed79b9d528dcd376bc7","bdp_trlrn","Sat Apr 08 2023 12:30:19 GMT-0400 (Eastern Daylight Time)","488506","Untrustworthy,Trustworthy","","null","","","","ratingFB","","trustrating_stim/white_00602_940928_fb_edt.bmp","null","","","","","","","","","","",""
"image-keyboard-response","113","131138","0.0-6.0-1.54","61010ed79b9d528dcd376bc7","bdp_trlrn","Sat Apr 08 2023 12:30:19 GMT-0400 (Eastern Daylight Time)","488506","Untrustworthy,Trustworthy","","351","","","","rating","","trustrating_stim/white_00577_940928_fa_edt.bmp","1","","","","","","","","","","",""
"image-keyboard-response","114","131347","0.0-6.0-2.54","61010ed79b9d528dcd376bc7","bdp_trlrn","Sat Apr 08 2023 12:30:19 GMT-0400 (Eastern Daylight Time)","488506","Untrustworthy,Trustworthy","","null","","","","ratingFB","","trustrating_stim/white_00577_940928_fa_edt.bmp","null","","","","","","","","","","",""
"image-keyboard-response","115","132364","0.0-6.0-1.55","61010ed79b9d528dcd376bc7","bdp_trlrn","Sat Apr 08 2023 12:30:19 GMT-0400 (Eastern Daylight Time)","488506","Untrustworthy,Trustworthy","","905","","","","rating","","trustrating_stim/white_00120_931230_fa_edt.bmp","2","","","","","","","","","","",""
"image-keyboard-response","116","132571","0.0-6.0-2.55","61010ed79b9d528dcd376bc7","bdp_trlrn","Sat Apr 08 2023 12:30:19 GMT-0400 (Eastern Daylight Time)","488506","Untrustworthy,Trustworthy","","null","","","","ratingFB","","trustrating_stim/white_00120_931230_fa_edt.bmp","null","","","","","","","","","","",""
"image-keyboard-response","117","133100","0.0-6.0-1.56","61010ed79b9d528dcd376bc7","bdp_trlrn","Sat Apr 08 2023 12:30:19 GMT-0400 (Eastern Daylight Time)","488506","Untrustworthy,Trustworthy","","416","","","","rating","","trustrating_stim/white_00807_941205_fb_edt.bmp","1","","","","","","","","","","",""
"image-keyboard-response","118","133307","0.0-6.0-2.56","61010ed79b9d528dcd376bc7","bdp_trlrn","Sat Apr 08 2023 12:30:19 GMT-0400 (Eastern Daylight Time)","488506","Untrustworthy,Trustworthy","","null","","","","ratingFB","","trustrating_stim/white_00807_941205_fb_edt.bmp","null","","","","","","","","","","",""
"image-keyboard-response","119","133806","0.0-6.0-1.57","61010ed79b9d528dcd376bc7","bdp_trlrn","Sat Apr 08 2023 12:30:19 GMT-0400 (Eastern Daylight Time)","488506","Untrustworthy,Trustworthy","","394","","","","rating","","trustrating_stim/white_mw089.bmp","1","","","","","","","","","","",""
"image-keyboard-response","120","134011","0.0-6.0-2.57","61010ed79b9d528dcd376bc7","bdp_trlrn","Sat Apr 08 2023 12:30:19 GMT-0400 (Eastern Daylight Time)","488506","Untrustworthy,Trustworthy","","null","","","","ratingFB","","trustrating_stim/white_mw089.bmp","null","","","","","","","","","","",""
"image-keyboard-response","121","134466","0.0-6.0-1.58","61010ed79b9d528dcd376bc7","bdp_trlrn","Sat Apr 08 2023 12:30:19 GMT-0400 (Eastern Daylight Time)","488506","Untrustworthy,Trustworthy","","345","","","","rating","","trustrating_stim/white_mw084.bmp","1","","","","","","","","","","",""
"image-keyboard-response","122","134674","0.0-6.0-2.58","61010ed79b9d528dcd376bc7","bdp_trlrn","Sat Apr 08 2023 12:30:19 GMT-0400 (Eastern Daylight Time)","488506","Untrustworthy,Trustworthy","","null","","","","ratingFB","","trustrating_stim/white_mw084.bmp","null","","","","","","","","","","",""
"image-keyboard-response","123","135138","0.0-6.0-1.59","61010ed79b9d528dcd376bc7","bdp_trlrn","Sat Apr 08 2023 12:30:19 GMT-0400 (Eastern Daylight Time)","488506","Untrustworthy,Trustworthy","","350","","","","rating","","trustrating_stim/white_00898_960530_fa_edt.bmp","1","","","","","","","","","","",""
"image-keyboard-response","124","135346","0.0-6.0-2.59","61010ed79b9d528dcd376bc7","bdp_trlrn","Sat Apr 08 2023 12:30:19 GMT-0400 (Eastern Daylight Time)","488506","Untrustworthy,Trustworthy","","null","","","","ratingFB","","trustrating_stim/white_00898_960530_fa_edt.bmp","null","","","","","","","","","","",""
"instructions","125","136426","0.0-7.0","61010ed79b9d528dcd376bc7","bdp_trlrn","Sat Apr 08 2023 12:30:19 GMT-0400 (Eastern Daylight Time)","488506","Untrustworthy,Trustworthy","[{""page_index"":0,""viewing_time"":967}]","968","","","","","","","","","","","","","","","","","",""
"instructions","126","173163","0.0-8.0","61010ed79b9d528dcd376bc7","bdp_trlrn","Sat Apr 08 2023 12:30:19 GMT-0400 (Eastern Daylight Time)","488506","Untrustworthy,Trustworthy","[{""page_index"":0,""viewing_time"":8183},{""page_index"":1,""viewing_time"":9810},{""page_index"":2,""viewing_time"":3536},{""page_index"":3,""viewing_time"":2974},{""page_index"":4,""viewing_time"":2259},{""page_index"":5,""viewing_time"":2022},{""page_index"":6,""viewing_time"":4920},{""page_index"":7,""viewing_time"":2927}]","36631","","","","","","","","","","","","","","","","","",""
"html-keyboard-response","127","177597","0.0-9.0","61010ed79b9d528dcd376bc7","bdp_trlrn","Sat Apr 08 2023 12:30:19 GMT-0400 (Eastern Daylight Time)","488506","Untrustworthy,Trustworthy","","4431","","","","","","<div class='header' style='text-align:left; position: absolute; top: 5%; left: 5%;'><small>Task 3 of 5</small></div><div class='instruxDiv'><p><strong>1) What is the minimum number of points you can choose to send to your partner?</strong></p><p>a) 0</p><p>b) 1</p><p>c) 5</p>","C","","","","","","","","","","",""
"html-keyboard-response","128","181331","0.0-10.0","61010ed79b9d528dcd376bc7","bdp_trlrn","Sat Apr 08 2023 12:30:19 GMT-0400 (Eastern Daylight Time)","488506","Untrustworthy,Trustworthy","","3622","","","","","","<div class='header' style='text-align:left; position: absolute; top: 5%; left: 5%;'><small>Task 3 of 5</small></div><div class='instruxDiv'><p><strong>1) What is the minimum number of points you can choose to send to your partner?</strong></p><p>a) 1</p><p>b) 1</p><p style='color:#FF0000'>c) 5</p><h3 style='color:#FF0000'>Incorrect!</h3><h3 class='center-content'>The correct response is b).</h3><h3 class='center-content'>The minimum number of points you can choose to send to your partner is 1 point.</h3><p><em>Press SPACEBAR to continue</em></p></div>"," ","","","","","","","","","","",""
"html-keyboard-response","129","185182","0.0-11.0","61010ed79b9d528dcd376bc7","bdp_trlrn","Sat Apr 08 2023 12:30:19 GMT-0400 (Eastern Daylight Time)","488506","Untrustworthy,Trustworthy","","3747","","","","","","<div class='header' style='text-align:left; position: absolute; top: 5%; left: 5%;'><small>Task 3 of 5</small></div><div class='instruxDiv'><p><strong>2) What is the maximum number of points you can choose to send to your partner?</strong></p><p>a) 8</p><p>b) 5</p><p>c) 3</p>","A","","","","","","","","","","",""
"html-keyboard-response","130","187002","0.0-12.0","61010ed79b9d528dcd376bc7","bdp_trlrn","Sat Apr 08 2023 12:30:19 GMT-0400 (Eastern Daylight Time)","488506","Untrustworthy,Trustworthy","","1712","","","","","","<div class='header' style='text-align:left; position: absolute; top: 5%; left: 5%;'><small>Task 3 of 5</small></div><div class='instruxDiv'><p><strong>2) What is the maximum number of points you can choose to send to your partner?</strong></p><p style='color:#FF0000'>a) 8</p><p>b) 5</p><p>c) 3</p><h3 style='color:#FF0000'>Incorrect!</h3><h3 class='center-content'>The correct response is b).</h3><h3 class='center-content'>The maximum number of points you can choose to send to your partner is 5 points.</h3><p><em>Press SPACEBAR to continue</em></p></div>"," ","","","","","","","","","","",""
"html-keyboard-response","131","189959","0.0-13.0","61010ed79b9d528dcd376bc7","bdp_trlrn","Sat Apr 08 2023 12:30:19 GMT-0400 (Eastern Daylight Time)","488506","Untrustworthy,Trustworthy","","2851","","","","","","<div class='header' style='text-align:left; position: absolute; top: 5%; left: 5%;'><small>Task 3 of 5</small></div><div class='instruxDiv'><p><strong>3) What happens to the amount of points you send to your partner?</strong></p><p>a) Nothing</p><p>b) It doubles</p><p>c) It quadruples</p>","C","","","","","","","","","","",""
"html-keyboard-response","132","191144","0.0-14.0","61010ed79b9d528dcd376bc7","bdp_trlrn","Sat Apr 08 2023 12:30:19 GMT-0400 (Eastern Daylight Time)","488506","Untrustworthy,Trustworthy","","1077","","","","","","<div class='header' style='text-align:left; position: absolute; top: 5%; left: 5%;'><small>Task 3 of 5</small></div><div class='instruxDiv'><p><strong>3) What happens to the amount of points you send to your partner?</strong></p><p>a) Nothing</p><p>b) It doubles</p><p style='color:#00FF00'>c) It quadruples</p><h3 style='color:#00FF00'>Correct!</h3><h3 class='center-content'>The correct response is c).</h3><h3 class='center-content'>The amount of points you send to your partner quadruples.</h3><p><em>Press SPACEBAR to continue</em></p></div>"," ","","","","","","","","","","",""
"html-keyboard-response","133","200430","0.0-15.0","61010ed79b9d528dcd376bc7","bdp_trlrn","Sat Apr 08 2023 12:30:19 GMT-0400 (Eastern Daylight Time)","488506","Untrustworthy,Trustworthy","","9179","","","","","","<div class='header' style='text-align:left; position: absolute; top: 5%; left: 5%;'><small>Task 3 of 5</small></div><div class='instruxDiv'><p><strong>4) If you decided to share 4 out of 5 points with your partner, and they decided to share half of the amount they received with you, how many points would you receive back from them on this round?</strong></p><p>a) 16</p><p>b) 0</p><p>c) 8</p>","C","","","","","","","","","","",""
"html-keyboard-response","134","201995","0.0-16.0","61010ed79b9d528dcd376bc7","bdp_trlrn","Sat Apr 08 2023 12:30:19 GMT-0400 (Eastern Daylight Time)","488506","Untrustworthy,Trustworthy","","1455","","","","","","<div class='header' style='text-align:left; position: absolute; top: 5%; left: 5%;'><small>Task 3 of 5</small></div><div class='instruxDiv'><p><strong>4) If you decided to share 4 out of 5 points with your partner, and they decided to share half of the amount they received with you, how many points would you receive back from them on this round?</strong></p><p>a) 16</p><p>b) 0</p><p style='color:#00FF00'>c) 8</p><h3 style='color:#00FF00'>Correct!</h3><h3 class='center-content'>The correct response is c).</h3><h3 class='center-content'>If you shared 4 out of 5 points with your partner and they decided to share half of the amount they received with you, you would receive 8 points back (i.e. (4 x 4)/2 = 8).</h3><p><em>Press SPACEBAR to continue</em></p></div>"," ","","","","","","","","","","",""
"html-keyboard-response","135","207106","0.0-17.0","61010ed79b9d528dcd376bc7","bdp_trlrn","Sat Apr 08 2023 12:30:19 GMT-0400 (Eastern Daylight Time)","488506","Untrustworthy,Trustworthy","","null","","","","","","<div class='header' style='text-align:left; position: absolute; top: 5%; left: 5%;'><small>Task 3 of 5</small></div><div class='instruxDiv'><p>Thank you for completing the quiz<p>These are the actual partners you will be interacting with in the next block:<p><div class='tc' align='center'><img class='introPic' src='trustrating_stim/white_00577_940928_fa_edt.bmp'><br><strong>Jason</strong></div><div class='bl' align='center'><img class='introPic' src='trustrating_stim/white_mw033.bmp'><br><strong>Caleb</strong></div><div class='br' align='center'><img class='introPic' src='trustrating_stim/white_00129_931230_fb_edt.bmp'><br><strong>Ethan</strong></div></div><p>Across <strong>66 rounds</strong> you will interact with each partner <strong>22 times</strong> (in random order).<p style='align:center; color:white'><font <em>Press SPACEBAR to continue</em></p>","null","","","","","","","","","","",""
"instructions","136","210150","0.0-18.0","61010ed79b9d528dcd376bc7","bdp_trlrn","Sat Apr 08 2023 12:30:19 GMT-0400 (Eastern Daylight Time)","488506","Untrustworthy,Trustworthy","[{""page_index"":0,""viewing_time"":1647},{""page_index"":1,""viewing_time"":1395}]","3042","","","","","","","","","","","","","","","","","",""
"html-keyboard-response","137","212841","0.0-19.0-1.0","61010ed79b9d528dcd376bc7","bdp_trlrn","Sat Apr 08 2023 12:30:19 GMT-0400 (Eastern Daylight Time)","488506","Untrustworthy,Trustworthy","","2581","","","","decision","","<div class='trialDiv'><img src='trustrating_stim/white_mw033.bmp'><br><font class='baseline'><strong>Caleb</strong><p>Choose number of points to send.</font><div class='respPicDiv'><img src='img/responseButtonOffersNo0L.png' class='respPic'></div></div>","3","1","Caleb","6","Kept","0.35,0.8","10","0.35","trustrating_stim/white_mw033.bmp","1","5","1"
"html-keyboard-response","138","213099","0.0-19.0-2.0","61010ed79b9d528dcd376bc7","bdp_trlrn","Sat Apr 08 2023 12:30:19 GMT-0400 (Eastern Daylight Time)","488506","Untrustworthy,Trustworthy","","null","","","","decisionFB","","<div class='trialDiv'><img src='trustrating_stim/white_mw033.bmp'><br><font class='baseline'><strong>Caleb</strong><p>Choose number of points to send.</font><div class='respPicDiv'><img src='img/responseButtonOffersNo0L3.png' class='respPic'></div></div>","null","1","Caleb","6","Kept","0.35,0.8","10","0.35","trustrating_stim/white_mw033.bmp","1","2","1"
"html-keyboard-response","139","214107","0.0-19.0-3.0","61010ed79b9d528dcd376bc7","bdp_trlrn","Sat Apr 08 2023 12:30:19 GMT-0400 (Eastern Daylight Time)","488506","Untrustworthy,Trustworthy","","null","","","","feedback","","<div class='trialDiv'><img src='trustrating_stim/white_mw033.bmp'><br><font class='baseline'><strong>Caleb</strong><p>Received: <strong>12</strong></font> &nbsp; &nbsp; &nbsp; &nbsp; &nbsp; &nbsp;<font class='negOutcome'>Shared back: <strong>0</strong></font></font><div class='respPicDiv'><img src='img/responseButtonOffersNo0_wht.png' class='respPic'></div></div>","null","1","Caleb","6","Kept","0.35,0.8","10","0.35","trustrating_stim/white_mw033.bmp","1","2","1"
"html-keyboard-response","140","215259","0.0-19.0-1.1","61010ed79b9d528dcd376bc7","bdp_trlrn","Sat Apr 08 2023 12:30:19 GMT-0400 (Eastern Daylight Time)","488506","Untrustworthy,Trustworthy","","1150","","","","decision","","<div class='trialDiv'><img src='trustrating_stim/white_00577_940928_fa_edt.bmp'><br><font class='baseline'><strong>Jason</strong><p>Choose number of points to send.</font><div class='respPicDiv'><img src='img/responseButtonOffersNo0L.png' class='respPic'></div></div>","2","1","Jason","2","Shared","0.8,0.35","9","0.8","trustrating_stim/white_00577_940928_fa_edt.bmp","1","7","2"
"html-keyboard-response","141","215512","0.0-19.0-2.1","61010ed79b9d528dcd376bc7","bdp_trlrn","Sat Apr 08 2023 12:30:19 GMT-0400 (Eastern Daylight Time)","488506","Untrustworthy,Trustworthy","","null","","","","decisionFB","","<div class='trialDiv'><img src='trustrating_stim/white_00577_940928_fa_edt.bmp'><br><font class='baseline'><strong>Jason</strong><p>Choose number of points to send.</font><div class='respPicDiv'><img src='img/responseButtonOffersNo0L2.png' class='respPic'></div></div>","null","1","Jason","2","Shared","0.8,0.35","9","0.8","trustrating_stim/white_00577_940928_fa_edt.bmp","1","5","2"
"html-keyboard-response","142","216523","0.0-19.0-3.1","61010ed79b9d528dcd376bc7","bdp_trlrn","Sat Apr 08 2023 12:30:19 GMT-0400 (Eastern Daylight Time)","488506","Untrustworthy,Trustworthy","","null","","","","feedback","","<div class='trialDiv'><img src='trustrating_stim/white_00577_940928_fa_edt.bmp'><br><font class='baseline'><strong>Jason</strong><p>Received: <strong>8</strong></font> &nbsp; &nbsp; &nbsp; &nbsp; &nbsp; &nbsp;<font class='posOutcome'>Shared back: <strong>4</strong></font></font><div class='respPicDiv'><img src='img/responseButtonOffersNo0_wht.png' class='respPic'></div></div>","null","1","Jason","2","Shared","0.8,0.35","9","0.8","trustrating_stim/white_00577_940928_fa_edt.bmp","1","9","2"
"html-keyboard-response","143","217666","0.0-19.0-1.2","61010ed79b9d528dcd376bc7","bdp_trlrn","Sat Apr 08 2023 12:30:19 GMT-0400 (Eastern Daylight Time)","488506","Untrustworthy,Trustworthy","","1140","","","","decision","","<div class='trialDiv'><img src='trustrating_stim/white_00129_931230_fb_edt.bmp'><br><font class='baseline'><strong>Ethan</strong><p>Choose number of points to send.</font><div class='respPicDiv'><img src='img/responseButtonOffersNo0L.png' class='respPic'></div></div>","4","1","Ethan","11","Shared","0.65,0.35","10","0.65","trustrating_stim/white_00129_931230_fb_edt.bmp","3","14","3"
"html-keyboard-response","144","217921","0.0-19.0-2.2","61010ed79b9d528dcd376bc7","bdp_trlrn","Sat Apr 08 2023 12:30:19 GMT-0400 (Eastern Daylight Time)","488506","Untrustworthy,Trustworthy","","null","","","","decisionFB","","<div class='trialDiv'><img src='trustrating_stim/white_00129_931230_fb_edt.bmp'><br><font class='baseline'><strong>Ethan</strong><p>Choose number of points to send.</font><div class='respPicDiv'><img src='img/responseButtonOffersNo0L4.png' class='respPic'></div></div>","null","1","Ethan","11","Shared","0.65,0.35","10","0.65","trustrating_stim/white_00129_931230_fb_edt.bmp","3","10","3"
"html-keyboard-response","145","218930","0.0-19.0-3.2","61010ed79b9d528dcd376bc7","bdp_trlrn","Sat Apr 08 2023 12:30:19 GMT-0400 (Eastern Daylight Time)","488506","Untrustworthy,Trustworthy","","null","","","","feedback","","<div class='trialDiv'><img src='trustrating_stim/white_00129_931230_fb_edt.bmp'><br><font class='baseline'><strong>Ethan</strong><p>Received: <strong>16</strong></font> &nbsp; &nbsp; &nbsp; &nbsp; &nbsp; &nbsp;<font class='posOutcome'>Shared back: <strong>8</strong></font></font><div class='respPicDiv'><img src='img/responseButtonOffersNo0_wht.png' class='respPic'></div></div>","null","1","Ethan","11","Shared","0.65,0.35","10","0.65","trustrating_stim/white_00129_931230_fb_edt.bmp","3","18","3"
"html-keyboard-response","146","220723","0.0-19.0-1.3","61010ed79b9d528dcd376bc7","bdp_trlrn","Sat Apr 08 2023 12:30:19 GMT-0400 (Eastern Daylight Time)","488506","Untrustworthy,Trustworthy","","1791","","","","decision","","<div class='trialDiv'><img src='trustrating_stim/white_mw033.bmp'><br><font class='baseline'><strong>Caleb</strong><p>Choose number of points to send.</font><div class='respPicDiv'><img src='img/responseButtonOffersNo0L.png' class='respPic'></div></div>","1","2","Caleb","6","Kept","0.35,0.8","10","0.35","trustrating_stim/white_mw033.bmp","1","23","4"
"html-keyboard-response","147","220978","0.0-19.0-2.3","61010ed79b9d528dcd376bc7","bdp_trlrn","Sat Apr 08 2023 12:30:19 GMT-0400 (Eastern Daylight Time)","488506","Untrustworthy,Trustworthy","","null","","","","decisionFB","","<div class='trialDiv'><img src='trustrating_stim/white_mw033.bmp'><br><font class='baseline'><strong>Caleb</strong><p>Choose number of points to send.</font><div class='respPicDiv'><img src='img/responseButtonOffersNo0L1.png' class='respPic'></div></div>","null","2","Caleb","6","Kept","0.35,0.8","10","0.35","trustrating_stim/white_mw033.bmp","1","22","4"
"html-keyboard-response","148","221986","0.0-19.0-3.3","61010ed79b9d528dcd376bc7","bdp_trlrn","Sat Apr 08 2023 12:30:19 GMT-0400 (Eastern Daylight Time)","488506","Untrustworthy,Trustworthy","","null","","","","feedback","","<div class='trialDiv'><img src='trustrating_stim/white_mw033.bmp'><br><font class='baseline'><strong>Caleb</strong><p>Received: <strong>4</strong></font> &nbsp; &nbsp; &nbsp; &nbsp; &nbsp; &nbsp;<font class='negOutcome'>Shared back: <strong>0</strong></font></font><div class='respPicDiv'><img src='img/responseButtonOffersNo0_wht.png' class='respPic'></div></div>","null","2","Caleb","6","Kept","0.35,0.8","10","0.35","trustrating_stim/white_mw033.bmp","1","22","4"
"html-keyboard-response","149","226046","0.0-19.0-1.4","61010ed79b9d528dcd376bc7","bdp_trlrn","Sat Apr 08 2023 12:30:19 GMT-0400 (Eastern Daylight Time)","488506","Untrustworthy,Trustworthy","","4057","","","","decision","","<div class='trialDiv'><img src='trustrating_stim/white_00129_931230_fb_edt.bmp'><br><font class='baseline'><strong>Ethan</strong><p>Choose number of points to send.</font><div class='respPicDiv'><img src='img/responseButtonOffersNo0L.png' class='respPic'></div></div>","5","2","Ethan","11","Shared","0.65,0.35","10","0.65","trustrating_stim/white_00129_931230_fb_edt.bmp","3","27","5"
"html-keyboard-response","150","226299","0.0-19.0-2.4","61010ed79b9d528dcd376bc7","bdp_trlrn","Sat Apr 08 2023 12:30:19 GMT-0400 (Eastern Daylight Time)","488506","Untrustworthy,Trustworthy","","null","","","","decisionFB","","<div class='trialDiv'><img src='trustrating_stim/white_00129_931230_fb_edt.bmp'><br><font class='baseline'><strong>Ethan</strong><p>Choose number of points to send.</font><div class='respPicDiv'><img src='img/responseButtonOffersNo0L5.png' class='respPic'></div></div>","null","2","Ethan","11","Shared","0.65,0.35","10","0.65","trustrating_stim/white_00129_931230_fb_edt.bmp","3","22","5"
"html-keyboard-response","151","227307","0.0-19.0-3.4","61010ed79b9d528dcd376bc7","bdp_trlrn","Sat Apr 08 2023 12:30:19 GMT-0400 (Eastern Daylight Time)","488506","Untrustworthy,Trustworthy","","null","","","","feedback","","<div class='trialDiv'><img src='trustrating_stim/white_00129_931230_fb_edt.bmp'><br><font class='baseline'><strong>Ethan</strong><p>Received: <strong>20</strong></font> &nbsp; &nbsp; &nbsp; &nbsp; &nbsp; &nbsp;<font class='posOutcome'>Shared back: <strong>10</strong></font></font><div class='respPicDiv'><img src='img/responseButtonOffersNo0_wht.png' class='respPic'></div></div>","null","2","Ethan","11","Shared","0.65,0.35","10","0.65","trustrating_stim/white_00129_931230_fb_edt.bmp","3","32","5"
"html-keyboard-response","152","228898","0.0-19.0-1.5","61010ed79b9d528dcd376bc7","bdp_trlrn","Sat Apr 08 2023 12:30:19 GMT-0400 (Eastern Daylight Time)","488506","Untrustworthy,Trustworthy","","1589","","","","decision","","<div class='trialDiv'><img src='trustrating_stim/white_00577_940928_fa_edt.bmp'><br><font class='baseline'><strong>Jason</strong><p>Choose number of points to send.</font><div class='respPicDiv'><img src='img/responseButtonOffersNo0L.png' class='respPic'></div></div>","3","2","Jason","2","Kept","0.8,0.35","9","0.8","trustrating_stim/white_00577_940928_fa_edt.bmp","1","37","6"
"html-keyboard-response","153","229154","0.0-19.0-2.5","61010ed79b9d528dcd376bc7","bdp_trlrn","Sat Apr 08 2023 12:30:19 GMT-0400 (Eastern Daylight Time)","488506","Untrustworthy,Trustworthy","","null","","","","decisionFB","","<div class='trialDiv'><img src='trustrating_stim/white_00577_940928_fa_edt.bmp'><br><font class='baseline'><strong>Jason</strong><p>Choose number of points to send.</font><div class='respPicDiv'><img src='img/responseButtonOffersNo0L3.png' class='respPic'></div></div>","null","2","Jason","2","Kept","0.8,0.35","9","0.8","trustrating_stim/white_00577_940928_fa_edt.bmp","1","34","6"
"html-keyboard-response","154","230162","0.0-19.0-3.5","61010ed79b9d528dcd376bc7","bdp_trlrn","Sat Apr 08 2023 12:30:19 GMT-0400 (Eastern Daylight Time)","488506","Untrustworthy,Trustworthy","","null","","","","feedback","","<div class='trialDiv'><img src='trustrating_stim/white_00577_940928_fa_edt.bmp'><br><font class='baseline'><strong>Jason</strong><p>Received: <strong>12</strong></font> &nbsp; &nbsp; &nbsp; &nbsp; &nbsp; &nbsp;<font class='negOutcome'>Shared back: <strong>0</strong></font></font><div class='respPicDiv'><img src='img/responseButtonOffersNo0_wht.png' class='respPic'></div></div>","null","2","Jason","2","Kept","0.8,0.35","9","0.8","trustrating_stim/white_00577_940928_fa_edt.bmp","1","34","6"
"html-keyboard-response","155","230774","0.0-19.0-1.6","61010ed79b9d528dcd376bc7","bdp_trlrn","Sat Apr 08 2023 12:30:19 GMT-0400 (Eastern Daylight Time)","488506","Untrustworthy,Trustworthy","","609","","","","decision","","<div class='trialDiv'><img src='trustrating_stim/white_mw033.bmp'><br><font class='baseline'><strong>Caleb</strong><p>Choose number of points to send.</font><div class='respPicDiv'><img src='img/responseButtonOffersNo0L.png' class='respPic'></div></div>","1","3","Caleb","6","Kept","0.35,0.8","10","0.35","trustrating_stim/white_mw033.bmp","1","39","7"
"html-keyboard-response","156","231035","0.0-19.0-2.6","61010ed79b9d528dcd376bc7","bdp_trlrn","Sat Apr 08 2023 12:30:19 GMT-0400 (Eastern Daylight Time)","488506","Untrustworthy,Trustworthy","","null","","","","decisionFB","","<div class='trialDiv'><img src='trustrating_stim/white_mw033.bmp'><br><font class='baseline'><strong>Caleb</strong><p>Choose number of points to send.</font><div class='respPicDiv'><img src='img/responseButtonOffersNo0L1.png' class='respPic'></div></div>","null","3","Caleb","6","Kept","0.35,0.8","10","0.35","trustrating_stim/white_mw033.bmp","1","38","7"
"html-keyboard-response","157","232043","0.0-19.0-3.6","61010ed79b9d528dcd376bc7","bdp_trlrn","Sat Apr 08 2023 12:30:19 GMT-0400 (Eastern Daylight Time)","488506","Untrustworthy,Trustworthy","","null","","","","feedback","","<div class='trialDiv'><img src='trustrating_stim/white_mw033.bmp'><br><font class='baseline'><strong>Caleb</strong><p>Received: <strong>4</strong></font> &nbsp; &nbsp; &nbsp; &nbsp; &nbsp; &nbsp;<font class='negOutcome'>Shared back: <strong>0</strong></font></font><div class='respPicDiv'><img src='img/responseButtonOffersNo0_wht.png' class='respPic'></div></div>","null","3","Caleb","6","Kept","0.35,0.8","10","0.35","trustrating_stim/white_mw033.bmp","1","38","7"
"html-keyboard-response","158","232894","0.0-19.0-1.7","61010ed79b9d528dcd376bc7","bdp_trlrn","Sat Apr 08 2023 12:30:19 GMT-0400 (Eastern Daylight Time)","488506","Untrustworthy,Trustworthy","","849","","","","decision","","<div class='trialDiv'><img src='trustrating_stim/white_00577_940928_fa_edt.bmp'><br><font class='baseline'><strong>Jason</strong><p>Choose number of points to send.</font><div class='respPicDiv'><img src='img/responseButtonOffersNo0L.png' class='respPic'></div></div>","1","3","Jason","2","Shared","0.8,0.35","9","0.8","trustrating_stim/white_00577_940928_fa_edt.bmp","1","43","8"
"html-keyboard-response","159","233154","0.0-19.0-2.7","61010ed79b9d528dcd376bc7","bdp_trlrn","Sat Apr 08 2023 12:30:19 GMT-0400 (Eastern Daylight Time)","488506","Untrustworthy,Trustworthy","","null","","","","decisionFB","","<div class='trialDiv'><img src='trustrating_stim/white_00577_940928_fa_edt.bmp'><br><font class='baseline'><strong>Jason</strong><p>Choose number of points to send.</font><div class='respPicDiv'><img src='img/responseButtonOffersNo0L1.png' class='respPic'></div></div>","null","3","Jason","2","Shared","0.8,0.35","9","0.8","trustrating_stim/white_00577_940928_fa_edt.bmp","1","42","8"
"html-keyboard-response","160","234162","0.0-19.0-3.7","61010ed79b9d528dcd376bc7","bdp_trlrn","Sat Apr 08 2023 12:30:19 GMT-0400 (Eastern Daylight Time)","488506","Untrustworthy,Trustworthy","","null","","","","feedback","","<div class='trialDiv'><img src='trustrating_stim/white_00577_940928_fa_edt.bmp'><br><font class='baseline'><strong>Jason</strong><p>Received: <strong>4</strong></font> &nbsp; &nbsp; &nbsp; &nbsp; &nbsp; &nbsp;<font class='posOutcome'>Shared back: <strong>2</strong></font></font><div class='respPicDiv'><img src='img/responseButtonOffersNo0_wht.png' class='respPic'></div></div>","null","3","Jason","2","Shared","0.8,0.35","9","0.8","trustrating_stim/white_00577_940928_fa_edt.bmp","1","44","8"
"html-keyboard-response","161","235566","0.0-19.0-1.8","61010ed79b9d528dcd376bc7","bdp_trlrn","Sat Apr 08 2023 12:30:19 GMT-0400 (Eastern Daylight Time)","488506","Untrustworthy,Trustworthy","","1402","","","","decision","","<div class='trialDiv'><img src='trustrating_stim/white_00129_931230_fb_edt.bmp'><br><font class='baseline'><strong>Ethan</strong><p>Choose number of points to send.</font><div class='respPicDiv'><img src='img/responseButtonOffersNo0L.png' class='respPic'></div></div>","5","3","Ethan","11","Shared","0.65,0.35","10","0.65","trustrating_stim/white_00129_931230_fb_edt.bmp","3","49","9"
"html-keyboard-response","162","235826","0.0-19.0-2.8","61010ed79b9d528dcd376bc7","bdp_trlrn","Sat Apr 08 2023 12:30:19 GMT-0400 (Eastern Daylight Time)","488506","Untrustworthy,Trustworthy","","null","","","","decisionFB","","<div class='trialDiv'><img src='trustrating_stim/white_00129_931230_fb_edt.bmp'><br><font class='baseline'><strong>Ethan</strong><p>Choose number of points to send.</font><div class='respPicDiv'><img src='img/responseButtonOffersNo0L5.png' class='respPic'></div></div>","null","3","Ethan","11","Shared","0.65,0.35","10","0.65","trustrating_stim/white_00129_931230_fb_edt.bmp","3","44","9"
"html-keyboard-response","163","236834","0.0-19.0-3.8","61010ed79b9d528dcd376bc7","bdp_trlrn","Sat Apr 08 2023 12:30:19 GMT-0400 (Eastern Daylight Time)","488506","Untrustworthy,Trustworthy","","null","","","","feedback","","<div class='trialDiv'><img src='trustrating_stim/white_00129_931230_fb_edt.bmp'><br><font class='baseline'><strong>Ethan</strong><p>Received: <strong>20</strong></font> &nbsp; &nbsp; &nbsp; &nbsp; &nbsp; &nbsp;<font class='posOutcome'>Shared back: <strong>10</strong></font></font><div class='respPicDiv'><img src='img/responseButtonOffersNo0_wht.png' class='respPic'></div></div>","null","3","Ethan","11","Shared","0.65,0.35","10","0.65","trustrating_stim/white_00129_931230_fb_edt.bmp","3","54","9"
"html-keyboard-response","164","237421","0.0-19.0-1.9","61010ed79b9d528dcd376bc7","bdp_trlrn","Sat Apr 08 2023 12:30:19 GMT-0400 (Eastern Daylight Time)","488506","Untrustworthy,Trustworthy","","586","","","","decision","","<div class='trialDiv'><img src='trustrating_stim/white_00577_940928_fa_edt.bmp'><br><font class='baseline'><strong>Jason</strong><p>Choose number of points to send.</font><div class='respPicDiv'><img src='img/responseButtonOffersNo0L.png' class='respPic'></div></div>","1","4","Jason","2","Shared","0.8,0.35","9","0.8","trustrating_stim/white_00577_940928_fa_edt.bmp","1","59","10"
"html-keyboard-response","165","237682","0.0-19.0-2.9","61010ed79b9d528dcd376bc7","bdp_trlrn","Sat Apr 08 2023 12:30:19 GMT-0400 (Eastern Daylight Time)","488506","Untrustworthy,Trustworthy","","null","","","","decisionFB","","<div class='trialDiv'><img src='trustrating_stim/white_00577_940928_fa_edt.bmp'><br><font class='baseline'><strong>Jason</strong><p>Choose number of points to send.</font><div class='respPicDiv'><img src='img/responseButtonOffersNo0L1.png' class='respPic'></div></div>","null","4","Jason","2","Shared","0.8,0.35","9","0.8","trustrating_stim/white_00577_940928_fa_edt.bmp","1","58","10"
"html-keyboard-response","166","238690","0.0-19.0-3.9","61010ed79b9d528dcd376bc7","bdp_trlrn","Sat Apr 08 2023 12:30:19 GMT-0400 (Eastern Daylight Time)","488506","Untrustworthy,Trustworthy","","null","","","","feedback","","<div class='trialDiv'><img src='trustrating_stim/white_00577_940928_fa_edt.bmp'><br><font class='baseline'><strong>Jason</strong><p>Received: <strong>4</strong></font> &nbsp; &nbsp; &nbsp; &nbsp; &nbsp; &nbsp;<font class='posOutcome'>Shared back: <strong>2</strong></font></font><div class='respPicDiv'><img src='img/responseButtonOffersNo0_wht.png' class='respPic'></div></div>","null","4","Jason","2","Shared","0.8,0.35","9","0.8","trustrating_stim/white_00577_940928_fa_edt.bmp","1","60","10"
"html-keyboard-response","167","239922","0.0-19.0-1.10","61010ed79b9d528dcd376bc7","bdp_trlrn","Sat Apr 08 2023 12:30:19 GMT-0400 (Eastern Daylight Time)","488506","Untrustworthy,Trustworthy","","1229","","","","decision","","<div class='trialDiv'><img src='trustrating_stim/white_00129_931230_fb_edt.bmp'><br><font class='baseline'><strong>Ethan</strong><p>Choose number of points to send.</font><div class='respPicDiv'><img src='img/responseButtonOffersNo0L.png' class='respPic'></div></div>","5","4","Ethan","11","Shared","0.65,0.35","10","0.65","trustrating_stim/white_00129_931230_fb_edt.bmp","3","65","11"
"html-keyboard-response","168","240178","0.0-19.0-2.10","61010ed79b9d528dcd376bc7","bdp_trlrn","Sat Apr 08 2023 12:30:19 GMT-0400 (Eastern Daylight Time)","488506","Untrustworthy,Trustworthy","","null","","","","decisionFB","","<div class='trialDiv'><img src='trustrating_stim/white_00129_931230_fb_edt.bmp'><br><font class='baseline'><strong>Ethan</strong><p>Choose number of points to send.</font><div class='respPicDiv'><img src='img/responseButtonOffersNo0L5.png' class='respPic'></div></div>","null","4","Ethan","11","Shared","0.65,0.35","10","0.65","trustrating_stim/white_00129_931230_fb_edt.bmp","3","60","11"
"html-keyboard-response","169","241186","0.0-19.0-3.10","61010ed79b9d528dcd376bc7","bdp_trlrn","Sat Apr 08 2023 12:30:19 GMT-0400 (Eastern Daylight Time)","488506","Untrustworthy,Trustworthy","","null","","","","feedback","","<div class='trialDiv'><img src='trustrating_stim/white_00129_931230_fb_edt.bmp'><br><font class='baseline'><strong>Ethan</strong><p>Received: <strong>20</strong></font> &nbsp; &nbsp; &nbsp; &nbsp; &nbsp; &nbsp;<font class='posOutcome'>Shared back: <strong>10</strong></font></font><div class='respPicDiv'><img src='img/responseButtonOffersNo0_wht.png' class='respPic'></div></div>","null","4","Ethan","11","Shared","0.65,0.35","10","0.65","trustrating_stim/white_00129_931230_fb_edt.bmp","3","70","11"
"html-keyboard-response","170","243009","0.0-19.0-1.11","61010ed79b9d528dcd376bc7","bdp_trlrn","Sat Apr 08 2023 12:30:19 GMT-0400 (Eastern Daylight Time)","488506","Untrustworthy,Trustworthy","","1822","","","","decision","","<div class='trialDiv'><img src='trustrating_stim/white_mw033.bmp'><br><font class='baseline'><strong>Caleb</strong><p>Choose number of points to send.</font><div class='respPicDiv'><img src='img/responseButtonOffersNo0L.png' class='respPic'></div></div>","1","4","Caleb","6","Shared","0.35,0.8","10","0.35","trustrating_stim/white_mw033.bmp","1","75","12"
"html-keyboard-response","171","243264","0.0-19.0-2.11","61010ed79b9d528dcd376bc7","bdp_trlrn","Sat Apr 08 2023 12:30:19 GMT-0400 (Eastern Daylight Time)","488506","Untrustworthy,Trustworthy","","null","","","","decisionFB","","<div class='trialDiv'><img src='trustrating_stim/white_mw033.bmp'><br><font class='baseline'><strong>Caleb</strong><p>Choose number of points to send.</font><div class='respPicDiv'><img src='img/responseButtonOffersNo0L1.png' class='respPic'></div></div>","null","4","Caleb","6","Shared","0.35,0.8","10","0.35","trustrating_stim/white_mw033.bmp","1","74","12"
"html-keyboard-response","172","244274","0.0-19.0-3.11","61010ed79b9d528dcd376bc7","bdp_trlrn","Sat Apr 08 2023 12:30:19 GMT-0400 (Eastern Daylight Time)","488506","Untrustworthy,Trustworthy","","null","","","","feedback","","<div class='trialDiv'><img src='trustrating_stim/white_mw033.bmp'><br><font class='baseline'><strong>Caleb</strong><p>Received: <strong>4</strong></font> &nbsp; &nbsp; &nbsp; &nbsp; &nbsp; &nbsp;<font class='posOutcome'>Shared back: <strong>2</strong></font></font><div class='respPicDiv'><img src='img/responseButtonOffersNo0_wht.png' class='respPic'></div></div>","null","4","Caleb","6","Shared","0.35,0.8","10","0.35","trustrating_stim/white_mw033.bmp","1","76","12"
"html-keyboard-response","173","245118","0.0-19.0-1.12","61010ed79b9d528dcd376bc7","bdp_trlrn","Sat Apr 08 2023 12:30:19 GMT-0400 (Eastern Daylight Time)","488506","Untrustworthy,Trustworthy","","842","","","","decision","","<div class='trialDiv'><img src='trustrating_stim/white_00577_940928_fa_edt.bmp'><br><font class='baseline'><strong>Jason</strong><p>Choose number of points to send.</font><div class='respPicDiv'><img src='img/responseButtonOffersNo0L.png' class='respPic'></div></div>","1","5","Jason","2","Kept","0.8,0.35","9","0.8","trustrating_stim/white_00577_940928_fa_edt.bmp","1","81","13"
"html-keyboard-response","174","245378","0.0-19.0-2.12","61010ed79b9d528dcd376bc7","bdp_trlrn","Sat Apr 08 2023 12:30:19 GMT-0400 (Eastern Daylight Time)","488506","Untrustworthy,Trustworthy","","null","","","","decisionFB","","<div class='trialDiv'><img src='trustrating_stim/white_00577_940928_fa_edt.bmp'><br><font class='baseline'><strong>Jason</strong><p>Choose number of points to send.</font><div class='respPicDiv'><img src='img/responseButtonOffersNo0L1.png' class='respPic'></div></div>","null","5","Jason","2","Kept","0.8,0.35","9","0.8","trustrating_stim/white_00577_940928_fa_edt.bmp","1","80","13"
"html-keyboard-response","175","246386","0.0-19.0-3.12","61010ed79b9d528dcd376bc7","bdp_trlrn","Sat Apr 08 2023 12:30:19 GMT-0400 (Eastern Daylight Time)","488506","Untrustworthy,Trustworthy","","null","","","","feedback","","<div class='trialDiv'><img src='trustrating_stim/white_00577_940928_fa_edt.bmp'><br><font class='baseline'><strong>Jason</strong><p>Received: <strong>4</strong></font> &nbsp; &nbsp; &nbsp; &nbsp; &nbsp; &nbsp;<font class='negOutcome'>Shared back: <strong>0</strong></font></font><div class='respPicDiv'><img src='img/responseButtonOffersNo0_wht.png' class='respPic'></div></div>","null","5","Jason","2","Kept","0.8,0.35","9","0.8","trustrating_stim/white_00577_940928_fa_edt.bmp","1","80","13"
"html-keyboard-response","176","247763","0.0-19.0-1.13","61010ed79b9d528dcd376bc7","bdp_trlrn","Sat Apr 08 2023 12:30:19 GMT-0400 (Eastern Daylight Time)","488506","Untrustworthy,Trustworthy","","1376","","","","decision","","<div class='trialDiv'><img src='trustrating_stim/white_mw033.bmp'><br><font class='baseline'><strong>Caleb</strong><p>Choose number of points to send.</font><div class='respPicDiv'><img src='img/responseButtonOffersNo0L.png' class='respPic'></div></div>","2","5","Caleb","6","Shared","0.35,0.8","10","0.35","trustrating_stim/white_mw033.bmp","1","85","14"
"html-keyboard-response","177","248018","0.0-19.0-2.13","61010ed79b9d528dcd376bc7","bdp_trlrn","Sat Apr 08 2023 12:30:19 GMT-0400 (Eastern Daylight Time)","488506","Untrustworthy,Trustworthy","","null","","","","decisionFB","","<div class='trialDiv'><img src='trustrating_stim/white_mw033.bmp'><br><font class='baseline'><strong>Caleb</strong><p>Choose number of points to send.</font><div class='respPicDiv'><img src='img/responseButtonOffersNo0L2.png' class='respPic'></div></div>","null","5","Caleb","6","Shared","0.35,0.8","10","0.35","trustrating_stim/white_mw033.bmp","1","83","14"
"html-keyboard-response","178","249026","0.0-19.0-3.13","61010ed79b9d528dcd376bc7","bdp_trlrn","Sat Apr 08 2023 12:30:19 GMT-0400 (Eastern Daylight Time)","488506","Untrustworthy,Trustworthy","","null","","","","feedback","","<div class='trialDiv'><img src='trustrating_stim/white_mw033.bmp'><br><font class='baseline'><strong>Caleb</strong><p>Received: <strong>8</strong></font> &nbsp; &nbsp; &nbsp; &nbsp; &nbsp; &nbsp;<font class='posOutcome'>Shared back: <strong>4</strong></font></font><div class='respPicDiv'><img src='img/responseButtonOffersNo0_wht.png' class='respPic'></div></div>","null","5","Caleb","6","Shared","0.35,0.8","10","0.35","trustrating_stim/white_mw033.bmp","1","87","14"
"html-keyboard-response","179","249863","0.0-19.0-1.14","61010ed79b9d528dcd376bc7","bdp_trlrn","Sat Apr 08 2023 12:30:19 GMT-0400 (Eastern Daylight Time)","488506","Untrustworthy,Trustworthy","","836","","","","decision","","<div class='trialDiv'><img src='trustrating_stim/white_00129_931230_fb_edt.bmp'><br><font class='baseline'><strong>Ethan</strong><p>Choose number of points to send.</font><div class='respPicDiv'><img src='img/responseButtonOffersNo0L.png' class='respPic'></div></div>","5","5","Ethan","11","Shared","0.65,0.35","10","0.65","trustrating_stim/white_00129_931230_fb_edt.bmp","3","92","15"
"html-keyboard-response","180","250122","0.0-19.0-2.14","61010ed79b9d528dcd376bc7","bdp_trlrn","Sat Apr 08 2023 12:30:19 GMT-0400 (Eastern Daylight Time)","488506","Untrustworthy,Trustworthy","","null","","","","decisionFB","","<div class='trialDiv'><img src='trustrating_stim/white_00129_931230_fb_edt.bmp'><br><font class='baseline'><strong>Ethan</strong><p>Choose number of points to send.</font><div class='respPicDiv'><img src='img/responseButtonOffersNo0L5.png' class='respPic'></div></div>","null","5","Ethan","11","Shared","0.65,0.35","10","0.65","trustrating_stim/white_00129_931230_fb_edt.bmp","3","87","15"
"html-keyboard-response","181","251130","0.0-19.0-3.14","61010ed79b9d528dcd376bc7","bdp_trlrn","Sat Apr 08 2023 12:30:19 GMT-0400 (Eastern Daylight Time)","488506","Untrustworthy,Trustworthy","","null","","","","feedback","","<div class='trialDiv'><img src='trustrating_stim/white_00129_931230_fb_edt.bmp'><br><font class='baseline'><strong>Ethan</strong><p>Received: <strong>20</strong></font> &nbsp; &nbsp; &nbsp; &nbsp; &nbsp; &nbsp;<font class='posOutcome'>Shared back: <strong>10</strong></font></font><div class='respPicDiv'><img src='img/responseButtonOffersNo0_wht.png' class='respPic'></div></div>","null","5","Ethan","11","Shared","0.65,0.35","10","0.65","trustrating_stim/white_00129_931230_fb_edt.bmp","3","97","15"
"html-keyboard-response","182","256118","0.0-19.0-1.15","61010ed79b9d528dcd376bc7","bdp_trlrn","Sat Apr 08 2023 12:30:19 GMT-0400 (Eastern Daylight Time)","488506","Untrustworthy,Trustworthy","","4986","","","","decision","","<div class='trialDiv'><img src='trustrating_stim/white_mw033.bmp'><br><font class='baseline'><strong>Caleb</strong><p>Choose number of points to send.</font><div class='respPicDiv'><img src='img/responseButtonOffersNo0L.png' class='respPic'></div></div>","3","6","Caleb","6","Shared","0.35,0.8","10","0.35","trustrating_stim/white_mw033.bmp","1","102","16"
"html-keyboard-response","183","256378","0.0-19.0-2.15","61010ed79b9d528dcd376bc7","bdp_trlrn","Sat Apr 08 2023 12:30:19 GMT-0400 (Eastern Daylight Time)","488506","Untrustworthy,Trustworthy","","null","","","","decisionFB","","<div class='trialDiv'><img src='trustrating_stim/white_mw033.bmp'><br><font class='baseline'><strong>Caleb</strong><p>Choose number of points to send.</font><div class='respPicDiv'><img src='img/responseButtonOffersNo0L3.png' class='respPic'></div></div>","null","6","Caleb","6","Shared","0.35,0.8","10","0.35","trustrating_stim/white_mw033.bmp","1","99","16"
"html-keyboard-response","184","257387","0.0-19.0-3.15","61010ed79b9d528dcd376bc7","bdp_trlrn","Sat Apr 08 2023 12:30:19 GMT-0400 (Eastern Daylight Time)","488506","Untrustworthy,Trustworthy","","null","","","","feedback","","<div class='trialDiv'><img src='trustrating_stim/white_mw033.bmp'><br><font class='baseline'><strong>Caleb</strong><p>Received: <strong>12</strong></font> &nbsp; &nbsp; &nbsp; &nbsp; &nbsp; &nbsp;<font class='posOutcome'>Shared back: <strong>6</strong></font></font><div class='respPicDiv'><img src='img/responseButtonOffersNo0_wht.png' class='respPic'></div></div>","null","6","Caleb","6","Shared","0.35,0.8","10","0.35","trustrating_stim/white_mw033.bmp","1","105","16"
"html-keyboard-response","185","258497","0.0-19.0-1.16","61010ed79b9d528dcd376bc7","bdp_trlrn","Sat Apr 08 2023 12:30:19 GMT-0400 (Eastern Daylight Time)","488506","Untrustworthy,Trustworthy","","1109","","","","decision","","<div class='trialDiv'><img src='trustrating_stim/white_00129_931230_fb_edt.bmp'><br><font class='baseline'><strong>Ethan</strong><p>Choose number of points to send.</font><div class='respPicDiv'><img src='img/responseButtonOffersNo0L.png' class='respPic'></div></div>","5","6","Ethan","11","Shared","0.65,0.35","10","0.65","trustrating_stim/white_00129_931230_fb_edt.bmp","3","110","17"
"html-keyboard-response","186","258754","0.0-19.0-2.16","61010ed79b9d528dcd376bc7","bdp_trlrn","Sat Apr 08 2023 12:30:19 GMT-0400 (Eastern Daylight Time)","488506","Untrustworthy,Trustworthy","","null","","","","decisionFB","","<div class='trialDiv'><img src='trustrating_stim/white_00129_931230_fb_edt.bmp'><br><font class='baseline'><strong>Ethan</strong><p>Choose number of points to send.</font><div class='respPicDiv'><img src='img/responseButtonOffersNo0L5.png' class='respPic'></div></div>","null","6","Ethan","11","Shared","0.65,0.35","10","0.65","trustrating_stim/white_00129_931230_fb_edt.bmp","3","105","17"
"html-keyboard-response","187","259762","0.0-19.0-3.16","61010ed79b9d528dcd376bc7","bdp_trlrn","Sat Apr 08 2023 12:30:19 GMT-0400 (Eastern Daylight Time)","488506","Untrustworthy,Trustworthy","","null","","","","feedback","","<div class='trialDiv'><img src='trustrating_stim/white_00129_931230_fb_edt.bmp'><br><font class='baseline'><strong>Ethan</strong><p>Received: <strong>20</strong></font> &nbsp; &nbsp; &nbsp; &nbsp; &nbsp; &nbsp;<font class='posOutcome'>Shared back: <strong>10</strong></font></font><div class='respPicDiv'><img src='img/responseButtonOffersNo0_wht.png' class='respPic'></div></div>","null","6","Ethan","11","Shared","0.65,0.35","10","0.65","trustrating_stim/white_00129_931230_fb_edt.bmp","3","115","17"
"html-keyboard-response","188","260453","0.0-19.0-1.17","61010ed79b9d528dcd376bc7","bdp_trlrn","Sat Apr 08 2023 12:30:19 GMT-0400 (Eastern Daylight Time)","488506","Untrustworthy,Trustworthy","","689","","","","decision","","<div class='trialDiv'><img src='trustrating_stim/white_00577_940928_fa_edt.bmp'><br><font class='baseline'><strong>Jason</strong><p>Choose number of points to send.</font><div class='respPicDiv'><img src='img/responseButtonOffersNo0L.png' class='respPic'></div></div>","1","6","Jason","2","Kept","0.8,0.35","9","0.8","trustrating_stim/white_00577_940928_fa_edt.bmp","1","120","18"
"html-keyboard-response","189","260714","0.0-19.0-2.17","61010ed79b9d528dcd376bc7","bdp_trlrn","Sat Apr 08 2023 12:30:19 GMT-0400 (Eastern Daylight Time)","488506","Untrustworthy,Trustworthy","","null","","","","decisionFB","","<div class='trialDiv'><img src='trustrating_stim/white_00577_940928_fa_edt.bmp'><br><font class='baseline'><strong>Jason</strong><p>Choose number of points to send.</font><div class='respPicDiv'><img src='img/responseButtonOffersNo0L1.png' class='respPic'></div></div>","null","6","Jason","2","Kept","0.8,0.35","9","0.8","trustrating_stim/white_00577_940928_fa_edt.bmp","1","119","18"
"html-keyboard-response","190","261722","0.0-19.0-3.17","61010ed79b9d528dcd376bc7","bdp_trlrn","Sat Apr 08 2023 12:30:19 GMT-0400 (Eastern Daylight Time)","488506","Untrustworthy,Trustworthy","","null","","","","feedback","","<div class='trialDiv'><img src='trustrating_stim/white_00577_940928_fa_edt.bmp'><br><font class='baseline'><strong>Jason</strong><p>Received: <strong>4</strong></font> &nbsp; &nbsp; &nbsp; &nbsp; &nbsp; &nbsp;<font class='negOutcome'>Shared back: <strong>0</strong></font></font><div class='respPicDiv'><img src='img/responseButtonOffersNo0_wht.png' class='respPic'></div></div>","null","6","Jason","2","Kept","0.8,0.35","9","0.8","trustrating_stim/white_00577_940928_fa_edt.bmp","1","119","18"
"html-keyboard-response","191","268190","0.0-19.0-1.18","61010ed79b9d528dcd376bc7","bdp_trlrn","Sat Apr 08 2023 12:30:19 GMT-0400 (Eastern Daylight Time)","488506","Untrustworthy,Trustworthy","","6465","","","","decision","","<div class='trialDiv'><img src='trustrating_stim/white_00129_931230_fb_edt.bmp'><br><font class='baseline'><strong>Ethan</strong><p>Choose number of points to send.</font><div class='respPicDiv'><img src='img/responseButtonOffersNo0L.png' class='respPic'></div></div>","5","7","Ethan","11","Shared","0.65,0.35","10","0.65","trustrating_stim/white_00129_931230_fb_edt.bmp","3","124","19"
"html-keyboard-response","192","268450","0.0-19.0-2.18","61010ed79b9d528dcd376bc7","bdp_trlrn","Sat Apr 08 2023 12:30:19 GMT-0400 (Eastern Daylight Time)","488506","Untrustworthy,Trustworthy","","null","","","","decisionFB","","<div class='trialDiv'><img src='trustrating_stim/white_00129_931230_fb_edt.bmp'><br><font class='baseline'><strong>Ethan</strong><p>Choose number of points to send.</font><div class='respPicDiv'><img src='img/responseButtonOffersNo0L5.png' class='respPic'></div></div>","null","7","Ethan","11","Shared","0.65,0.35","10","0.65","trustrating_stim/white_00129_931230_fb_edt.bmp","3","119","19"
"html-keyboard-response","193","269458","0.0-19.0-3.18","61010ed79b9d528dcd376bc7","bdp_trlrn","Sat Apr 08 2023 12:30:19 GMT-0400 (Eastern Daylight Time)","488506","Untrustworthy,Trustworthy","","null","","","","feedback","","<div class='trialDiv'><img src='trustrating_stim/white_00129_931230_fb_edt.bmp'><br><font class='baseline'><strong>Ethan</strong><p>Received: <strong>20</strong></font> &nbsp; &nbsp; &nbsp; &nbsp; &nbsp; &nbsp;<font class='posOutcome'>Shared back: <strong>10</strong></font></font><div class='respPicDiv'><img src='img/responseButtonOffersNo0_wht.png' class='respPic'></div></div>","null","7","Ethan","11","Shared","0.65,0.35","10","0.65","trustrating_stim/white_00129_931230_fb_edt.bmp","3","129","19"
"html-keyboard-response","194","274566","0.0-19.0-1.19","61010ed79b9d528dcd376bc7","bdp_trlrn","Sat Apr 08 2023 12:30:19 GMT-0400 (Eastern Daylight Time)","488506","Untrustworthy,Trustworthy","","5107","","","","decision","","<div class='trialDiv'><img src='trustrating_stim/white_mw033.bmp'><br><font class='baseline'><strong>Caleb</strong><p>Choose number of points to send.</font><div class='respPicDiv'><img src='img/responseButtonOffersNo0L.png' class='respPic'></div></div>","3","7","Caleb","6","Shared","0.35,0.8","10","0.35","trustrating_stim/white_mw033.bmp","1","134","20"
"html-keyboard-response","195","274826","0.0-19.0-2.19","61010ed79b9d528dcd376bc7","bdp_trlrn","Sat Apr 08 2023 12:30:19 GMT-0400 (Eastern Daylight Time)","488506","Untrustworthy,Trustworthy","","null","","","","decisionFB","","<div class='trialDiv'><img src='trustrating_stim/white_mw033.bmp'><br><font class='baseline'><strong>Caleb</strong><p>Choose number of points to send.</font><div class='respPicDiv'><img src='img/responseButtonOffersNo0L3.png' class='respPic'></div></div>","null","7","Caleb","6","Shared","0.35,0.8","10","0.35","trustrating_stim/white_mw033.bmp","1","131","20"
"html-keyboard-response","196","275834","0.0-19.0-3.19","61010ed79b9d528dcd376bc7","bdp_trlrn","Sat Apr 08 2023 12:30:19 GMT-0400 (Eastern Daylight Time)","488506","Untrustworthy,Trustworthy","","null","","","","feedback","","<div class='trialDiv'><img src='trustrating_stim/white_mw033.bmp'><br><font class='baseline'><strong>Caleb</strong><p>Received: <strong>12</strong></font> &nbsp; &nbsp; &nbsp; &nbsp; &nbsp; &nbsp;<font class='posOutcome'>Shared back: <strong>6</strong></font></font><div class='respPicDiv'><img src='img/responseButtonOffersNo0_wht.png' class='respPic'></div></div>","null","7","Caleb","6","Shared","0.35,0.8","10","0.35","trustrating_stim/white_mw033.bmp","1","137","20"
"html-keyboard-response","197","276319","0.0-19.0-1.20","61010ed79b9d528dcd376bc7","bdp_trlrn","Sat Apr 08 2023 12:30:19 GMT-0400 (Eastern Daylight Time)","488506","Untrustworthy,Trustworthy","","483","","","","decision","","<div class='trialDiv'><img src='trustrating_stim/white_00577_940928_fa_edt.bmp'><br><font class='baseline'><strong>Jason</strong><p>Choose number of points to send.</font><div class='respPicDiv'><img src='img/responseButtonOffersNo0L.png' class='respPic'></div></div>","1","7","Jason","2","Shared","0.8,0.35","9","0.8","trustrating_stim/white_00577_940928_fa_edt.bmp","1","142","21"
"html-keyboard-response","198","276577","0.0-19.0-2.20","61010ed79b9d528dcd376bc7","bdp_trlrn","Sat Apr 08 2023 12:30:19 GMT-0400 (Eastern Daylight Time)","488506","Untrustworthy,Trustworthy","","null","","","","decisionFB","","<div class='trialDiv'><img src='trustrating_stim/white_00577_940928_fa_edt.bmp'><br><font class='baseline'><strong>Jason</strong><p>Choose number of points to send.</font><div class='respPicDiv'><img src='img/responseButtonOffersNo0L1.png' class='respPic'></div></div>","null","7","Jason","2","Shared","0.8,0.35","9","0.8","trustrating_stim/white_00577_940928_fa_edt.bmp","1","141","21"
"html-keyboard-response","199","277584","0.0-19.0-3.20","61010ed79b9d528dcd376bc7","bdp_trlrn","Sat Apr 08 2023 12:30:19 GMT-0400 (Eastern Daylight Time)","488506","Untrustworthy,Trustworthy","","null","","","","feedback","","<div class='trialDiv'><img src='trustrating_stim/white_00577_940928_fa_edt.bmp'><br><font class='baseline'><strong>Jason</strong><p>Received: <strong>4</strong></font> &nbsp; &nbsp; &nbsp; &nbsp; &nbsp; &nbsp;<font class='posOutcome'>Shared back: <strong>2</strong></font></font><div class='respPicDiv'><img src='img/responseButtonOffersNo0_wht.png' class='respPic'></div></div>","null","7","Jason","2","Shared","0.8,0.35","9","0.8","trustrating_stim/white_00577_940928_fa_edt.bmp","1","143","21"
"html-keyboard-response","200","278302","0.0-19.0-1.21","61010ed79b9d528dcd376bc7","bdp_trlrn","Sat Apr 08 2023 12:30:19 GMT-0400 (Eastern Daylight Time)","488506","Untrustworthy,Trustworthy","","716","","","","decision","","<div class='trialDiv'><img src='trustrating_stim/white_00129_931230_fb_edt.bmp'><br><font class='baseline'><strong>Ethan</strong><p>Choose number of points to send.</font><div class='respPicDiv'><img src='img/responseButtonOffersNo0L.png' class='respPic'></div></div>","5","8","Ethan","11","Shared","0.65,0.35","10","0.65","trustrating_stim/white_00129_931230_fb_edt.bmp","3","148","22"
"html-keyboard-response","201","278561","0.0-19.0-2.21","61010ed79b9d528dcd376bc7","bdp_trlrn","Sat Apr 08 2023 12:30:19 GMT-0400 (Eastern Daylight Time)","488506","Untrustworthy,Trustworthy","","null","","","","decisionFB","","<div class='trialDiv'><img src='trustrating_stim/white_00129_931230_fb_edt.bmp'><br><font class='baseline'><strong>Ethan</strong><p>Choose number of points to send.</font><div class='respPicDiv'><img src='img/responseButtonOffersNo0L5.png' class='respPic'></div></div>","null","8","Ethan","11","Shared","0.65,0.35","10","0.65","trustrating_stim/white_00129_931230_fb_edt.bmp","3","143","22"
"html-keyboard-response","202","279569","0.0-19.0-3.21","61010ed79b9d528dcd376bc7","bdp_trlrn","Sat Apr 08 2023 12:30:19 GMT-0400 (Eastern Daylight Time)","488506","Untrustworthy,Trustworthy","","null","","","","feedback","","<div class='trialDiv'><img src='trustrating_stim/white_00129_931230_fb_edt.bmp'><br><font class='baseline'><strong>Ethan</strong><p>Received: <strong>20</strong></font> &nbsp; &nbsp; &nbsp; &nbsp; &nbsp; &nbsp;<font class='posOutcome'>Shared back: <strong>10</strong></font></font><div class='respPicDiv'><img src='img/responseButtonOffersNo0_wht.png' class='respPic'></div></div>","null","8","Ethan","11","Shared","0.65,0.35","10","0.65","trustrating_stim/white_00129_931230_fb_edt.bmp","3","153","22"
"html-keyboard-response","203","280586","0.0-19.0-1.22","61010ed79b9d528dcd376bc7","bdp_trlrn","Sat Apr 08 2023 12:30:19 GMT-0400 (Eastern Daylight Time)","488506","Untrustworthy,Trustworthy","","1015","","","","decision","","<div class='trialDiv'><img src='trustrating_stim/white_mw033.bmp'><br><font class='baseline'><strong>Caleb</strong><p>Choose number of points to send.</font><div class='respPicDiv'><img src='img/responseButtonOffersNo0L.png' class='respPic'></div></div>","2","8","Caleb","6","Kept","0.35,0.8","10","0.35","trustrating_stim/white_mw033.bmp","1","158","23"
"html-keyboard-response","204","280842","0.0-19.0-2.22","61010ed79b9d528dcd376bc7","bdp_trlrn","Sat Apr 08 2023 12:30:19 GMT-0400 (Eastern Daylight Time)","488506","Untrustworthy,Trustworthy","","null","","","","decisionFB","","<div class='trialDiv'><img src='trustrating_stim/white_mw033.bmp'><br><font class='baseline'><strong>Caleb</strong><p>Choose number of points to send.</font><div class='respPicDiv'><img src='img/responseButtonOffersNo0L2.png' class='respPic'></div></div>","null","8","Caleb","6","Kept","0.35,0.8","10","0.35","trustrating_stim/white_mw033.bmp","1","156","23"
"html-keyboard-response","205","281850","0.0-19.0-3.22","61010ed79b9d528dcd376bc7","bdp_trlrn","Sat Apr 08 2023 12:30:19 GMT-0400 (Eastern Daylight Time)","488506","Untrustworthy,Trustworthy","","null","","","","feedback","","<div class='trialDiv'><img src='trustrating_stim/white_mw033.bmp'><br><font class='baseline'><strong>Caleb</strong><p>Received: <strong>8</strong></font> &nbsp; &nbsp; &nbsp; &nbsp; &nbsp; &nbsp;<font class='negOutcome'>Shared back: <strong>0</strong></font></font><div class='respPicDiv'><img src='img/responseButtonOffersNo0_wht.png' class='respPic'></div></div>","null","8","Caleb","6","Kept","0.35,0.8","10","0.35","trustrating_stim/white_mw033.bmp","1","156","23"
"html-keyboard-response","206","282338","0.0-19.0-1.23","61010ed79b9d528dcd376bc7","bdp_trlrn","Sat Apr 08 2023 12:30:19 GMT-0400 (Eastern Daylight Time)","488506","Untrustworthy,Trustworthy","","486","","","","decision","","<div class='trialDiv'><img src='trustrating_stim/white_00577_940928_fa_edt.bmp'><br><font class='baseline'><strong>Jason</strong><p>Choose number of points to send.</font><div class='respPicDiv'><img src='img/responseButtonOffersNo0L.png' class='respPic'></div></div>","1","8","Jason","2","Shared","0.8,0.35","9","0.8","trustrating_stim/white_00577_940928_fa_edt.bmp","1","161","24"
"html-keyboard-response","207","282593","0.0-19.0-2.23","61010ed79b9d528dcd376bc7","bdp_trlrn","Sat Apr 08 2023 12:30:19 GMT-0400 (Eastern Daylight Time)","488506","Untrustworthy,Trustworthy","","null","","","","decisionFB","","<div class='trialDiv'><img src='trustrating_stim/white_00577_940928_fa_edt.bmp'><br><font class='baseline'><strong>Jason</strong><p>Choose number of points to send.</font><div class='respPicDiv'><img src='img/responseButtonOffersNo0L1.png' class='respPic'></div></div>","null","8","Jason","2","Shared","0.8,0.35","9","0.8","trustrating_stim/white_00577_940928_fa_edt.bmp","1","160","24"
"html-keyboard-response","208","283602","0.0-19.0-3.23","61010ed79b9d528dcd376bc7","bdp_trlrn","Sat Apr 08 2023 12:30:19 GMT-0400 (Eastern Daylight Time)","488506","Untrustworthy,Trustworthy","","null","","","","feedback","","<div class='trialDiv'><img src='trustrating_stim/white_00577_940928_fa_edt.bmp'><br><font class='baseline'><strong>Jason</strong><p>Received: <strong>4</strong></font> &nbsp; &nbsp; &nbsp; &nbsp; &nbsp; &nbsp;<font class='posOutcome'>Shared back: <strong>2</strong></font></font><div class='respPicDiv'><img src='img/responseButtonOffersNo0_wht.png' class='respPic'></div></div>","null","8","Jason","2","Shared","0.8,0.35","9","0.8","trustrating_stim/white_00577_940928_fa_edt.bmp","1","162","24"
"html-keyboard-response","209","284320","0.0-19.0-1.24","61010ed79b9d528dcd376bc7","bdp_trlrn","Sat Apr 08 2023 12:30:19 GMT-0400 (Eastern Daylight Time)","488506","Untrustworthy,Trustworthy","","716","","","","decision","","<div class='trialDiv'><img src='trustrating_stim/white_mw033.bmp'><br><font class='baseline'><strong>Caleb</strong><p>Choose number of points to send.</font><div class='respPicDiv'><img src='img/responseButtonOffersNo0L.png' class='respPic'></div></div>","1","9","Caleb","6","Kept","0.35,0.8","10","0.35","trustrating_stim/white_mw033.bmp","1","167","25"
"html-keyboard-response","210","284577","0.0-19.0-2.24","61010ed79b9d528dcd376bc7","bdp_trlrn","Sat Apr 08 2023 12:30:19 GMT-0400 (Eastern Daylight Time)","488506","Untrustworthy,Trustworthy","","null","","","","decisionFB","","<div class='trialDiv'><img src='trustrating_stim/white_mw033.bmp'><br><font class='baseline'><strong>Caleb</strong><p>Choose number of points to send.</font><div class='respPicDiv'><img src='img/responseButtonOffersNo0L1.png' class='respPic'></div></div>","null","9","Caleb","6","Kept","0.35,0.8","10","0.35","trustrating_stim/white_mw033.bmp","1","166","25"
"html-keyboard-response","211","285585","0.0-19.0-3.24","61010ed79b9d528dcd376bc7","bdp_trlrn","Sat Apr 08 2023 12:30:19 GMT-0400 (Eastern Daylight Time)","488506","Untrustworthy,Trustworthy","","null","","","","feedback","","<div class='trialDiv'><img src='trustrating_stim/white_mw033.bmp'><br><font class='baseline'><strong>Caleb</strong><p>Received: <strong>4</strong></font> &nbsp; &nbsp; &nbsp; &nbsp; &nbsp; &nbsp;<font class='negOutcome'>Shared back: <strong>0</strong></font></font><div class='respPicDiv'><img src='img/responseButtonOffersNo0_wht.png' class='respPic'></div></div>","null","9","Caleb","6","Kept","0.35,0.8","10","0.35","trustrating_stim/white_mw033.bmp","1","166","25"
"html-keyboard-response","212","286504","0.0-19.0-1.25","61010ed79b9d528dcd376bc7","bdp_trlrn","Sat Apr 08 2023 12:30:19 GMT-0400 (Eastern Daylight Time)","488506","Untrustworthy,Trustworthy","","917","","","","decision","","<div class='trialDiv'><img src='trustrating_stim/white_00577_940928_fa_edt.bmp'><br><font class='baseline'><strong>Jason</strong><p>Choose number of points to send.</font><div class='respPicDiv'><img src='img/responseButtonOffersNo0L.png' class='respPic'></div></div>","2","9","Jason","2","Shared","0.8,0.35","9","0.8","trustrating_stim/white_00577_940928_fa_edt.bmp","1","171","26"
"html-keyboard-response","213","286762","0.0-19.0-2.25","61010ed79b9d528dcd376bc7","bdp_trlrn","Sat Apr 08 2023 12:30:19 GMT-0400 (Eastern Daylight Time)","488506","Untrustworthy,Trustworthy","","null","","","","decisionFB","","<div class='trialDiv'><img src='trustrating_stim/white_00577_940928_fa_edt.bmp'><br><font class='baseline'><strong>Jason</strong><p>Choose number of points to send.</font><div class='respPicDiv'><img src='img/responseButtonOffersNo0L2.png' class='respPic'></div></div>","null","9","Jason","2","Shared","0.8,0.35","9","0.8","trustrating_stim/white_00577_940928_fa_edt.bmp","1","169","26"
"html-keyboard-response","214","287770","0.0-19.0-3.25","61010ed79b9d528dcd376bc7","bdp_trlrn","Sat Apr 08 2023 12:30:19 GMT-0400 (Eastern Daylight Time)","488506","Untrustworthy,Trustworthy","","null","","","","feedback","","<div class='trialDiv'><img src='trustrating_stim/white_00577_940928_fa_edt.bmp'><br><font class='baseline'><strong>Jason</strong><p>Received: <strong>8</strong></font> &nbsp; &nbsp; &nbsp; &nbsp; &nbsp; &nbsp;<font class='posOutcome'>Shared back: <strong>4</strong></font></font><div class='respPicDiv'><img src='img/responseButtonOffersNo0_wht.png' class='respPic'></div></div>","null","9","Jason","2","Shared","0.8,0.35","9","0.8","trustrating_stim/white_00577_940928_fa_edt.bmp","1","173","26"
"html-keyboard-response","215","288510","0.0-19.0-1.26","61010ed79b9d528dcd376bc7","bdp_trlrn","Sat Apr 08 2023 12:30:19 GMT-0400 (Eastern Daylight Time)","488506","Untrustworthy,Trustworthy","","738","","","","decision","","<div class='trialDiv'><img src='trustrating_stim/white_00129_931230_fb_edt.bmp'><br><font class='baseline'><strong>Ethan</strong><p>Choose number of points to send.</font><div class='respPicDiv'><img src='img/responseButtonOffersNo0L.png' class='respPic'></div></div>","5","9","Ethan","11","Kept","0.65,0.35","10","0.65","trustrating_stim/white_00129_931230_fb_edt.bmp","3","178","27"
"html-keyboard-response","216","288769","0.0-19.0-2.26","61010ed79b9d528dcd376bc7","bdp_trlrn","Sat Apr 08 2023 12:30:19 GMT-0400 (Eastern Daylight Time)","488506","Untrustworthy,Trustworthy","","null","","","","decisionFB","","<div class='trialDiv'><img src='trustrating_stim/white_00129_931230_fb_edt.bmp'><br><font class='baseline'><strong>Ethan</strong><p>Choose number of points to send.</font><div class='respPicDiv'><img src='img/responseButtonOffersNo0L5.png' class='respPic'></div></div>","null","9","Ethan","11","Kept","0.65,0.35","10","0.65","trustrating_stim/white_00129_931230_fb_edt.bmp","3","173","27"
"html-keyboard-response","217","289777","0.0-19.0-3.26","61010ed79b9d528dcd376bc7","bdp_trlrn","Sat Apr 08 2023 12:30:19 GMT-0400 (Eastern Daylight Time)","488506","Untrustworthy,Trustworthy","","null","","","","feedback","","<div class='trialDiv'><img src='trustrating_stim/white_00129_931230_fb_edt.bmp'><br><font class='baseline'><strong>Ethan</strong><p>Received: <strong>20</strong></font> &nbsp; &nbsp; &nbsp; &nbsp; &nbsp; &nbsp;<font class='negOutcome'>Shared back: <strong>0</strong></font></font><div class='respPicDiv'><img src='img/responseButtonOffersNo0_wht.png' class='respPic'></div></div>","null","9","Ethan","11","Kept","0.65,0.35","10","0.65","trustrating_stim/white_00129_931230_fb_edt.bmp","3","173","27"
"html-keyboard-response","218","290498","0.0-19.0-1.27","61010ed79b9d528dcd376bc7","bdp_trlrn","Sat Apr 08 2023 12:30:19 GMT-0400 (Eastern Daylight Time)","488506","Untrustworthy,Trustworthy","","719","","","","decision","","<div class='trialDiv'><img src='trustrating_stim/white_mw033.bmp'><br><font class='baseline'><strong>Caleb</strong><p>Choose number of points to send.</font><div class='respPicDiv'><img src='img/responseButtonOffersNo0L.png' class='respPic'></div></div>","2","10","Caleb","6","Shared","0.35,0.8","10","0.35","trustrating_stim/white_mw033.bmp","1","178","28"
"html-keyboard-response","219","290753","0.0-19.0-2.27","61010ed79b9d528dcd376bc7","bdp_trlrn","Sat Apr 08 2023 12:30:19 GMT-0400 (Eastern Daylight Time)","488506","Untrustworthy,Trustworthy","","null","","","","decisionFB","","<div class='trialDiv'><img src='trustrating_stim/white_mw033.bmp'><br><font class='baseline'><strong>Caleb</strong><p>Choose number of points to send.</font><div class='respPicDiv'><img src='img/responseButtonOffersNo0L2.png' class='respPic'></div></div>","null","10","Caleb","6","Shared","0.35,0.8","10","0.35","trustrating_stim/white_mw033.bmp","1","176","28"
"html-keyboard-response","220","291761","0.0-19.0-3.27","61010ed79b9d528dcd376bc7","bdp_trlrn","Sat Apr 08 2023 12:30:19 GMT-0400 (Eastern Daylight Time)","488506","Untrustworthy,Trustworthy","","null","","","","feedback","","<div class='trialDiv'><img src='trustrating_stim/white_mw033.bmp'><br><font class='baseline'><strong>Caleb</strong><p>Received: <strong>8</strong></font> &nbsp; &nbsp; &nbsp; &nbsp; &nbsp; &nbsp;<font class='posOutcome'>Shared back: <strong>4</strong></font></font><div class='respPicDiv'><img src='img/responseButtonOffersNo0_wht.png' class='respPic'></div></div>","null","10","Caleb","6","Shared","0.35,0.8","10","0.35","trustrating_stim/white_mw033.bmp","1","180","28"
