"trial_type","trial_index","time_elapsed","internal_node_id","subject_id","task","startTime","totalTime","labels","event","trial","time","trialtype","numBlurs","view_history","rt","success","stimulus","key_press","aground","name","faceID","outcome","agenttype","agentswpt","agentcurrpshare","face","avgRating","point_total","round"
"pavlovia","0","4","0.0-0.0","63f3a6b6d4c4d564638f38ca","bdp_trlrn","Wed Mar 15 2023 14:23:18 GMT-0500 (Central Daylight Time)","544071","Trustworthy,Untrustworthy","","","","","","","","","","","","","","","","","","","","",""
"","","","","63f3a6b6d4c4d564638f38ca","bdp_trlrn","Wed Mar 15 2023 14:23:18 GMT-0500 (Central Daylight Time)","544071","Trustworthy,Untrustworthy","focus","1","569","focusevent","","","","","","","","","","","","","","","","",""
"","","","","63f3a6b6d4c4d564638f38ca","bdp_trlrn","Wed Mar 15 2023 14:23:18 GMT-0500 (Central Daylight Time)","544071","Trustworthy,Untrustworthy","blur","1","4234","blurevent","1","","","","","","","","","","","","","","","",""
"","","","","63f3a6b6d4c4d564638f38ca","bdp_trlrn","Wed Mar 15 2023 14:23:18 GMT-0500 (Central Daylight Time)","544071","Trustworthy,Untrustworthy","focus","1","8633","focusevent","","","","","","","","","","","","","","","","",""
"instructions","1","10848","0.0-1.0","63f3a6b6d4c4d564638f38ca","bdp_trlrn","Wed Mar 15 2023 14:23:18 GMT-0500 (Central Daylight Time)","544071","Trustworthy,Untrustworthy","","","","","","[{""page_index"":0,""viewing_time"":10844}]","10844","","","","","","","","","","","","","",""
"","","","","63f3a6b6d4c4d564638f38ca","bdp_trlrn","Wed Mar 15 2023 14:23:18 GMT-0500 (Central Daylight Time)","544071","Trustworthy,Untrustworthy","blur","2","14114","blurevent","2","","","","","","","","","","","","","","","",""
"","","","","63f3a6b6d4c4d564638f38ca","bdp_trlrn","Wed Mar 15 2023 14:23:18 GMT-0500 (Central Daylight Time)","544071","Trustworthy,Untrustworthy","focus","2","16230","focusevent","","","","","","","","","","","","","","","","",""
"","","","","63f3a6b6d4c4d564638f38ca","bdp_trlrn","Wed Mar 15 2023 14:23:18 GMT-0500 (Central Daylight Time)","544071","Trustworthy,Untrustworthy","fullscreenenter","2","18590","fullscreenenter","","","","","","","","","","","","","","","","",""
"fullscreen","2","19571","0.0-2.0","63f3a6b6d4c4d564638f38ca","bdp_trlrn","Wed Mar 15 2023 14:23:18 GMT-0500 (Central Daylight Time)","544071","Trustworthy,Untrustworthy","","","","","","","","true","","","","","","","","","","","","",""
"instructions","3","43042","0.0-4.0","63f3a6b6d4c4d564638f38ca","bdp_trlrn","Wed Mar 15 2023 14:23:18 GMT-0500 (Central Daylight Time)","544071","Trustworthy,Untrustworthy","","","","","","[{""page_index"":0,""viewing_time"":9516},{""page_index"":1,""viewing_time"":13954}]","23470","","","","","","","","","","","","","",""
"instructions","4","44203","0.0-5.0","63f3a6b6d4c4d564638f38ca","bdp_trlrn","Wed Mar 15 2023 14:23:18 GMT-0500 (Central Daylight Time)","544071","Trustworthy,Untrustworthy","","","","","","[{""page_index"":0,""viewing_time"":1160}]","1160","","","","","","","","","","","","","",""
"image-keyboard-response","5","46457","0.0-6.0-1.0","63f3a6b6d4c4d564638f38ca","bdp_trlrn","Wed Mar 15 2023 14:23:18 GMT-0500 (Central Daylight Time)","544071","Trustworthy,Untrustworthy","","","","rating","","","2138","","trustrating_stim/white_mw048.bmp","4","","","","","","","","","","",""
"image-keyboard-response","6","46662","0.0-6.0-2.0","63f3a6b6d4c4d564638f38ca","bdp_trlrn","Wed Mar 15 2023 14:23:18 GMT-0500 (Central Daylight Time)","544071","Trustworthy,Untrustworthy","","","","ratingFB","","","null","","trustrating_stim/white_mw048.bmp","null","","","","","","","","","","",""
"image-keyboard-response","7","48607","0.0-6.0-1.1","63f3a6b6d4c4d564638f38ca","bdp_trlrn","Wed Mar 15 2023 14:23:18 GMT-0500 (Central Daylight Time)","544071","Trustworthy,Untrustworthy","","","","rating","","","1840","","trustrating_stim/white_00120_931230_fa_edt.bmp","6","","","","","","","","","","",""
"image-keyboard-response","8","48813","0.0-6.0-2.1","63f3a6b6d4c4d564638f38ca","bdp_trlrn","Wed Mar 15 2023 14:23:18 GMT-0500 (Central Daylight Time)","544071","Trustworthy,Untrustworthy","","","","ratingFB","","","null","","trustrating_stim/white_00120_931230_fa_edt.bmp","null","","","","","","","","","","",""
"image-keyboard-response","9","49639","0.0-6.0-1.2","63f3a6b6d4c4d564638f38ca","bdp_trlrn","Wed Mar 15 2023 14:23:18 GMT-0500 (Central Daylight Time)","544071","Trustworthy,Untrustworthy","","","","rating","","","721","","trustrating_stim/white_mw089.bmp","4","","","","","","","","","","",""
"image-keyboard-response","10","49844","0.0-6.0-2.2","63f3a6b6d4c4d564638f38ca","bdp_trlrn","Wed Mar 15 2023 14:23:18 GMT-0500 (Central Daylight Time)","544071","Trustworthy,Untrustworthy","","","","ratingFB","","","null","","trustrating_stim/white_mw089.bmp","null","","","","","","","","","","",""
"image-keyboard-response","11","50847","0.0-6.0-1.3","63f3a6b6d4c4d564638f38ca","bdp_trlrn","Wed Mar 15 2023 14:23:18 GMT-0500 (Central Daylight Time)","544071","Trustworthy,Untrustworthy","","","","rating","","","897","","trustrating_stim/white_00519_940519_fb_edt.bmp","4","","","","","","","","","","",""
"image-keyboard-response","12","51059","0.0-6.0-2.3","63f3a6b6d4c4d564638f38ca","bdp_trlrn","Wed Mar 15 2023 14:23:18 GMT-0500 (Central Daylight Time)","544071","Trustworthy,Untrustworthy","","","","ratingFB","","","null","","trustrating_stim/white_00519_940519_fb_edt.bmp","null","","","","","","","","","","",""
"image-keyboard-response","13","52831","0.0-6.0-1.4","63f3a6b6d4c4d564638f38ca","bdp_trlrn","Wed Mar 15 2023 14:23:18 GMT-0500 (Central Daylight Time)","544071","Trustworthy,Untrustworthy","","","","rating","","","1665","","trustrating_stim/white_00898_960530_fa_edt.bmp","6","","","","","","","","","","",""
"image-keyboard-response","14","53042","0.0-6.0-2.4","63f3a6b6d4c4d564638f38ca","bdp_trlrn","Wed Mar 15 2023 14:23:18 GMT-0500 (Central Daylight Time)","544071","Trustworthy,Untrustworthy","","","","ratingFB","","","null","","trustrating_stim/white_00898_960530_fa_edt.bmp","null","","","","","","","","","","",""
"image-keyboard-response","15","53961","0.0-6.0-1.5","63f3a6b6d4c4d564638f38ca","bdp_trlrn","Wed Mar 15 2023 14:23:18 GMT-0500 (Central Daylight Time)","544071","Trustworthy,Untrustworthy","","","","rating","","","811","","trustrating_stim/white_00761_941201_fb_edt.bmp","6","","","","","","","","","","",""
"image-keyboard-response","16","54176","0.0-6.0-2.5","63f3a6b6d4c4d564638f38ca","bdp_trlrn","Wed Mar 15 2023 14:23:18 GMT-0500 (Central Daylight Time)","544071","Trustworthy,Untrustworthy","","","","ratingFB","","","null","","trustrating_stim/white_00761_941201_fb_edt.bmp","null","","","","","","","","","","",""
"image-keyboard-response","17","55141","0.0-6.0-1.6","63f3a6b6d4c4d564638f38ca","bdp_trlrn","Wed Mar 15 2023 14:23:18 GMT-0500 (Central Daylight Time)","544071","Trustworthy,Untrustworthy","","","","rating","","","853","","trustrating_stim/white_mw056.bmp","4","","","","","","","","","","",""
"image-keyboard-response","18","55343","0.0-6.0-2.6","63f3a6b6d4c4d564638f38ca","bdp_trlrn","Wed Mar 15 2023 14:23:18 GMT-0500 (Central Daylight Time)","544071","Trustworthy,Untrustworthy","","","","ratingFB","","","null","","trustrating_stim/white_mw056.bmp","null","","","","","","","","","","",""
"image-keyboard-response","19","56530","0.0-6.0-1.7","63f3a6b6d4c4d564638f38ca","bdp_trlrn","Wed Mar 15 2023 14:23:18 GMT-0500 (Central Daylight Time)","544071","Trustworthy,Untrustworthy","","","","rating","","","1080","","trustrating_stim/white_mw033.bmp","4","","","","","","","","","","",""
"image-keyboard-response","20","56732","0.0-6.0-2.7","63f3a6b6d4c4d564638f38ca","bdp_trlrn","Wed Mar 15 2023 14:23:18 GMT-0500 (Central Daylight Time)","544071","Trustworthy,Untrustworthy","","","","ratingFB","","","null","","trustrating_stim/white_mw033.bmp","null","","","","","","","","","","",""
"image-keyboard-response","21","57693","0.0-6.0-1.8","63f3a6b6d4c4d564638f38ca","bdp_trlrn","Wed Mar 15 2023 14:23:18 GMT-0500 (Central Daylight Time)","544071","Trustworthy,Untrustworthy","","","","rating","","","855","","trustrating_stim/white_mw099.bmp","4","","","","","","","","","","",""
"image-keyboard-response","22","57898","0.0-6.0-2.8","63f3a6b6d4c4d564638f38ca","bdp_trlrn","Wed Mar 15 2023 14:23:18 GMT-0500 (Central Daylight Time)","544071","Trustworthy,Untrustworthy","","","","ratingFB","","","null","","trustrating_stim/white_mw099.bmp","null","","","","","","","","","","",""
"image-keyboard-response","23","58801","0.0-6.0-1.9","63f3a6b6d4c4d564638f38ca","bdp_trlrn","Wed Mar 15 2023 14:23:18 GMT-0500 (Central Daylight Time)","544071","Trustworthy,Untrustworthy","","","","rating","","","797","","trustrating_stim/white_00807_941205_fb_edt.bmp","6","","","","","","","","","","",""
"image-keyboard-response","24","59014","0.0-6.0-2.9","63f3a6b6d4c4d564638f38ca","bdp_trlrn","Wed Mar 15 2023 14:23:18 GMT-0500 (Central Daylight Time)","544071","Trustworthy,Untrustworthy","","","","ratingFB","","","null","","trustrating_stim/white_00807_941205_fb_edt.bmp","null","","","","","","","","","","",""
"image-keyboard-response","25","59902","0.0-6.0-1.10","63f3a6b6d4c4d564638f38ca","bdp_trlrn","Wed Mar 15 2023 14:23:18 GMT-0500 (Central Daylight Time)","544071","Trustworthy,Untrustworthy","","","","rating","","","781","","trustrating_stim/white_00757_941201_fa_edt.bmp","6","","","","","","","","","","",""
"image-keyboard-response","26","60117","0.0-6.0-2.10","63f3a6b6d4c4d564638f38ca","bdp_trlrn","Wed Mar 15 2023 14:23:18 GMT-0500 (Central Daylight Time)","544071","Trustworthy,Untrustworthy","","","","ratingFB","","","null","","trustrating_stim/white_00757_941201_fa_edt.bmp","null","","","","","","","","","","",""
"image-keyboard-response","27","61147","0.0-6.0-1.11","63f3a6b6d4c4d564638f38ca","bdp_trlrn","Wed Mar 15 2023 14:23:18 GMT-0500 (Central Daylight Time)","544071","Trustworthy,Untrustworthy","","","","rating","","","925","","trustrating_stim/white_00785_941205_fb_edt.bmp","4","","","","","","","","","","",""
"image-keyboard-response","28","61348","0.0-6.0-2.11","63f3a6b6d4c4d564638f38ca","bdp_trlrn","Wed Mar 15 2023 14:23:18 GMT-0500 (Central Daylight Time)","544071","Trustworthy,Untrustworthy","","","","ratingFB","","","null","","trustrating_stim/white_00785_941205_fb_edt.bmp","null","","","","","","","","","","",""
"image-keyboard-response","29","62771","0.0-6.0-1.12","63f3a6b6d4c4d564638f38ca","bdp_trlrn","Wed Mar 15 2023 14:23:18 GMT-0500 (Central Daylight Time)","544071","Trustworthy,Untrustworthy","","","","rating","","","1317","","trustrating_stim/white_mw046.bmp","6","","","","","","","","","","",""
"image-keyboard-response","30","62981","0.0-6.0-2.12","63f3a6b6d4c4d564638f38ca","bdp_trlrn","Wed Mar 15 2023 14:23:18 GMT-0500 (Central Daylight Time)","544071","Trustworthy,Untrustworthy","","","","ratingFB","","","null","","trustrating_stim/white_mw046.bmp","null","","","","","","","","","","",""
"image-keyboard-response","31","64411","0.0-6.0-1.13","63f3a6b6d4c4d564638f38ca","bdp_trlrn","Wed Mar 15 2023 14:23:18 GMT-0500 (Central Daylight Time)","544071","Trustworthy,Untrustworthy","","","","rating","","","1323","","trustrating_stim/white_mw071.bmp","4","","","","","","","","","","",""
"image-keyboard-response","32","64616","0.0-6.0-2.13","63f3a6b6d4c4d564638f38ca","bdp_trlrn","Wed Mar 15 2023 14:23:18 GMT-0500 (Central Daylight Time)","544071","Trustworthy,Untrustworthy","","","","ratingFB","","","null","","trustrating_stim/white_mw071.bmp","null","","","","","","","","","","",""
"image-keyboard-response","33","65467","0.0-6.0-1.14","63f3a6b6d4c4d564638f38ca","bdp_trlrn","Wed Mar 15 2023 14:23:18 GMT-0500 (Central Daylight Time)","544071","Trustworthy,Untrustworthy","","","","rating","","","746","","trustrating_stim/white_mw035.bmp","4","","","","","","","","","","",""
"image-keyboard-response","34","65681","0.0-6.0-2.14","63f3a6b6d4c4d564638f38ca","bdp_trlrn","Wed Mar 15 2023 14:23:18 GMT-0500 (Central Daylight Time)","544071","Trustworthy,Untrustworthy","","","","ratingFB","","","null","","trustrating_stim/white_mw035.bmp","null","","","","","","","","","","",""
"image-keyboard-response","35","66786","0.0-6.0-1.15","63f3a6b6d4c4d564638f38ca","bdp_trlrn","Wed Mar 15 2023 14:23:18 GMT-0500 (Central Daylight Time)","544071","Trustworthy,Untrustworthy","","","","rating","","","998","","trustrating_stim/white_00109_931230_fa_edt.bmp","6","","","","","","","","","","",""
"image-keyboard-response","36","66998","0.0-6.0-2.15","63f3a6b6d4c4d564638f38ca","bdp_trlrn","Wed Mar 15 2023 14:23:18 GMT-0500 (Central Daylight Time)","544071","Trustworthy,Untrustworthy","","","","ratingFB","","","null","","trustrating_stim/white_00109_931230_fa_edt.bmp","null","","","","","","","","","","",""
"image-keyboard-response","37","68173","0.0-6.0-1.16","63f3a6b6d4c4d564638f38ca","bdp_trlrn","Wed Mar 15 2023 14:23:18 GMT-0500 (Central Daylight Time)","544071","Trustworthy,Untrustworthy","","","","rating","","","1069","","trustrating_stim/white_mw097.bmp","6","","","","","","","","","","",""
"image-keyboard-response","38","68381","0.0-6.0-2.16","63f3a6b6d4c4d564638f38ca","bdp_trlrn","Wed Mar 15 2023 14:23:18 GMT-0500 (Central Daylight Time)","544071","Trustworthy,Untrustworthy","","","","ratingFB","","","null","","trustrating_stim/white_mw097.bmp","null","","","","","","","","","","",""
"image-keyboard-response","39","71936","0.0-6.0-1.17","63f3a6b6d4c4d564638f38ca","bdp_trlrn","Wed Mar 15 2023 14:23:18 GMT-0500 (Central Daylight Time)","544071","Trustworthy,Untrustworthy","","","","rating","","","3449","","trustrating_stim/white_00577_940928_fa_edt.bmp","6","","","","","","","","","","",""
"image-keyboard-response","40","72147","0.0-6.0-2.17","63f3a6b6d4c4d564638f38ca","bdp_trlrn","Wed Mar 15 2023 14:23:18 GMT-0500 (Central Daylight Time)","544071","Trustworthy,Untrustworthy","","","","ratingFB","","","null","","trustrating_stim/white_00577_940928_fa_edt.bmp","null","","","","","","","","","","",""
"image-keyboard-response","41","73665","0.0-6.0-1.18","63f3a6b6d4c4d564638f38ca","bdp_trlrn","Wed Mar 15 2023 14:23:18 GMT-0500 (Central Daylight Time)","544071","Trustworthy,Untrustworthy","","","","rating","","","1411","","trustrating_stim/white_mw053.bmp","6","","","","","","","","","","",""
"image-keyboard-response","42","73880","0.0-6.0-2.18","63f3a6b6d4c4d564638f38ca","bdp_trlrn","Wed Mar 15 2023 14:23:18 GMT-0500 (Central Daylight Time)","544071","Trustworthy,Untrustworthy","","","","ratingFB","","","null","","trustrating_stim/white_mw053.bmp","null","","","","","","","","","","",""
"image-keyboard-response","43","75131","0.0-6.0-1.19","63f3a6b6d4c4d564638f38ca","bdp_trlrn","Wed Mar 15 2023 14:23:18 GMT-0500 (Central Daylight Time)","544071","Trustworthy,Untrustworthy","","","","rating","","","1144","","trustrating_stim/white_00299_940422_fa_edt.bmp","4","","","","","","","","","","",""
"image-keyboard-response","44","75346","0.0-6.0-2.19","63f3a6b6d4c4d564638f38ca","bdp_trlrn","Wed Mar 15 2023 14:23:18 GMT-0500 (Central Daylight Time)","544071","Trustworthy,Untrustworthy","","","","ratingFB","","","null","","trustrating_stim/white_00299_940422_fa_edt.bmp","null","","","","","","","","","","",""
"image-keyboard-response","45","76606","0.0-6.0-1.20","63f3a6b6d4c4d564638f38ca","bdp_trlrn","Wed Mar 15 2023 14:23:18 GMT-0500 (Central Daylight Time)","544071","Trustworthy,Untrustworthy","","","","rating","","","1152","","trustrating_stim/white_mw084.bmp","4","","","","","","","","","","",""
"image-keyboard-response","46","76816","0.0-6.0-2.20","63f3a6b6d4c4d564638f38ca","bdp_trlrn","Wed Mar 15 2023 14:23:18 GMT-0500 (Central Daylight Time)","544071","Trustworthy,Untrustworthy","","","","ratingFB","","","null","","trustrating_stim/white_mw084.bmp","null","","","","","","","","","","",""
"image-keyboard-response","47","80170","0.0-6.0-1.21","63f3a6b6d4c4d564638f38ca","bdp_trlrn","Wed Mar 15 2023 14:23:18 GMT-0500 (Central Daylight Time)","544071","Trustworthy,Untrustworthy","","","","rating","","","3251","","trustrating_stim/white_00340_940422_fa_edt.bmp","3","","","","","","","","","","",""
"image-keyboard-response","48","80380","0.0-6.0-2.21","63f3a6b6d4c4d564638f38ca","bdp_trlrn","Wed Mar 15 2023 14:23:18 GMT-0500 (Central Daylight Time)","544071","Trustworthy,Untrustworthy","","","","ratingFB","","","null","","trustrating_stim/white_00340_940422_fa_edt.bmp","null","","","","","","","","","","",""
"image-keyboard-response","49","81832","0.0-6.0-1.22","63f3a6b6d4c4d564638f38ca","bdp_trlrn","Wed Mar 15 2023 14:23:18 GMT-0500 (Central Daylight Time)","544071","Trustworthy,Untrustworthy","","","","rating","","","1346","","trustrating_stim/white_00223_940128_fb_edt.bmp","3","","","","","","","","","","",""
"image-keyboard-response","50","82046","0.0-6.0-2.22","63f3a6b6d4c4d564638f38ca","bdp_trlrn","Wed Mar 15 2023 14:23:18 GMT-0500 (Central Daylight Time)","544071","Trustworthy,Untrustworthy","","","","ratingFB","","","null","","trustrating_stim/white_00223_940128_fb_edt.bmp","null","","","","","","","","","","",""
"image-keyboard-response","51","83334","0.0-6.0-1.23","63f3a6b6d4c4d564638f38ca","bdp_trlrn","Wed Mar 15 2023 14:23:18 GMT-0500 (Central Daylight Time)","544071","Trustworthy,Untrustworthy","","","","rating","","","1180","","trustrating_stim/white_mw049.bmp","6","","","","","","","","","","",""
"image-keyboard-response","52","83545","0.0-6.0-2.23","63f3a6b6d4c4d564638f38ca","bdp_trlrn","Wed Mar 15 2023 14:23:18 GMT-0500 (Central Daylight Time)","544071","Trustworthy,Untrustworthy","","","","ratingFB","","","null","","trustrating_stim/white_mw049.bmp","null","","","","","","","","","","",""
"image-keyboard-response","53","84686","0.0-6.0-1.24","63f3a6b6d4c4d564638f38ca","bdp_trlrn","Wed Mar 15 2023 14:23:18 GMT-0500 (Central Daylight Time)","544071","Trustworthy,Untrustworthy","","","","rating","","","1033","","trustrating_stim/white_mw060.bmp","4","","","","","","","","","","",""
"image-keyboard-response","54","84902","0.0-6.0-2.24","63f3a6b6d4c4d564638f38ca","bdp_trlrn","Wed Mar 15 2023 14:23:18 GMT-0500 (Central Daylight Time)","544071","Trustworthy,Untrustworthy","","","","ratingFB","","","null","","trustrating_stim/white_mw060.bmp","null","","","","","","","","","","",""
"image-keyboard-response","55","85777","0.0-6.0-1.25","63f3a6b6d4c4d564638f38ca","bdp_trlrn","Wed Mar 15 2023 14:23:18 GMT-0500 (Central Daylight Time)","544071","Trustworthy,Untrustworthy","","","","rating","","","758","","trustrating_stim/white_00602_940928_fb_edt.bmp","6","","","","","","","","","","",""
"image-keyboard-response","56","85981","0.0-6.0-2.25","63f3a6b6d4c4d564638f38ca","bdp_trlrn","Wed Mar 15 2023 14:23:18 GMT-0500 (Central Daylight Time)","544071","Trustworthy,Untrustworthy","","","","ratingFB","","","null","","trustrating_stim/white_00602_940928_fb_edt.bmp","null","","","","","","","","","","",""
"image-keyboard-response","57","87175","0.0-6.0-1.26","63f3a6b6d4c4d564638f38ca","bdp_trlrn","Wed Mar 15 2023 14:23:18 GMT-0500 (Central Daylight Time)","544071","Trustworthy,Untrustworthy","","","","rating","","","1090","","trustrating_stim/white_mw066.bmp","6","","","","","","","","","","",""
"image-keyboard-response","58","87382","0.0-6.0-2.26","63f3a6b6d4c4d564638f38ca","bdp_trlrn","Wed Mar 15 2023 14:23:18 GMT-0500 (Central Daylight Time)","544071","Trustworthy,Untrustworthy","","","","ratingFB","","","null","","trustrating_stim/white_mw066.bmp","null","","","","","","","","","","",""
"image-keyboard-response","59","88426","0.0-6.0-1.27","63f3a6b6d4c4d564638f38ca","bdp_trlrn","Wed Mar 15 2023 14:23:18 GMT-0500 (Central Daylight Time)","544071","Trustworthy,Untrustworthy","","","","rating","","","940","","trustrating_stim/white_mw063.bmp","3","","","","","","","","","","",""
"image-keyboard-response","60","88630","0.0-6.0-2.27","63f3a6b6d4c4d564638f38ca","bdp_trlrn","Wed Mar 15 2023 14:23:18 GMT-0500 (Central Daylight Time)","544071","Trustworthy,Untrustworthy","","","","ratingFB","","","null","","trustrating_stim/white_mw063.bmp","null","","","","","","","","","","",""
"image-keyboard-response","61","89588","0.0-6.0-1.28","63f3a6b6d4c4d564638f38ca","bdp_trlrn","Wed Mar 15 2023 14:23:18 GMT-0500 (Central Daylight Time)","544071","Trustworthy,Untrustworthy","","","","rating","","","847","","trustrating_stim/white_00129_931230_fb_edt.bmp","4","","","","","","","","","","",""
"image-keyboard-response","62","89802","0.0-6.0-2.28","63f3a6b6d4c4d564638f38ca","bdp_trlrn","Wed Mar 15 2023 14:23:18 GMT-0500 (Central Daylight Time)","544071","Trustworthy,Untrustworthy","","","","ratingFB","","","null","","trustrating_stim/white_00129_931230_fb_edt.bmp","null","","","","","","","","","","",""
"image-keyboard-response","63","90650","0.0-6.0-1.29","63f3a6b6d4c4d564638f38ca","bdp_trlrn","Wed Mar 15 2023 14:23:18 GMT-0500 (Central Daylight Time)","544071","Trustworthy,Untrustworthy","","","","rating","","","731","","trustrating_stim/white_00659_941121_fa_edt.bmp","6","","","","","","","","","","",""
"image-keyboard-response","64","90863","0.0-6.0-2.29","63f3a6b6d4c4d564638f38ca","bdp_trlrn","Wed Mar 15 2023 14:23:18 GMT-0500 (Central Daylight Time)","544071","Trustworthy,Untrustworthy","","","","ratingFB","","","null","","trustrating_stim/white_00659_941121_fa_edt.bmp","null","","","","","","","","","","",""
"image-keyboard-response","65","91792","0.0-6.0-1.30","63f3a6b6d4c4d564638f38ca","bdp_trlrn","Wed Mar 15 2023 14:23:18 GMT-0500 (Central Daylight Time)","544071","Trustworthy,Untrustworthy","","","","rating","","","821","","trustrating_stim/white_mw066.bmp","6","","","","","","","","","","",""
"image-keyboard-response","66","91996","0.0-6.0-2.30","63f3a6b6d4c4d564638f38ca","bdp_trlrn","Wed Mar 15 2023 14:23:18 GMT-0500 (Central Daylight Time)","544071","Trustworthy,Untrustworthy","","","","ratingFB","","","null","","trustrating_stim/white_mw066.bmp","null","","","","","","","","","","",""
"image-keyboard-response","67","93314","0.0-6.0-1.31","63f3a6b6d4c4d564638f38ca","bdp_trlrn","Wed Mar 15 2023 14:23:18 GMT-0500 (Central Daylight Time)","544071","Trustworthy,Untrustworthy","","","","rating","","","1212","","trustrating_stim/white_mw089.bmp","4","","","","","","","","","","",""
"image-keyboard-response","68","93523","0.0-6.0-2.31","63f3a6b6d4c4d564638f38ca","bdp_trlrn","Wed Mar 15 2023 14:23:18 GMT-0500 (Central Daylight Time)","544071","Trustworthy,Untrustworthy","","","","ratingFB","","","null","","trustrating_stim/white_mw089.bmp","null","","","","","","","","","","",""
"image-keyboard-response","69","94633","0.0-6.0-1.32","63f3a6b6d4c4d564638f38ca","bdp_trlrn","Wed Mar 15 2023 14:23:18 GMT-0500 (Central Daylight Time)","544071","Trustworthy,Untrustworthy","","","","rating","","","998","","trustrating_stim/white_mw053.bmp","6","","","","","","","","","","",""
"image-keyboard-response","70","94849","0.0-6.0-2.32","63f3a6b6d4c4d564638f38ca","bdp_trlrn","Wed Mar 15 2023 14:23:18 GMT-0500 (Central Daylight Time)","544071","Trustworthy,Untrustworthy","","","","ratingFB","","","null","","trustrating_stim/white_mw053.bmp","null","","","","","","","","","","",""
"image-keyboard-response","71","96068","0.0-6.0-1.33","63f3a6b6d4c4d564638f38ca","bdp_trlrn","Wed Mar 15 2023 14:23:18 GMT-0500 (Central Daylight Time)","544071","Trustworthy,Untrustworthy","","","","rating","","","1114","","trustrating_stim/white_00602_940928_fb_edt.bmp","6","","","","","","","","","","",""
"image-keyboard-response","72","96279","0.0-6.0-2.33","63f3a6b6d4c4d564638f38ca","bdp_trlrn","Wed Mar 15 2023 14:23:18 GMT-0500 (Central Daylight Time)","544071","Trustworthy,Untrustworthy","","","","ratingFB","","","null","","trustrating_stim/white_00602_940928_fb_edt.bmp","null","","","","","","","","","","",""
"image-keyboard-response","73","97813","0.0-6.0-1.34","63f3a6b6d4c4d564638f38ca","bdp_trlrn","Wed Mar 15 2023 14:23:18 GMT-0500 (Central Daylight Time)","544071","Trustworthy,Untrustworthy","","","","rating","","","1425","","trustrating_stim/white_00761_941201_fb_edt.bmp","7","","","","","","","","","","",""
"image-keyboard-response","74","98028","0.0-6.0-2.34","63f3a6b6d4c4d564638f38ca","bdp_trlrn","Wed Mar 15 2023 14:23:18 GMT-0500 (Central Daylight Time)","544071","Trustworthy,Untrustworthy","","","","ratingFB","","","null","","trustrating_stim/white_00761_941201_fb_edt.bmp","null","","","","","","","","","","",""
"image-keyboard-response","75","100078","0.0-6.0-1.35","63f3a6b6d4c4d564638f38ca","bdp_trlrn","Wed Mar 15 2023 14:23:18 GMT-0500 (Central Daylight Time)","544071","Trustworthy,Untrustworthy","","","","rating","","","1943","","trustrating_stim/white_00577_940928_fa_edt.bmp","3","","","","","","","","","","",""
"image-keyboard-response","76","100280","0.0-6.0-2.35","63f3a6b6d4c4d564638f38ca","bdp_trlrn","Wed Mar 15 2023 14:23:18 GMT-0500 (Central Daylight Time)","544071","Trustworthy,Untrustworthy","","","","ratingFB","","","null","","trustrating_stim/white_00577_940928_fa_edt.bmp","null","","","","","","","","","","",""
"image-keyboard-response","77","101636","0.0-6.0-1.36","63f3a6b6d4c4d564638f38ca","bdp_trlrn","Wed Mar 15 2023 14:23:18 GMT-0500 (Central Daylight Time)","544071","Trustworthy,Untrustworthy","","","","rating","","","1248","","trustrating_stim/white_00757_941201_fa_edt.bmp","4","","","","","","","","","","",""
"image-keyboard-response","78","101847","0.0-6.0-2.36","63f3a6b6d4c4d564638f38ca","bdp_trlrn","Wed Mar 15 2023 14:23:18 GMT-0500 (Central Daylight Time)","544071","Trustworthy,Untrustworthy","","","","ratingFB","","","null","","trustrating_stim/white_00757_941201_fa_edt.bmp","null","","","","","","","","","","",""
"image-keyboard-response","79","103042","0.0-6.0-1.37","63f3a6b6d4c4d564638f38ca","bdp_trlrn","Wed Mar 15 2023 14:23:18 GMT-0500 (Central Daylight Time)","544071","Trustworthy,Untrustworthy","","","","rating","","","1088","","trustrating_stim/white_00223_940128_fb_edt.bmp","4","","","","","","","","","","",""
"image-keyboard-response","80","103245","0.0-6.0-2.37","63f3a6b6d4c4d564638f38ca","bdp_trlrn","Wed Mar 15 2023 14:23:18 GMT-0500 (Central Daylight Time)","544071","Trustworthy,Untrustworthy","","","","ratingFB","","","null","","trustrating_stim/white_00223_940128_fb_edt.bmp","null","","","","","","","","","","",""
"image-keyboard-response","81","105005","0.0-6.0-1.38","63f3a6b6d4c4d564638f38ca","bdp_trlrn","Wed Mar 15 2023 14:23:18 GMT-0500 (Central Daylight Time)","544071","Trustworthy,Untrustworthy","","","","rating","","","1654","","trustrating_stim/white_mw033.bmp","4","","","","","","","","","","",""
"image-keyboard-response","82","105212","0.0-6.0-2.38","63f3a6b6d4c4d564638f38ca","bdp_trlrn","Wed Mar 15 2023 14:23:18 GMT-0500 (Central Daylight Time)","544071","Trustworthy,Untrustworthy","","","","ratingFB","","","null","","trustrating_stim/white_mw033.bmp","null","","","","","","","","","","",""
"image-keyboard-response","83","106150","0.0-6.0-1.39","63f3a6b6d4c4d564638f38ca","bdp_trlrn","Wed Mar 15 2023 14:23:18 GMT-0500 (Central Daylight Time)","544071","Trustworthy,Untrustworthy","","","","rating","","","831","","trustrating_stim/white_00109_931230_fa_edt.bmp","6","","","","","","","","","","",""
"image-keyboard-response","84","106362","0.0-6.0-2.39","63f3a6b6d4c4d564638f38ca","bdp_trlrn","Wed Mar 15 2023 14:23:18 GMT-0500 (Central Daylight Time)","544071","Trustworthy,Untrustworthy","","","","ratingFB","","","null","","trustrating_stim/white_00109_931230_fa_edt.bmp","null","","","","","","","","","","",""
"image-keyboard-response","85","107308","0.0-6.0-1.40","63f3a6b6d4c4d564638f38ca","bdp_trlrn","Wed Mar 15 2023 14:23:18 GMT-0500 (Central Daylight Time)","544071","Trustworthy,Untrustworthy","","","","rating","","","840","","trustrating_stim/white_00785_941205_fb_edt.bmp","4","","","","","","","","","","",""
"image-keyboard-response","86","107513","0.0-6.0-2.40","63f3a6b6d4c4d564638f38ca","bdp_trlrn","Wed Mar 15 2023 14:23:18 GMT-0500 (Central Daylight Time)","544071","Trustworthy,Untrustworthy","","","","ratingFB","","","null","","trustrating_stim/white_00785_941205_fb_edt.bmp","null","","","","","","","","","","",""
"image-keyboard-response","87","109411","0.0-6.0-1.41","63f3a6b6d4c4d564638f38ca","bdp_trlrn","Wed Mar 15 2023 14:23:18 GMT-0500 (Central Daylight Time)","544071","Trustworthy,Untrustworthy","","","","rating","","","1793","","trustrating_stim/white_00340_940422_fa_edt.bmp","3","","","","","","","","","","",""
"image-keyboard-response","88","109617","0.0-6.0-2.41","63f3a6b6d4c4d564638f38ca","bdp_trlrn","Wed Mar 15 2023 14:23:18 GMT-0500 (Central Daylight Time)","544071","Trustworthy,Untrustworthy","","","","ratingFB","","","null","","trustrating_stim/white_00340_940422_fa_edt.bmp","null","","","","","","","","","","",""
"image-keyboard-response","89","110964","0.0-6.0-1.42","63f3a6b6d4c4d564638f38ca","bdp_trlrn","Wed Mar 15 2023 14:23:18 GMT-0500 (Central Daylight Time)","544071","Trustworthy,Untrustworthy","","","","rating","","","1244","","trustrating_stim/white_00299_940422_fa_edt.bmp","6","","","","","","","","","","",""
"image-keyboard-response","90","111177","0.0-6.0-2.42","63f3a6b6d4c4d564638f38ca","bdp_trlrn","Wed Mar 15 2023 14:23:18 GMT-0500 (Central Daylight Time)","544071","Trustworthy,Untrustworthy","","","","ratingFB","","","null","","trustrating_stim/white_00299_940422_fa_edt.bmp","null","","","","","","","","","","",""
"image-keyboard-response","91","112164","0.0-6.0-1.43","63f3a6b6d4c4d564638f38ca","bdp_trlrn","Wed Mar 15 2023 14:23:18 GMT-0500 (Central Daylight Time)","544071","Trustworthy,Untrustworthy","","","","rating","","","879","","trustrating_stim/white_mw099.bmp","4","","","","","","","","","","",""
"image-keyboard-response","92","112378","0.0-6.0-2.43","63f3a6b6d4c4d564638f38ca","bdp_trlrn","Wed Mar 15 2023 14:23:18 GMT-0500 (Central Daylight Time)","544071","Trustworthy,Untrustworthy","","","","ratingFB","","","null","","trustrating_stim/white_mw099.bmp","null","","","","","","","","","","",""
"image-keyboard-response","93","113396","0.0-6.0-1.44","63f3a6b6d4c4d564638f38ca","bdp_trlrn","Wed Mar 15 2023 14:23:18 GMT-0500 (Central Daylight Time)","544071","Trustworthy,Untrustworthy","","","","rating","","","911","","trustrating_stim/white_00898_960530_fa_edt.bmp","6","","","","","","","","","","",""
"image-keyboard-response","94","113600","0.0-6.0-2.44","63f3a6b6d4c4d564638f38ca","bdp_trlrn","Wed Mar 15 2023 14:23:18 GMT-0500 (Central Daylight Time)","544071","Trustworthy,Untrustworthy","","","","ratingFB","","","null","","trustrating_stim/white_00898_960530_fa_edt.bmp","null","","","","","","","","","","",""
"image-keyboard-response","95","114642","0.0-6.0-1.45","63f3a6b6d4c4d564638f38ca","bdp_trlrn","Wed Mar 15 2023 14:23:18 GMT-0500 (Central Daylight Time)","544071","Trustworthy,Untrustworthy","","","","rating","","","924","","trustrating_stim/white_mw060.bmp","4","","","","","","","","","","",""
"image-keyboard-response","96","114845","0.0-6.0-2.45","63f3a6b6d4c4d564638f38ca","bdp_trlrn","Wed Mar 15 2023 14:23:18 GMT-0500 (Central Daylight Time)","544071","Trustworthy,Untrustworthy","","","","ratingFB","","","null","","trustrating_stim/white_mw060.bmp","null","","","","","","","","","","",""
"image-keyboard-response","97","115756","0.0-6.0-1.46","63f3a6b6d4c4d564638f38ca","bdp_trlrn","Wed Mar 15 2023 14:23:18 GMT-0500 (Central Daylight Time)","544071","Trustworthy,Untrustworthy","","","","rating","","","805","","trustrating_stim/white_mw049.bmp","6","","","","","","","","","","",""
"image-keyboard-response","98","115963","0.0-6.0-2.46","63f3a6b6d4c4d564638f38ca","bdp_trlrn","Wed Mar 15 2023 14:23:18 GMT-0500 (Central Daylight Time)","544071","Trustworthy,Untrustworthy","","","","ratingFB","","","null","","trustrating_stim/white_mw049.bmp","null","","","","","","","","","","",""
"image-keyboard-response","99","117474","0.0-6.0-1.47","63f3a6b6d4c4d564638f38ca","bdp_trlrn","Wed Mar 15 2023 14:23:18 GMT-0500 (Central Daylight Time)","544071","Trustworthy,Untrustworthy","","","","rating","","","1405","","trustrating_stim/white_mw071.bmp","6","","","","","","","","","","",""
"image-keyboard-response","100","117686","0.0-6.0-2.47","63f3a6b6d4c4d564638f38ca","bdp_trlrn","Wed Mar 15 2023 14:23:18 GMT-0500 (Central Daylight Time)","544071","Trustworthy,Untrustworthy","","","","ratingFB","","","null","","trustrating_stim/white_mw071.bmp","null","","","","","","","","","","",""
"image-keyboard-response","101","119609","0.0-6.0-1.48","63f3a6b6d4c4d564638f38ca","bdp_trlrn","Wed Mar 15 2023 14:23:18 GMT-0500 (Central Daylight Time)","544071","Trustworthy,Untrustworthy","","","","rating","","","1815","","trustrating_stim/white_00519_940519_fb_edt.bmp","6","","","","","","","","","","",""
"image-keyboard-response","102","119819","0.0-6.0-2.48","63f3a6b6d4c4d564638f38ca","bdp_trlrn","Wed Mar 15 2023 14:23:18 GMT-0500 (Central Daylight Time)","544071","Trustworthy,Untrustworthy","","","","ratingFB","","","null","","trustrating_stim/white_00519_940519_fb_edt.bmp","null","","","","","","","","","","",""
"image-keyboard-response","103","121092","0.0-6.0-1.49","63f3a6b6d4c4d564638f38ca","bdp_trlrn","Wed Mar 15 2023 14:23:18 GMT-0500 (Central Daylight Time)","544071","Trustworthy,Untrustworthy","","","","rating","","","1168","","trustrating_stim/white_mw048.bmp","4","","","","","","","","","","",""
"image-keyboard-response","104","121301","0.0-6.0-2.49","63f3a6b6d4c4d564638f38ca","bdp_trlrn","Wed Mar 15 2023 14:23:18 GMT-0500 (Central Daylight Time)","544071","Trustworthy,Untrustworthy","","","","ratingFB","","","null","","trustrating_stim/white_mw048.bmp","null","","","","","","","","","","",""
"image-keyboard-response","105","122357","0.0-6.0-1.50","63f3a6b6d4c4d564638f38ca","bdp_trlrn","Wed Mar 15 2023 14:23:18 GMT-0500 (Central Daylight Time)","544071","Trustworthy,Untrustworthy","","","","rating","","","948","","trustrating_stim/white_00129_931230_fb_edt.bmp","4","","","","","","","","","","",""
"image-keyboard-response","106","122569","0.0-6.0-2.50","63f3a6b6d4c4d564638f38ca","bdp_trlrn","Wed Mar 15 2023 14:23:18 GMT-0500 (Central Daylight Time)","544071","Trustworthy,Untrustworthy","","","","ratingFB","","","null","","trustrating_stim/white_00129_931230_fb_edt.bmp","null","","","","","","","","","","",""
"image-keyboard-response","107","123847","0.0-6.0-1.51","63f3a6b6d4c4d564638f38ca","bdp_trlrn","Wed Mar 15 2023 14:23:18 GMT-0500 (Central Daylight Time)","544071","Trustworthy,Untrustworthy","","","","rating","","","1171","","trustrating_stim/white_mw063.bmp","4","","","","","","","","","","",""
"image-keyboard-response","108","124052","0.0-6.0-2.51","63f3a6b6d4c4d564638f38ca","bdp_trlrn","Wed Mar 15 2023 14:23:18 GMT-0500 (Central Daylight Time)","544071","Trustworthy,Untrustworthy","","","","ratingFB","","","null","","trustrating_stim/white_mw063.bmp","null","","","","","","","","","","",""
"image-keyboard-response","109","124922","0.0-6.0-1.52","63f3a6b6d4c4d564638f38ca","bdp_trlrn","Wed Mar 15 2023 14:23:18 GMT-0500 (Central Daylight Time)","544071","Trustworthy,Untrustworthy","","","","rating","","","761","","trustrating_stim/white_00120_931230_fa_edt.bmp","6","","","","","","","","","","",""
"image-keyboard-response","110","125137","0.0-6.0-2.52","63f3a6b6d4c4d564638f38ca","bdp_trlrn","Wed Mar 15 2023 14:23:18 GMT-0500 (Central Daylight Time)","544071","Trustworthy,Untrustworthy","","","","ratingFB","","","null","","trustrating_stim/white_00120_931230_fa_edt.bmp","null","","","","","","","","","","",""
"image-keyboard-response","111","126256","0.0-6.0-1.53","63f3a6b6d4c4d564638f38ca","bdp_trlrn","Wed Mar 15 2023 14:23:18 GMT-0500 (Central Daylight Time)","544071","Trustworthy,Untrustworthy","","","","rating","","","1013","","trustrating_stim/white_00659_941121_fa_edt.bmp","4","","","","","","","","","","",""
"image-keyboard-response","112","126468","0.0-6.0-2.53","63f3a6b6d4c4d564638f38ca","bdp_trlrn","Wed Mar 15 2023 14:23:18 GMT-0500 (Central Daylight Time)","544071","Trustworthy,Untrustworthy","","","","ratingFB","","","null","","trustrating_stim/white_00659_941121_fa_edt.bmp","null","","","","","","","","","","",""
"image-keyboard-response","113","127555","0.0-6.0-1.54","63f3a6b6d4c4d564638f38ca","bdp_trlrn","Wed Mar 15 2023 14:23:18 GMT-0500 (Central Daylight Time)","544071","Trustworthy,Untrustworthy","","","","rating","","","979","","trustrating_stim/white_mw046.bmp","6","","","","","","","","","","",""
"image-keyboard-response","114","127771","0.0-6.0-2.54","63f3a6b6d4c4d564638f38ca","bdp_trlrn","Wed Mar 15 2023 14:23:18 GMT-0500 (Central Daylight Time)","544071","Trustworthy,Untrustworthy","","","","ratingFB","","","null","","trustrating_stim/white_mw046.bmp","null","","","","","","","","","","",""
"image-keyboard-response","115","128902","0.0-6.0-1.55","63f3a6b6d4c4d564638f38ca","bdp_trlrn","Wed Mar 15 2023 14:23:18 GMT-0500 (Central Daylight Time)","544071","Trustworthy,Untrustworthy","","","","rating","","","1026","","trustrating_stim/white_mw084.bmp","4","","","","","","","","","","",""
"image-keyboard-response","116","129103","0.0-6.0-2.55","63f3a6b6d4c4d564638f38ca","bdp_trlrn","Wed Mar 15 2023 14:23:18 GMT-0500 (Central Daylight Time)","544071","Trustworthy,Untrustworthy","","","","ratingFB","","","null","","trustrating_stim/white_mw084.bmp","null","","","","","","","","","","",""
"image-keyboard-response","117","130206","0.0-6.0-1.56","63f3a6b6d4c4d564638f38ca","bdp_trlrn","Wed Mar 15 2023 14:23:18 GMT-0500 (Central Daylight Time)","544071","Trustworthy,Untrustworthy","","","","rating","","","991","","trustrating_stim/white_mw097.bmp","6","","","","","","","","","","",""
"image-keyboard-response","118","130420","0.0-6.0-2.56","63f3a6b6d4c4d564638f38ca","bdp_trlrn","Wed Mar 15 2023 14:23:18 GMT-0500 (Central Daylight Time)","544071","Trustworthy,Untrustworthy","","","","ratingFB","","","null","","trustrating_stim/white_mw097.bmp","null","","","","","","","","","","",""
"image-keyboard-response","119","131415","0.0-6.0-1.57","63f3a6b6d4c4d564638f38ca","bdp_trlrn","Wed Mar 15 2023 14:23:18 GMT-0500 (Central Daylight Time)","544071","Trustworthy,Untrustworthy","","","","rating","","","886","","trustrating_stim/white_mw056.bmp","4","","","","","","","","","","",""
"image-keyboard-response","120","131620","0.0-6.0-2.57","63f3a6b6d4c4d564638f38ca","bdp_trlrn","Wed Mar 15 2023 14:23:18 GMT-0500 (Central Daylight Time)","544071","Trustworthy,Untrustworthy","","","","ratingFB","","","null","","trustrating_stim/white_mw056.bmp","null","","","","","","","","","","",""
"image-keyboard-response","121","133259","0.0-6.0-1.58","63f3a6b6d4c4d564638f38ca","bdp_trlrn","Wed Mar 15 2023 14:23:18 GMT-0500 (Central Daylight Time)","544071","Trustworthy,Untrustworthy","","","","rating","","","1534","","trustrating_stim/white_mw035.bmp","6","","","","","","","","","","",""
"image-keyboard-response","122","133468","0.0-6.0-2.58","63f3a6b6d4c4d564638f38ca","bdp_trlrn","Wed Mar 15 2023 14:23:18 GMT-0500 (Central Daylight Time)","544071","Trustworthy,Untrustworthy","","","","ratingFB","","","null","","trustrating_stim/white_mw035.bmp","null","","","","","","","","","","",""
"image-keyboard-response","123","134627","0.0-6.0-1.59","63f3a6b6d4c4d564638f38ca","bdp_trlrn","Wed Mar 15 2023 14:23:18 GMT-0500 (Central Daylight Time)","544071","Trustworthy,Untrustworthy","","","","rating","","","1053","","trustrating_stim/white_00807_941205_fb_edt.bmp","6","","","","","","","","","","",""
"image-keyboard-response","124","134839","0.0-6.0-2.59","63f3a6b6d4c4d564638f38ca","bdp_trlrn","Wed Mar 15 2023 14:23:18 GMT-0500 (Central Daylight Time)","544071","Trustworthy,Untrustworthy","","","","ratingFB","","","null","","trustrating_stim/white_00807_941205_fb_edt.bmp","null","","","","","","","","","","",""
"instructions","125","136010","0.0-7.0","63f3a6b6d4c4d564638f38ca","bdp_trlrn","Wed Mar 15 2023 14:23:18 GMT-0500 (Central Daylight Time)","544071","Trustworthy,Untrustworthy","","","","","","[{""page_index"":0,""viewing_time"":1069}]","1069","","","","","","","","","","","","","",""
"instructions","126","216106","0.0-8.0","63f3a6b6d4c4d564638f38ca","bdp_trlrn","Wed Mar 15 2023 14:23:18 GMT-0500 (Central Daylight Time)","544071","Trustworthy,Untrustworthy","","","","","","[{""page_index"":0,""viewing_time"":11397},{""page_index"":1,""viewing_time"":13376},{""page_index"":2,""viewing_time"":6603},{""page_index"":3,""viewing_time"":10321},{""page_index"":4,""viewing_time"":7524},{""page_index"":5,""viewing_time"":11441},{""page_index"":6,""viewing_time"":15547},{""page_index"":7,""viewing_time"":3771}]","79981","","","","","","","","","","","","","",""
"html-keyboard-response","127","219693","0.0-9.0","63f3a6b6d4c4d564638f38ca","bdp_trlrn","Wed Mar 15 2023 14:23:18 GMT-0500 (Central Daylight Time)","544071","Trustworthy,Untrustworthy","","","","","","","3585","","<div class='header' style='text-align:left; position: absolute; top: 5%; left: 5%;'><small>Task 2 of 5</small></div><div class='instruxDiv'><p><strong>1) What is the minimum number of points you can choose to send to your partner?</strong></p><p>a) 0</p><p>b) 1</p><p>c) 5</p>","A","","","","","","","","","","",""
"html-keyboard-response","128","224980","0.0-10.0","63f3a6b6d4c4d564638f38ca","bdp_trlrn","Wed Mar 15 2023 14:23:18 GMT-0500 (Central Daylight Time)","544071","Trustworthy,Untrustworthy","","","","","","","5178","","<div class='header' style='text-align:left; position: absolute; top: 5%; left: 5%;'><small>Task 2 of 5</small></div><div class='instruxDiv'><p><strong>1) What is the minimum number of points you can choose to send to your partner?</strong></p><p style='color:#FF0000'>a) 0</p><p>b) 1</p><p>c) 5</p><h3 style='color:#FF0000'>Incorrect!</h3><h3 class='center-content'>The correct response is b).</h3><h3 class='center-content'>The minimum number of points you can choose to send to your partner is 1 point.</h3><p><em>Press SPACEBAR to continue</em></p></div>"," ","","","","","","","","","","",""
"html-keyboard-response","129","233065","0.0-11.0","63f3a6b6d4c4d564638f38ca","bdp_trlrn","Wed Mar 15 2023 14:23:18 GMT-0500 (Central Daylight Time)","544071","Trustworthy,Untrustworthy","","","","","","","7982","","<div class='header' style='text-align:left; position: absolute; top: 5%; left: 5%;'><small>Task 2 of 5</small></div><div class='instruxDiv'><p><strong>2) What is the maximum number of points you can choose to send to your partner?</strong></p><p>a) 8</p><p>b) 5</p><p>c) 3</p>","A","","","","","","","","","","",""
"html-keyboard-response","130","235304","0.0-12.0","63f3a6b6d4c4d564638f38ca","bdp_trlrn","Wed Mar 15 2023 14:23:18 GMT-0500 (Central Daylight Time)","544071","Trustworthy,Untrustworthy","","","","","","","2121","","<div class='header' style='text-align:left; position: absolute; top: 5%; left: 5%;'><small>Task 2 of 5</small></div><div class='instruxDiv'><p><strong>2) What is the maximum number of points you can choose to send to your partner?</strong></p><p style='color:#FF0000'>a) 8</p><p>b) 5</p><p>c) 3</p><h3 style='color:#FF0000'>Incorrect!</h3><h3 class='center-content'>The correct response is b).</h3><h3 class='center-content'>The maximum number of points you can choose to send to your partner is 5 points.</h3><p><em>Press SPACEBAR to continue</em></p></div>"," ","","","","","","","","","","",""
"html-keyboard-response","131","238107","0.0-13.0","63f3a6b6d4c4d564638f38ca","bdp_trlrn","Wed Mar 15 2023 14:23:18 GMT-0500 (Central Daylight Time)","544071","Trustworthy,Untrustworthy","","","","","","","2688","","<div class='header' style='text-align:left; position: absolute; top: 5%; left: 5%;'><small>Task 2 of 5</small></div><div class='instruxDiv'><p><strong>3) What happens to the amount of points you send to your partner?</strong></p><p>a) Nothing</p><p>b) It doubles</p><p>c) It quadruples</p>","C","","","","","","","","","","",""
"html-keyboard-response","132","239653","0.0-14.0","63f3a6b6d4c4d564638f38ca","bdp_trlrn","Wed Mar 15 2023 14:23:18 GMT-0500 (Central Daylight Time)","544071","Trustworthy,Untrustworthy","","","","","","","1433","","<div class='header' style='text-align:left; position: absolute; top: 5%; left: 5%;'><small>Task 2 of 5</small></div><div class='instruxDiv'><p><strong>3) What happens to the amount of points you send to your partner?</strong></p><p>a) Nothing</p><p>b) It doubles</p><p style='color:#00FF00'>c) It quadruples</p><h3 style='color:#00FF00'>Correct!</h3><h3 class='center-content'>The correct response is c).</h3><h3 class='center-content'>The amount of points you send to your partner quadruples.</h3><p><em>Press SPACEBAR to continue</em></p></div>"," ","","","","","","","","","","",""
"html-keyboard-response","133","252830","0.0-15.0","63f3a6b6d4c4d564638f38ca","bdp_trlrn","Wed Mar 15 2023 14:23:18 GMT-0500 (Central Daylight Time)","544071","Trustworthy,Untrustworthy","","","","","","","13063","","<div class='header' style='text-align:left; position: absolute; top: 5%; left: 5%;'><small>Task 2 of 5</small></div><div class='instruxDiv'><p><strong>4) If you decided to share 4 out of 5 points with your partner, and they decided to share half of the amount they received with you, how many points would you receive back from them on this round?</strong></p><p>a) 16</p><p>b) 0</p><p>c) 8</p>","C","","","","","","","","","","",""
"html-keyboard-response","134","254195","0.0-16.0","63f3a6b6d4c4d564638f38ca","bdp_trlrn","Wed Mar 15 2023 14:23:18 GMT-0500 (Central Daylight Time)","544071","Trustworthy,Untrustworthy","","","","","","","1259","","<div class='header' style='text-align:left; position: absolute; top: 5%; left: 5%;'><small>Task 2 of 5</small></div><div class='instruxDiv'><p><strong>4) If you decided to share 4 out of 5 points with your partner, and they decided to share half of the amount they received with you, how many points would you receive back from them on this round?</strong></p><p>a) 16</p><p>b) 0</p><p style='color:#00FF00'>c) 8</p><h3 style='color:#00FF00'>Correct!</h3><h3 class='center-content'>The correct response is c).</h3><h3 class='center-content'>If you shared 4 out of 5 points with your partner and they decided to share half of the amount they received with you, you would receive 8 points back (i.e. (4 x 4)/2 = 8).</h3><p><em>Press SPACEBAR to continue</em></p></div>"," ","","","","","","","","","","",""
"html-keyboard-response","135","259303","0.0-17.0","63f3a6b6d4c4d564638f38ca","bdp_trlrn","Wed Mar 15 2023 14:23:18 GMT-0500 (Central Daylight Time)","544071","Trustworthy,Untrustworthy","","","","","","","null","","<div class='header' style='text-align:left; position: absolute; top: 5%; left: 5%;'><small>Task 2 of 5</small></div><div class='instruxDiv'><p>Thank you for completing the quiz<p>These are the actual partners you will be interacting with in the next block:<p><div class='tc' align='center'><img class='introPic' src='trustrating_stim/white_mw063.bmp'><br><strong>Jason</strong></div><div class='bl' align='center'><img class='introPic' src='trustrating_stim/white_mw071.bmp'><br><strong>Michael</strong></div><div class='br' align='center'><img class='introPic' src='trustrating_stim/white_00761_941201_fb_edt.bmp'><br><strong>Joseph</strong></div></div><p>Across <strong>66 rounds</strong> you will interact with each partner <strong>22 times</strong> (in random order).<p style='align:center; color:white'><font <em>Press SPACEBAR to continue</em></p>","null","","","","","","","","","","",""
"instructions","136","266089","0.0-18.0","63f3a6b6d4c4d564638f38ca","bdp_trlrn","Wed Mar 15 2023 14:23:18 GMT-0500 (Central Daylight Time)","544071","Trustworthy,Untrustworthy","","","","","","[{""page_index"":0,""viewing_time"":2685},{""page_index"":1,""viewing_time"":4100}]","6785","","","","","","","","","","","","","",""
"html-keyboard-response","137","267814","0.0-19.0-1.0","63f3a6b6d4c4d564638f38ca","bdp_trlrn","Wed Mar 15 2023 14:23:18 GMT-0500 (Central Daylight Time)","544071","Trustworthy,Untrustworthy","","","","decision","","","1612","","<div class='trialDiv'><img src='trustrating_stim/white_00761_941201_fb_edt.bmp'><br><font class='baseline'><strong>Joseph</strong><p>Choose number of points to send.</font><div class='respPicDiv'><img src='img/responseButtonOffersNo0L.png' class='respPic'></div></div>","5","1","Joseph","11","Shared","0.2,0.65","10","0.2","trustrating_stim/white_00761_941201_fb_edt.bmp","6.5","5","1"
"html-keyboard-response","138","268076","0.0-19.0-2.0","63f3a6b6d4c4d564638f38ca","bdp_trlrn","Wed Mar 15 2023 14:23:18 GMT-0500 (Central Daylight Time)","544071","Trustworthy,Untrustworthy","","","","decisionFB","","","null","","<div class='trialDiv'><img src='trustrating_stim/white_00761_941201_fb_edt.bmp'><br><font class='baseline'><strong>Joseph</strong><p>Choose number of points to send.</font><div class='respPicDiv'><img src='img/responseButtonOffersNo0L5.png' class='respPic'></div></div>","null","1","Joseph","11","Shared","0.2,0.65","10","0.2","trustrating_stim/white_00761_941201_fb_edt.bmp","6.5","0","1"
"html-keyboard-response","139","269084","0.0-19.0-3.0","63f3a6b6d4c4d564638f38ca","bdp_trlrn","Wed Mar 15 2023 14:23:18 GMT-0500 (Central Daylight Time)","544071","Trustworthy,Untrustworthy","","","","feedback","","","null","","<div class='trialDiv'><img src='trustrating_stim/white_00761_941201_fb_edt.bmp'><br><font class='baseline'><strong>Joseph</strong><p>Received: <strong>20</strong></font> &nbsp; &nbsp; &nbsp; &nbsp; &nbsp; &nbsp;<font class='posOutcome'>Shared back: <strong>10</strong></font></font><div class='respPicDiv'><img src='img/responseButtonOffersNo0_wht.png' class='respPic'></div></div>","null","1","Joseph","11","Shared","0.2,0.65","10","0.2","trustrating_stim/white_00761_941201_fb_edt.bmp","6.5","10","1"
"html-keyboard-response","140","269739","0.0-19.0-1.1","63f3a6b6d4c4d564638f38ca","bdp_trlrn","Wed Mar 15 2023 14:23:18 GMT-0500 (Central Daylight Time)","544071","Trustworthy,Untrustworthy","","","","decision","","","653","","<div class='trialDiv'><img src='trustrating_stim/white_mw063.bmp'><br><font class='baseline'><strong>Jason</strong><p>Choose number of points to send.</font><div class='respPicDiv'><img src='img/responseButtonOffersNo0L.png' class='respPic'></div></div>","5","1","Jason","2","Shared","0.8,0.2","12","0.8","trustrating_stim/white_mw063.bmp","3.5","15","2"
"html-keyboard-response","141","269991","0.0-19.0-2.1","63f3a6b6d4c4d564638f38ca","bdp_trlrn","Wed Mar 15 2023 14:23:18 GMT-0500 (Central Daylight Time)","544071","Trustworthy,Untrustworthy","","","","decisionFB","","","null","","<div class='trialDiv'><img src='trustrating_stim/white_mw063.bmp'><br><font class='baseline'><strong>Jason</strong><p>Choose number of points to send.</font><div class='respPicDiv'><img src='img/responseButtonOffersNo0L5.png' class='respPic'></div></div>","null","1","Jason","2","Shared","0.8,0.2","12","0.8","trustrating_stim/white_mw063.bmp","3.5","10","2"
"html-keyboard-response","142","271004","0.0-19.0-3.1","63f3a6b6d4c4d564638f38ca","bdp_trlrn","Wed Mar 15 2023 14:23:18 GMT-0500 (Central Daylight Time)","544071","Trustworthy,Untrustworthy","","","","feedback","","","null","","<div class='trialDiv'><img src='trustrating_stim/white_mw063.bmp'><br><font class='baseline'><strong>Jason</strong><p>Received: <strong>20</strong></font> &nbsp; &nbsp; &nbsp; &nbsp; &nbsp; &nbsp;<font class='posOutcome'>Shared back: <strong>10</strong></font></font><div class='respPicDiv'><img src='img/responseButtonOffersNo0_wht.png' class='respPic'></div></div>","null","1","Jason","2","Shared","0.8,0.2","12","0.8","trustrating_stim/white_mw063.bmp","3.5","20","2"
"html-keyboard-response","143","271452","0.0-19.0-1.2","63f3a6b6d4c4d564638f38ca","bdp_trlrn","Wed Mar 15 2023 14:23:18 GMT-0500 (Central Daylight Time)","544071","Trustworthy,Untrustworthy","","","","decision","","","447","","<div class='trialDiv'><img src='trustrating_stim/white_mw071.bmp'><br><font class='baseline'><strong>Michael</strong><p>Choose number of points to send.</font><div class='respPicDiv'><img src='img/responseButtonOffersNo0L.png' class='respPic'></div></div>","5","1","Michael","5","Shared","0.65,0.2","14","0.65","trustrating_stim/white_mw071.bmp","5","25","3"
"html-keyboard-response","144","271710","0.0-19.0-2.2","63f3a6b6d4c4d564638f38ca","bdp_trlrn","Wed Mar 15 2023 14:23:18 GMT-0500 (Central Daylight Time)","544071","Trustworthy,Untrustworthy","","","","decisionFB","","","null","","<div class='trialDiv'><img src='trustrating_stim/white_mw071.bmp'><br><font class='baseline'><strong>Michael</strong><p>Choose number of points to send.</font><div class='respPicDiv'><img src='img/responseButtonOffersNo0L5.png' class='respPic'></div></div>","null","1","Michael","5","Shared","0.65,0.2","14","0.65","trustrating_stim/white_mw071.bmp","5","20","3"
"html-keyboard-response","145","272719","0.0-19.0-3.2","63f3a6b6d4c4d564638f38ca","bdp_trlrn","Wed Mar 15 2023 14:23:18 GMT-0500 (Central Daylight Time)","544071","Trustworthy,Untrustworthy","","","","feedback","","","null","","<div class='trialDiv'><img src='trustrating_stim/white_mw071.bmp'><br><font class='baseline'><strong>Michael</strong><p>Received: <strong>20</strong></font> &nbsp; &nbsp; &nbsp; &nbsp; &nbsp; &nbsp;<font class='posOutcome'>Shared back: <strong>10</strong></font></font><div class='respPicDiv'><img src='img/responseButtonOffersNo0_wht.png' class='respPic'></div></div>","null","1","Michael","5","Shared","0.65,0.2","14","0.65","trustrating_stim/white_mw071.bmp","5","30","3"
"html-keyboard-response","146","273173","0.0-19.0-1.3","63f3a6b6d4c4d564638f38ca","bdp_trlrn","Wed Mar 15 2023 14:23:18 GMT-0500 (Central Daylight Time)","544071","Trustworthy,Untrustworthy","","","","decision","","","452","","<div class='trialDiv'><img src='trustrating_stim/white_mw063.bmp'><br><font class='baseline'><strong>Jason</strong><p>Choose number of points to send.</font><div class='respPicDiv'><img src='img/responseButtonOffersNo0L.png' class='respPic'></div></div>","5","2","Jason","2","Shared","0.8,0.2","12","0.8","trustrating_stim/white_mw063.bmp","3.5","35","4"
"html-keyboard-response","147","273424","0.0-19.0-2.3","63f3a6b6d4c4d564638f38ca","bdp_trlrn","Wed Mar 15 2023 14:23:18 GMT-0500 (Central Daylight Time)","544071","Trustworthy,Untrustworthy","","","","decisionFB","","","null","","<div class='trialDiv'><img src='trustrating_stim/white_mw063.bmp'><br><font class='baseline'><strong>Jason</strong><p>Choose number of points to send.</font><div class='respPicDiv'><img src='img/responseButtonOffersNo0L5.png' class='respPic'></div></div>","null","2","Jason","2","Shared","0.8,0.2","12","0.8","trustrating_stim/white_mw063.bmp","3.5","30","4"
"html-keyboard-response","148","274430","0.0-19.0-3.3","63f3a6b6d4c4d564638f38ca","bdp_trlrn","Wed Mar 15 2023 14:23:18 GMT-0500 (Central Daylight Time)","544071","Trustworthy,Untrustworthy","","","","feedback","","","null","","<div class='trialDiv'><img src='trustrating_stim/white_mw063.bmp'><br><font class='baseline'><strong>Jason</strong><p>Received: <strong>20</strong></font> &nbsp; &nbsp; &nbsp; &nbsp; &nbsp; &nbsp;<font class='posOutcome'>Shared back: <strong>10</strong></font></font><div class='respPicDiv'><img src='img/responseButtonOffersNo0_wht.png' class='respPic'></div></div>","null","2","Jason","2","Shared","0.8,0.2","12","0.8","trustrating_stim/white_mw063.bmp","3.5","40","4"
"html-keyboard-response","149","274778","0.0-19.0-1.4","63f3a6b6d4c4d564638f38ca","bdp_trlrn","Wed Mar 15 2023 14:23:18 GMT-0500 (Central Daylight Time)","544071","Trustworthy,Untrustworthy","","","","decision","","","346","","<div class='trialDiv'><img src='trustrating_stim/white_mw071.bmp'><br><font class='baseline'><strong>Michael</strong><p>Choose number of points to send.</font><div class='respPicDiv'><img src='img/responseButtonOffersNo0L.png' class='respPic'></div></div>","5","2","Michael","5","Shared","0.65,0.2","14","0.65","trustrating_stim/white_mw071.bmp","5","45","5"
"html-keyboard-response","150","275039","0.0-19.0-2.4","63f3a6b6d4c4d564638f38ca","bdp_trlrn","Wed Mar 15 2023 14:23:18 GMT-0500 (Central Daylight Time)","544071","Trustworthy,Untrustworthy","","","","decisionFB","","","null","","<div class='trialDiv'><img src='trustrating_stim/white_mw071.bmp'><br><font class='baseline'><strong>Michael</strong><p>Choose number of points to send.</font><div class='respPicDiv'><img src='img/responseButtonOffersNo0L5.png' class='respPic'></div></div>","null","2","Michael","5","Shared","0.65,0.2","14","0.65","trustrating_stim/white_mw071.bmp","5","40","5"
"html-keyboard-response","151","276051","0.0-19.0-3.4","63f3a6b6d4c4d564638f38ca","bdp_trlrn","Wed Mar 15 2023 14:23:18 GMT-0500 (Central Daylight Time)","544071","Trustworthy,Untrustworthy","","","","feedback","","","null","","<div class='trialDiv'><img src='trustrating_stim/white_mw071.bmp'><br><font class='baseline'><strong>Michael</strong><p>Received: <strong>20</strong></font> &nbsp; &nbsp; &nbsp; &nbsp; &nbsp; &nbsp;<font class='posOutcome'>Shared back: <strong>10</strong></font></font><div class='respPicDiv'><img src='img/responseButtonOffersNo0_wht.png' class='respPic'></div></div>","null","2","Michael","5","Shared","0.65,0.2","14","0.65","trustrating_stim/white_mw071.bmp","5","50","5"
"html-keyboard-response","152","276352","0.0-19.0-1.5","63f3a6b6d4c4d564638f38ca","bdp_trlrn","Wed Mar 15 2023 14:23:18 GMT-0500 (Central Daylight Time)","544071","Trustworthy,Untrustworthy","","","","decision","","","300","","<div class='trialDiv'><img src='trustrating_stim/white_00761_941201_fb_edt.bmp'><br><font class='baseline'><strong>Joseph</strong><p>Choose number of points to send.</font><div class='respPicDiv'><img src='img/responseButtonOffersNo0L.png' class='respPic'></div></div>","5","2","Joseph","11","Kept","0.2,0.65","10","0.2","trustrating_stim/white_00761_941201_fb_edt.bmp","6.5","55","6"
"html-keyboard-response","153","276610","0.0-19.0-2.5","63f3a6b6d4c4d564638f38ca","bdp_trlrn","Wed Mar 15 2023 14:23:18 GMT-0500 (Central Daylight Time)","544071","Trustworthy,Untrustworthy","","","","decisionFB","","","null","","<div class='trialDiv'><img src='trustrating_stim/white_00761_941201_fb_edt.bmp'><br><font class='baseline'><strong>Joseph</strong><p>Choose number of points to send.</font><div class='respPicDiv'><img src='img/responseButtonOffersNo0L5.png' class='respPic'></div></div>","null","2","Joseph","11","Kept","0.2,0.65","10","0.2","trustrating_stim/white_00761_941201_fb_edt.bmp","6.5","50","6"
"html-keyboard-response","154","277624","0.0-19.0-3.5","63f3a6b6d4c4d564638f38ca","bdp_trlrn","Wed Mar 15 2023 14:23:18 GMT-0500 (Central Daylight Time)","544071","Trustworthy,Untrustworthy","","","","feedback","","","null","","<div class='trialDiv'><img src='trustrating_stim/white_00761_941201_fb_edt.bmp'><br><font class='baseline'><strong>Joseph</strong><p>Received: <strong>20</strong></font> &nbsp; &nbsp; &nbsp; &nbsp; &nbsp; &nbsp;<font class='negOutcome'>Shared back: <strong>0</strong></font></font><div class='respPicDiv'><img src='img/responseButtonOffersNo0_wht.png' class='respPic'></div></div>","null","2","Joseph","11","Kept","0.2,0.65","10","0.2","trustrating_stim/white_00761_941201_fb_edt.bmp","6.5","50","6"
"html-keyboard-response","155","278212","0.0-19.0-1.6","63f3a6b6d4c4d564638f38ca","bdp_trlrn","Wed Mar 15 2023 14:23:18 GMT-0500 (Central Daylight Time)","544071","Trustworthy,Untrustworthy","","","","decision","","","586","","<div class='trialDiv'><img src='trustrating_stim/white_mw071.bmp'><br><font class='baseline'><strong>Michael</strong><p>Choose number of points to send.</font><div class='respPicDiv'><img src='img/responseButtonOffersNo0L.png' class='respPic'></div></div>","5","3","Michael","5","Shared","0.65,0.2","14","0.65","trustrating_stim/white_mw071.bmp","5","55","7"
"html-keyboard-response","156","278477","0.0-19.0-2.6","63f3a6b6d4c4d564638f38ca","bdp_trlrn","Wed Mar 15 2023 14:23:18 GMT-0500 (Central Daylight Time)","544071","Trustworthy,Untrustworthy","","","","decisionFB","","","null","","<div class='trialDiv'><img src='trustrating_stim/white_mw071.bmp'><br><font class='baseline'><strong>Michael</strong><p>Choose number of points to send.</font><div class='respPicDiv'><img src='img/responseButtonOffersNo0L5.png' class='respPic'></div></div>","null","3","Michael","5","Shared","0.65,0.2","14","0.65","trustrating_stim/white_mw071.bmp","5","50","7"
"html-keyboard-response","157","279494","0.0-19.0-3.6","63f3a6b6d4c4d564638f38ca","bdp_trlrn","Wed Mar 15 2023 14:23:18 GMT-0500 (Central Daylight Time)","544071","Trustworthy,Untrustworthy","","","","feedback","","","null","","<div class='trialDiv'><img src='trustrating_stim/white_mw071.bmp'><br><font class='baseline'><strong>Michael</strong><p>Received: <strong>20</strong></font> &nbsp; &nbsp; &nbsp; &nbsp; &nbsp; &nbsp;<font class='posOutcome'>Shared back: <strong>10</strong></font></font><div class='respPicDiv'><img src='img/responseButtonOffersNo0_wht.png' class='respPic'></div></div>","null","3","Michael","5","Shared","0.65,0.2","14","0.65","trustrating_stim/white_mw071.bmp","5","60","7"
"html-keyboard-response","158","279949","0.0-19.0-1.7","63f3a6b6d4c4d564638f38ca","bdp_trlrn","Wed Mar 15 2023 14:23:18 GMT-0500 (Central Daylight Time)","544071","Trustworthy,Untrustworthy","","","","decision","","","453","","<div class='trialDiv'><img src='trustrating_stim/white_00761_941201_fb_edt.bmp'><br><font class='baseline'><strong>Joseph</strong><p>Choose number of points to send.</font><div class='respPicDiv'><img src='img/responseButtonOffersNo0L.png' class='respPic'></div></div>","5","3","Joseph","11","Kept","0.2,0.65","10","0.2","trustrating_stim/white_00761_941201_fb_edt.bmp","6.5","65","8"
"html-keyboard-response","159","280207","0.0-19.0-2.7","63f3a6b6d4c4d564638f38ca","bdp_trlrn","Wed Mar 15 2023 14:23:18 GMT-0500 (Central Daylight Time)","544071","Trustworthy,Untrustworthy","","","","decisionFB","","","null","","<div class='trialDiv'><img src='trustrating_stim/white_00761_941201_fb_edt.bmp'><br><font class='baseline'><strong>Joseph</strong><p>Choose number of points to send.</font><div class='respPicDiv'><img src='img/responseButtonOffersNo0L5.png' class='respPic'></div></div>","null","3","Joseph","11","Kept","0.2,0.65","10","0.2","trustrating_stim/white_00761_941201_fb_edt.bmp","6.5","60","8"
"html-keyboard-response","160","281222","0.0-19.0-3.7","63f3a6b6d4c4d564638f38ca","bdp_trlrn","Wed Mar 15 2023 14:23:18 GMT-0500 (Central Daylight Time)","544071","Trustworthy,Untrustworthy","","","","feedback","","","null","","<div class='trialDiv'><img src='trustrating_stim/white_00761_941201_fb_edt.bmp'><br><font class='baseline'><strong>Joseph</strong><p>Received: <strong>20</strong></font> &nbsp; &nbsp; &nbsp; &nbsp; &nbsp; &nbsp;<font class='negOutcome'>Shared back: <strong>0</strong></font></font><div class='respPicDiv'><img src='img/responseButtonOffersNo0_wht.png' class='respPic'></div></div>","null","3","Joseph","11","Kept","0.2,0.65","10","0.2","trustrating_stim/white_00761_941201_fb_edt.bmp","6.5","60","8"
"html-keyboard-response","161","281868","0.0-19.0-1.8","63f3a6b6d4c4d564638f38ca","bdp_trlrn","Wed Mar 15 2023 14:23:18 GMT-0500 (Central Daylight Time)","544071","Trustworthy,Untrustworthy","","","","decision","","","644","","<div class='trialDiv'><img src='trustrating_stim/white_mw063.bmp'><br><font class='baseline'><strong>Jason</strong><p>Choose number of points to send.</font><div class='respPicDiv'><img src='img/responseButtonOffersNo0L.png' class='respPic'></div></div>","5","3","Jason","2","Shared","0.8,0.2","12","0.8","trustrating_stim/white_mw063.bmp","3.5","65","9"
"html-keyboard-response","162","282126","0.0-19.0-2.8","63f3a6b6d4c4d564638f38ca","bdp_trlrn","Wed Mar 15 2023 14:23:18 GMT-0500 (Central Daylight Time)","544071","Trustworthy,Untrustworthy","","","","decisionFB","","","null","","<div class='trialDiv'><img src='trustrating_stim/white_mw063.bmp'><br><font class='baseline'><strong>Jason</strong><p>Choose number of points to send.</font><div class='respPicDiv'><img src='img/responseButtonOffersNo0L5.png' class='respPic'></div></div>","null","3","Jason","2","Shared","0.8,0.2","12","0.8","trustrating_stim/white_mw063.bmp","3.5","60","9"
"html-keyboard-response","163","283129","0.0-19.0-3.8","63f3a6b6d4c4d564638f38ca","bdp_trlrn","Wed Mar 15 2023 14:23:18 GMT-0500 (Central Daylight Time)","544071","Trustworthy,Untrustworthy","","","","feedback","","","null","","<div class='trialDiv'><img src='trustrating_stim/white_mw063.bmp'><br><font class='baseline'><strong>Jason</strong><p>Received: <strong>20</strong></font> &nbsp; &nbsp; &nbsp; &nbsp; &nbsp; &nbsp;<font class='posOutcome'>Shared back: <strong>10</strong></font></font><div class='respPicDiv'><img src='img/responseButtonOffersNo0_wht.png' class='respPic'></div></div>","null","3","Jason","2","Shared","0.8,0.2","12","0.8","trustrating_stim/white_mw063.bmp","3.5","70","9"
"html-keyboard-response","164","284034","0.0-19.0-1.9","63f3a6b6d4c4d564638f38ca","bdp_trlrn","Wed Mar 15 2023 14:23:18 GMT-0500 (Central Daylight Time)","544071","Trustworthy,Untrustworthy","","","","decision","","","903","","<div class='trialDiv'><img src='trustrating_stim/white_mw071.bmp'><br><font class='baseline'><strong>Michael</strong><p>Choose number of points to send.</font><div class='respPicDiv'><img src='img/responseButtonOffersNo0L.png' class='respPic'></div></div>","5","4","Michael","5","Shared","0.65,0.2","14","0.65","trustrating_stim/white_mw071.bmp","5","75","10"
"html-keyboard-response","165","284298","0.0-19.0-2.9","63f3a6b6d4c4d564638f38ca","bdp_trlrn","Wed Mar 15 2023 14:23:18 GMT-0500 (Central Daylight Time)","544071","Trustworthy,Untrustworthy","","","","decisionFB","","","null","","<div class='trialDiv'><img src='trustrating_stim/white_mw071.bmp'><br><font class='baseline'><strong>Michael</strong><p>Choose number of points to send.</font><div class='respPicDiv'><img src='img/responseButtonOffersNo0L5.png' class='respPic'></div></div>","null","4","Michael","5","Shared","0.65,0.2","14","0.65","trustrating_stim/white_mw071.bmp","5","70","10"
"html-keyboard-response","166","285313","0.0-19.0-3.9","63f3a6b6d4c4d564638f38ca","bdp_trlrn","Wed Mar 15 2023 14:23:18 GMT-0500 (Central Daylight Time)","544071","Trustworthy,Untrustworthy","","","","feedback","","","null","","<div class='trialDiv'><img src='trustrating_stim/white_mw071.bmp'><br><font class='baseline'><strong>Michael</strong><p>Received: <strong>20</strong></font> &nbsp; &nbsp; &nbsp; &nbsp; &nbsp; &nbsp;<font class='posOutcome'>Shared back: <strong>10</strong></font></font><div class='respPicDiv'><img src='img/responseButtonOffersNo0_wht.png' class='respPic'></div></div>","null","4","Michael","5","Shared","0.65,0.2","14","0.65","trustrating_stim/white_mw071.bmp","5","80","10"
"html-keyboard-response","167","286170","0.0-19.0-1.10","63f3a6b6d4c4d564638f38ca","bdp_trlrn","Wed Mar 15 2023 14:23:18 GMT-0500 (Central Daylight Time)","544071","Trustworthy,Untrustworthy","","","","decision","","","856","","<div class='trialDiv'><img src='trustrating_stim/white_00761_941201_fb_edt.bmp'><br><font class='baseline'><strong>Joseph</strong><p>Choose number of points to send.</font><div class='respPicDiv'><img src='img/responseButtonOffersNo0L.png' class='respPic'></div></div>","5","4","Joseph","11","Kept","0.2,0.65","10","0.2","trustrating_stim/white_00761_941201_fb_edt.bmp","6.5","85","11"
"html-keyboard-response","168","286429","0.0-19.0-2.10","63f3a6b6d4c4d564638f38ca","bdp_trlrn","Wed Mar 15 2023 14:23:18 GMT-0500 (Central Daylight Time)","544071","Trustworthy,Untrustworthy","","","","decisionFB","","","null","","<div class='trialDiv'><img src='trustrating_stim/white_00761_941201_fb_edt.bmp'><br><font class='baseline'><strong>Joseph</strong><p>Choose number of points to send.</font><div class='respPicDiv'><img src='img/responseButtonOffersNo0L5.png' class='respPic'></div></div>","null","4","Joseph","11","Kept","0.2,0.65","10","0.2","trustrating_stim/white_00761_941201_fb_edt.bmp","6.5","80","11"
"html-keyboard-response","169","287445","0.0-19.0-3.10","63f3a6b6d4c4d564638f38ca","bdp_trlrn","Wed Mar 15 2023 14:23:18 GMT-0500 (Central Daylight Time)","544071","Trustworthy,Untrustworthy","","","","feedback","","","null","","<div class='trialDiv'><img src='trustrating_stim/white_00761_941201_fb_edt.bmp'><br><font class='baseline'><strong>Joseph</strong><p>Received: <strong>20</strong></font> &nbsp; &nbsp; &nbsp; &nbsp; &nbsp; &nbsp;<font class='negOutcome'>Shared back: <strong>0</strong></font></font><div class='respPicDiv'><img src='img/responseButtonOffersNo0_wht.png' class='respPic'></div></div>","null","4","Joseph","11","Kept","0.2,0.65","10","0.2","trustrating_stim/white_00761_941201_fb_edt.bmp","6.5","80","11"
"html-keyboard-response","170","287742","0.0-19.0-1.11","63f3a6b6d4c4d564638f38ca","bdp_trlrn","Wed Mar 15 2023 14:23:18 GMT-0500 (Central Daylight Time)","544071","Trustworthy,Untrustworthy","","","","decision","","","296","","<div class='trialDiv'><img src='trustrating_stim/white_mw063.bmp'><br><font class='baseline'><strong>Jason</strong><p>Choose number of points to send.</font><div class='respPicDiv'><img src='img/responseButtonOffersNo0L.png' class='respPic'></div></div>","5","4","Jason","2","Shared","0.8,0.2","12","0.8","trustrating_stim/white_mw063.bmp","3.5","85","12"
"html-keyboard-response","171","288006","0.0-19.0-2.11","63f3a6b6d4c4d564638f38ca","bdp_trlrn","Wed Mar 15 2023 14:23:18 GMT-0500 (Central Daylight Time)","544071","Trustworthy,Untrustworthy","","","","decisionFB","","","null","","<div class='trialDiv'><img src='trustrating_stim/white_mw063.bmp'><br><font class='baseline'><strong>Jason</strong><p>Choose number of points to send.</font><div class='respPicDiv'><img src='img/responseButtonOffersNo0L5.png' class='respPic'></div></div>","null","4","Jason","2","Shared","0.8,0.2","12","0.8","trustrating_stim/white_mw063.bmp","3.5","80","12"
"html-keyboard-response","172","289016","0.0-19.0-3.11","63f3a6b6d4c4d564638f38ca","bdp_trlrn","Wed Mar 15 2023 14:23:18 GMT-0500 (Central Daylight Time)","544071","Trustworthy,Untrustworthy","","","","feedback","","","null","","<div class='trialDiv'><img src='trustrating_stim/white_mw063.bmp'><br><font class='baseline'><strong>Jason</strong><p>Received: <strong>20</strong></font> &nbsp; &nbsp; &nbsp; &nbsp; &nbsp; &nbsp;<font class='posOutcome'>Shared back: <strong>10</strong></font></font><div class='respPicDiv'><img src='img/responseButtonOffersNo0_wht.png' class='respPic'></div></div>","null","4","Jason","2","Shared","0.8,0.2","12","0.8","trustrating_stim/white_mw063.bmp","3.5","90","12"
"html-keyboard-response","173","289706","0.0-19.0-1.12","63f3a6b6d4c4d564638f38ca","bdp_trlrn","Wed Mar 15 2023 14:23:18 GMT-0500 (Central Daylight Time)","544071","Trustworthy,Untrustworthy","","","","decision","","","688","","<div class='trialDiv'><img src='trustrating_stim/white_00761_941201_fb_edt.bmp'><br><font class='baseline'><strong>Joseph</strong><p>Choose number of points to send.</font><div class='respPicDiv'><img src='img/responseButtonOffersNo0L.png' class='respPic'></div></div>","5","5","Joseph","11","Kept","0.2,0.65","10","0.2","trustrating_stim/white_00761_941201_fb_edt.bmp","6.5","95","13"
"html-keyboard-response","174","289959","0.0-19.0-2.12","63f3a6b6d4c4d564638f38ca","bdp_trlrn","Wed Mar 15 2023 14:23:18 GMT-0500 (Central Daylight Time)","544071","Trustworthy,Untrustworthy","","","","decisionFB","","","null","","<div class='trialDiv'><img src='trustrating_stim/white_00761_941201_fb_edt.bmp'><br><font class='baseline'><strong>Joseph</strong><p>Choose number of points to send.</font><div class='respPicDiv'><img src='img/responseButtonOffersNo0L5.png' class='respPic'></div></div>","null","5","Joseph","11","Kept","0.2,0.65","10","0.2","trustrating_stim/white_00761_941201_fb_edt.bmp","6.5","90","13"
"html-keyboard-response","175","290969","0.0-19.0-3.12","63f3a6b6d4c4d564638f38ca","bdp_trlrn","Wed Mar 15 2023 14:23:18 GMT-0500 (Central Daylight Time)","544071","Trustworthy,Untrustworthy","","","","feedback","","","null","","<div class='trialDiv'><img src='trustrating_stim/white_00761_941201_fb_edt.bmp'><br><font class='baseline'><strong>Joseph</strong><p>Received: <strong>20</strong></font> &nbsp; &nbsp; &nbsp; &nbsp; &nbsp; &nbsp;<font class='negOutcome'>Shared back: <strong>0</strong></font></font><div class='respPicDiv'><img src='img/responseButtonOffersNo0_wht.png' class='respPic'></div></div>","null","5","Joseph","11","Kept","0.2,0.65","10","0.2","trustrating_stim/white_00761_941201_fb_edt.bmp","6.5","90","13"
"html-keyboard-response","176","291337","0.0-19.0-1.13","63f3a6b6d4c4d564638f38ca","bdp_trlrn","Wed Mar 15 2023 14:23:18 GMT-0500 (Central Daylight Time)","544071","Trustworthy,Untrustworthy","","","","decision","","","366","","<div class='trialDiv'><img src='trustrating_stim/white_mw063.bmp'><br><font class='baseline'><strong>Jason</strong><p>Choose number of points to send.</font><div class='respPicDiv'><img src='img/responseButtonOffersNo0L.png' class='respPic'></div></div>","5","5","Jason","2","Shared","0.8,0.2","12","0.8","trustrating_stim/white_mw063.bmp","3.5","95","14"
"html-keyboard-response","177","291591","0.0-19.0-2.13","63f3a6b6d4c4d564638f38ca","bdp_trlrn","Wed Mar 15 2023 14:23:18 GMT-0500 (Central Daylight Time)","544071","Trustworthy,Untrustworthy","","","","decisionFB","","","null","","<div class='trialDiv'><img src='trustrating_stim/white_mw063.bmp'><br><font class='baseline'><strong>Jason</strong><p>Choose number of points to send.</font><div class='respPicDiv'><img src='img/responseButtonOffersNo0L5.png' class='respPic'></div></div>","null","5","Jason","2","Shared","0.8,0.2","12","0.8","trustrating_stim/white_mw063.bmp","3.5","90","14"
"html-keyboard-response","178","292604","0.0-19.0-3.13","63f3a6b6d4c4d564638f38ca","bdp_trlrn","Wed Mar 15 2023 14:23:18 GMT-0500 (Central Daylight Time)","544071","Trustworthy,Untrustworthy","","","","feedback","","","null","","<div class='trialDiv'><img src='trustrating_stim/white_mw063.bmp'><br><font class='baseline'><strong>Jason</strong><p>Received: <strong>20</strong></font> &nbsp; &nbsp; &nbsp; &nbsp; &nbsp; &nbsp;<font class='posOutcome'>Shared back: <strong>10</strong></font></font><div class='respPicDiv'><img src='img/responseButtonOffersNo0_wht.png' class='respPic'></div></div>","null","5","Jason","2","Shared","0.8,0.2","12","0.8","trustrating_stim/white_mw063.bmp","3.5","100","14"
"html-keyboard-response","179","293113","0.0-19.0-1.14","63f3a6b6d4c4d564638f38ca","bdp_trlrn","Wed Mar 15 2023 14:23:18 GMT-0500 (Central Daylight Time)","544071","Trustworthy,Untrustworthy","","","","decision","","","508","","<div class='trialDiv'><img src='trustrating_stim/white_mw071.bmp'><br><font class='baseline'><strong>Michael</strong><p>Choose number of points to send.</font><div class='respPicDiv'><img src='img/responseButtonOffersNo0L.png' class='respPic'></div></div>","5","5","Michael","5","Shared","0.65,0.2","14","0.65","trustrating_stim/white_mw071.bmp","5","105","15"
"html-keyboard-response","180","293375","0.0-19.0-2.14","63f3a6b6d4c4d564638f38ca","bdp_trlrn","Wed Mar 15 2023 14:23:18 GMT-0500 (Central Daylight Time)","544071","Trustworthy,Untrustworthy","","","","decisionFB","","","null","","<div class='trialDiv'><img src='trustrating_stim/white_mw071.bmp'><br><font class='baseline'><strong>Michael</strong><p>Choose number of points to send.</font><div class='respPicDiv'><img src='img/responseButtonOffersNo0L5.png' class='respPic'></div></div>","null","5","Michael","5","Shared","0.65,0.2","14","0.65","trustrating_stim/white_mw071.bmp","5","100","15"
"html-keyboard-response","181","294378","0.0-19.0-3.14","63f3a6b6d4c4d564638f38ca","bdp_trlrn","Wed Mar 15 2023 14:23:18 GMT-0500 (Central Daylight Time)","544071","Trustworthy,Untrustworthy","","","","feedback","","","null","","<div class='trialDiv'><img src='trustrating_stim/white_mw071.bmp'><br><font class='baseline'><strong>Michael</strong><p>Received: <strong>20</strong></font> &nbsp; &nbsp; &nbsp; &nbsp; &nbsp; &nbsp;<font class='posOutcome'>Shared back: <strong>10</strong></font></font><div class='respPicDiv'><img src='img/responseButtonOffersNo0_wht.png' class='respPic'></div></div>","null","5","Michael","5","Shared","0.65,0.2","14","0.65","trustrating_stim/white_mw071.bmp","5","110","15"
"html-keyboard-response","182","294981","0.0-19.0-1.15","63f3a6b6d4c4d564638f38ca","bdp_trlrn","Wed Mar 15 2023 14:23:18 GMT-0500 (Central Daylight Time)","544071","Trustworthy,Untrustworthy","","","","decision","","","601","","<div class='trialDiv'><img src='trustrating_stim/white_mw063.bmp'><br><font class='baseline'><strong>Jason</strong><p>Choose number of points to send.</font><div class='respPicDiv'><img src='img/responseButtonOffersNo0L.png' class='respPic'></div></div>","5","6","Jason","2","Shared","0.8,0.2","12","0.8","trustrating_stim/white_mw063.bmp","3.5","115","16"
"html-keyboard-response","183","295240","0.0-19.0-2.15","63f3a6b6d4c4d564638f38ca","bdp_trlrn","Wed Mar 15 2023 14:23:18 GMT-0500 (Central Daylight Time)","544071","Trustworthy,Untrustworthy","","","","decisionFB","","","null","","<div class='trialDiv'><img src='trustrating_stim/white_mw063.bmp'><br><font class='baseline'><strong>Jason</strong><p>Choose number of points to send.</font><div class='respPicDiv'><img src='img/responseButtonOffersNo0L5.png' class='respPic'></div></div>","null","6","Jason","2","Shared","0.8,0.2","12","0.8","trustrating_stim/white_mw063.bmp","3.5","110","16"
"html-keyboard-response","184","296244","0.0-19.0-3.15","63f3a6b6d4c4d564638f38ca","bdp_trlrn","Wed Mar 15 2023 14:23:18 GMT-0500 (Central Daylight Time)","544071","Trustworthy,Untrustworthy","","","","feedback","","","null","","<div class='trialDiv'><img src='trustrating_stim/white_mw063.bmp'><br><font class='baseline'><strong>Jason</strong><p>Received: <strong>20</strong></font> &nbsp; &nbsp; &nbsp; &nbsp; &nbsp; &nbsp;<font class='posOutcome'>Shared back: <strong>10</strong></font></font><div class='respPicDiv'><img src='img/responseButtonOffersNo0_wht.png' class='respPic'></div></div>","null","6","Jason","2","Shared","0.8,0.2","12","0.8","trustrating_stim/white_mw063.bmp","3.5","120","16"
"html-keyboard-response","185","296767","0.0-19.0-1.16","63f3a6b6d4c4d564638f38ca","bdp_trlrn","Wed Mar 15 2023 14:23:18 GMT-0500 (Central Daylight Time)","544071","Trustworthy,Untrustworthy","","","","decision","","","521","","<div class='trialDiv'><img src='trustrating_stim/white_mw071.bmp'><br><font class='baseline'><strong>Michael</strong><p>Choose number of points to send.</font><div class='respPicDiv'><img src='img/responseButtonOffersNo0L.png' class='respPic'></div></div>","5","6","Michael","5","Kept","0.65,0.2","14","0.65","trustrating_stim/white_mw071.bmp","5","125","17"
"html-keyboard-response","186","297023","0.0-19.0-2.16","63f3a6b6d4c4d564638f38ca","bdp_trlrn","Wed Mar 15 2023 14:23:18 GMT-0500 (Central Daylight Time)","544071","Trustworthy,Untrustworthy","","","","decisionFB","","","null","","<div class='trialDiv'><img src='trustrating_stim/white_mw071.bmp'><br><font class='baseline'><strong>Michael</strong><p>Choose number of points to send.</font><div class='respPicDiv'><img src='img/responseButtonOffersNo0L5.png' class='respPic'></div></div>","null","6","Michael","5","Kept","0.65,0.2","14","0.65","trustrating_stim/white_mw071.bmp","5","120","17"
"html-keyboard-response","187","298037","0.0-19.0-3.16","63f3a6b6d4c4d564638f38ca","bdp_trlrn","Wed Mar 15 2023 14:23:18 GMT-0500 (Central Daylight Time)","544071","Trustworthy,Untrustworthy","","","","feedback","","","null","","<div class='trialDiv'><img src='trustrating_stim/white_mw071.bmp'><br><font class='baseline'><strong>Michael</strong><p>Received: <strong>20</strong></font> &nbsp; &nbsp; &nbsp; &nbsp; &nbsp; &nbsp;<font class='negOutcome'>Shared back: <strong>0</strong></font></font><div class='respPicDiv'><img src='img/responseButtonOffersNo0_wht.png' class='respPic'></div></div>","null","6","Michael","5","Kept","0.65,0.2","14","0.65","trustrating_stim/white_mw071.bmp","5","120","17"
"html-keyboard-response","188","299117","0.0-19.0-1.17","63f3a6b6d4c4d564638f38ca","bdp_trlrn","Wed Mar 15 2023 14:23:18 GMT-0500 (Central Daylight Time)","544071","Trustworthy,Untrustworthy","","","","decision","","","1078","","<div class='trialDiv'><img src='trustrating_stim/white_00761_941201_fb_edt.bmp'><br><font class='baseline'><strong>Joseph</strong><p>Choose number of points to send.</font><div class='respPicDiv'><img src='img/responseButtonOffersNo0L.png' class='respPic'></div></div>","1","6","Joseph","11","Shared","0.2,0.65","10","0.2","trustrating_stim/white_00761_941201_fb_edt.bmp","6.5","125","18"
"html-keyboard-response","189","299384","0.0-19.0-2.17","63f3a6b6d4c4d564638f38ca","bdp_trlrn","Wed Mar 15 2023 14:23:18 GMT-0500 (Central Daylight Time)","544071","Trustworthy,Untrustworthy","","","","decisionFB","","","null","","<div class='trialDiv'><img src='trustrating_stim/white_00761_941201_fb_edt.bmp'><br><font class='baseline'><strong>Joseph</strong><p>Choose number of points to send.</font><div class='respPicDiv'><img src='img/responseButtonOffersNo0L1.png' class='respPic'></div></div>","null","6","Joseph","11","Shared","0.2,0.65","10","0.2","trustrating_stim/white_00761_941201_fb_edt.bmp","6.5","124","18"
"html-keyboard-response","190","300389","0.0-19.0-3.17","63f3a6b6d4c4d564638f38ca","bdp_trlrn","Wed Mar 15 2023 14:23:18 GMT-0500 (Central Daylight Time)","544071","Trustworthy,Untrustworthy","","","","feedback","","","null","","<div class='trialDiv'><img src='trustrating_stim/white_00761_941201_fb_edt.bmp'><br><font class='baseline'><strong>Joseph</strong><p>Received: <strong>4</strong></font> &nbsp; &nbsp; &nbsp; &nbsp; &nbsp; &nbsp;<font class='posOutcome'>Shared back: <strong>2</strong></font></font><div class='respPicDiv'><img src='img/responseButtonOffersNo0_wht.png' class='respPic'></div></div>","null","6","Joseph","11","Shared","0.2,0.65","10","0.2","trustrating_stim/white_00761_941201_fb_edt.bmp","6.5","126","18"
"html-keyboard-response","191","300973","0.0-19.0-1.18","63f3a6b6d4c4d564638f38ca","bdp_trlrn","Wed Mar 15 2023 14:23:18 GMT-0500 (Central Daylight Time)","544071","Trustworthy,Untrustworthy","","","","decision","","","583","","<div class='trialDiv'><img src='trustrating_stim/white_mw063.bmp'><br><font class='baseline'><strong>Jason</strong><p>Choose number of points to send.</font><div class='respPicDiv'><img src='img/responseButtonOffersNo0L.png' class='respPic'></div></div>","5","7","Jason","2","Shared","0.8,0.2","12","0.8","trustrating_stim/white_mw063.bmp","3.5","131","19"
"html-keyboard-response","192","301229","0.0-19.0-2.18","63f3a6b6d4c4d564638f38ca","bdp_trlrn","Wed Mar 15 2023 14:23:18 GMT-0500 (Central Daylight Time)","544071","Trustworthy,Untrustworthy","","","","decisionFB","","","null","","<div class='trialDiv'><img src='trustrating_stim/white_mw063.bmp'><br><font class='baseline'><strong>Jason</strong><p>Choose number of points to send.</font><div class='respPicDiv'><img src='img/responseButtonOffersNo0L5.png' class='respPic'></div></div>","null","7","Jason","2","Shared","0.8,0.2","12","0.8","trustrating_stim/white_mw063.bmp","3.5","126","19"
"html-keyboard-response","193","302238","0.0-19.0-3.18","63f3a6b6d4c4d564638f38ca","bdp_trlrn","Wed Mar 15 2023 14:23:18 GMT-0500 (Central Daylight Time)","544071","Trustworthy,Untrustworthy","","","","feedback","","","null","","<div class='trialDiv'><img src='trustrating_stim/white_mw063.bmp'><br><font class='baseline'><strong>Jason</strong><p>Received: <strong>20</strong></font> &nbsp; &nbsp; &nbsp; &nbsp; &nbsp; &nbsp;<font class='posOutcome'>Shared back: <strong>10</strong></font></font><div class='respPicDiv'><img src='img/responseButtonOffersNo0_wht.png' class='respPic'></div></div>","null","7","Jason","2","Shared","0.8,0.2","12","0.8","trustrating_stim/white_mw063.bmp","3.5","136","19"
"html-keyboard-response","194","302819","0.0-19.0-1.19","63f3a6b6d4c4d564638f38ca","bdp_trlrn","Wed Mar 15 2023 14:23:18 GMT-0500 (Central Daylight Time)","544071","Trustworthy,Untrustworthy","","","","decision","","","580","","<div class='trialDiv'><img src='trustrating_stim/white_00761_941201_fb_edt.bmp'><br><font class='baseline'><strong>Joseph</strong><p>Choose number of points to send.</font><div class='respPicDiv'><img src='img/responseButtonOffersNo0L.png' class='respPic'></div></div>","1","7","Joseph","11","Kept","0.2,0.65","10","0.2","trustrating_stim/white_00761_941201_fb_edt.bmp","6.5","141","20"
"html-keyboard-response","195","303083","0.0-19.0-2.19","63f3a6b6d4c4d564638f38ca","bdp_trlrn","Wed Mar 15 2023 14:23:18 GMT-0500 (Central Daylight Time)","544071","Trustworthy,Untrustworthy","","","","decisionFB","","","null","","<div class='trialDiv'><img src='trustrating_stim/white_00761_941201_fb_edt.bmp'><br><font class='baseline'><strong>Joseph</strong><p>Choose number of points to send.</font><div class='respPicDiv'><img src='img/responseButtonOffersNo0L1.png' class='respPic'></div></div>","null","7","Joseph","11","Kept","0.2,0.65","10","0.2","trustrating_stim/white_00761_941201_fb_edt.bmp","6.5","140","20"
"html-keyboard-response","196","304091","0.0-19.0-3.19","63f3a6b6d4c4d564638f38ca","bdp_trlrn","Wed Mar 15 2023 14:23:18 GMT-0500 (Central Daylight Time)","544071","Trustworthy,Untrustworthy","","","","feedback","","","null","","<div class='trialDiv'><img src='trustrating_stim/white_00761_941201_fb_edt.bmp'><br><font class='baseline'><strong>Joseph</strong><p>Received: <strong>4</strong></font> &nbsp; &nbsp; &nbsp; &nbsp; &nbsp; &nbsp;<font class='negOutcome'>Shared back: <strong>0</strong></font></font><div class='respPicDiv'><img src='img/responseButtonOffersNo0_wht.png' class='respPic'></div></div>","null","7","Joseph","11","Kept","0.2,0.65","10","0.2","trustrating_stim/white_00761_941201_fb_edt.bmp","6.5","140","20"
"html-keyboard-response","197","304677","0.0-19.0-1.20","63f3a6b6d4c4d564638f38ca","bdp_trlrn","Wed Mar 15 2023 14:23:18 GMT-0500 (Central Daylight Time)","544071","Trustworthy,Untrustworthy","","","","decision","","","584","","<div class='trialDiv'><img src='trustrating_stim/white_mw071.bmp'><br><font class='baseline'><strong>Michael</strong><p>Choose number of points to send.</font><div class='respPicDiv'><img src='img/responseButtonOffersNo0L.png' class='respPic'></div></div>","5","7","Michael","5","Shared","0.65,0.2","14","0.65","trustrating_stim/white_mw071.bmp","5","145","21"
"html-keyboard-response","198","304929","0.0-19.0-2.20","63f3a6b6d4c4d564638f38ca","bdp_trlrn","Wed Mar 15 2023 14:23:18 GMT-0500 (Central Daylight Time)","544071","Trustworthy,Untrustworthy","","","","decisionFB","","","null","","<div class='trialDiv'><img src='trustrating_stim/white_mw071.bmp'><br><font class='baseline'><strong>Michael</strong><p>Choose number of points to send.</font><div class='respPicDiv'><img src='img/responseButtonOffersNo0L5.png' class='respPic'></div></div>","null","7","Michael","5","Shared","0.65,0.2","14","0.65","trustrating_stim/white_mw071.bmp","5","140","21"
"html-keyboard-response","199","305934","0.0-19.0-3.20","63f3a6b6d4c4d564638f38ca","bdp_trlrn","Wed Mar 15 2023 14:23:18 GMT-0500 (Central Daylight Time)","544071","Trustworthy,Untrustworthy","","","","feedback","","","null","","<div class='trialDiv'><img src='trustrating_stim/white_mw071.bmp'><br><font class='baseline'><strong>Michael</strong><p>Received: <strong>20</strong></font> &nbsp; &nbsp; &nbsp; &nbsp; &nbsp; &nbsp;<font class='posOutcome'>Shared back: <strong>10</strong></font></font><div class='respPicDiv'><img src='img/responseButtonOffersNo0_wht.png' class='respPic'></div></div>","null","7","Michael","5","Shared","0.65,0.2","14","0.65","trustrating_stim/white_mw071.bmp","5","150","21"
"html-keyboard-response","200","306575","0.0-19.0-1.21","63f3a6b6d4c4d564638f38ca","bdp_trlrn","Wed Mar 15 2023 14:23:18 GMT-0500 (Central Daylight Time)","544071","Trustworthy,Untrustworthy","","","","decision","","","640","","<div class='trialDiv'><img src='trustrating_stim/white_mw063.bmp'><br><font class='baseline'><strong>Jason</strong><p>Choose number of points to send.</font><div class='respPicDiv'><img src='img/responseButtonOffersNo0L.png' class='respPic'></div></div>","5","8","Jason","2","Kept","0.8,0.2","12","0.8","trustrating_stim/white_mw063.bmp","3.5","155","22"
"html-keyboard-response","201","306834","0.0-19.0-2.21","63f3a6b6d4c4d564638f38ca","bdp_trlrn","Wed Mar 15 2023 14:23:18 GMT-0500 (Central Daylight Time)","544071","Trustworthy,Untrustworthy","","","","decisionFB","","","null","","<div class='trialDiv'><img src='trustrating_stim/white_mw063.bmp'><br><font class='baseline'><strong>Jason</strong><p>Choose number of points to send.</font><div class='respPicDiv'><img src='img/responseButtonOffersNo0L5.png' class='respPic'></div></div>","null","8","Jason","2","Kept","0.8,0.2","12","0.8","trustrating_stim/white_mw063.bmp","3.5","150","22"
"html-keyboard-response","202","307838","0.0-19.0-3.21","63f3a6b6d4c4d564638f38ca","bdp_trlrn","Wed Mar 15 2023 14:23:18 GMT-0500 (Central Daylight Time)","544071","Trustworthy,Untrustworthy","","","","feedback","","","null","","<div class='trialDiv'><img src='trustrating_stim/white_mw063.bmp'><br><font class='baseline'><strong>Jason</strong><p>Received: <strong>20</strong></font> &nbsp; &nbsp; &nbsp; &nbsp; &nbsp; &nbsp;<font class='negOutcome'>Shared back: <strong>0</strong></font></font><div class='respPicDiv'><img src='img/responseButtonOffersNo0_wht.png' class='respPic'></div></div>","null","8","Jason","2","Kept","0.8,0.2","12","0.8","trustrating_stim/white_mw063.bmp","3.5","150","22"
"html-keyboard-response","203","308705","0.0-19.0-1.22","63f3a6b6d4c4d564638f38ca","bdp_trlrn","Wed Mar 15 2023 14:23:18 GMT-0500 (Central Daylight Time)","544071","Trustworthy,Untrustworthy","","","","decision","","","866","","<div class='trialDiv'><img src='trustrating_stim/white_mw071.bmp'><br><font class='baseline'><strong>Michael</strong><p>Choose number of points to send.</font><div class='respPicDiv'><img src='img/responseButtonOffersNo0L.png' class='respPic'></div></div>","5","8","Michael","5","Kept","0.65,0.2","14","0.65","trustrating_stim/white_mw071.bmp","5","155","23"
"html-keyboard-response","204","308961","0.0-19.0-2.22","63f3a6b6d4c4d564638f38ca","bdp_trlrn","Wed Mar 15 2023 14:23:18 GMT-0500 (Central Daylight Time)","544071","Trustworthy,Untrustworthy","","","","decisionFB","","","null","","<div class='trialDiv'><img src='trustrating_stim/white_mw071.bmp'><br><font class='baseline'><strong>Michael</strong><p>Choose number of points to send.</font><div class='respPicDiv'><img src='img/responseButtonOffersNo0L5.png' class='respPic'></div></div>","null","8","Michael","5","Kept","0.65,0.2","14","0.65","trustrating_stim/white_mw071.bmp","5","150","23"
"html-keyboard-response","205","309968","0.0-19.0-3.22","63f3a6b6d4c4d564638f38ca","bdp_trlrn","Wed Mar 15 2023 14:23:18 GMT-0500 (Central Daylight Time)","544071","Trustworthy,Untrustworthy","","","","feedback","","","null","","<div class='trialDiv'><img src='trustrating_stim/white_mw071.bmp'><br><font class='baseline'><strong>Michael</strong><p>Received: <strong>20</strong></font> &nbsp; &nbsp; &nbsp; &nbsp; &nbsp; &nbsp;<font class='negOutcome'>Shared back: <strong>0</strong></font></font><div class='respPicDiv'><img src='img/responseButtonOffersNo0_wht.png' class='respPic'></div></div>","null","8","Michael","5","Kept","0.65,0.2","14","0.65","trustrating_stim/white_mw071.bmp","5","150","23"
"html-keyboard-response","206","310373","0.0-19.0-1.23","63f3a6b6d4c4d564638f38ca","bdp_trlrn","Wed Mar 15 2023 14:23:18 GMT-0500 (Central Daylight Time)","544071","Trustworthy,Untrustworthy","","","","decision","","","403","","<div class='trialDiv'><img src='trustrating_stim/white_00761_941201_fb_edt.bmp'><br><font class='baseline'><strong>Joseph</strong><p>Choose number of points to send.</font><div class='respPicDiv'><img src='img/responseButtonOffersNo0L.png' class='respPic'></div></div>","1","8","Joseph","11","Kept","0.2,0.65","10","0.2","trustrating_stim/white_00761_941201_fb_edt.bmp","6.5","155","24"
"html-keyboard-response","207","310633","0.0-19.0-2.23","63f3a6b6d4c4d564638f38ca","bdp_trlrn","Wed Mar 15 2023 14:23:18 GMT-0500 (Central Daylight Time)","544071","Trustworthy,Untrustworthy","","","","decisionFB","","","null","","<div class='trialDiv'><img src='trustrating_stim/white_00761_941201_fb_edt.bmp'><br><font class='baseline'><strong>Joseph</strong><p>Choose number of points to send.</font><div class='respPicDiv'><img src='img/responseButtonOffersNo0L1.png' class='respPic'></div></div>","null","8","Joseph","11","Kept","0.2,0.65","10","0.2","trustrating_stim/white_00761_941201_fb_edt.bmp","6.5","154","24"
"html-keyboard-response","208","311636","0.0-19.0-3.23","63f3a6b6d4c4d564638f38ca","bdp_trlrn","Wed Mar 15 2023 14:23:18 GMT-0500 (Central Daylight Time)","544071","Trustworthy,Untrustworthy","","","","feedback","","","null","","<div class='trialDiv'><img src='trustrating_stim/white_00761_941201_fb_edt.bmp'><br><font class='baseline'><strong>Joseph</strong><p>Received: <strong>4</strong></font> &nbsp; &nbsp; &nbsp; &nbsp; &nbsp; &nbsp;<font class='negOutcome'>Shared back: <strong>0</strong></font></font><div class='respPicDiv'><img src='img/responseButtonOffersNo0_wht.png' class='respPic'></div></div>","null","8","Joseph","11","Kept","0.2,0.65","10","0.2","trustrating_stim/white_00761_941201_fb_edt.bmp","6.5","154","24"
"html-keyboard-response","209","312086","0.0-19.0-1.24","63f3a6b6d4c4d564638f38ca","bdp_trlrn","Wed Mar 15 2023 14:23:18 GMT-0500 (Central Daylight Time)","544071","Trustworthy,Untrustworthy","","","","decision","","","448","","<div class='trialDiv'><img src='trustrating_stim/white_mw063.bmp'><br><font class='baseline'><strong>Jason</strong><p>Choose number of points to send.</font><div class='respPicDiv'><img src='img/responseButtonOffersNo0L.png' class='respPic'></div></div>","5","9","Jason","2","Shared","0.8,0.2","12","0.8","trustrating_stim/white_mw063.bmp","3.5","159","25"
"html-keyboard-response","210","312346","0.0-19.0-2.24","63f3a6b6d4c4d564638f38ca","bdp_trlrn","Wed Mar 15 2023 14:23:18 GMT-0500 (Central Daylight Time)","544071","Trustworthy,Untrustworthy","","","","decisionFB","","","null","","<div class='trialDiv'><img src='trustrating_stim/white_mw063.bmp'><br><font class='baseline'><strong>Jason</strong><p>Choose number of points to send.</font><div class='respPicDiv'><img src='img/responseButtonOffersNo0L5.png' class='respPic'></div></div>","null","9","Jason","2","Shared","0.8,0.2","12","0.8","trustrating_stim/white_mw063.bmp","3.5","154","25"
"html-keyboard-response","211","313352","0.0-19.0-3.24","63f3a6b6d4c4d564638f38ca","bdp_trlrn","Wed Mar 15 2023 14:23:18 GMT-0500 (Central Daylight Time)","544071","Trustworthy,Untrustworthy","","","","feedback","","","null","","<div class='trialDiv'><img src='trustrating_stim/white_mw063.bmp'><br><font class='baseline'><strong>Jason</strong><p>Received: <strong>20</strong></font> &nbsp; &nbsp; &nbsp; &nbsp; &nbsp; &nbsp;<font class='posOutcome'>Shared back: <strong>10</strong></font></font><div class='respPicDiv'><img src='img/responseButtonOffersNo0_wht.png' class='respPic'></div></div>","null","9","Jason","2","Shared","0.8,0.2","12","0.8","trustrating_stim/white_mw063.bmp","3.5","164","25"
"html-keyboard-response","212","313533","0.0-19.0-1.25","63f3a6b6d4c4d564638f38ca","bdp_trlrn","Wed Mar 15 2023 14:23:18 GMT-0500 (Central Daylight Time)","544071","Trustworthy,Untrustworthy","","","","decision","","","178","","<div class='trialDiv'><img src='trustrating_stim/white_00761_941201_fb_edt.bmp'><br><font class='baseline'><strong>Joseph</strong><p>Choose number of points to send.</font><div class='respPicDiv'><img src='img/responseButtonOffersNo0L.png' class='respPic'></div></div>","5","9","Joseph","11","Kept","0.2,0.65","10","0.2","trustrating_stim/white_00761_941201_fb_edt.bmp","6.5","169","26"
"html-keyboard-response","213","313794","0.0-19.0-2.25","63f3a6b6d4c4d564638f38ca","bdp_trlrn","Wed Mar 15 2023 14:23:18 GMT-0500 (Central Daylight Time)","544071","Trustworthy,Untrustworthy","","","","decisionFB","","","null","","<div class='trialDiv'><img src='trustrating_stim/white_00761_941201_fb_edt.bmp'><br><font class='baseline'><strong>Joseph</strong><p>Choose number of points to send.</font><div class='respPicDiv'><img src='img/responseButtonOffersNo0L5.png' class='respPic'></div></div>","null","9","Joseph","11","Kept","0.2,0.65","10","0.2","trustrating_stim/white_00761_941201_fb_edt.bmp","6.5","164","26"
"html-keyboard-response","214","314803","0.0-19.0-3.25","63f3a6b6d4c4d564638f38ca","bdp_trlrn","Wed Mar 15 2023 14:23:18 GMT-0500 (Central Daylight Time)","544071","Trustworthy,Untrustworthy","","","","feedback","","","null","","<div class='trialDiv'><img src='trustrating_stim/white_00761_941201_fb_edt.bmp'><br><font class='baseline'><strong>Joseph</strong><p>Received: <strong>20</strong></font> &nbsp; &nbsp; &nbsp; &nbsp; &nbsp; &nbsp;<font class='negOutcome'>Shared back: <strong>0</strong></font></font><div class='respPicDiv'><img src='img/responseButtonOffersNo0_wht.png' class='respPic'></div></div>","null","9","Joseph","11","Kept","0.2,0.65","10","0.2","trustrating_stim/white_00761_941201_fb_edt.bmp","6.5","164","26"
"html-keyboard-response","215","315326","0.0-19.0-1.26","63f3a6b6d4c4d564638f38ca","bdp_trlrn","Wed Mar 15 2023 14:23:18 GMT-0500 (Central Daylight Time)","544071","Trustworthy,Untrustworthy","","","","decision","","","522","","<div class='trialDiv'><img src='trustrating_stim/white_mw071.bmp'><br><font class='baseline'><strong>Michael</strong><p>Choose number of points to send.</font><div class='respPicDiv'><img src='img/responseButtonOffersNo0L.png' class='respPic'></div></div>","5","9","Michael","5","Shared","0.65,0.2","14","0.65","trustrating_stim/white_mw071.bmp","5","169","27"
"html-keyboard-response","216","315578","0.0-19.0-2.26","63f3a6b6d4c4d564638f38ca","bdp_trlrn","Wed Mar 15 2023 14:23:18 GMT-0500 (Central Daylight Time)","544071","Trustworthy,Untrustworthy","","","","decisionFB","","","null","","<div class='trialDiv'><img src='trustrating_stim/white_mw071.bmp'><br><font class='baseline'><strong>Michael</strong><p>Choose number of points to send.</font><div class='respPicDiv'><img src='img/responseButtonOffersNo0L5.png' class='respPic'></div></div>","null","9","Michael","5","Shared","0.65,0.2","14","0.65","trustrating_stim/white_mw071.bmp","5","164","27"
"html-keyboard-response","217","316587","0.0-19.0-3.26","63f3a6b6d4c4d564638f38ca","bdp_trlrn","Wed Mar 15 2023 14:23:18 GMT-0500 (Central Daylight Time)","544071","Trustworthy,Untrustworthy","","","","feedback","","","null","","<div class='trialDiv'><img src='trustrating_stim/white_mw071.bmp'><br><font class='baseline'><strong>Michael</strong><p>Received: <strong>20</strong></font> &nbsp; &nbsp; &nbsp; &nbsp; &nbsp; &nbsp;<font class='posOutcome'>Shared back: <strong>10</strong></font></font><div class='respPicDiv'><img src='img/responseButtonOffersNo0_wht.png' class='respPic'></div></div>","null","9","Michael","5","Shared","0.65,0.2","14","0.65","trustrating_stim/white_mw071.bmp","5","174","27"
"html-keyboard-response","218","317186","0.0-19.0-1.27","63f3a6b6d4c4d564638f38ca","bdp_trlrn","Wed Mar 15 2023 14:23:18 GMT-0500 (Central Daylight Time)","544071","Trustworthy,Untrustworthy","","","","decision","","","598","","<div class='trialDiv'><img src='trustrating_stim/white_mw063.bmp'><br><font class='baseline'><strong>Jason</strong><p>Choose number of points to send.</font><div class='respPicDiv'><img src='img/responseButtonOffersNo0L.png' class='respPic'></div></div>","5","10","Jason","2","Shared","0.8,0.2","12","0.8","trustrating_stim/white_mw063.bmp","3.5","179","28"
