"trial_type","trial_index","time_elapsed","internal_node_id","subject_id","task","startTime","totalTime","labels","view_history","rt","event","trial","time","trialtype","success","stimulus","key_press","aground","name","faceID","outcome","agenttype","agentswpt","agentcurrpshare","face","avgRating","point_total","round"
"pavlovia","0","2","0.0-0.0","5ee71ce25f11c84a3e909b09","bdp_trlrn","Sun Mar 12 2023 22:08:25 GMT-0500 (Central Daylight Time)","1389675","Untrustworthy,Trustworthy","","","","","","","","","","","","","","","","","","","",""
"instructions","1","4029","0.0-1.0","5ee71ce25f11c84a3e909b09","bdp_trlrn","Sun Mar 12 2023 22:08:25 GMT-0500 (Central Daylight Time)","1389675","Untrustworthy,Trustworthy","[{""page_index"":0,""viewing_time"":4027}]","4027","","","","","","","","","","","","","","","","","",""
"","","","","5ee71ce25f11c84a3e909b09","bdp_trlrn","Sun Mar 12 2023 22:08:25 GMT-0500 (Central Daylight Time)","1389675","Untrustworthy,Trustworthy","","","fullscreenenter","2","7983","fullscreenenter","","","","","","","","","","","","","",""
"fullscreen","2","8963","0.0-2.0","5ee71ce25f11c84a3e909b09","bdp_trlrn","Sun Mar 12 2023 22:08:25 GMT-0500 (Central Daylight Time)","1389675","Untrustworthy,Trustworthy","","","","","","","true","","","","","","","","","","","","",""
"instructions","3","102552","0.0-4.0","5ee71ce25f11c84a3e909b09","bdp_trlrn","Sun Mar 12 2023 22:08:25 GMT-0500 (Central Daylight Time)","1389675","Untrustworthy,Trustworthy","[{""page_index"":0,""viewing_time"":92697},{""page_index"":1,""viewing_time"":891}]","93588","","","","","","","","","","","","","","","","","",""
"instructions","4","103254","0.0-5.0","5ee71ce25f11c84a3e909b09","bdp_trlrn","Sun Mar 12 2023 22:08:25 GMT-0500 (Central Daylight Time)","1389675","Untrustworthy,Trustworthy","[{""page_index"":0,""viewing_time"":701}]","701","","","","","","","","","","","","","","","","","",""
"image-keyboard-response","5","105810","0.0-6.0-1.0","5ee71ce25f11c84a3e909b09","bdp_trlrn","Sun Mar 12 2023 22:08:25 GMT-0500 (Central Daylight Time)","1389675","Untrustworthy,Trustworthy","","2453","","","","rating","","trustrating_stim/white_mw084.bmp","5","","","","","","","","","","",""
"image-keyboard-response","6","106012","0.0-6.0-2.0","5ee71ce25f11c84a3e909b09","bdp_trlrn","Sun Mar 12 2023 22:08:25 GMT-0500 (Central Daylight Time)","1389675","Untrustworthy,Trustworthy","","null","","","","ratingFB","","trustrating_stim/white_mw084.bmp","null","","","","","","","","","","",""
"image-keyboard-response","7","107604","0.0-6.0-1.1","5ee71ce25f11c84a3e909b09","bdp_trlrn","Sun Mar 12 2023 22:08:25 GMT-0500 (Central Daylight Time)","1389675","Untrustworthy,Trustworthy","","1490","","","","rating","","trustrating_stim/white_mw048.bmp","2","","","","","","","","","","",""
"image-keyboard-response","8","107805","0.0-6.0-2.1","5ee71ce25f11c84a3e909b09","bdp_trlrn","Sun Mar 12 2023 22:08:25 GMT-0500 (Central Daylight Time)","1389675","Untrustworthy,Trustworthy","","null","","","","ratingFB","","trustrating_stim/white_mw048.bmp","null","","","","","","","","","","",""
"image-keyboard-response","9","110059","0.0-6.0-1.2","5ee71ce25f11c84a3e909b09","bdp_trlrn","Sun Mar 12 2023 22:08:25 GMT-0500 (Central Daylight Time)","1389675","Untrustworthy,Trustworthy","","2153","","","","rating","","trustrating_stim/white_mw071.bmp","6","","","","","","","","","","",""
"image-keyboard-response","10","110261","0.0-6.0-2.2","5ee71ce25f11c84a3e909b09","bdp_trlrn","Sun Mar 12 2023 22:08:25 GMT-0500 (Central Daylight Time)","1389675","Untrustworthy,Trustworthy","","null","","","","ratingFB","","trustrating_stim/white_mw071.bmp","null","","","","","","","","","","",""
"image-keyboard-response","11","111706","0.0-6.0-1.3","5ee71ce25f11c84a3e909b09","bdp_trlrn","Sun Mar 12 2023 22:08:25 GMT-0500 (Central Daylight Time)","1389675","Untrustworthy,Trustworthy","","1345","","","","rating","","trustrating_stim/white_mw099.bmp","7","","","","","","","","","","",""
"image-keyboard-response","12","111908","0.0-6.0-2.3","5ee71ce25f11c84a3e909b09","bdp_trlrn","Sun Mar 12 2023 22:08:25 GMT-0500 (Central Daylight Time)","1389675","Untrustworthy,Trustworthy","","null","","","","ratingFB","","trustrating_stim/white_mw099.bmp","null","","","","","","","","","","",""
"image-keyboard-response","13","113420","0.0-6.0-1.4","5ee71ce25f11c84a3e909b09","bdp_trlrn","Sun Mar 12 2023 22:08:25 GMT-0500 (Central Daylight Time)","1389675","Untrustworthy,Trustworthy","","1409","","","","rating","","trustrating_stim/white_00898_960530_fa_edt.bmp","4","","","","","","","","","","",""
"image-keyboard-response","14","113621","0.0-6.0-2.4","5ee71ce25f11c84a3e909b09","bdp_trlrn","Sun Mar 12 2023 22:08:25 GMT-0500 (Central Daylight Time)","1389675","Untrustworthy,Trustworthy","","null","","","","ratingFB","","trustrating_stim/white_00898_960530_fa_edt.bmp","null","","","","","","","","","","",""
"image-keyboard-response","15","116312","0.0-6.0-1.5","5ee71ce25f11c84a3e909b09","bdp_trlrn","Sun Mar 12 2023 22:08:25 GMT-0500 (Central Daylight Time)","1389675","Untrustworthy,Trustworthy","","2589","","","","rating","","trustrating_stim/white_mw046.bmp","5","","","","","","","","","","",""
"image-keyboard-response","16","116513","0.0-6.0-2.5","5ee71ce25f11c84a3e909b09","bdp_trlrn","Sun Mar 12 2023 22:08:25 GMT-0500 (Central Daylight Time)","1389675","Untrustworthy,Trustworthy","","null","","","","ratingFB","","trustrating_stim/white_mw046.bmp","null","","","","","","","","","","",""
"image-keyboard-response","17","117892","0.0-6.0-1.6","5ee71ce25f11c84a3e909b09","bdp_trlrn","Sun Mar 12 2023 22:08:25 GMT-0500 (Central Daylight Time)","1389675","Untrustworthy,Trustworthy","","1278","","","","rating","","trustrating_stim/white_mw049.bmp","7","","","","","","","","","","",""
"image-keyboard-response","18","118093","0.0-6.0-2.6","5ee71ce25f11c84a3e909b09","bdp_trlrn","Sun Mar 12 2023 22:08:25 GMT-0500 (Central Daylight Time)","1389675","Untrustworthy,Trustworthy","","null","","","","ratingFB","","trustrating_stim/white_mw049.bmp","null","","","","","","","","","","",""
"image-keyboard-response","19","119538","0.0-6.0-1.7","5ee71ce25f11c84a3e909b09","bdp_trlrn","Sun Mar 12 2023 22:08:25 GMT-0500 (Central Daylight Time)","1389675","Untrustworthy,Trustworthy","","1344","","","","rating","","trustrating_stim/white_00577_940928_fa_edt.bmp","2","","","","","","","","","","",""
"image-keyboard-response","20","119740","0.0-6.0-2.7","5ee71ce25f11c84a3e909b09","bdp_trlrn","Sun Mar 12 2023 22:08:25 GMT-0500 (Central Daylight Time)","1389675","Untrustworthy,Trustworthy","","null","","","","ratingFB","","trustrating_stim/white_00577_940928_fa_edt.bmp","null","","","","","","","","","","",""
"image-keyboard-response","21","120896","0.0-6.0-1.8","5ee71ce25f11c84a3e909b09","bdp_trlrn","Sun Mar 12 2023 22:08:25 GMT-0500 (Central Daylight Time)","1389675","Untrustworthy,Trustworthy","","1055","","","","rating","","trustrating_stim/white_mw063.bmp","1","","","","","","","","","","",""
"image-keyboard-response","22","121097","0.0-6.0-2.8","5ee71ce25f11c84a3e909b09","bdp_trlrn","Sun Mar 12 2023 22:08:25 GMT-0500 (Central Daylight Time)","1389675","Untrustworthy,Trustworthy","","null","","","","ratingFB","","trustrating_stim/white_mw063.bmp","null","","","","","","","","","","",""
"image-keyboard-response","23","122191","0.0-6.0-1.9","5ee71ce25f11c84a3e909b09","bdp_trlrn","Sun Mar 12 2023 22:08:25 GMT-0500 (Central Daylight Time)","1389675","Untrustworthy,Trustworthy","","993","","","","rating","","trustrating_stim/white_00659_941121_fa_edt.bmp","1","","","","","","","","","","",""
"image-keyboard-response","24","122392","0.0-6.0-2.9","5ee71ce25f11c84a3e909b09","bdp_trlrn","Sun Mar 12 2023 22:08:25 GMT-0500 (Central Daylight Time)","1389675","Untrustworthy,Trustworthy","","null","","","","ratingFB","","trustrating_stim/white_00659_941121_fa_edt.bmp","null","","","","","","","","","","",""
"image-keyboard-response","25","124565","0.0-6.0-1.10","5ee71ce25f11c84a3e909b09","bdp_trlrn","Sun Mar 12 2023 22:08:25 GMT-0500 (Central Daylight Time)","1389675","Untrustworthy,Trustworthy","","2072","","","","rating","","trustrating_stim/white_00299_940422_fa_edt.bmp","6","","","","","","","","","","",""
"image-keyboard-response","26","124767","0.0-6.0-2.10","5ee71ce25f11c84a3e909b09","bdp_trlrn","Sun Mar 12 2023 22:08:25 GMT-0500 (Central Daylight Time)","1389675","Untrustworthy,Trustworthy","","null","","","","ratingFB","","trustrating_stim/white_00299_940422_fa_edt.bmp","null","","","","","","","","","","",""
"image-keyboard-response","27","126145","0.0-6.0-1.11","5ee71ce25f11c84a3e909b09","bdp_trlrn","Sun Mar 12 2023 22:08:25 GMT-0500 (Central Daylight Time)","1389675","Untrustworthy,Trustworthy","","1277","","","","rating","","trustrating_stim/white_00807_941205_fb_edt.bmp","5","","","","","","","","","","",""
"image-keyboard-response","28","126346","0.0-6.0-2.11","5ee71ce25f11c84a3e909b09","bdp_trlrn","Sun Mar 12 2023 22:08:25 GMT-0500 (Central Daylight Time)","1389675","Untrustworthy,Trustworthy","","null","","","","ratingFB","","trustrating_stim/white_00807_941205_fb_edt.bmp","null","","","","","","","","","","",""
"image-keyboard-response","29","128466","0.0-6.0-1.12","5ee71ce25f11c84a3e909b09","bdp_trlrn","Sun Mar 12 2023 22:08:25 GMT-0500 (Central Daylight Time)","1389675","Untrustworthy,Trustworthy","","2018","","","","rating","","trustrating_stim/white_mw097.bmp","3","","","","","","","","","","",""
"image-keyboard-response","30","128668","0.0-6.0-2.12","5ee71ce25f11c84a3e909b09","bdp_trlrn","Sun Mar 12 2023 22:08:25 GMT-0500 (Central Daylight Time)","1389675","Untrustworthy,Trustworthy","","null","","","","ratingFB","","trustrating_stim/white_mw097.bmp","null","","","","","","","","","","",""
"image-keyboard-response","31","129911","0.0-6.0-1.13","5ee71ce25f11c84a3e909b09","bdp_trlrn","Sun Mar 12 2023 22:08:25 GMT-0500 (Central Daylight Time)","1389675","Untrustworthy,Trustworthy","","1142","","","","rating","","trustrating_stim/white_mw035.bmp","7","","","","","","","","","","",""
"image-keyboard-response","32","130112","0.0-6.0-2.13","5ee71ce25f11c84a3e909b09","bdp_trlrn","Sun Mar 12 2023 22:08:25 GMT-0500 (Central Daylight Time)","1389675","Untrustworthy,Trustworthy","","null","","","","ratingFB","","trustrating_stim/white_mw035.bmp","null","","","","","","","","","","",""
"image-keyboard-response","33","131184","0.0-6.0-1.14","5ee71ce25f11c84a3e909b09","bdp_trlrn","Sun Mar 12 2023 22:08:25 GMT-0500 (Central Daylight Time)","1389675","Untrustworthy,Trustworthy","","970","","","","rating","","trustrating_stim/white_mw056.bmp","7","","","","","","","","","","",""
"image-keyboard-response","34","131387","0.0-6.0-2.14","5ee71ce25f11c84a3e909b09","bdp_trlrn","Sun Mar 12 2023 22:08:25 GMT-0500 (Central Daylight Time)","1389675","Untrustworthy,Trustworthy","","null","","","","ratingFB","","trustrating_stim/white_mw056.bmp","null","","","","","","","","","","",""
"image-keyboard-response","35","133158","0.0-6.0-1.15","5ee71ce25f11c84a3e909b09","bdp_trlrn","Sun Mar 12 2023 22:08:25 GMT-0500 (Central Daylight Time)","1389675","Untrustworthy,Trustworthy","","1669","","","","rating","","trustrating_stim/white_00602_940928_fb_edt.bmp","5","","","","","","","","","","",""
"image-keyboard-response","36","133359","0.0-6.0-2.15","5ee71ce25f11c84a3e909b09","bdp_trlrn","Sun Mar 12 2023 22:08:25 GMT-0500 (Central Daylight Time)","1389675","Untrustworthy,Trustworthy","","null","","","","ratingFB","","trustrating_stim/white_00602_940928_fb_edt.bmp","null","","","","","","","","","","",""
"image-keyboard-response","37","134609","0.0-6.0-1.16","5ee71ce25f11c84a3e909b09","bdp_trlrn","Sun Mar 12 2023 22:08:25 GMT-0500 (Central Daylight Time)","1389675","Untrustworthy,Trustworthy","","1149","","","","rating","","trustrating_stim/white_00109_931230_fa_edt.bmp","4","","","","","","","","","","",""
"image-keyboard-response","38","134810","0.0-6.0-2.16","5ee71ce25f11c84a3e909b09","bdp_trlrn","Sun Mar 12 2023 22:08:25 GMT-0500 (Central Daylight Time)","1389675","Untrustworthy,Trustworthy","","null","","","","ratingFB","","trustrating_stim/white_00109_931230_fa_edt.bmp","null","","","","","","","","","","",""
"image-keyboard-response","39","135849","0.0-6.0-1.17","5ee71ce25f11c84a3e909b09","bdp_trlrn","Sun Mar 12 2023 22:08:25 GMT-0500 (Central Daylight Time)","1389675","Untrustworthy,Trustworthy","","938","","","","rating","","trustrating_stim/white_00120_931230_fa_edt.bmp","7","","","","","","","","","","",""
"image-keyboard-response","40","136050","0.0-6.0-2.17","5ee71ce25f11c84a3e909b09","bdp_trlrn","Sun Mar 12 2023 22:08:25 GMT-0500 (Central Daylight Time)","1389675","Untrustworthy,Trustworthy","","null","","","","ratingFB","","trustrating_stim/white_00120_931230_fa_edt.bmp","null","","","","","","","","","","",""
"image-keyboard-response","41","137168","0.0-6.0-1.18","5ee71ce25f11c84a3e909b09","bdp_trlrn","Sun Mar 12 2023 22:08:25 GMT-0500 (Central Daylight Time)","1389675","Untrustworthy,Trustworthy","","1015","","","","rating","","trustrating_stim/white_00223_940128_fb_edt.bmp","1","","","","","","","","","","",""
"image-keyboard-response","42","137369","0.0-6.0-2.18","5ee71ce25f11c84a3e909b09","bdp_trlrn","Sun Mar 12 2023 22:08:25 GMT-0500 (Central Daylight Time)","1389675","Untrustworthy,Trustworthy","","null","","","","ratingFB","","trustrating_stim/white_00223_940128_fb_edt.bmp","null","","","","","","","","","","",""
"image-keyboard-response","43","138406","0.0-6.0-1.19","5ee71ce25f11c84a3e909b09","bdp_trlrn","Sun Mar 12 2023 22:08:25 GMT-0500 (Central Daylight Time)","1389675","Untrustworthy,Trustworthy","","937","","","","rating","","trustrating_stim/white_mw033.bmp","6","","","","","","","","","","",""
"image-keyboard-response","44","138608","0.0-6.0-2.19","5ee71ce25f11c84a3e909b09","bdp_trlrn","Sun Mar 12 2023 22:08:25 GMT-0500 (Central Daylight Time)","1389675","Untrustworthy,Trustworthy","","null","","","","ratingFB","","trustrating_stim/white_mw033.bmp","null","","","","","","","","","","",""
"image-keyboard-response","45","139727","0.0-6.0-1.20","5ee71ce25f11c84a3e909b09","bdp_trlrn","Sun Mar 12 2023 22:08:25 GMT-0500 (Central Daylight Time)","1389675","Untrustworthy,Trustworthy","","1018","","","","rating","","trustrating_stim/white_00761_941201_fb_edt.bmp","5","","","","","","","","","","",""
"image-keyboard-response","46","139930","0.0-6.0-2.20","5ee71ce25f11c84a3e909b09","bdp_trlrn","Sun Mar 12 2023 22:08:25 GMT-0500 (Central Daylight Time)","1389675","Untrustworthy,Trustworthy","","null","","","","ratingFB","","trustrating_stim/white_00761_941201_fb_edt.bmp","null","","","","","","","","","","",""
"image-keyboard-response","47","141013","0.0-6.0-1.21","5ee71ce25f11c84a3e909b09","bdp_trlrn","Sun Mar 12 2023 22:08:25 GMT-0500 (Central Daylight Time)","1389675","Untrustworthy,Trustworthy","","981","","","","rating","","trustrating_stim/white_mw053.bmp","7","","","","","","","","","","",""
"image-keyboard-response","48","141215","0.0-6.0-2.21","5ee71ce25f11c84a3e909b09","bdp_trlrn","Sun Mar 12 2023 22:08:25 GMT-0500 (Central Daylight Time)","1389675","Untrustworthy,Trustworthy","","null","","","","ratingFB","","trustrating_stim/white_mw053.bmp","null","","","","","","","","","","",""
"image-keyboard-response","49","142206","0.0-6.0-1.22","5ee71ce25f11c84a3e909b09","bdp_trlrn","Sun Mar 12 2023 22:08:25 GMT-0500 (Central Daylight Time)","1389675","Untrustworthy,Trustworthy","","889","","","","rating","","trustrating_stim/white_00785_941205_fb_edt.bmp","2","","","","","","","","","","",""
"image-keyboard-response","50","142407","0.0-6.0-2.22","5ee71ce25f11c84a3e909b09","bdp_trlrn","Sun Mar 12 2023 22:08:25 GMT-0500 (Central Daylight Time)","1389675","Untrustworthy,Trustworthy","","null","","","","ratingFB","","trustrating_stim/white_00785_941205_fb_edt.bmp","null","","","","","","","","","","",""
"image-keyboard-response","51","143482","0.0-6.0-1.23","5ee71ce25f11c84a3e909b09","bdp_trlrn","Sun Mar 12 2023 22:08:25 GMT-0500 (Central Daylight Time)","1389675","Untrustworthy,Trustworthy","","973","","","","rating","","trustrating_stim/white_mw060.bmp","2","","","","","","","","","","",""
"image-keyboard-response","52","143683","0.0-6.0-2.23","5ee71ce25f11c84a3e909b09","bdp_trlrn","Sun Mar 12 2023 22:08:25 GMT-0500 (Central Daylight Time)","1389675","Untrustworthy,Trustworthy","","null","","","","ratingFB","","trustrating_stim/white_mw060.bmp","null","","","","","","","","","","",""
"image-keyboard-response","53","144739","0.0-6.0-1.24","5ee71ce25f11c84a3e909b09","bdp_trlrn","Sun Mar 12 2023 22:08:25 GMT-0500 (Central Daylight Time)","1389675","Untrustworthy,Trustworthy","","954","","","","rating","","trustrating_stim/white_00340_940422_fa_edt.bmp","1","","","","","","","","","","",""
"image-keyboard-response","54","144939","0.0-6.0-2.24","5ee71ce25f11c84a3e909b09","bdp_trlrn","Sun Mar 12 2023 22:08:25 GMT-0500 (Central Daylight Time)","1389675","Untrustworthy,Trustworthy","","null","","","","ratingFB","","trustrating_stim/white_00340_940422_fa_edt.bmp","null","","","","","","","","","","",""
"image-keyboard-response","55","145998","0.0-6.0-1.25","5ee71ce25f11c84a3e909b09","bdp_trlrn","Sun Mar 12 2023 22:08:25 GMT-0500 (Central Daylight Time)","1389675","Untrustworthy,Trustworthy","","957","","","","rating","","trustrating_stim/white_mw066.bmp","7","","","","","","","","","","",""
"image-keyboard-response","56","146200","0.0-6.0-2.25","5ee71ce25f11c84a3e909b09","bdp_trlrn","Sun Mar 12 2023 22:08:25 GMT-0500 (Central Daylight Time)","1389675","Untrustworthy,Trustworthy","","null","","","","ratingFB","","trustrating_stim/white_mw066.bmp","null","","","","","","","","","","",""
"image-keyboard-response","57","147356","0.0-6.0-1.26","5ee71ce25f11c84a3e909b09","bdp_trlrn","Sun Mar 12 2023 22:08:25 GMT-0500 (Central Daylight Time)","1389675","Untrustworthy,Trustworthy","","1055","","","","rating","","trustrating_stim/white_mw089.bmp","5","","","","","","","","","","",""
"image-keyboard-response","58","147557","0.0-6.0-2.26","5ee71ce25f11c84a3e909b09","bdp_trlrn","Sun Mar 12 2023 22:08:25 GMT-0500 (Central Daylight Time)","1389675","Untrustworthy,Trustworthy","","null","","","","ratingFB","","trustrating_stim/white_mw089.bmp","null","","","","","","","","","","",""
"image-keyboard-response","59","148573","0.0-6.0-1.27","5ee71ce25f11c84a3e909b09","bdp_trlrn","Sun Mar 12 2023 22:08:25 GMT-0500 (Central Daylight Time)","1389675","Untrustworthy,Trustworthy","","915","","","","rating","","trustrating_stim/white_00129_931230_fb_edt.bmp","2","","","","","","","","","","",""
"image-keyboard-response","60","148775","0.0-6.0-2.27","5ee71ce25f11c84a3e909b09","bdp_trlrn","Sun Mar 12 2023 22:08:25 GMT-0500 (Central Daylight Time)","1389675","Untrustworthy,Trustworthy","","null","","","","ratingFB","","trustrating_stim/white_00129_931230_fb_edt.bmp","null","","","","","","","","","","",""
"image-keyboard-response","61","149582","0.0-6.0-1.28","5ee71ce25f11c84a3e909b09","bdp_trlrn","Sun Mar 12 2023 22:08:25 GMT-0500 (Central Daylight Time)","1389675","Untrustworthy,Trustworthy","","706","","","","rating","","trustrating_stim/white_00519_940519_fb_edt.bmp","2","","","","","","","","","","",""
"image-keyboard-response","62","149783","0.0-6.0-2.28","5ee71ce25f11c84a3e909b09","bdp_trlrn","Sun Mar 12 2023 22:08:25 GMT-0500 (Central Daylight Time)","1389675","Untrustworthy,Trustworthy","","null","","","","ratingFB","","trustrating_stim/white_00519_940519_fb_edt.bmp","null","","","","","","","","","","",""
"image-keyboard-response","63","150805","0.0-6.0-1.29","5ee71ce25f11c84a3e909b09","bdp_trlrn","Sun Mar 12 2023 22:08:25 GMT-0500 (Central Daylight Time)","1389675","Untrustworthy,Trustworthy","","920","","","","rating","","trustrating_stim/white_00757_941201_fa_edt.bmp","1","","","","","","","","","","",""
"image-keyboard-response","64","151006","0.0-6.0-2.29","5ee71ce25f11c84a3e909b09","bdp_trlrn","Sun Mar 12 2023 22:08:25 GMT-0500 (Central Daylight Time)","1389675","Untrustworthy,Trustworthy","","null","","","","ratingFB","","trustrating_stim/white_00757_941201_fa_edt.bmp","null","","","","","","","","","","",""
"image-keyboard-response","65","152266","0.0-6.0-1.30","5ee71ce25f11c84a3e909b09","bdp_trlrn","Sun Mar 12 2023 22:08:25 GMT-0500 (Central Daylight Time)","1389675","Untrustworthy,Trustworthy","","1159","","","","rating","","trustrating_stim/white_mw053.bmp","6","","","","","","","","","","",""
"image-keyboard-response","66","152467","0.0-6.0-2.30","5ee71ce25f11c84a3e909b09","bdp_trlrn","Sun Mar 12 2023 22:08:25 GMT-0500 (Central Daylight Time)","1389675","Untrustworthy,Trustworthy","","null","","","","ratingFB","","trustrating_stim/white_mw053.bmp","null","","","","","","","","","","",""
"image-keyboard-response","67","153703","0.0-6.0-1.31","5ee71ce25f11c84a3e909b09","bdp_trlrn","Sun Mar 12 2023 22:08:25 GMT-0500 (Central Daylight Time)","1389675","Untrustworthy,Trustworthy","","1134","","","","rating","","trustrating_stim/white_00602_940928_fb_edt.bmp","5","","","","","","","","","","",""
"image-keyboard-response","68","153905","0.0-6.0-2.31","5ee71ce25f11c84a3e909b09","bdp_trlrn","Sun Mar 12 2023 22:08:25 GMT-0500 (Central Daylight Time)","1389675","Untrustworthy,Trustworthy","","null","","","","ratingFB","","trustrating_stim/white_00602_940928_fb_edt.bmp","null","","","","","","","","","","",""
"image-keyboard-response","69","155096","0.0-6.0-1.32","5ee71ce25f11c84a3e909b09","bdp_trlrn","Sun Mar 12 2023 22:08:25 GMT-0500 (Central Daylight Time)","1389675","Untrustworthy,Trustworthy","","1089","","","","rating","","trustrating_stim/white_00785_941205_fb_edt.bmp","4","","","","","","","","","","",""
"image-keyboard-response","70","155297","0.0-6.0-2.32","5ee71ce25f11c84a3e909b09","bdp_trlrn","Sun Mar 12 2023 22:08:25 GMT-0500 (Central Daylight Time)","1389675","Untrustworthy,Trustworthy","","null","","","","ratingFB","","trustrating_stim/white_00785_941205_fb_edt.bmp","null","","","","","","","","","","",""
"image-keyboard-response","71","156475","0.0-6.0-1.33","5ee71ce25f11c84a3e909b09","bdp_trlrn","Sun Mar 12 2023 22:08:25 GMT-0500 (Central Daylight Time)","1389675","Untrustworthy,Trustworthy","","1075","","","","rating","","trustrating_stim/white_00519_940519_fb_edt.bmp","2","","","","","","","","","","",""
"image-keyboard-response","72","156676","0.0-6.0-2.33","5ee71ce25f11c84a3e909b09","bdp_trlrn","Sun Mar 12 2023 22:08:25 GMT-0500 (Central Daylight Time)","1389675","Untrustworthy,Trustworthy","","null","","","","ratingFB","","trustrating_stim/white_00519_940519_fb_edt.bmp","null","","","","","","","","","","",""
"image-keyboard-response","73","157826","0.0-6.0-1.34","5ee71ce25f11c84a3e909b09","bdp_trlrn","Sun Mar 12 2023 22:08:25 GMT-0500 (Central Daylight Time)","1389675","Untrustworthy,Trustworthy","","1049","","","","rating","","trustrating_stim/white_mw089.bmp","5","","","","","","","","","","",""
"image-keyboard-response","74","158027","0.0-6.0-2.34","5ee71ce25f11c84a3e909b09","bdp_trlrn","Sun Mar 12 2023 22:08:25 GMT-0500 (Central Daylight Time)","1389675","Untrustworthy,Trustworthy","","null","","","","ratingFB","","trustrating_stim/white_mw089.bmp","null","","","","","","","","","","",""
"image-keyboard-response","75","159037","0.0-6.0-1.35","5ee71ce25f11c84a3e909b09","bdp_trlrn","Sun Mar 12 2023 22:08:25 GMT-0500 (Central Daylight Time)","1389675","Untrustworthy,Trustworthy","","908","","","","rating","","trustrating_stim/white_00109_931230_fa_edt.bmp","1","","","","","","","","","","",""
"image-keyboard-response","76","159238","0.0-6.0-2.35","5ee71ce25f11c84a3e909b09","bdp_trlrn","Sun Mar 12 2023 22:08:25 GMT-0500 (Central Daylight Time)","1389675","Untrustworthy,Trustworthy","","null","","","","ratingFB","","trustrating_stim/white_00109_931230_fa_edt.bmp","null","","","","","","","","","","",""
"image-keyboard-response","77","160352","0.0-6.0-1.36","5ee71ce25f11c84a3e909b09","bdp_trlrn","Sun Mar 12 2023 22:08:25 GMT-0500 (Central Daylight Time)","1389675","Untrustworthy,Trustworthy","","1011","","","","rating","","trustrating_stim/white_mw097.bmp","2","","","","","","","","","","",""
"image-keyboard-response","78","160565","0.0-6.0-2.36","5ee71ce25f11c84a3e909b09","bdp_trlrn","Sun Mar 12 2023 22:08:25 GMT-0500 (Central Daylight Time)","1389675","Untrustworthy,Trustworthy","","null","","","","ratingFB","","trustrating_stim/white_mw097.bmp","null","","","","","","","","","","",""
"image-keyboard-response","79","161634","0.0-6.0-1.37","5ee71ce25f11c84a3e909b09","bdp_trlrn","Sun Mar 12 2023 22:08:25 GMT-0500 (Central Daylight Time)","1389675","Untrustworthy,Trustworthy","","968","","","","rating","","trustrating_stim/white_00299_940422_fa_edt.bmp","6","","","","","","","","","","",""
"image-keyboard-response","80","161835","0.0-6.0-2.37","5ee71ce25f11c84a3e909b09","bdp_trlrn","Sun Mar 12 2023 22:08:25 GMT-0500 (Central Daylight Time)","1389675","Untrustworthy,Trustworthy","","null","","","","ratingFB","","trustrating_stim/white_00299_940422_fa_edt.bmp","null","","","","","","","","","","",""
"image-keyboard-response","81","162808","0.0-6.0-1.38","5ee71ce25f11c84a3e909b09","bdp_trlrn","Sun Mar 12 2023 22:08:25 GMT-0500 (Central Daylight Time)","1389675","Untrustworthy,Trustworthy","","871","","","","rating","","trustrating_stim/white_00898_960530_fa_edt.bmp","4","","","","","","","","","","",""
"image-keyboard-response","82","163009","0.0-6.0-2.38","5ee71ce25f11c84a3e909b09","bdp_trlrn","Sun Mar 12 2023 22:08:25 GMT-0500 (Central Daylight Time)","1389675","Untrustworthy,Trustworthy","","null","","","","ratingFB","","trustrating_stim/white_00898_960530_fa_edt.bmp","null","","","","","","","","","","",""
"image-keyboard-response","83","164176","0.0-6.0-1.39","5ee71ce25f11c84a3e909b09","bdp_trlrn","Sun Mar 12 2023 22:08:25 GMT-0500 (Central Daylight Time)","1389675","Untrustworthy,Trustworthy","","1067","","","","rating","","trustrating_stim/white_mw049.bmp","6","","","","","","","","","","",""
"image-keyboard-response","84","164377","0.0-6.0-2.39","5ee71ce25f11c84a3e909b09","bdp_trlrn","Sun Mar 12 2023 22:08:25 GMT-0500 (Central Daylight Time)","1389675","Untrustworthy,Trustworthy","","null","","","","ratingFB","","trustrating_stim/white_mw049.bmp","null","","","","","","","","","","",""
"image-keyboard-response","85","165393","0.0-6.0-1.40","5ee71ce25f11c84a3e909b09","bdp_trlrn","Sun Mar 12 2023 22:08:25 GMT-0500 (Central Daylight Time)","1389675","Untrustworthy,Trustworthy","","915","","","","rating","","trustrating_stim/white_00807_941205_fb_edt.bmp","2","","","","","","","","","","",""
"image-keyboard-response","86","165594","0.0-6.0-2.40","5ee71ce25f11c84a3e909b09","bdp_trlrn","Sun Mar 12 2023 22:08:25 GMT-0500 (Central Daylight Time)","1389675","Untrustworthy,Trustworthy","","null","","","","ratingFB","","trustrating_stim/white_00807_941205_fb_edt.bmp","null","","","","","","","","","","",""
"image-keyboard-response","87","166667","0.0-6.0-1.41","5ee71ce25f11c84a3e909b09","bdp_trlrn","Sun Mar 12 2023 22:08:25 GMT-0500 (Central Daylight Time)","1389675","Untrustworthy,Trustworthy","","970","","","","rating","","trustrating_stim/white_00129_931230_fb_edt.bmp","6","","","","","","","","","","",""
"image-keyboard-response","88","166868","0.0-6.0-2.41","5ee71ce25f11c84a3e909b09","bdp_trlrn","Sun Mar 12 2023 22:08:25 GMT-0500 (Central Daylight Time)","1389675","Untrustworthy,Trustworthy","","null","","","","ratingFB","","trustrating_stim/white_00129_931230_fb_edt.bmp","null","","","","","","","","","","",""
"image-keyboard-response","89","168365","0.0-6.0-1.42","5ee71ce25f11c84a3e909b09","bdp_trlrn","Sun Mar 12 2023 22:08:25 GMT-0500 (Central Daylight Time)","1389675","Untrustworthy,Trustworthy","","1395","","","","rating","","trustrating_stim/white_mw066.bmp","7","","","","","","","","","","",""
"image-keyboard-response","90","168566","0.0-6.0-2.42","5ee71ce25f11c84a3e909b09","bdp_trlrn","Sun Mar 12 2023 22:08:25 GMT-0500 (Central Daylight Time)","1389675","Untrustworthy,Trustworthy","","null","","","","ratingFB","","trustrating_stim/white_mw066.bmp","null","","","","","","","","","","",""
"image-keyboard-response","91","169627","0.0-6.0-1.43","5ee71ce25f11c84a3e909b09","bdp_trlrn","Sun Mar 12 2023 22:08:25 GMT-0500 (Central Daylight Time)","1389675","Untrustworthy,Trustworthy","","960","","","","rating","","trustrating_stim/white_00659_941121_fa_edt.bmp","1","","","","","","","","","","",""
"image-keyboard-response","92","169829","0.0-6.0-2.43","5ee71ce25f11c84a3e909b09","bdp_trlrn","Sun Mar 12 2023 22:08:25 GMT-0500 (Central Daylight Time)","1389675","Untrustworthy,Trustworthy","","null","","","","ratingFB","","trustrating_stim/white_00659_941121_fa_edt.bmp","null","","","","","","","","","","",""
"image-keyboard-response","93","174854","0.0-6.0-1.44","5ee71ce25f11c84a3e909b09","bdp_trlrn","Sun Mar 12 2023 22:08:25 GMT-0500 (Central Daylight Time)","1389675","Untrustworthy,Trustworthy","","4924","","","","rating","","trustrating_stim/white_00340_940422_fa_edt.bmp","1","","","","","","","","","","",""
"image-keyboard-response","94","175056","0.0-6.0-2.44","5ee71ce25f11c84a3e909b09","bdp_trlrn","Sun Mar 12 2023 22:08:25 GMT-0500 (Central Daylight Time)","1389675","Untrustworthy,Trustworthy","","null","","","","ratingFB","","trustrating_stim/white_00340_940422_fa_edt.bmp","null","","","","","","","","","","",""
"image-keyboard-response","95","176850","0.0-6.0-1.45","5ee71ce25f11c84a3e909b09","bdp_trlrn","Sun Mar 12 2023 22:08:25 GMT-0500 (Central Daylight Time)","1389675","Untrustworthy,Trustworthy","","1691","","","","rating","","trustrating_stim/white_mw071.bmp","6","","","","","","","","","","",""
"image-keyboard-response","96","177051","0.0-6.0-2.45","5ee71ce25f11c84a3e909b09","bdp_trlrn","Sun Mar 12 2023 22:08:25 GMT-0500 (Central Daylight Time)","1389675","Untrustworthy,Trustworthy","","null","","","","ratingFB","","trustrating_stim/white_mw071.bmp","null","","","","","","","","","","",""
"image-keyboard-response","97","178771","0.0-6.0-1.46","5ee71ce25f11c84a3e909b09","bdp_trlrn","Sun Mar 12 2023 22:08:25 GMT-0500 (Central Daylight Time)","1389675","Untrustworthy,Trustworthy","","1619","","","","rating","","trustrating_stim/white_mw046.bmp","3","","","","","","","","","","",""
"image-keyboard-response","98","178972","0.0-6.0-2.46","5ee71ce25f11c84a3e909b09","bdp_trlrn","Sun Mar 12 2023 22:08:25 GMT-0500 (Central Daylight Time)","1389675","Untrustworthy,Trustworthy","","null","","","","ratingFB","","trustrating_stim/white_mw046.bmp","null","","","","","","","","","","",""
"image-keyboard-response","99","180286","0.0-6.0-1.47","5ee71ce25f11c84a3e909b09","bdp_trlrn","Sun Mar 12 2023 22:08:25 GMT-0500 (Central Daylight Time)","1389675","Untrustworthy,Trustworthy","","1212","","","","rating","","trustrating_stim/white_mw056.bmp","6","","","","","","","","","","",""
"image-keyboard-response","100","180487","0.0-6.0-2.47","5ee71ce25f11c84a3e909b09","bdp_trlrn","Sun Mar 12 2023 22:08:25 GMT-0500 (Central Daylight Time)","1389675","Untrustworthy,Trustworthy","","null","","","","ratingFB","","trustrating_stim/white_mw056.bmp","null","","","","","","","","","","",""
"image-keyboard-response","101","181729","0.0-6.0-1.48","5ee71ce25f11c84a3e909b09","bdp_trlrn","Sun Mar 12 2023 22:08:25 GMT-0500 (Central Daylight Time)","1389675","Untrustworthy,Trustworthy","","1140","","","","rating","","trustrating_stim/white_mw063.bmp","1","","","","","","","","","","",""
"image-keyboard-response","102","181931","0.0-6.0-2.48","5ee71ce25f11c84a3e909b09","bdp_trlrn","Sun Mar 12 2023 22:08:25 GMT-0500 (Central Daylight Time)","1389675","Untrustworthy,Trustworthy","","null","","","","ratingFB","","trustrating_stim/white_mw063.bmp","null","","","","","","","","","","",""
"image-keyboard-response","103","183186","0.0-6.0-1.49","5ee71ce25f11c84a3e909b09","bdp_trlrn","Sun Mar 12 2023 22:08:25 GMT-0500 (Central Daylight Time)","1389675","Untrustworthy,Trustworthy","","1154","","","","rating","","trustrating_stim/white_mw048.bmp","1","","","","","","","","","","",""
"image-keyboard-response","104","183387","0.0-6.0-2.49","5ee71ce25f11c84a3e909b09","bdp_trlrn","Sun Mar 12 2023 22:08:25 GMT-0500 (Central Daylight Time)","1389675","Untrustworthy,Trustworthy","","null","","","","ratingFB","","trustrating_stim/white_mw048.bmp","null","","","","","","","","","","",""
"image-keyboard-response","105","187268","0.0-6.0-1.50","5ee71ce25f11c84a3e909b09","bdp_trlrn","Sun Mar 12 2023 22:08:25 GMT-0500 (Central Daylight Time)","1389675","Untrustworthy,Trustworthy","","3779","","","","rating","","trustrating_stim/white_mw084.bmp","5","","","","","","","","","","",""
"image-keyboard-response","106","187470","0.0-6.0-2.50","5ee71ce25f11c84a3e909b09","bdp_trlrn","Sun Mar 12 2023 22:08:25 GMT-0500 (Central Daylight Time)","1389675","Untrustworthy,Trustworthy","","null","","","","ratingFB","","trustrating_stim/white_mw084.bmp","null","","","","","","","","","","",""
"image-keyboard-response","107","189088","0.0-6.0-1.51","5ee71ce25f11c84a3e909b09","bdp_trlrn","Sun Mar 12 2023 22:08:25 GMT-0500 (Central Daylight Time)","1389675","Untrustworthy,Trustworthy","","1517","","","","rating","","trustrating_stim/white_mw033.bmp","6","","","","","","","","","","",""
"image-keyboard-response","108","189289","0.0-6.0-2.51","5ee71ce25f11c84a3e909b09","bdp_trlrn","Sun Mar 12 2023 22:08:25 GMT-0500 (Central Daylight Time)","1389675","Untrustworthy,Trustworthy","","null","","","","ratingFB","","trustrating_stim/white_mw033.bmp","null","","","","","","","","","","",""
"image-keyboard-response","109","190757","0.0-6.0-1.52","5ee71ce25f11c84a3e909b09","bdp_trlrn","Sun Mar 12 2023 22:08:25 GMT-0500 (Central Daylight Time)","1389675","Untrustworthy,Trustworthy","","1366","","","","rating","","trustrating_stim/white_00120_931230_fa_edt.bmp","7","","","","","","","","","","",""
"image-keyboard-response","110","190959","0.0-6.0-2.52","5ee71ce25f11c84a3e909b09","bdp_trlrn","Sun Mar 12 2023 22:08:25 GMT-0500 (Central Daylight Time)","1389675","Untrustworthy,Trustworthy","","null","","","","ratingFB","","trustrating_stim/white_00120_931230_fa_edt.bmp","null","","","","","","","","","","",""
"image-keyboard-response","111","192809","0.0-6.0-1.53","5ee71ce25f11c84a3e909b09","bdp_trlrn","Sun Mar 12 2023 22:08:25 GMT-0500 (Central Daylight Time)","1389675","Untrustworthy,Trustworthy","","1749","","","","rating","","trustrating_stim/white_00223_940128_fb_edt.bmp","2","","","","","","","","","","",""
"image-keyboard-response","112","193010","0.0-6.0-2.53","5ee71ce25f11c84a3e909b09","bdp_trlrn","Sun Mar 12 2023 22:08:25 GMT-0500 (Central Daylight Time)","1389675","Untrustworthy,Trustworthy","","null","","","","ratingFB","","trustrating_stim/white_00223_940128_fb_edt.bmp","null","","","","","","","","","","",""
"image-keyboard-response","113","194583","0.0-6.0-1.54","5ee71ce25f11c84a3e909b09","bdp_trlrn","Sun Mar 12 2023 22:08:25 GMT-0500 (Central Daylight Time)","1389675","Untrustworthy,Trustworthy","","1472","","","","rating","","trustrating_stim/white_mw060.bmp","1","","","","","","","","","","",""
"image-keyboard-response","114","194784","0.0-6.0-2.54","5ee71ce25f11c84a3e909b09","bdp_trlrn","Sun Mar 12 2023 22:08:25 GMT-0500 (Central Daylight Time)","1389675","Untrustworthy,Trustworthy","","null","","","","ratingFB","","trustrating_stim/white_mw060.bmp","null","","","","","","","","","","",""
"image-keyboard-response","115","196283","0.0-6.0-1.55","5ee71ce25f11c84a3e909b09","bdp_trlrn","Sun Mar 12 2023 22:08:25 GMT-0500 (Central Daylight Time)","1389675","Untrustworthy,Trustworthy","","1397","","","","rating","","trustrating_stim/white_00577_940928_fa_edt.bmp","5","","","","","","","","","","",""
"image-keyboard-response","116","196484","0.0-6.0-2.55","5ee71ce25f11c84a3e909b09","bdp_trlrn","Sun Mar 12 2023 22:08:25 GMT-0500 (Central Daylight Time)","1389675","Untrustworthy,Trustworthy","","null","","","","ratingFB","","trustrating_stim/white_00577_940928_fa_edt.bmp","null","","","","","","","","","","",""
"image-keyboard-response","117","197691","0.0-6.0-1.56","5ee71ce25f11c84a3e909b09","bdp_trlrn","Sun Mar 12 2023 22:08:25 GMT-0500 (Central Daylight Time)","1389675","Untrustworthy,Trustworthy","","1104","","","","rating","","trustrating_stim/white_mw035.bmp","6","","","","","","","","","","",""
"image-keyboard-response","118","197892","0.0-6.0-2.56","5ee71ce25f11c84a3e909b09","bdp_trlrn","Sun Mar 12 2023 22:08:25 GMT-0500 (Central Daylight Time)","1389675","Untrustworthy,Trustworthy","","null","","","","ratingFB","","trustrating_stim/white_mw035.bmp","null","","","","","","","","","","",""
"image-keyboard-response","119","199029","0.0-6.0-1.57","5ee71ce25f11c84a3e909b09","bdp_trlrn","Sun Mar 12 2023 22:08:25 GMT-0500 (Central Daylight Time)","1389675","Untrustworthy,Trustworthy","","1035","","","","rating","","trustrating_stim/white_00757_941201_fa_edt.bmp","1","","","","","","","","","","",""
"image-keyboard-response","120","199230","0.0-6.0-2.57","5ee71ce25f11c84a3e909b09","bdp_trlrn","Sun Mar 12 2023 22:08:25 GMT-0500 (Central Daylight Time)","1389675","Untrustworthy,Trustworthy","","null","","","","ratingFB","","trustrating_stim/white_00757_941201_fa_edt.bmp","null","","","","","","","","","","",""
"image-keyboard-response","121","200782","0.0-6.0-1.58","5ee71ce25f11c84a3e909b09","bdp_trlrn","Sun Mar 12 2023 22:08:25 GMT-0500 (Central Daylight Time)","1389675","Untrustworthy,Trustworthy","","1449","","","","rating","","trustrating_stim/white_00761_941201_fb_edt.bmp","7","","","","","","","","","","",""
"image-keyboard-response","122","200983","0.0-6.0-2.58","5ee71ce25f11c84a3e909b09","bdp_trlrn","Sun Mar 12 2023 22:08:25 GMT-0500 (Central Daylight Time)","1389675","Untrustworthy,Trustworthy","","null","","","","ratingFB","","trustrating_stim/white_00761_941201_fb_edt.bmp","null","","","","","","","","","","",""
"image-keyboard-response","123","202467","0.0-6.0-1.59","5ee71ce25f11c84a3e909b09","bdp_trlrn","Sun Mar 12 2023 22:08:25 GMT-0500 (Central Daylight Time)","1389675","Untrustworthy,Trustworthy","","1382","","","","rating","","trustrating_stim/white_mw099.bmp","4","","","","","","","","","","",""
"image-keyboard-response","124","202669","0.0-6.0-2.59","5ee71ce25f11c84a3e909b09","bdp_trlrn","Sun Mar 12 2023 22:08:25 GMT-0500 (Central Daylight Time)","1389675","Untrustworthy,Trustworthy","","null","","","","ratingFB","","trustrating_stim/white_mw099.bmp","null","","","","","","","","","","",""
"instructions","125","652989","0.0-7.0","5ee71ce25f11c84a3e909b09","bdp_trlrn","Sun Mar 12 2023 22:08:25 GMT-0500 (Central Daylight Time)","1389675","Untrustworthy,Trustworthy","[{""page_index"":0,""viewing_time"":450218}]","450219","","","","","","","","","","","","","","","","","",""
"instructions","126","719536","0.0-8.0","5ee71ce25f11c84a3e909b09","bdp_trlrn","Sun Mar 12 2023 22:08:25 GMT-0500 (Central Daylight Time)","1389675","Untrustworthy,Trustworthy","[{""page_index"":0,""viewing_time"":17269},{""page_index"":1,""viewing_time"":8198},{""page_index"":2,""viewing_time"":7174},{""page_index"":3,""viewing_time"":7635},{""page_index"":4,""viewing_time"":12477},{""page_index"":5,""viewing_time"":9271},{""page_index"":6,""viewing_time"":3404},{""page_index"":7,""viewing_time"":1018}]","66446","","","","","","","","","","","","","","","","","",""
"html-keyboard-response","127","726258","0.0-9.0","5ee71ce25f11c84a3e909b09","bdp_trlrn","Sun Mar 12 2023 22:08:25 GMT-0500 (Central Daylight Time)","1389675","Untrustworthy,Trustworthy","","6722","","","","","","<div class='header' style='text-align:left; position: absolute; top: 5%; left: 5%;'><small>Task 3 of 5</small></div><div class='instruxDiv'><p><strong>1) What is the minimum number of points you can choose to send to your partner?</strong></p><p>a) 0</p><p>b) 1</p><p>c) 5</p>","B","","","","","","","","","","",""
"html-keyboard-response","128","727581","0.0-10.0","5ee71ce25f11c84a3e909b09","bdp_trlrn","Sun Mar 12 2023 22:08:25 GMT-0500 (Central Daylight Time)","1389675","Untrustworthy,Trustworthy","","1222","","","","","","<div class='header' style='text-align:left; position: absolute; top: 5%; left: 5%;'><small>Task 3 of 5</small></div><div class='instruxDiv'><p><strong>1) What is the minimum number of points you can choose to send to your partner?</strong></p><p>a) 0</p><p style='color:#00FF00'>b) 1</p><p>c) 5</p><h3 style='color:#00FF00'>Correct!</h3><h3 class='center-content'>The correct response is b).</h3><h3 class='center-content'>The minimum number of points you can choose to send to your partner is 1 point.</h3><p><em>Press SPACEBAR to continue</em></p></div>"," ","","","","","","","","","","",""
"html-keyboard-response","129","732421","0.0-11.0","5ee71ce25f11c84a3e909b09","bdp_trlrn","Sun Mar 12 2023 22:08:25 GMT-0500 (Central Daylight Time)","1389675","Untrustworthy,Trustworthy","","4739","","","","","","<div class='header' style='text-align:left; position: absolute; top: 5%; left: 5%;'><small>Task 3 of 5</small></div><div class='instruxDiv'><p><strong>2) What is the maximum number of points you can choose to send to your partner?</strong></p><p>a) 8</p><p>b) 5</p><p>c) 3</p>","B","","","","","","","","","","",""
"html-keyboard-response","130","733473","0.0-12.0","5ee71ce25f11c84a3e909b09","bdp_trlrn","Sun Mar 12 2023 22:08:25 GMT-0500 (Central Daylight Time)","1389675","Untrustworthy,Trustworthy","","950","","","","","","<div class='header' style='text-align:left; position: absolute; top: 5%; left: 5%;'><small>Task 3 of 5</small></div><div class='instruxDiv'><p><strong>2) What is the maximum number of points you can choose to send to your partner?</strong></p><p>a) 8</p><p style='color:#00FF00'>b) 5</p><p>c) 3</p><h3 style='color:#00FF00'>Correct!</h3><h3 class='center-content'>The correct response is b).</h3><h3 class='center-content'>The maximum number of points you can choose to send to your partner is 5 points.</h3><p><em>Press SPACEBAR to continue</em></p></div>"," ","","","","","","","","","","",""
"html-keyboard-response","131","736363","0.0-13.0","5ee71ce25f11c84a3e909b09","bdp_trlrn","Sun Mar 12 2023 22:08:25 GMT-0500 (Central Daylight Time)","1389675","Untrustworthy,Trustworthy","","2789","","","","","","<div class='header' style='text-align:left; position: absolute; top: 5%; left: 5%;'><small>Task 3 of 5</small></div><div class='instruxDiv'><p><strong>3) What happens to the amount of points you send to your partner?</strong></p><p>a) Nothing</p><p>b) It doubles</p><p>c) It quadruples</p>","C","","","","","","","","","","",""
"html-keyboard-response","132","738648","0.0-14.0","5ee71ce25f11c84a3e909b09","bdp_trlrn","Sun Mar 12 2023 22:08:25 GMT-0500 (Central Daylight Time)","1389675","Untrustworthy,Trustworthy","","2183","","","","","","<div class='header' style='text-align:left; position: absolute; top: 5%; left: 5%;'><small>Task 3 of 5</small></div><div class='instruxDiv'><p><strong>3) What happens to the amount of points you send to your partner?</strong></p><p>a) Nothing</p><p>b) It doubles</p><p style='color:#00FF00'>c) It quadruples</p><h3 style='color:#00FF00'>Correct!</h3><h3 class='center-content'>The correct response is c).</h3><h3 class='center-content'>The amount of points you send to your partner quadruples.</h3><p><em>Press SPACEBAR to continue</em></p></div>"," ","","","","","","","","","","",""
"html-keyboard-response","133","774057","0.0-15.0","5ee71ce25f11c84a3e909b09","bdp_trlrn","Sun Mar 12 2023 22:08:25 GMT-0500 (Central Daylight Time)","1389675","Untrustworthy,Trustworthy","","35308","","","","","","<div class='header' style='text-align:left; position: absolute; top: 5%; left: 5%;'><small>Task 3 of 5</small></div><div class='instruxDiv'><p><strong>4) If you decided to share 4 out of 5 points with your partner, and they decided to share half of the amount they received with you, how many points would you receive back from them on this round?</strong></p><p>a) 16</p><p>b) 0</p><p>c) 8</p>","C","","","","","","","","","","",""
"html-keyboard-response","134","775398","0.0-16.0","5ee71ce25f11c84a3e909b09","bdp_trlrn","Sun Mar 12 2023 22:08:25 GMT-0500 (Central Daylight Time)","1389675","Untrustworthy,Trustworthy","","1238","","","","","","<div class='header' style='text-align:left; position: absolute; top: 5%; left: 5%;'><small>Task 3 of 5</small></div><div class='instruxDiv'><p><strong>4) If you decided to share 4 out of 5 points with your partner, and they decided to share half of the amount they received with you, how many points would you receive back from them on this round?</strong></p><p>a) 16</p><p>b) 0</p><p style='color:#00FF00'>c) 8</p><h3 style='color:#00FF00'>Correct!</h3><h3 class='center-content'>The correct response is c).</h3><h3 class='center-content'>If you shared 4 out of 5 points with your partner and they decided to share half of the amount they received with you, you would receive 8 points back (i.e. (4 x 4)/2 = 8).</h3><p><em>Press SPACEBAR to continue</em></p></div>"," ","","","","","","","","","","",""
"html-keyboard-response","135","780501","0.0-17.0","5ee71ce25f11c84a3e909b09","bdp_trlrn","Sun Mar 12 2023 22:08:25 GMT-0500 (Central Daylight Time)","1389675","Untrustworthy,Trustworthy","","null","","","","","","<div class='header' style='text-align:left; position: absolute; top: 5%; left: 5%;'><small>Task 3 of 5</small></div><div class='instruxDiv'><p>Thank you for completing the quiz<p>These are the actual partners you will be interacting with in the next block:<p><div class='tc' align='center'><img class='introPic' src='trustrating_stim/white_mw063.bmp'><br><strong>Benjamin</strong></div><div class='bl' align='center'><img class='introPic' src='trustrating_stim/white_mw046.bmp'><br><strong>Tyler</strong></div><div class='br' align='center'><img class='introPic' src='trustrating_stim/white_mw053.bmp'><br><strong>Nathan</strong></div></div><p>Across <strong>66 rounds</strong> you will interact with each partner <strong>22 times</strong> (in random order).<p style='align:center; color:white'><font <em>Press SPACEBAR to continue</em></p>","null","","","","","","","","","","",""
"instructions","136","784682","0.0-18.0","5ee71ce25f11c84a3e909b09","bdp_trlrn","Sun Mar 12 2023 22:08:25 GMT-0500 (Central Daylight Time)","1389675","Untrustworthy,Trustworthy","[{""page_index"":0,""viewing_time"":3447},{""page_index"":1,""viewing_time"":734}]","4181","","","","","","","","","","","","","","","","","",""
"html-keyboard-response","137","789082","0.0-19.0-1.0","5ee71ce25f11c84a3e909b09","bdp_trlrn","Sun Mar 12 2023 22:08:25 GMT-0500 (Central Daylight Time)","1389675","Untrustworthy,Trustworthy","","4298","","","","decision","","<div class='trialDiv'><img src='trustrating_stim/white_mw063.bmp'><br><font class='baseline'><strong>Benjamin</strong><p>Choose number of points to send.</font><div class='respPicDiv'><img src='img/responseButtonOffersNo0L.png' class='respPic'></div></div>","3","1","Benjamin","2","Kept","0.8,0.35","11","0.8","trustrating_stim/white_mw063.bmp","1","5","1"
"html-keyboard-response","138","789335","0.0-19.0-2.0","5ee71ce25f11c84a3e909b09","bdp_trlrn","Sun Mar 12 2023 22:08:25 GMT-0500 (Central Daylight Time)","1389675","Untrustworthy,Trustworthy","","null","","","","decisionFB","","<div class='trialDiv'><img src='trustrating_stim/white_mw063.bmp'><br><font class='baseline'><strong>Benjamin</strong><p>Choose number of points to send.</font><div class='respPicDiv'><img src='img/responseButtonOffersNo0L3.png' class='respPic'></div></div>","null","1","Benjamin","2","Kept","0.8,0.35","11","0.8","trustrating_stim/white_mw063.bmp","1","2","1"
"html-keyboard-response","139","790337","0.0-19.0-3.0","5ee71ce25f11c84a3e909b09","bdp_trlrn","Sun Mar 12 2023 22:08:25 GMT-0500 (Central Daylight Time)","1389675","Untrustworthy,Trustworthy","","null","","","","feedback","","<div class='trialDiv'><img src='trustrating_stim/white_mw063.bmp'><br><font class='baseline'><strong>Benjamin</strong><p>Received: <strong>12</strong></font> &nbsp; &nbsp; &nbsp; &nbsp; &nbsp; &nbsp;<font class='negOutcome'>Shared back: <strong>0</strong></font></font><div class='respPicDiv'><img src='img/responseButtonOffersNo0_wht.png' class='respPic'></div></div>","null","1","Benjamin","2","Kept","0.8,0.35","11","0.8","trustrating_stim/white_mw063.bmp","1","2","1"
"html-keyboard-response","140","793146","0.0-19.0-1.1","5ee71ce25f11c84a3e909b09","bdp_trlrn","Sun Mar 12 2023 22:08:25 GMT-0500 (Central Daylight Time)","1389675","Untrustworthy,Trustworthy","","2809","","","","decision","","<div class='trialDiv'><img src='trustrating_stim/white_mw046.bmp'><br><font class='baseline'><strong>Tyler</strong><p>Choose number of points to send.</font><div class='respPicDiv'><img src='img/responseButtonOffersNo0L.png' class='respPic'></div></div>","3","1","Tyler","4","Shared","0.8,0.2","14","0.8","trustrating_stim/white_mw046.bmp","4","7","2"
"html-keyboard-response","141","793398","0.0-19.0-2.1","5ee71ce25f11c84a3e909b09","bdp_trlrn","Sun Mar 12 2023 22:08:25 GMT-0500 (Central Daylight Time)","1389675","Untrustworthy,Trustworthy","","null","","","","decisionFB","","<div class='trialDiv'><img src='trustrating_stim/white_mw046.bmp'><br><font class='baseline'><strong>Tyler</strong><p>Choose number of points to send.</font><div class='respPicDiv'><img src='img/responseButtonOffersNo0L3.png' class='respPic'></div></div>","null","1","Tyler","4","Shared","0.8,0.2","14","0.8","trustrating_stim/white_mw046.bmp","4","4","2"
"html-keyboard-response","142","794400","0.0-19.0-3.1","5ee71ce25f11c84a3e909b09","bdp_trlrn","Sun Mar 12 2023 22:08:25 GMT-0500 (Central Daylight Time)","1389675","Untrustworthy,Trustworthy","","null","","","","feedback","","<div class='trialDiv'><img src='trustrating_stim/white_mw046.bmp'><br><font class='baseline'><strong>Tyler</strong><p>Received: <strong>12</strong></font> &nbsp; &nbsp; &nbsp; &nbsp; &nbsp; &nbsp;<font class='posOutcome'>Shared back: <strong>6</strong></font></font><div class='respPicDiv'><img src='img/responseButtonOffersNo0_wht.png' class='respPic'></div></div>","null","1","Tyler","4","Shared","0.8,0.2","14","0.8","trustrating_stim/white_mw046.bmp","4","10","2"
"html-keyboard-response","143","796346","0.0-19.0-1.2","5ee71ce25f11c84a3e909b09","bdp_trlrn","Sun Mar 12 2023 22:08:25 GMT-0500 (Central Daylight Time)","1389675","Untrustworthy,Trustworthy","","1945","","","","decision","","<div class='trialDiv'><img src='trustrating_stim/white_mw053.bmp'><br><font class='baseline'><strong>Nathan</strong><p>Choose number of points to send.</font><div class='respPicDiv'><img src='img/responseButtonOffersNo0L.png' class='respPic'></div></div>","3","1","Nathan","9","Kept","0.2,0.65","10","0.2","trustrating_stim/white_mw053.bmp","6.5","15","3"
"html-keyboard-response","144","796597","0.0-19.0-2.2","5ee71ce25f11c84a3e909b09","bdp_trlrn","Sun Mar 12 2023 22:08:25 GMT-0500 (Central Daylight Time)","1389675","Untrustworthy,Trustworthy","","null","","","","decisionFB","","<div class='trialDiv'><img src='trustrating_stim/white_mw053.bmp'><br><font class='baseline'><strong>Nathan</strong><p>Choose number of points to send.</font><div class='respPicDiv'><img src='img/responseButtonOffersNo0L3.png' class='respPic'></div></div>","null","1","Nathan","9","Kept","0.2,0.65","10","0.2","trustrating_stim/white_mw053.bmp","6.5","12","3"
"html-keyboard-response","145","797614","0.0-19.0-3.2","5ee71ce25f11c84a3e909b09","bdp_trlrn","Sun Mar 12 2023 22:08:25 GMT-0500 (Central Daylight Time)","1389675","Untrustworthy,Trustworthy","","null","","","","feedback","","<div class='trialDiv'><img src='trustrating_stim/white_mw053.bmp'><br><font class='baseline'><strong>Nathan</strong><p>Received: <strong>12</strong></font> &nbsp; &nbsp; &nbsp; &nbsp; &nbsp; &nbsp;<font class='negOutcome'>Shared back: <strong>0</strong></font></font><div class='respPicDiv'><img src='img/responseButtonOffersNo0_wht.png' class='respPic'></div></div>","null","1","Nathan","9","Kept","0.2,0.65","10","0.2","trustrating_stim/white_mw053.bmp","6.5","12","3"
"html-keyboard-response","146","799350","0.0-19.0-1.3","5ee71ce25f11c84a3e909b09","bdp_trlrn","Sun Mar 12 2023 22:08:25 GMT-0500 (Central Daylight Time)","1389675","Untrustworthy,Trustworthy","","1735","","","","decision","","<div class='trialDiv'><img src='trustrating_stim/white_mw063.bmp'><br><font class='baseline'><strong>Benjamin</strong><p>Choose number of points to send.</font><div class='respPicDiv'><img src='img/responseButtonOffersNo0L.png' class='respPic'></div></div>","1","2","Benjamin","2","Shared","0.8,0.35","11","0.8","trustrating_stim/white_mw063.bmp","1","17","4"
"html-keyboard-response","147","799601","0.0-19.0-2.3","5ee71ce25f11c84a3e909b09","bdp_trlrn","Sun Mar 12 2023 22:08:25 GMT-0500 (Central Daylight Time)","1389675","Untrustworthy,Trustworthy","","null","","","","decisionFB","","<div class='trialDiv'><img src='trustrating_stim/white_mw063.bmp'><br><font class='baseline'><strong>Benjamin</strong><p>Choose number of points to send.</font><div class='respPicDiv'><img src='img/responseButtonOffersNo0L1.png' class='respPic'></div></div>","null","2","Benjamin","2","Shared","0.8,0.35","11","0.8","trustrating_stim/white_mw063.bmp","1","16","4"
"html-keyboard-response","148","800603","0.0-19.0-3.3","5ee71ce25f11c84a3e909b09","bdp_trlrn","Sun Mar 12 2023 22:08:25 GMT-0500 (Central Daylight Time)","1389675","Untrustworthy,Trustworthy","","null","","","","feedback","","<div class='trialDiv'><img src='trustrating_stim/white_mw063.bmp'><br><font class='baseline'><strong>Benjamin</strong><p>Received: <strong>4</strong></font> &nbsp; &nbsp; &nbsp; &nbsp; &nbsp; &nbsp;<font class='posOutcome'>Shared back: <strong>2</strong></font></font><div class='respPicDiv'><img src='img/responseButtonOffersNo0_wht.png' class='respPic'></div></div>","null","2","Benjamin","2","Shared","0.8,0.35","11","0.8","trustrating_stim/white_mw063.bmp","1","18","4"
"html-keyboard-response","149","801697","0.0-19.0-1.4","5ee71ce25f11c84a3e909b09","bdp_trlrn","Sun Mar 12 2023 22:08:25 GMT-0500 (Central Daylight Time)","1389675","Untrustworthy,Trustworthy","","1094","","","","decision","","<div class='trialDiv'><img src='trustrating_stim/white_mw046.bmp'><br><font class='baseline'><strong>Tyler</strong><p>Choose number of points to send.</font><div class='respPicDiv'><img src='img/responseButtonOffersNo0L.png' class='respPic'></div></div>","1","2","Tyler","4","Shared","0.8,0.2","14","0.8","trustrating_stim/white_mw046.bmp","4","23","5"
"html-keyboard-response","150","801949","0.0-19.0-2.4","5ee71ce25f11c84a3e909b09","bdp_trlrn","Sun Mar 12 2023 22:08:25 GMT-0500 (Central Daylight Time)","1389675","Untrustworthy,Trustworthy","","null","","","","decisionFB","","<div class='trialDiv'><img src='trustrating_stim/white_mw046.bmp'><br><font class='baseline'><strong>Tyler</strong><p>Choose number of points to send.</font><div class='respPicDiv'><img src='img/responseButtonOffersNo0L1.png' class='respPic'></div></div>","null","2","Tyler","4","Shared","0.8,0.2","14","0.8","trustrating_stim/white_mw046.bmp","4","22","5"
"html-keyboard-response","151","802950","0.0-19.0-3.4","5ee71ce25f11c84a3e909b09","bdp_trlrn","Sun Mar 12 2023 22:08:25 GMT-0500 (Central Daylight Time)","1389675","Untrustworthy,Trustworthy","","null","","","","feedback","","<div class='trialDiv'><img src='trustrating_stim/white_mw046.bmp'><br><font class='baseline'><strong>Tyler</strong><p>Received: <strong>4</strong></font> &nbsp; &nbsp; &nbsp; &nbsp; &nbsp; &nbsp;<font class='posOutcome'>Shared back: <strong>2</strong></font></font><div class='respPicDiv'><img src='img/responseButtonOffersNo0_wht.png' class='respPic'></div></div>","null","2","Tyler","4","Shared","0.8,0.2","14","0.8","trustrating_stim/white_mw046.bmp","4","24","5"
"html-keyboard-response","152","804487","0.0-19.0-1.5","5ee71ce25f11c84a3e909b09","bdp_trlrn","Sun Mar 12 2023 22:08:25 GMT-0500 (Central Daylight Time)","1389675","Untrustworthy,Trustworthy","","1536","","","","decision","","<div class='trialDiv'><img src='trustrating_stim/white_mw053.bmp'><br><font class='baseline'><strong>Nathan</strong><p>Choose number of points to send.</font><div class='respPicDiv'><img src='img/responseButtonOffersNo0L.png' class='respPic'></div></div>","3","2","Nathan","9","Kept","0.2,0.65","10","0.2","trustrating_stim/white_mw053.bmp","6.5","29","6"
"html-keyboard-response","153","804738","0.0-19.0-2.5","5ee71ce25f11c84a3e909b09","bdp_trlrn","Sun Mar 12 2023 22:08:25 GMT-0500 (Central Daylight Time)","1389675","Untrustworthy,Trustworthy","","null","","","","decisionFB","","<div class='trialDiv'><img src='trustrating_stim/white_mw053.bmp'><br><font class='baseline'><strong>Nathan</strong><p>Choose number of points to send.</font><div class='respPicDiv'><img src='img/responseButtonOffersNo0L3.png' class='respPic'></div></div>","null","2","Nathan","9","Kept","0.2,0.65","10","0.2","trustrating_stim/white_mw053.bmp","6.5","26","6"
"html-keyboard-response","154","805740","0.0-19.0-3.5","5ee71ce25f11c84a3e909b09","bdp_trlrn","Sun Mar 12 2023 22:08:25 GMT-0500 (Central Daylight Time)","1389675","Untrustworthy,Trustworthy","","null","","","","feedback","","<div class='trialDiv'><img src='trustrating_stim/white_mw053.bmp'><br><font class='baseline'><strong>Nathan</strong><p>Received: <strong>12</strong></font> &nbsp; &nbsp; &nbsp; &nbsp; &nbsp; &nbsp;<font class='negOutcome'>Shared back: <strong>0</strong></font></font><div class='respPicDiv'><img src='img/responseButtonOffersNo0_wht.png' class='respPic'></div></div>","null","2","Nathan","9","Kept","0.2,0.65","10","0.2","trustrating_stim/white_mw053.bmp","6.5","26","6"
"html-keyboard-response","155","808068","0.0-19.0-1.6","5ee71ce25f11c84a3e909b09","bdp_trlrn","Sun Mar 12 2023 22:08:25 GMT-0500 (Central Daylight Time)","1389675","Untrustworthy,Trustworthy","","2328","","","","decision","","<div class='trialDiv'><img src='trustrating_stim/white_mw046.bmp'><br><font class='baseline'><strong>Tyler</strong><p>Choose number of points to send.</font><div class='respPicDiv'><img src='img/responseButtonOffersNo0L.png' class='respPic'></div></div>","2","3","Tyler","4","Shared","0.8,0.2","14","0.8","trustrating_stim/white_mw046.bmp","4","31","7"
"html-keyboard-response","156","808319","0.0-19.0-2.6","5ee71ce25f11c84a3e909b09","bdp_trlrn","Sun Mar 12 2023 22:08:25 GMT-0500 (Central Daylight Time)","1389675","Untrustworthy,Trustworthy","","null","","","","decisionFB","","<div class='trialDiv'><img src='trustrating_stim/white_mw046.bmp'><br><font class='baseline'><strong>Tyler</strong><p>Choose number of points to send.</font><div class='respPicDiv'><img src='img/responseButtonOffersNo0L2.png' class='respPic'></div></div>","null","3","Tyler","4","Shared","0.8,0.2","14","0.8","trustrating_stim/white_mw046.bmp","4","29","7"
"html-keyboard-response","157","809321","0.0-19.0-3.6","5ee71ce25f11c84a3e909b09","bdp_trlrn","Sun Mar 12 2023 22:08:25 GMT-0500 (Central Daylight Time)","1389675","Untrustworthy,Trustworthy","","null","","","","feedback","","<div class='trialDiv'><img src='trustrating_stim/white_mw046.bmp'><br><font class='baseline'><strong>Tyler</strong><p>Received: <strong>8</strong></font> &nbsp; &nbsp; &nbsp; &nbsp; &nbsp; &nbsp;<font class='posOutcome'>Shared back: <strong>4</strong></font></font><div class='respPicDiv'><img src='img/responseButtonOffersNo0_wht.png' class='respPic'></div></div>","null","3","Tyler","4","Shared","0.8,0.2","14","0.8","trustrating_stim/white_mw046.bmp","4","33","7"
"html-keyboard-response","158","810539","0.0-19.0-1.7","5ee71ce25f11c84a3e909b09","bdp_trlrn","Sun Mar 12 2023 22:08:25 GMT-0500 (Central Daylight Time)","1389675","Untrustworthy,Trustworthy","","1218","","","","decision","","<div class='trialDiv'><img src='trustrating_stim/white_mw063.bmp'><br><font class='baseline'><strong>Benjamin</strong><p>Choose number of points to send.</font><div class='respPicDiv'><img src='img/responseButtonOffersNo0L.png' class='respPic'></div></div>","2","3","Benjamin","2","Kept","0.8,0.35","11","0.8","trustrating_stim/white_mw063.bmp","1","38","8"
"html-keyboard-response","159","810791","0.0-19.0-2.7","5ee71ce25f11c84a3e909b09","bdp_trlrn","Sun Mar 12 2023 22:08:25 GMT-0500 (Central Daylight Time)","1389675","Untrustworthy,Trustworthy","","null","","","","decisionFB","","<div class='trialDiv'><img src='trustrating_stim/white_mw063.bmp'><br><font class='baseline'><strong>Benjamin</strong><p>Choose number of points to send.</font><div class='respPicDiv'><img src='img/responseButtonOffersNo0L2.png' class='respPic'></div></div>","null","3","Benjamin","2","Kept","0.8,0.35","11","0.8","trustrating_stim/white_mw063.bmp","1","36","8"
"html-keyboard-response","160","811793","0.0-19.0-3.7","5ee71ce25f11c84a3e909b09","bdp_trlrn","Sun Mar 12 2023 22:08:25 GMT-0500 (Central Daylight Time)","1389675","Untrustworthy,Trustworthy","","null","","","","feedback","","<div class='trialDiv'><img src='trustrating_stim/white_mw063.bmp'><br><font class='baseline'><strong>Benjamin</strong><p>Received: <strong>8</strong></font> &nbsp; &nbsp; &nbsp; &nbsp; &nbsp; &nbsp;<font class='negOutcome'>Shared back: <strong>0</strong></font></font><div class='respPicDiv'><img src='img/responseButtonOffersNo0_wht.png' class='respPic'></div></div>","null","3","Benjamin","2","Kept","0.8,0.35","11","0.8","trustrating_stim/white_mw063.bmp","1","36","8"
"html-keyboard-response","161","812377","0.0-19.0-1.8","5ee71ce25f11c84a3e909b09","bdp_trlrn","Sun Mar 12 2023 22:08:25 GMT-0500 (Central Daylight Time)","1389675","Untrustworthy,Trustworthy","","584","","","","decision","","<div class='trialDiv'><img src='trustrating_stim/white_mw053.bmp'><br><font class='baseline'><strong>Nathan</strong><p>Choose number of points to send.</font><div class='respPicDiv'><img src='img/responseButtonOffersNo0L.png' class='respPic'></div></div>","2","3","Nathan","9","Kept","0.2,0.65","10","0.2","trustrating_stim/white_mw053.bmp","6.5","41","9"
"html-keyboard-response","162","812629","0.0-19.0-2.8","5ee71ce25f11c84a3e909b09","bdp_trlrn","Sun Mar 12 2023 22:08:25 GMT-0500 (Central Daylight Time)","1389675","Untrustworthy,Trustworthy","","null","","","","decisionFB","","<div class='trialDiv'><img src='trustrating_stim/white_mw053.bmp'><br><font class='baseline'><strong>Nathan</strong><p>Choose number of points to send.</font><div class='respPicDiv'><img src='img/responseButtonOffersNo0L2.png' class='respPic'></div></div>","null","3","Nathan","9","Kept","0.2,0.65","10","0.2","trustrating_stim/white_mw053.bmp","6.5","39","9"
"html-keyboard-response","163","813632","0.0-19.0-3.8","5ee71ce25f11c84a3e909b09","bdp_trlrn","Sun Mar 12 2023 22:08:25 GMT-0500 (Central Daylight Time)","1389675","Untrustworthy,Trustworthy","","null","","","","feedback","","<div class='trialDiv'><img src='trustrating_stim/white_mw053.bmp'><br><font class='baseline'><strong>Nathan</strong><p>Received: <strong>8</strong></font> &nbsp; &nbsp; &nbsp; &nbsp; &nbsp; &nbsp;<font class='negOutcome'>Shared back: <strong>0</strong></font></font><div class='respPicDiv'><img src='img/responseButtonOffersNo0_wht.png' class='respPic'></div></div>","null","3","Nathan","9","Kept","0.2,0.65","10","0.2","trustrating_stim/white_mw053.bmp","6.5","39","9"
"html-keyboard-response","164","815307","0.0-19.0-1.9","5ee71ce25f11c84a3e909b09","bdp_trlrn","Sun Mar 12 2023 22:08:25 GMT-0500 (Central Daylight Time)","1389675","Untrustworthy,Trustworthy","","1674","","","","decision","","<div class='trialDiv'><img src='trustrating_stim/white_mw046.bmp'><br><font class='baseline'><strong>Tyler</strong><p>Choose number of points to send.</font><div class='respPicDiv'><img src='img/responseButtonOffersNo0L.png' class='respPic'></div></div>","2","4","Tyler","4","Shared","0.8,0.2","14","0.8","trustrating_stim/white_mw046.bmp","4","44","10"
"html-keyboard-response","165","815559","0.0-19.0-2.9","5ee71ce25f11c84a3e909b09","bdp_trlrn","Sun Mar 12 2023 22:08:25 GMT-0500 (Central Daylight Time)","1389675","Untrustworthy,Trustworthy","","null","","","","decisionFB","","<div class='trialDiv'><img src='trustrating_stim/white_mw046.bmp'><br><font class='baseline'><strong>Tyler</strong><p>Choose number of points to send.</font><div class='respPicDiv'><img src='img/responseButtonOffersNo0L2.png' class='respPic'></div></div>","null","4","Tyler","4","Shared","0.8,0.2","14","0.8","trustrating_stim/white_mw046.bmp","4","42","10"
"html-keyboard-response","166","816561","0.0-19.0-3.9","5ee71ce25f11c84a3e909b09","bdp_trlrn","Sun Mar 12 2023 22:08:25 GMT-0500 (Central Daylight Time)","1389675","Untrustworthy,Trustworthy","","null","","","","feedback","","<div class='trialDiv'><img src='trustrating_stim/white_mw046.bmp'><br><font class='baseline'><strong>Tyler</strong><p>Received: <strong>8</strong></font> &nbsp; &nbsp; &nbsp; &nbsp; &nbsp; &nbsp;<font class='posOutcome'>Shared back: <strong>4</strong></font></font><div class='respPicDiv'><img src='img/responseButtonOffersNo0_wht.png' class='respPic'></div></div>","null","4","Tyler","4","Shared","0.8,0.2","14","0.8","trustrating_stim/white_mw046.bmp","4","46","10"
"html-keyboard-response","167","817499","0.0-19.0-1.10","5ee71ce25f11c84a3e909b09","bdp_trlrn","Sun Mar 12 2023 22:08:25 GMT-0500 (Central Daylight Time)","1389675","Untrustworthy,Trustworthy","","938","","","","decision","","<div class='trialDiv'><img src='trustrating_stim/white_mw053.bmp'><br><font class='baseline'><strong>Nathan</strong><p>Choose number of points to send.</font><div class='respPicDiv'><img src='img/responseButtonOffersNo0L.png' class='respPic'></div></div>","1","4","Nathan","9","Shared","0.2,0.65","10","0.2","trustrating_stim/white_mw053.bmp","6.5","51","11"
"html-keyboard-response","168","817750","0.0-19.0-2.10","5ee71ce25f11c84a3e909b09","bdp_trlrn","Sun Mar 12 2023 22:08:25 GMT-0500 (Central Daylight Time)","1389675","Untrustworthy,Trustworthy","","null","","","","decisionFB","","<div class='trialDiv'><img src='trustrating_stim/white_mw053.bmp'><br><font class='baseline'><strong>Nathan</strong><p>Choose number of points to send.</font><div class='respPicDiv'><img src='img/responseButtonOffersNo0L1.png' class='respPic'></div></div>","null","4","Nathan","9","Shared","0.2,0.65","10","0.2","trustrating_stim/white_mw053.bmp","6.5","50","11"
"html-keyboard-response","169","818752","0.0-19.0-3.10","5ee71ce25f11c84a3e909b09","bdp_trlrn","Sun Mar 12 2023 22:08:25 GMT-0500 (Central Daylight Time)","1389675","Untrustworthy,Trustworthy","","null","","","","feedback","","<div class='trialDiv'><img src='trustrating_stim/white_mw053.bmp'><br><font class='baseline'><strong>Nathan</strong><p>Received: <strong>4</strong></font> &nbsp; &nbsp; &nbsp; &nbsp; &nbsp; &nbsp;<font class='posOutcome'>Shared back: <strong>2</strong></font></font><div class='respPicDiv'><img src='img/responseButtonOffersNo0_wht.png' class='respPic'></div></div>","null","4","Nathan","9","Shared","0.2,0.65","10","0.2","trustrating_stim/white_mw053.bmp","6.5","52","11"
"html-keyboard-response","170","819592","0.0-19.0-1.11","5ee71ce25f11c84a3e909b09","bdp_trlrn","Sun Mar 12 2023 22:08:25 GMT-0500 (Central Daylight Time)","1389675","Untrustworthy,Trustworthy","","840","","","","decision","","<div class='trialDiv'><img src='trustrating_stim/white_mw063.bmp'><br><font class='baseline'><strong>Benjamin</strong><p>Choose number of points to send.</font><div class='respPicDiv'><img src='img/responseButtonOffersNo0L.png' class='respPic'></div></div>","1","4","Benjamin","2","Shared","0.8,0.35","11","0.8","trustrating_stim/white_mw063.bmp","1","57","12"
"html-keyboard-response","171","819844","0.0-19.0-2.11","5ee71ce25f11c84a3e909b09","bdp_trlrn","Sun Mar 12 2023 22:08:25 GMT-0500 (Central Daylight Time)","1389675","Untrustworthy,Trustworthy","","null","","","","decisionFB","","<div class='trialDiv'><img src='trustrating_stim/white_mw063.bmp'><br><font class='baseline'><strong>Benjamin</strong><p>Choose number of points to send.</font><div class='respPicDiv'><img src='img/responseButtonOffersNo0L1.png' class='respPic'></div></div>","null","4","Benjamin","2","Shared","0.8,0.35","11","0.8","trustrating_stim/white_mw063.bmp","1","56","12"
"html-keyboard-response","172","820846","0.0-19.0-3.11","5ee71ce25f11c84a3e909b09","bdp_trlrn","Sun Mar 12 2023 22:08:25 GMT-0500 (Central Daylight Time)","1389675","Untrustworthy,Trustworthy","","null","","","","feedback","","<div class='trialDiv'><img src='trustrating_stim/white_mw063.bmp'><br><font class='baseline'><strong>Benjamin</strong><p>Received: <strong>4</strong></font> &nbsp; &nbsp; &nbsp; &nbsp; &nbsp; &nbsp;<font class='posOutcome'>Shared back: <strong>2</strong></font></font><div class='respPicDiv'><img src='img/responseButtonOffersNo0_wht.png' class='respPic'></div></div>","null","4","Benjamin","2","Shared","0.8,0.35","11","0.8","trustrating_stim/white_mw063.bmp","1","58","12"
"html-keyboard-response","173","821756","0.0-19.0-1.12","5ee71ce25f11c84a3e909b09","bdp_trlrn","Sun Mar 12 2023 22:08:25 GMT-0500 (Central Daylight Time)","1389675","Untrustworthy,Trustworthy","","909","","","","decision","","<div class='trialDiv'><img src='trustrating_stim/white_mw046.bmp'><br><font class='baseline'><strong>Tyler</strong><p>Choose number of points to send.</font><div class='respPicDiv'><img src='img/responseButtonOffersNo0L.png' class='respPic'></div></div>","1","5","Tyler","4","Shared","0.8,0.2","14","0.8","trustrating_stim/white_mw046.bmp","4","63","13"
"html-keyboard-response","174","822006","0.0-19.0-2.12","5ee71ce25f11c84a3e909b09","bdp_trlrn","Sun Mar 12 2023 22:08:25 GMT-0500 (Central Daylight Time)","1389675","Untrustworthy,Trustworthy","","null","","","","decisionFB","","<div class='trialDiv'><img src='trustrating_stim/white_mw046.bmp'><br><font class='baseline'><strong>Tyler</strong><p>Choose number of points to send.</font><div class='respPicDiv'><img src='img/responseButtonOffersNo0L1.png' class='respPic'></div></div>","null","5","Tyler","4","Shared","0.8,0.2","14","0.8","trustrating_stim/white_mw046.bmp","4","62","13"
"html-keyboard-response","175","823008","0.0-19.0-3.12","5ee71ce25f11c84a3e909b09","bdp_trlrn","Sun Mar 12 2023 22:08:25 GMT-0500 (Central Daylight Time)","1389675","Untrustworthy,Trustworthy","","null","","","","feedback","","<div class='trialDiv'><img src='trustrating_stim/white_mw046.bmp'><br><font class='baseline'><strong>Tyler</strong><p>Received: <strong>4</strong></font> &nbsp; &nbsp; &nbsp; &nbsp; &nbsp; &nbsp;<font class='posOutcome'>Shared back: <strong>2</strong></font></font><div class='respPicDiv'><img src='img/responseButtonOffersNo0_wht.png' class='respPic'></div></div>","null","5","Tyler","4","Shared","0.8,0.2","14","0.8","trustrating_stim/white_mw046.bmp","4","64","13"
"html-keyboard-response","176","823731","0.0-19.0-1.13","5ee71ce25f11c84a3e909b09","bdp_trlrn","Sun Mar 12 2023 22:08:25 GMT-0500 (Central Daylight Time)","1389675","Untrustworthy,Trustworthy","","723","","","","decision","","<div class='trialDiv'><img src='trustrating_stim/white_mw063.bmp'><br><font class='baseline'><strong>Benjamin</strong><p>Choose number of points to send.</font><div class='respPicDiv'><img src='img/responseButtonOffersNo0L.png' class='respPic'></div></div>","1","5","Benjamin","2","Shared","0.8,0.35","11","0.8","trustrating_stim/white_mw063.bmp","1","69","14"
"html-keyboard-response","177","823983","0.0-19.0-2.13","5ee71ce25f11c84a3e909b09","bdp_trlrn","Sun Mar 12 2023 22:08:25 GMT-0500 (Central Daylight Time)","1389675","Untrustworthy,Trustworthy","","null","","","","decisionFB","","<div class='trialDiv'><img src='trustrating_stim/white_mw063.bmp'><br><font class='baseline'><strong>Benjamin</strong><p>Choose number of points to send.</font><div class='respPicDiv'><img src='img/responseButtonOffersNo0L1.png' class='respPic'></div></div>","null","5","Benjamin","2","Shared","0.8,0.35","11","0.8","trustrating_stim/white_mw063.bmp","1","68","14"
"html-keyboard-response","178","824984","0.0-19.0-3.13","5ee71ce25f11c84a3e909b09","bdp_trlrn","Sun Mar 12 2023 22:08:25 GMT-0500 (Central Daylight Time)","1389675","Untrustworthy,Trustworthy","","null","","","","feedback","","<div class='trialDiv'><img src='trustrating_stim/white_mw063.bmp'><br><font class='baseline'><strong>Benjamin</strong><p>Received: <strong>4</strong></font> &nbsp; &nbsp; &nbsp; &nbsp; &nbsp; &nbsp;<font class='posOutcome'>Shared back: <strong>2</strong></font></font><div class='respPicDiv'><img src='img/responseButtonOffersNo0_wht.png' class='respPic'></div></div>","null","5","Benjamin","2","Shared","0.8,0.35","11","0.8","trustrating_stim/white_mw063.bmp","1","70","14"
"html-keyboard-response","179","825599","0.0-19.0-1.14","5ee71ce25f11c84a3e909b09","bdp_trlrn","Sun Mar 12 2023 22:08:25 GMT-0500 (Central Daylight Time)","1389675","Untrustworthy,Trustworthy","","614","","","","decision","","<div class='trialDiv'><img src='trustrating_stim/white_mw053.bmp'><br><font class='baseline'><strong>Nathan</strong><p>Choose number of points to send.</font><div class='respPicDiv'><img src='img/responseButtonOffersNo0L.png' class='respPic'></div></div>","1","5","Nathan","9","Shared","0.2,0.65","10","0.2","trustrating_stim/white_mw053.bmp","6.5","75","15"
"html-keyboard-response","180","825851","0.0-19.0-2.14","5ee71ce25f11c84a3e909b09","bdp_trlrn","Sun Mar 12 2023 22:08:25 GMT-0500 (Central Daylight Time)","1389675","Untrustworthy,Trustworthy","","null","","","","decisionFB","","<div class='trialDiv'><img src='trustrating_stim/white_mw053.bmp'><br><font class='baseline'><strong>Nathan</strong><p>Choose number of points to send.</font><div class='respPicDiv'><img src='img/responseButtonOffersNo0L1.png' class='respPic'></div></div>","null","5","Nathan","9","Shared","0.2,0.65","10","0.2","trustrating_stim/white_mw053.bmp","6.5","74","15"
"html-keyboard-response","181","826854","0.0-19.0-3.14","5ee71ce25f11c84a3e909b09","bdp_trlrn","Sun Mar 12 2023 22:08:25 GMT-0500 (Central Daylight Time)","1389675","Untrustworthy,Trustworthy","","null","","","","feedback","","<div class='trialDiv'><img src='trustrating_stim/white_mw053.bmp'><br><font class='baseline'><strong>Nathan</strong><p>Received: <strong>4</strong></font> &nbsp; &nbsp; &nbsp; &nbsp; &nbsp; &nbsp;<font class='posOutcome'>Shared back: <strong>2</strong></font></font><div class='respPicDiv'><img src='img/responseButtonOffersNo0_wht.png' class='respPic'></div></div>","null","5","Nathan","9","Shared","0.2,0.65","10","0.2","trustrating_stim/white_mw053.bmp","6.5","76","15"
"html-keyboard-response","182","827899","0.0-19.0-1.15","5ee71ce25f11c84a3e909b09","bdp_trlrn","Sun Mar 12 2023 22:08:25 GMT-0500 (Central Daylight Time)","1389675","Untrustworthy,Trustworthy","","1044","","","","decision","","<div class='trialDiv'><img src='trustrating_stim/white_mw063.bmp'><br><font class='baseline'><strong>Benjamin</strong><p>Choose number of points to send.</font><div class='respPicDiv'><img src='img/responseButtonOffersNo0L.png' class='respPic'></div></div>","3","6","Benjamin","2","Shared","0.8,0.35","11","0.8","trustrating_stim/white_mw063.bmp","1","81","16"
"html-keyboard-response","183","828151","0.0-19.0-2.15","5ee71ce25f11c84a3e909b09","bdp_trlrn","Sun Mar 12 2023 22:08:25 GMT-0500 (Central Daylight Time)","1389675","Untrustworthy,Trustworthy","","null","","","","decisionFB","","<div class='trialDiv'><img src='trustrating_stim/white_mw063.bmp'><br><font class='baseline'><strong>Benjamin</strong><p>Choose number of points to send.</font><div class='respPicDiv'><img src='img/responseButtonOffersNo0L3.png' class='respPic'></div></div>","null","6","Benjamin","2","Shared","0.8,0.35","11","0.8","trustrating_stim/white_mw063.bmp","1","78","16"
"html-keyboard-response","184","829152","0.0-19.0-3.15","5ee71ce25f11c84a3e909b09","bdp_trlrn","Sun Mar 12 2023 22:08:25 GMT-0500 (Central Daylight Time)","1389675","Untrustworthy,Trustworthy","","null","","","","feedback","","<div class='trialDiv'><img src='trustrating_stim/white_mw063.bmp'><br><font class='baseline'><strong>Benjamin</strong><p>Received: <strong>12</strong></font> &nbsp; &nbsp; &nbsp; &nbsp; &nbsp; &nbsp;<font class='posOutcome'>Shared back: <strong>6</strong></font></font><div class='respPicDiv'><img src='img/responseButtonOffersNo0_wht.png' class='respPic'></div></div>","null","6","Benjamin","2","Shared","0.8,0.35","11","0.8","trustrating_stim/white_mw063.bmp","1","84","16"
"html-keyboard-response","185","830021","0.0-19.0-1.16","5ee71ce25f11c84a3e909b09","bdp_trlrn","Sun Mar 12 2023 22:08:25 GMT-0500 (Central Daylight Time)","1389675","Untrustworthy,Trustworthy","","868","","","","decision","","<div class='trialDiv'><img src='trustrating_stim/white_mw046.bmp'><br><font class='baseline'><strong>Tyler</strong><p>Choose number of points to send.</font><div class='respPicDiv'><img src='img/responseButtonOffersNo0L.png' class='respPic'></div></div>","2","6","Tyler","4","Shared","0.8,0.2","14","0.8","trustrating_stim/white_mw046.bmp","4","89","17"
"html-keyboard-response","186","830273","0.0-19.0-2.16","5ee71ce25f11c84a3e909b09","bdp_trlrn","Sun Mar 12 2023 22:08:25 GMT-0500 (Central Daylight Time)","1389675","Untrustworthy,Trustworthy","","null","","","","decisionFB","","<div class='trialDiv'><img src='trustrating_stim/white_mw046.bmp'><br><font class='baseline'><strong>Tyler</strong><p>Choose number of points to send.</font><div class='respPicDiv'><img src='img/responseButtonOffersNo0L2.png' class='respPic'></div></div>","null","6","Tyler","4","Shared","0.8,0.2","14","0.8","trustrating_stim/white_mw046.bmp","4","87","17"
"html-keyboard-response","187","831276","0.0-19.0-3.16","5ee71ce25f11c84a3e909b09","bdp_trlrn","Sun Mar 12 2023 22:08:25 GMT-0500 (Central Daylight Time)","1389675","Untrustworthy,Trustworthy","","null","","","","feedback","","<div class='trialDiv'><img src='trustrating_stim/white_mw046.bmp'><br><font class='baseline'><strong>Tyler</strong><p>Received: <strong>8</strong></font> &nbsp; &nbsp; &nbsp; &nbsp; &nbsp; &nbsp;<font class='posOutcome'>Shared back: <strong>4</strong></font></font><div class='respPicDiv'><img src='img/responseButtonOffersNo0_wht.png' class='respPic'></div></div>","null","6","Tyler","4","Shared","0.8,0.2","14","0.8","trustrating_stim/white_mw046.bmp","4","91","17"
"html-keyboard-response","188","832238","0.0-19.0-1.17","5ee71ce25f11c84a3e909b09","bdp_trlrn","Sun Mar 12 2023 22:08:25 GMT-0500 (Central Daylight Time)","1389675","Untrustworthy,Trustworthy","","962","","","","decision","","<div class='trialDiv'><img src='trustrating_stim/white_mw053.bmp'><br><font class='baseline'><strong>Nathan</strong><p>Choose number of points to send.</font><div class='respPicDiv'><img src='img/responseButtonOffersNo0L.png' class='respPic'></div></div>","2","6","Nathan","9","Kept","0.2,0.65","10","0.2","trustrating_stim/white_mw053.bmp","6.5","96","18"
"html-keyboard-response","189","832490","0.0-19.0-2.17","5ee71ce25f11c84a3e909b09","bdp_trlrn","Sun Mar 12 2023 22:08:25 GMT-0500 (Central Daylight Time)","1389675","Untrustworthy,Trustworthy","","null","","","","decisionFB","","<div class='trialDiv'><img src='trustrating_stim/white_mw053.bmp'><br><font class='baseline'><strong>Nathan</strong><p>Choose number of points to send.</font><div class='respPicDiv'><img src='img/responseButtonOffersNo0L2.png' class='respPic'></div></div>","null","6","Nathan","9","Kept","0.2,0.65","10","0.2","trustrating_stim/white_mw053.bmp","6.5","94","18"
"html-keyboard-response","190","833491","0.0-19.0-3.17","5ee71ce25f11c84a3e909b09","bdp_trlrn","Sun Mar 12 2023 22:08:25 GMT-0500 (Central Daylight Time)","1389675","Untrustworthy,Trustworthy","","null","","","","feedback","","<div class='trialDiv'><img src='trustrating_stim/white_mw053.bmp'><br><font class='baseline'><strong>Nathan</strong><p>Received: <strong>8</strong></font> &nbsp; &nbsp; &nbsp; &nbsp; &nbsp; &nbsp;<font class='negOutcome'>Shared back: <strong>0</strong></font></font><div class='respPicDiv'><img src='img/responseButtonOffersNo0_wht.png' class='respPic'></div></div>","null","6","Nathan","9","Kept","0.2,0.65","10","0.2","trustrating_stim/white_mw053.bmp","6.5","94","18"
"html-keyboard-response","191","834349","0.0-19.0-1.18","5ee71ce25f11c84a3e909b09","bdp_trlrn","Sun Mar 12 2023 22:08:25 GMT-0500 (Central Daylight Time)","1389675","Untrustworthy,Trustworthy","","856","","","","decision","","<div class='trialDiv'><img src='trustrating_stim/white_mw046.bmp'><br><font class='baseline'><strong>Tyler</strong><p>Choose number of points to send.</font><div class='respPicDiv'><img src='img/responseButtonOffersNo0L.png' class='respPic'></div></div>","3","7","Tyler","4","Kept","0.8,0.2","14","0.8","trustrating_stim/white_mw046.bmp","4","99","19"
"html-keyboard-response","192","834599","0.0-19.0-2.18","5ee71ce25f11c84a3e909b09","bdp_trlrn","Sun Mar 12 2023 22:08:25 GMT-0500 (Central Daylight Time)","1389675","Untrustworthy,Trustworthy","","null","","","","decisionFB","","<div class='trialDiv'><img src='trustrating_stim/white_mw046.bmp'><br><font class='baseline'><strong>Tyler</strong><p>Choose number of points to send.</font><div class='respPicDiv'><img src='img/responseButtonOffersNo0L3.png' class='respPic'></div></div>","null","7","Tyler","4","Kept","0.8,0.2","14","0.8","trustrating_stim/white_mw046.bmp","4","96","19"
"html-keyboard-response","193","835600","0.0-19.0-3.18","5ee71ce25f11c84a3e909b09","bdp_trlrn","Sun Mar 12 2023 22:08:25 GMT-0500 (Central Daylight Time)","1389675","Untrustworthy,Trustworthy","","null","","","","feedback","","<div class='trialDiv'><img src='trustrating_stim/white_mw046.bmp'><br><font class='baseline'><strong>Tyler</strong><p>Received: <strong>12</strong></font> &nbsp; &nbsp; &nbsp; &nbsp; &nbsp; &nbsp;<font class='negOutcome'>Shared back: <strong>0</strong></font></font><div class='respPicDiv'><img src='img/responseButtonOffersNo0_wht.png' class='respPic'></div></div>","null","7","Tyler","4","Kept","0.8,0.2","14","0.8","trustrating_stim/white_mw046.bmp","4","96","19"
"html-keyboard-response","194","836211","0.0-19.0-1.19","5ee71ce25f11c84a3e909b09","bdp_trlrn","Sun Mar 12 2023 22:08:25 GMT-0500 (Central Daylight Time)","1389675","Untrustworthy,Trustworthy","","610","","","","decision","","<div class='trialDiv'><img src='trustrating_stim/white_mw063.bmp'><br><font class='baseline'><strong>Benjamin</strong><p>Choose number of points to send.</font><div class='respPicDiv'><img src='img/responseButtonOffersNo0L.png' class='respPic'></div></div>","3","7","Benjamin","2","Kept","0.8,0.35","11","0.8","trustrating_stim/white_mw063.bmp","1","101","20"
"html-keyboard-response","195","836462","0.0-19.0-2.19","5ee71ce25f11c84a3e909b09","bdp_trlrn","Sun Mar 12 2023 22:08:25 GMT-0500 (Central Daylight Time)","1389675","Untrustworthy,Trustworthy","","null","","","","decisionFB","","<div class='trialDiv'><img src='trustrating_stim/white_mw063.bmp'><br><font class='baseline'><strong>Benjamin</strong><p>Choose number of points to send.</font><div class='respPicDiv'><img src='img/responseButtonOffersNo0L3.png' class='respPic'></div></div>","null","7","Benjamin","2","Kept","0.8,0.35","11","0.8","trustrating_stim/white_mw063.bmp","1","98","20"
"html-keyboard-response","196","837464","0.0-19.0-3.19","5ee71ce25f11c84a3e909b09","bdp_trlrn","Sun Mar 12 2023 22:08:25 GMT-0500 (Central Daylight Time)","1389675","Untrustworthy,Trustworthy","","null","","","","feedback","","<div class='trialDiv'><img src='trustrating_stim/white_mw063.bmp'><br><font class='baseline'><strong>Benjamin</strong><p>Received: <strong>12</strong></font> &nbsp; &nbsp; &nbsp; &nbsp; &nbsp; &nbsp;<font class='negOutcome'>Shared back: <strong>0</strong></font></font><div class='respPicDiv'><img src='img/responseButtonOffersNo0_wht.png' class='respPic'></div></div>","null","7","Benjamin","2","Kept","0.8,0.35","11","0.8","trustrating_stim/white_mw063.bmp","1","98","20"
"html-keyboard-response","197","839234","0.0-19.0-1.20","5ee71ce25f11c84a3e909b09","bdp_trlrn","Sun Mar 12 2023 22:08:25 GMT-0500 (Central Daylight Time)","1389675","Untrustworthy,Trustworthy","","1770","","","","decision","","<div class='trialDiv'><img src='trustrating_stim/white_mw053.bmp'><br><font class='baseline'><strong>Nathan</strong><p>Choose number of points to send.</font><div class='respPicDiv'><img src='img/responseButtonOffersNo0L.png' class='respPic'></div></div>","1","7","Nathan","9","Kept","0.2,0.65","10","0.2","trustrating_stim/white_mw053.bmp","6.5","103","21"
"html-keyboard-response","198","839485","0.0-19.0-2.20","5ee71ce25f11c84a3e909b09","bdp_trlrn","Sun Mar 12 2023 22:08:25 GMT-0500 (Central Daylight Time)","1389675","Untrustworthy,Trustworthy","","null","","","","decisionFB","","<div class='trialDiv'><img src='trustrating_stim/white_mw053.bmp'><br><font class='baseline'><strong>Nathan</strong><p>Choose number of points to send.</font><div class='respPicDiv'><img src='img/responseButtonOffersNo0L1.png' class='respPic'></div></div>","null","7","Nathan","9","Kept","0.2,0.65","10","0.2","trustrating_stim/white_mw053.bmp","6.5","102","21"
"html-keyboard-response","199","840487","0.0-19.0-3.20","5ee71ce25f11c84a3e909b09","bdp_trlrn","Sun Mar 12 2023 22:08:25 GMT-0500 (Central Daylight Time)","1389675","Untrustworthy,Trustworthy","","null","","","","feedback","","<div class='trialDiv'><img src='trustrating_stim/white_mw053.bmp'><br><font class='baseline'><strong>Nathan</strong><p>Received: <strong>4</strong></font> &nbsp; &nbsp; &nbsp; &nbsp; &nbsp; &nbsp;<font class='negOutcome'>Shared back: <strong>0</strong></font></font><div class='respPicDiv'><img src='img/responseButtonOffersNo0_wht.png' class='respPic'></div></div>","null","7","Nathan","9","Kept","0.2,0.65","10","0.2","trustrating_stim/white_mw053.bmp","6.5","102","21"
"html-keyboard-response","200","841208","0.0-19.0-1.21","5ee71ce25f11c84a3e909b09","bdp_trlrn","Sun Mar 12 2023 22:08:25 GMT-0500 (Central Daylight Time)","1389675","Untrustworthy,Trustworthy","","720","","","","decision","","<div class='trialDiv'><img src='trustrating_stim/white_mw046.bmp'><br><font class='baseline'><strong>Tyler</strong><p>Choose number of points to send.</font><div class='respPicDiv'><img src='img/responseButtonOffersNo0L.png' class='respPic'></div></div>","3","8","Tyler","4","Shared","0.8,0.2","14","0.8","trustrating_stim/white_mw046.bmp","4","107","22"
"html-keyboard-response","201","841460","0.0-19.0-2.21","5ee71ce25f11c84a3e909b09","bdp_trlrn","Sun Mar 12 2023 22:08:25 GMT-0500 (Central Daylight Time)","1389675","Untrustworthy,Trustworthy","","null","","","","decisionFB","","<div class='trialDiv'><img src='trustrating_stim/white_mw046.bmp'><br><font class='baseline'><strong>Tyler</strong><p>Choose number of points to send.</font><div class='respPicDiv'><img src='img/responseButtonOffersNo0L3.png' class='respPic'></div></div>","null","8","Tyler","4","Shared","0.8,0.2","14","0.8","trustrating_stim/white_mw046.bmp","4","104","22"
"html-keyboard-response","202","842462","0.0-19.0-3.21","5ee71ce25f11c84a3e909b09","bdp_trlrn","Sun Mar 12 2023 22:08:25 GMT-0500 (Central Daylight Time)","1389675","Untrustworthy,Trustworthy","","null","","","","feedback","","<div class='trialDiv'><img src='trustrating_stim/white_mw046.bmp'><br><font class='baseline'><strong>Tyler</strong><p>Received: <strong>12</strong></font> &nbsp; &nbsp; &nbsp; &nbsp; &nbsp; &nbsp;<font class='posOutcome'>Shared back: <strong>6</strong></font></font><div class='respPicDiv'><img src='img/responseButtonOffersNo0_wht.png' class='respPic'></div></div>","null","8","Tyler","4","Shared","0.8,0.2","14","0.8","trustrating_stim/white_mw046.bmp","4","110","22"
"html-keyboard-response","203","842883","0.0-19.0-1.22","5ee71ce25f11c84a3e909b09","bdp_trlrn","Sun Mar 12 2023 22:08:25 GMT-0500 (Central Daylight Time)","1389675","Untrustworthy,Trustworthy","","419","","","","decision","","<div class='trialDiv'><img src='trustrating_stim/white_mw063.bmp'><br><font class='baseline'><strong>Benjamin</strong><p>Choose number of points to send.</font><div class='respPicDiv'><img src='img/responseButtonOffersNo0L.png' class='respPic'></div></div>","3","8","Benjamin","2","Shared","0.8,0.35","11","0.8","trustrating_stim/white_mw063.bmp","1","115","23"
"html-keyboard-response","204","843135","0.0-19.0-2.22","5ee71ce25f11c84a3e909b09","bdp_trlrn","Sun Mar 12 2023 22:08:25 GMT-0500 (Central Daylight Time)","1389675","Untrustworthy,Trustworthy","","null","","","","decisionFB","","<div class='trialDiv'><img src='trustrating_stim/white_mw063.bmp'><br><font class='baseline'><strong>Benjamin</strong><p>Choose number of points to send.</font><div class='respPicDiv'><img src='img/responseButtonOffersNo0L3.png' class='respPic'></div></div>","null","8","Benjamin","2","Shared","0.8,0.35","11","0.8","trustrating_stim/white_mw063.bmp","1","112","23"
"html-keyboard-response","205","844136","0.0-19.0-3.22","5ee71ce25f11c84a3e909b09","bdp_trlrn","Sun Mar 12 2023 22:08:25 GMT-0500 (Central Daylight Time)","1389675","Untrustworthy,Trustworthy","","null","","","","feedback","","<div class='trialDiv'><img src='trustrating_stim/white_mw063.bmp'><br><font class='baseline'><strong>Benjamin</strong><p>Received: <strong>12</strong></font> &nbsp; &nbsp; &nbsp; &nbsp; &nbsp; &nbsp;<font class='posOutcome'>Shared back: <strong>6</strong></font></font><div class='respPicDiv'><img src='img/responseButtonOffersNo0_wht.png' class='respPic'></div></div>","null","8","Benjamin","2","Shared","0.8,0.35","11","0.8","trustrating_stim/white_mw063.bmp","1","118","23"
"html-keyboard-response","206","844480","0.0-19.0-1.23","5ee71ce25f11c84a3e909b09","bdp_trlrn","Sun Mar 12 2023 22:08:25 GMT-0500 (Central Daylight Time)","1389675","Untrustworthy,Trustworthy","","344","","","","decision","","<div class='trialDiv'><img src='trustrating_stim/white_mw053.bmp'><br><font class='baseline'><strong>Nathan</strong><p>Choose number of points to send.</font><div class='respPicDiv'><img src='img/responseButtonOffersNo0L.png' class='respPic'></div></div>","1","8","Nathan","9","Shared","0.2,0.65","10","0.2","trustrating_stim/white_mw053.bmp","6.5","123","24"
"html-keyboard-response","207","844732","0.0-19.0-2.23","5ee71ce25f11c84a3e909b09","bdp_trlrn","Sun Mar 12 2023 22:08:25 GMT-0500 (Central Daylight Time)","1389675","Untrustworthy,Trustworthy","","null","","","","decisionFB","","<div class='trialDiv'><img src='trustrating_stim/white_mw053.bmp'><br><font class='baseline'><strong>Nathan</strong><p>Choose number of points to send.</font><div class='respPicDiv'><img src='img/responseButtonOffersNo0L1.png' class='respPic'></div></div>","null","8","Nathan","9","Shared","0.2,0.65","10","0.2","trustrating_stim/white_mw053.bmp","6.5","122","24"
"html-keyboard-response","208","845733","0.0-19.0-3.23","5ee71ce25f11c84a3e909b09","bdp_trlrn","Sun Mar 12 2023 22:08:25 GMT-0500 (Central Daylight Time)","1389675","Untrustworthy,Trustworthy","","null","","","","feedback","","<div class='trialDiv'><img src='trustrating_stim/white_mw053.bmp'><br><font class='baseline'><strong>Nathan</strong><p>Received: <strong>4</strong></font> &nbsp; &nbsp; &nbsp; &nbsp; &nbsp; &nbsp;<font class='posOutcome'>Shared back: <strong>2</strong></font></font><div class='respPicDiv'><img src='img/responseButtonOffersNo0_wht.png' class='respPic'></div></div>","null","8","Nathan","9","Shared","0.2,0.65","10","0.2","trustrating_stim/white_mw053.bmp","6.5","124","24"
"html-keyboard-response","209","846429","0.0-19.0-1.24","5ee71ce25f11c84a3e909b09","bdp_trlrn","Sun Mar 12 2023 22:08:25 GMT-0500 (Central Daylight Time)","1389675","Untrustworthy,Trustworthy","","695","","","","decision","","<div class='trialDiv'><img src='trustrating_stim/white_mw046.bmp'><br><font class='baseline'><strong>Tyler</strong><p>Choose number of points to send.</font><div class='respPicDiv'><img src='img/responseButtonOffersNo0L.png' class='respPic'></div></div>","1","9","Tyler","4","Shared","0.8,0.2","14","0.8","trustrating_stim/white_mw046.bmp","4","129","25"
"html-keyboard-response","210","846681","0.0-19.0-2.24","5ee71ce25f11c84a3e909b09","bdp_trlrn","Sun Mar 12 2023 22:08:25 GMT-0500 (Central Daylight Time)","1389675","Untrustworthy,Trustworthy","","null","","","","decisionFB","","<div class='trialDiv'><img src='trustrating_stim/white_mw046.bmp'><br><font class='baseline'><strong>Tyler</strong><p>Choose number of points to send.</font><div class='respPicDiv'><img src='img/responseButtonOffersNo0L1.png' class='respPic'></div></div>","null","9","Tyler","4","Shared","0.8,0.2","14","0.8","trustrating_stim/white_mw046.bmp","4","128","25"
"html-keyboard-response","211","847682","0.0-19.0-3.24","5ee71ce25f11c84a3e909b09","bdp_trlrn","Sun Mar 12 2023 22:08:25 GMT-0500 (Central Daylight Time)","1389675","Untrustworthy,Trustworthy","","null","","","","feedback","","<div class='trialDiv'><img src='trustrating_stim/white_mw046.bmp'><br><font class='baseline'><strong>Tyler</strong><p>Received: <strong>4</strong></font> &nbsp; &nbsp; &nbsp; &nbsp; &nbsp; &nbsp;<font class='posOutcome'>Shared back: <strong>2</strong></font></font><div class='respPicDiv'><img src='img/responseButtonOffersNo0_wht.png' class='respPic'></div></div>","null","9","Tyler","4","Shared","0.8,0.2","14","0.8","trustrating_stim/white_mw046.bmp","4","130","25"
"html-keyboard-response","212","847990","0.0-19.0-1.25","5ee71ce25f11c84a3e909b09","bdp_trlrn","Sun Mar 12 2023 22:08:25 GMT-0500 (Central Daylight Time)","1389675","Untrustworthy,Trustworthy","","307","","","","decision","","<div class='trialDiv'><img src='trustrating_stim/white_mw053.bmp'><br><font class='baseline'><strong>Nathan</strong><p>Choose number of points to send.</font><div class='respPicDiv'><img src='img/responseButtonOffersNo0L.png' class='respPic'></div></div>","3","9","Nathan","9","Shared","0.2,0.65","10","0.2","trustrating_stim/white_mw053.bmp","6.5","135","26"
"html-keyboard-response","213","848241","0.0-19.0-2.25","5ee71ce25f11c84a3e909b09","bdp_trlrn","Sun Mar 12 2023 22:08:25 GMT-0500 (Central Daylight Time)","1389675","Untrustworthy,Trustworthy","","null","","","","decisionFB","","<div class='trialDiv'><img src='trustrating_stim/white_mw053.bmp'><br><font class='baseline'><strong>Nathan</strong><p>Choose number of points to send.</font><div class='respPicDiv'><img src='img/responseButtonOffersNo0L3.png' class='respPic'></div></div>","null","9","Nathan","9","Shared","0.2,0.65","10","0.2","trustrating_stim/white_mw053.bmp","6.5","132","26"
"html-keyboard-response","214","849242","0.0-19.0-3.25","5ee71ce25f11c84a3e909b09","bdp_trlrn","Sun Mar 12 2023 22:08:25 GMT-0500 (Central Daylight Time)","1389675","Untrustworthy,Trustworthy","","null","","","","feedback","","<div class='trialDiv'><img src='trustrating_stim/white_mw053.bmp'><br><font class='baseline'><strong>Nathan</strong><p>Received: <strong>12</strong></font> &nbsp; &nbsp; &nbsp; &nbsp; &nbsp; &nbsp;<font class='posOutcome'>Shared back: <strong>6</strong></font></font><div class='respPicDiv'><img src='img/responseButtonOffersNo0_wht.png' class='respPic'></div></div>","null","9","Nathan","9","Shared","0.2,0.65","10","0.2","trustrating_stim/white_mw053.bmp","6.5","138","26"
"html-keyboard-response","215","849554","0.0-19.0-1.26","5ee71ce25f11c84a3e909b09","bdp_trlrn","Sun Mar 12 2023 22:08:25 GMT-0500 (Central Daylight Time)","1389675","Untrustworthy,Trustworthy","","312","","","","decision","","<div class='trialDiv'><img src='trustrating_stim/white_mw063.bmp'><br><font class='baseline'><strong>Benjamin</strong><p>Choose number of points to send.</font><div class='respPicDiv'><img src='img/responseButtonOffersNo0L.png' class='respPic'></div></div>","1","9","Benjamin","2","Shared","0.8,0.35","11","0.8","trustrating_stim/white_mw063.bmp","1","143","27"
"html-keyboard-response","216","849805","0.0-19.0-2.26","5ee71ce25f11c84a3e909b09","bdp_trlrn","Sun Mar 12 2023 22:08:25 GMT-0500 (Central Daylight Time)","1389675","Untrustworthy,Trustworthy","","null","","","","decisionFB","","<div class='trialDiv'><img src='trustrating_stim/white_mw063.bmp'><br><font class='baseline'><strong>Benjamin</strong><p>Choose number of points to send.</font><div class='respPicDiv'><img src='img/responseButtonOffersNo0L1.png' class='respPic'></div></div>","null","9","Benjamin","2","Shared","0.8,0.35","11","0.8","trustrating_stim/white_mw063.bmp","1","142","27"
"html-keyboard-response","217","850807","0.0-19.0-3.26","5ee71ce25f11c84a3e909b09","bdp_trlrn","Sun Mar 12 2023 22:08:25 GMT-0500 (Central Daylight Time)","1389675","Untrustworthy,Trustworthy","","null","","","","feedback","","<div class='trialDiv'><img src='trustrating_stim/white_mw063.bmp'><br><font class='baseline'><strong>Benjamin</strong><p>Received: <strong>4</strong></font> &nbsp; &nbsp; &nbsp; &nbsp; &nbsp; &nbsp;<font class='posOutcome'>Shared back: <strong>2</strong></font></font><div class='respPicDiv'><img src='img/responseButtonOffersNo0_wht.png' class='respPic'></div></div>","null","9","Benjamin","2","Shared","0.8,0.35","11","0.8","trustrating_stim/white_mw063.bmp","1","144","27"
"html-keyboard-response","218","851943","0.0-19.0-1.27","5ee71ce25f11c84a3e909b09","bdp_trlrn","Sun Mar 12 2023 22:08:25 GMT-0500 (Central Daylight Time)","1389675","Untrustworthy,Trustworthy","","1136","","","","decision","","<div class='trialDiv'><img src='trustrating_stim/white_mw046.bmp'><br><font class='baseline'><strong>Tyler</strong><p>Choose number of points to send.</font><div class='respPicDiv'><img src='img/responseButtonOffersNo0L.png' class='respPic'></div></div>","3","10","Tyler","4","Shared","0.8,0.2","14","0.8","trustrating_stim/white_mw046.bmp","4","149","28"
"html-keyboard-response","219","852195","0.0-19.0-2.27","5ee71ce25f11c84a3e909b09","bdp_trlrn","Sun Mar 12 2023 22:08:25 GMT-0500 (Central Daylight Time)","1389675","Untrustworthy,Trustworthy","","null","","","","decisionFB","","<div class='trialDiv'><img src='trustrating_stim/white_mw046.bmp'><br><font class='baseline'><strong>Tyler</strong><p>Choose number of points to send.</font><div class='respPicDiv'><img src='img/responseButtonOffersNo0L3.png' class='respPic'></div></div>","null","10","Tyler","4","Shared","0.8,0.2","14","0.8","trustrating_stim/white_mw046.bmp","4","146","28"
"html-keyboard-response","220","853196","0.0-19.0-3.27","5ee71ce25f11c84a3e909b09","bdp_trlrn","Sun Mar 12 2023 22:08:25 GMT-0500 (Central Daylight Time)","1389675","Untrustworthy,Trustworthy","","null","","","","feedback","","<div class='trialDiv'><img src='trustrating_stim/white_mw046.bmp'><br><font class='baseline'><strong>Tyler</strong><p>Received: <strong>12</strong></font> &nbsp; &nbsp; &nbsp; &nbsp; &nbsp; &nbsp;<font class='posOutcome'>Shared back: <strong>6</strong></font></font><div class='respPicDiv'><img src='img/responseButtonOffersNo0_wht.png' class='respPic'></div></div>","null","10","Tyler","4","Shared","0.8,0.2","14","0.8","trustrating_stim/white_mw046.bmp","4","152","28"
"html-keyboard-response","221","853548","0.0-19.0-1.28","5ee71ce25f11c84a3e909b09","bdp_trlrn","Sun Mar 12 2023 22:08:25 GMT-0500 (Central Daylight Time)","1389675","Untrustworthy,Trustworthy","","352","","","","decision","","<div class='trialDiv'><img src='trustrating_stim/white_mw063.bmp'><br><font class='baseline'><strong>Benjamin</strong><p>Choose number of points to send.</font><div class='respPicDiv'><img src='img/responseButtonOffersNo0L.png' class='respPic'></div></div>","3","10","Benjamin","2","Shared","0.8,0.35","11","0.8","trustrating_stim/white_mw063.bmp","1","157","29"
"html-keyboard-response","222","853799","0.0-19.0-2.28","5ee71ce25f11c84a3e909b09","bdp_trlrn","Sun Mar 12 2023 22:08:25 GMT-0500 (Central Daylight Time)","1389675","Untrustworthy,Trustworthy","","null","","","","decisionFB","","<div class='trialDiv'><img src='trustrating_stim/white_mw063.bmp'><br><font class='baseline'><strong>Benjamin</strong><p>Choose number of points to send.</font><div class='respPicDiv'><img src='img/responseButtonOffersNo0L3.png' class='respPic'></div></div>","null","10","Benjamin","2","Shared","0.8,0.35","11","0.8","trustrating_stim/white_mw063.bmp","1","154","29"
