"trial_type","trial_index","time_elapsed","internal_node_id","subject_id","task","startTime","totalTime","labels","view_history","rt","event","trial","time","trialtype","success","stimulus","key_press","aground","name","faceID","outcome","agenttype","agentswpt","agentcurrpshare","face","avgRating","point_total","round"
"pavlovia","0","26","0.0-0.0","5c4e31b37065de00011f795d","bdp_trlrn","Sun Mar 12 2023 15:14:27 GMT-0600 (Mountain Daylight Time)","1593979","Trustworthy,Untrustworthy","","","","","","","","","","","","","","","","","","","",""
"instructions","1","5472","0.0-1.0","5c4e31b37065de00011f795d","bdp_trlrn","Sun Mar 12 2023 15:14:27 GMT-0600 (Mountain Daylight Time)","1593979","Trustworthy,Untrustworthy","[{""page_index"":0,""viewing_time"":5444}]","5445","","","","","","","","","","","","","","","","","",""
"","","","","5c4e31b37065de00011f795d","bdp_trlrn","Sun Mar 12 2023 15:14:27 GMT-0600 (Mountain Daylight Time)","1593979","Trustworthy,Untrustworthy","","","fullscreenenter","2","9657","fullscreenenter","","","","","","","","","","","","","",""
"fullscreen","2","10635","0.0-2.0","5c4e31b37065de00011f795d","bdp_trlrn","Sun Mar 12 2023 15:14:27 GMT-0600 (Mountain Daylight Time)","1593979","Trustworthy,Untrustworthy","","","","","","","true","","","","","","","","","","","","",""
"instructions","3","50398","0.0-4.0","5c4e31b37065de00011f795d","bdp_trlrn","Sun Mar 12 2023 15:14:27 GMT-0600 (Mountain Daylight Time)","1593979","Trustworthy,Untrustworthy","[{""page_index"":0,""viewing_time"":23477},{""page_index"":1,""viewing_time"":16281}]","39759","","","","","","","","","","","","","","","","","",""
"instructions","4","52347","0.0-5.0","5c4e31b37065de00011f795d","bdp_trlrn","Sun Mar 12 2023 15:14:27 GMT-0600 (Mountain Daylight Time)","1593979","Trustworthy,Untrustworthy","[{""page_index"":0,""viewing_time"":1945}]","1945","","","","","","","","","","","","","","","","","",""
"image-keyboard-response","5","60994","0.0-6.0-1.0","5c4e31b37065de00011f795d","bdp_trlrn","Sun Mar 12 2023 15:14:27 GMT-0600 (Mountain Daylight Time)","1593979","Trustworthy,Untrustworthy","","8536","","","","rating","","trustrating_stim/white_00129_931230_fb_edt.bmp","6","","","","","","","","","","",""
"image-keyboard-response","6","61198","0.0-6.0-2.0","5c4e31b37065de00011f795d","bdp_trlrn","Sun Mar 12 2023 15:14:27 GMT-0600 (Mountain Daylight Time)","1593979","Trustworthy,Untrustworthy","","null","","","","ratingFB","","trustrating_stim/white_00129_931230_fb_edt.bmp","null","","","","","","","","","","",""
"image-keyboard-response","7","65581","0.0-6.0-1.1","5c4e31b37065de00011f795d","bdp_trlrn","Sun Mar 12 2023 15:14:27 GMT-0600 (Mountain Daylight Time)","1593979","Trustworthy,Untrustworthy","","4271","","","","rating","","trustrating_stim/white_00299_940422_fa_edt.bmp","5","","","","","","","","","","",""
"image-keyboard-response","8","65790","0.0-6.0-2.1","5c4e31b37065de00011f795d","bdp_trlrn","Sun Mar 12 2023 15:14:27 GMT-0600 (Mountain Daylight Time)","1593979","Trustworthy,Untrustworthy","","null","","","","ratingFB","","trustrating_stim/white_00299_940422_fa_edt.bmp","null","","","","","","","","","","",""
"image-keyboard-response","9","68735","0.0-6.0-1.2","5c4e31b37065de00011f795d","bdp_trlrn","Sun Mar 12 2023 15:14:27 GMT-0600 (Mountain Daylight Time)","1593979","Trustworthy,Untrustworthy","","2840","","","","rating","","trustrating_stim/white_mw056.bmp","5","","","","","","","","","","",""
"image-keyboard-response","10","68941","0.0-6.0-2.2","5c4e31b37065de00011f795d","bdp_trlrn","Sun Mar 12 2023 15:14:27 GMT-0600 (Mountain Daylight Time)","1593979","Trustworthy,Untrustworthy","","null","","","","ratingFB","","trustrating_stim/white_mw056.bmp","null","","","","","","","","","","",""
"image-keyboard-response","11","71986","0.0-6.0-1.3","5c4e31b37065de00011f795d","bdp_trlrn","Sun Mar 12 2023 15:14:27 GMT-0600 (Mountain Daylight Time)","1593979","Trustworthy,Untrustworthy","","2941","","","","rating","","trustrating_stim/white_00761_941201_fb_edt.bmp","5","","","","","","","","","","",""
"image-keyboard-response","12","72190","0.0-6.0-2.3","5c4e31b37065de00011f795d","bdp_trlrn","Sun Mar 12 2023 15:14:27 GMT-0600 (Mountain Daylight Time)","1593979","Trustworthy,Untrustworthy","","null","","","","ratingFB","","trustrating_stim/white_00761_941201_fb_edt.bmp","null","","","","","","","","","","",""
"image-keyboard-response","13","78218","0.0-6.0-1.4","5c4e31b37065de00011f795d","bdp_trlrn","Sun Mar 12 2023 15:14:27 GMT-0600 (Mountain Daylight Time)","1593979","Trustworthy,Untrustworthy","","5921","","","","rating","","trustrating_stim/white_mw048.bmp","7","","","","","","","","","","",""
"image-keyboard-response","14","78423","0.0-6.0-2.4","5c4e31b37065de00011f795d","bdp_trlrn","Sun Mar 12 2023 15:14:27 GMT-0600 (Mountain Daylight Time)","1593979","Trustworthy,Untrustworthy","","null","","","","ratingFB","","trustrating_stim/white_mw048.bmp","null","","","","","","","","","","",""
"image-keyboard-response","15","84269","0.0-6.0-1.5","5c4e31b37065de00011f795d","bdp_trlrn","Sun Mar 12 2023 15:14:27 GMT-0600 (Mountain Daylight Time)","1593979","Trustworthy,Untrustworthy","","5744","","","","rating","","trustrating_stim/white_00120_931230_fa_edt.bmp","3","","","","","","","","","","",""
"image-keyboard-response","16","84474","0.0-6.0-2.5","5c4e31b37065de00011f795d","bdp_trlrn","Sun Mar 12 2023 15:14:27 GMT-0600 (Mountain Daylight Time)","1593979","Trustworthy,Untrustworthy","","null","","","","ratingFB","","trustrating_stim/white_00120_931230_fa_edt.bmp","null","","","","","","","","","","",""
"image-keyboard-response","17","88319","0.0-6.0-1.6","5c4e31b37065de00011f795d","bdp_trlrn","Sun Mar 12 2023 15:14:27 GMT-0600 (Mountain Daylight Time)","1593979","Trustworthy,Untrustworthy","","3741","","","","rating","","trustrating_stim/white_mw033.bmp","5","","","","","","","","","","",""
"image-keyboard-response","18","88521","0.0-6.0-2.6","5c4e31b37065de00011f795d","bdp_trlrn","Sun Mar 12 2023 15:14:27 GMT-0600 (Mountain Daylight Time)","1593979","Trustworthy,Untrustworthy","","null","","","","ratingFB","","trustrating_stim/white_mw033.bmp","null","","","","","","","","","","",""
"image-keyboard-response","19","94128","0.0-6.0-1.7","5c4e31b37065de00011f795d","bdp_trlrn","Sun Mar 12 2023 15:14:27 GMT-0600 (Mountain Daylight Time)","1593979","Trustworthy,Untrustworthy","","5504","","","","rating","","trustrating_stim/white_mw035.bmp","8","","","","","","","","","","",""
"image-keyboard-response","20","94331","0.0-6.0-2.7","5c4e31b37065de00011f795d","bdp_trlrn","Sun Mar 12 2023 15:14:27 GMT-0600 (Mountain Daylight Time)","1593979","Trustworthy,Untrustworthy","","null","","","","ratingFB","","trustrating_stim/white_mw035.bmp","null","","","","","","","","","","",""
"image-keyboard-response","21","98492","0.0-6.0-1.8","5c4e31b37065de00011f795d","bdp_trlrn","Sun Mar 12 2023 15:14:27 GMT-0600 (Mountain Daylight Time)","1593979","Trustworthy,Untrustworthy","","4056","","","","rating","","trustrating_stim/white_mw053.bmp","7","","","","","","","","","","",""
"image-keyboard-response","22","98695","0.0-6.0-2.8","5c4e31b37065de00011f795d","bdp_trlrn","Sun Mar 12 2023 15:14:27 GMT-0600 (Mountain Daylight Time)","1593979","Trustworthy,Untrustworthy","","null","","","","ratingFB","","trustrating_stim/white_mw053.bmp","null","","","","","","","","","","",""
"image-keyboard-response","23","101583","0.0-6.0-1.9","5c4e31b37065de00011f795d","bdp_trlrn","Sun Mar 12 2023 15:14:27 GMT-0600 (Mountain Daylight Time)","1593979","Trustworthy,Untrustworthy","","2778","","","","rating","","trustrating_stim/white_00602_940928_fb_edt.bmp","2","","","","","","","","","","",""
"image-keyboard-response","24","101805","0.0-6.0-2.9","5c4e31b37065de00011f795d","bdp_trlrn","Sun Mar 12 2023 15:14:27 GMT-0600 (Mountain Daylight Time)","1593979","Trustworthy,Untrustworthy","","null","","","","ratingFB","","trustrating_stim/white_00602_940928_fb_edt.bmp","null","","","","","","","","","","",""
"image-keyboard-response","25","107188","0.0-6.0-1.10","5c4e31b37065de00011f795d","bdp_trlrn","Sun Mar 12 2023 15:14:27 GMT-0600 (Mountain Daylight Time)","1593979","Trustworthy,Untrustworthy","","5267","","","","rating","","trustrating_stim/white_mw046.bmp","6","","","","","","","","","","",""
"image-keyboard-response","26","107390","0.0-6.0-2.10","5c4e31b37065de00011f795d","bdp_trlrn","Sun Mar 12 2023 15:14:27 GMT-0600 (Mountain Daylight Time)","1593979","Trustworthy,Untrustworthy","","null","","","","ratingFB","","trustrating_stim/white_mw046.bmp","null","","","","","","","","","","",""
"image-keyboard-response","27","112617","0.0-6.0-1.11","5c4e31b37065de00011f795d","bdp_trlrn","Sun Mar 12 2023 15:14:27 GMT-0600 (Mountain Daylight Time)","1593979","Trustworthy,Untrustworthy","","5124","","","","rating","","trustrating_stim/white_mw060.bmp","6","","","","","","","","","","",""
"image-keyboard-response","28","112820","0.0-6.0-2.11","5c4e31b37065de00011f795d","bdp_trlrn","Sun Mar 12 2023 15:14:27 GMT-0600 (Mountain Daylight Time)","1593979","Trustworthy,Untrustworthy","","null","","","","ratingFB","","trustrating_stim/white_mw060.bmp","null","","","","","","","","","","",""
"image-keyboard-response","29","114930","0.0-6.0-1.12","5c4e31b37065de00011f795d","bdp_trlrn","Sun Mar 12 2023 15:14:27 GMT-0600 (Mountain Daylight Time)","1593979","Trustworthy,Untrustworthy","","2008","","","","rating","","trustrating_stim/white_mw071.bmp","8","","","","","","","","","","",""
"image-keyboard-response","30","115132","0.0-6.0-2.12","5c4e31b37065de00011f795d","bdp_trlrn","Sun Mar 12 2023 15:14:27 GMT-0600 (Mountain Daylight Time)","1593979","Trustworthy,Untrustworthy","","null","","","","ratingFB","","trustrating_stim/white_mw071.bmp","null","","","","","","","","","","",""
"image-keyboard-response","31","118914","0.0-6.0-1.13","5c4e31b37065de00011f795d","bdp_trlrn","Sun Mar 12 2023 15:14:27 GMT-0600 (Mountain Daylight Time)","1593979","Trustworthy,Untrustworthy","","3679","","","","rating","","trustrating_stim/white_mw097.bmp","8","","","","","","","","","","",""
"image-keyboard-response","32","119117","0.0-6.0-2.13","5c4e31b37065de00011f795d","bdp_trlrn","Sun Mar 12 2023 15:14:27 GMT-0600 (Mountain Daylight Time)","1593979","Trustworthy,Untrustworthy","","null","","","","ratingFB","","trustrating_stim/white_mw097.bmp","null","","","","","","","","","","",""
"image-keyboard-response","33","121543","0.0-6.0-1.14","5c4e31b37065de00011f795d","bdp_trlrn","Sun Mar 12 2023 15:14:27 GMT-0600 (Mountain Daylight Time)","1593979","Trustworthy,Untrustworthy","","2322","","","","rating","","trustrating_stim/white_mw049.bmp","3","","","","","","","","","","",""
"image-keyboard-response","34","121747","0.0-6.0-2.14","5c4e31b37065de00011f795d","bdp_trlrn","Sun Mar 12 2023 15:14:27 GMT-0600 (Mountain Daylight Time)","1593979","Trustworthy,Untrustworthy","","null","","","","ratingFB","","trustrating_stim/white_mw049.bmp","null","","","","","","","","","","",""
"image-keyboard-response","35","124627","0.0-6.0-1.15","5c4e31b37065de00011f795d","bdp_trlrn","Sun Mar 12 2023 15:14:27 GMT-0600 (Mountain Daylight Time)","1593979","Trustworthy,Untrustworthy","","2774","","","","rating","","trustrating_stim/white_mw089.bmp","6","","","","","","","","","","",""
"image-keyboard-response","36","124836","0.0-6.0-2.15","5c4e31b37065de00011f795d","bdp_trlrn","Sun Mar 12 2023 15:14:27 GMT-0600 (Mountain Daylight Time)","1593979","Trustworthy,Untrustworthy","","null","","","","ratingFB","","trustrating_stim/white_mw089.bmp","null","","","","","","","","","","",""
"image-keyboard-response","37","128661","0.0-6.0-1.16","5c4e31b37065de00011f795d","bdp_trlrn","Sun Mar 12 2023 15:14:27 GMT-0600 (Mountain Daylight Time)","1593979","Trustworthy,Untrustworthy","","3721","","","","rating","","trustrating_stim/white_mw066.bmp","2","","","","","","","","","","",""
"image-keyboard-response","38","128871","0.0-6.0-2.16","5c4e31b37065de00011f795d","bdp_trlrn","Sun Mar 12 2023 15:14:27 GMT-0600 (Mountain Daylight Time)","1593979","Trustworthy,Untrustworthy","","null","","","","ratingFB","","trustrating_stim/white_mw066.bmp","null","","","","","","","","","","",""
"image-keyboard-response","39","133332","0.0-6.0-1.17","5c4e31b37065de00011f795d","bdp_trlrn","Sun Mar 12 2023 15:14:27 GMT-0600 (Mountain Daylight Time)","1593979","Trustworthy,Untrustworthy","","4353","","","","rating","","trustrating_stim/white_00659_941121_fa_edt.bmp","7","","","","","","","","","","",""
"image-keyboard-response","40","133537","0.0-6.0-2.17","5c4e31b37065de00011f795d","bdp_trlrn","Sun Mar 12 2023 15:14:27 GMT-0600 (Mountain Daylight Time)","1593979","Trustworthy,Untrustworthy","","null","","","","ratingFB","","trustrating_stim/white_00659_941121_fa_edt.bmp","null","","","","","","","","","","",""
"image-keyboard-response","41","137954","0.0-6.0-1.18","5c4e31b37065de00011f795d","bdp_trlrn","Sun Mar 12 2023 15:14:27 GMT-0600 (Mountain Daylight Time)","1593979","Trustworthy,Untrustworthy","","4310","","","","rating","","trustrating_stim/white_mw063.bmp","3","","","","","","","","","","",""
"image-keyboard-response","42","138158","0.0-6.0-2.18","5c4e31b37065de00011f795d","bdp_trlrn","Sun Mar 12 2023 15:14:27 GMT-0600 (Mountain Daylight Time)","1593979","Trustworthy,Untrustworthy","","null","","","","ratingFB","","trustrating_stim/white_mw063.bmp","null","","","","","","","","","","",""
"image-keyboard-response","43","142357","0.0-6.0-1.19","5c4e31b37065de00011f795d","bdp_trlrn","Sun Mar 12 2023 15:14:27 GMT-0600 (Mountain Daylight Time)","1593979","Trustworthy,Untrustworthy","","4096","","","","rating","","trustrating_stim/white_00519_940519_fb_edt.bmp","7","","","","","","","","","","",""
"image-keyboard-response","44","142562","0.0-6.0-2.19","5c4e31b37065de00011f795d","bdp_trlrn","Sun Mar 12 2023 15:14:27 GMT-0600 (Mountain Daylight Time)","1593979","Trustworthy,Untrustworthy","","null","","","","ratingFB","","trustrating_stim/white_00519_940519_fb_edt.bmp","null","","","","","","","","","","",""
"image-keyboard-response","45","144464","0.0-6.0-1.20","5c4e31b37065de00011f795d","bdp_trlrn","Sun Mar 12 2023 15:14:27 GMT-0600 (Mountain Daylight Time)","1593979","Trustworthy,Untrustworthy","","1792","","","","rating","","trustrating_stim/white_00807_941205_fb_edt.bmp","4","","","","","","","","","","",""
"image-keyboard-response","46","144667","0.0-6.0-2.20","5c4e31b37065de00011f795d","bdp_trlrn","Sun Mar 12 2023 15:14:27 GMT-0600 (Mountain Daylight Time)","1593979","Trustworthy,Untrustworthy","","null","","","","ratingFB","","trustrating_stim/white_00807_941205_fb_edt.bmp","null","","","","","","","","","","",""
"image-keyboard-response","47","146927","0.0-6.0-1.21","5c4e31b37065de00011f795d","bdp_trlrn","Sun Mar 12 2023 15:14:27 GMT-0600 (Mountain Daylight Time)","1593979","Trustworthy,Untrustworthy","","2152","","","","rating","","trustrating_stim/white_00577_940928_fa_edt.bmp","3","","","","","","","","","","",""
"image-keyboard-response","48","147129","0.0-6.0-2.21","5c4e31b37065de00011f795d","bdp_trlrn","Sun Mar 12 2023 15:14:27 GMT-0600 (Mountain Daylight Time)","1593979","Trustworthy,Untrustworthy","","null","","","","ratingFB","","trustrating_stim/white_00577_940928_fa_edt.bmp","null","","","","","","","","","","",""
"image-keyboard-response","49","149623","0.0-6.0-1.22","5c4e31b37065de00011f795d","bdp_trlrn","Sun Mar 12 2023 15:14:27 GMT-0600 (Mountain Daylight Time)","1593979","Trustworthy,Untrustworthy","","2388","","","","rating","","trustrating_stim/white_00757_941201_fa_edt.bmp","3","","","","","","","","","","",""
"image-keyboard-response","50","149825","0.0-6.0-2.22","5c4e31b37065de00011f795d","bdp_trlrn","Sun Mar 12 2023 15:14:27 GMT-0600 (Mountain Daylight Time)","1593979","Trustworthy,Untrustworthy","","null","","","","ratingFB","","trustrating_stim/white_00757_941201_fa_edt.bmp","null","","","","","","","","","","",""
"image-keyboard-response","51","152035","0.0-6.0-1.23","5c4e31b37065de00011f795d","bdp_trlrn","Sun Mar 12 2023 15:14:27 GMT-0600 (Mountain Daylight Time)","1593979","Trustworthy,Untrustworthy","","2106","","","","rating","","trustrating_stim/white_00223_940128_fb_edt.bmp","3","","","","","","","","","","",""
"image-keyboard-response","52","152238","0.0-6.0-2.23","5c4e31b37065de00011f795d","bdp_trlrn","Sun Mar 12 2023 15:14:27 GMT-0600 (Mountain Daylight Time)","1593979","Trustworthy,Untrustworthy","","null","","","","ratingFB","","trustrating_stim/white_00223_940128_fb_edt.bmp","null","","","","","","","","","","",""
"image-keyboard-response","53","153321","0.0-6.0-1.24","5c4e31b37065de00011f795d","bdp_trlrn","Sun Mar 12 2023 15:14:27 GMT-0600 (Mountain Daylight Time)","1593979","Trustworthy,Untrustworthy","","973","","","","rating","","trustrating_stim/white_00898_960530_fa_edt.bmp","3","","","","","","","","","","",""
"image-keyboard-response","54","153524","0.0-6.0-2.24","5c4e31b37065de00011f795d","bdp_trlrn","Sun Mar 12 2023 15:14:27 GMT-0600 (Mountain Daylight Time)","1593979","Trustworthy,Untrustworthy","","null","","","","ratingFB","","trustrating_stim/white_00898_960530_fa_edt.bmp","null","","","","","","","","","","",""
"image-keyboard-response","55","156238","0.0-6.0-1.25","5c4e31b37065de00011f795d","bdp_trlrn","Sun Mar 12 2023 15:14:27 GMT-0600 (Mountain Daylight Time)","1593979","Trustworthy,Untrustworthy","","2610","","","","rating","","trustrating_stim/white_00340_940422_fa_edt.bmp","2","","","","","","","","","","",""
"image-keyboard-response","56","156444","0.0-6.0-2.25","5c4e31b37065de00011f795d","bdp_trlrn","Sun Mar 12 2023 15:14:27 GMT-0600 (Mountain Daylight Time)","1593979","Trustworthy,Untrustworthy","","null","","","","ratingFB","","trustrating_stim/white_00340_940422_fa_edt.bmp","null","","","","","","","","","","",""
"image-keyboard-response","57","158508","0.0-6.0-1.26","5c4e31b37065de00011f795d","bdp_trlrn","Sun Mar 12 2023 15:14:27 GMT-0600 (Mountain Daylight Time)","1593979","Trustworthy,Untrustworthy","","1955","","","","rating","","trustrating_stim/white_mw099.bmp","4","","","","","","","","","","",""
"image-keyboard-response","58","158711","0.0-6.0-2.26","5c4e31b37065de00011f795d","bdp_trlrn","Sun Mar 12 2023 15:14:27 GMT-0600 (Mountain Daylight Time)","1593979","Trustworthy,Untrustworthy","","null","","","","ratingFB","","trustrating_stim/white_mw099.bmp","null","","","","","","","","","","",""
"image-keyboard-response","59","161520","0.0-6.0-1.27","5c4e31b37065de00011f795d","bdp_trlrn","Sun Mar 12 2023 15:14:27 GMT-0600 (Mountain Daylight Time)","1593979","Trustworthy,Untrustworthy","","2696","","","","rating","","trustrating_stim/white_00109_931230_fa_edt.bmp","3","","","","","","","","","","",""
"image-keyboard-response","60","161726","0.0-6.0-2.27","5c4e31b37065de00011f795d","bdp_trlrn","Sun Mar 12 2023 15:14:27 GMT-0600 (Mountain Daylight Time)","1593979","Trustworthy,Untrustworthy","","null","","","","ratingFB","","trustrating_stim/white_00109_931230_fa_edt.bmp","null","","","","","","","","","","",""
"image-keyboard-response","61","164774","0.0-6.0-1.28","5c4e31b37065de00011f795d","bdp_trlrn","Sun Mar 12 2023 15:14:27 GMT-0600 (Mountain Daylight Time)","1593979","Trustworthy,Untrustworthy","","2942","","","","rating","","trustrating_stim/white_00785_941205_fb_edt.bmp","3","","","","","","","","","","",""
"image-keyboard-response","62","164979","0.0-6.0-2.28","5c4e31b37065de00011f795d","bdp_trlrn","Sun Mar 12 2023 15:14:27 GMT-0600 (Mountain Daylight Time)","1593979","Trustworthy,Untrustworthy","","null","","","","ratingFB","","trustrating_stim/white_00785_941205_fb_edt.bmp","null","","","","","","","","","","",""
"image-keyboard-response","63","167496","0.0-6.0-1.29","5c4e31b37065de00011f795d","bdp_trlrn","Sun Mar 12 2023 15:14:27 GMT-0600 (Mountain Daylight Time)","1593979","Trustworthy,Untrustworthy","","2406","","","","rating","","trustrating_stim/white_mw084.bmp","4","","","","","","","","","","",""
"image-keyboard-response","64","167700","0.0-6.0-2.29","5c4e31b37065de00011f795d","bdp_trlrn","Sun Mar 12 2023 15:14:27 GMT-0600 (Mountain Daylight Time)","1593979","Trustworthy,Untrustworthy","","null","","","","ratingFB","","trustrating_stim/white_mw084.bmp","null","","","","","","","","","","",""
"image-keyboard-response","65","169090","0.0-6.0-1.30","5c4e31b37065de00011f795d","bdp_trlrn","Sun Mar 12 2023 15:14:27 GMT-0600 (Mountain Daylight Time)","1593979","Trustworthy,Untrustworthy","","1277","","","","rating","","trustrating_stim/white_mw063.bmp","4","","","","","","","","","","",""
"image-keyboard-response","66","169294","0.0-6.0-2.30","5c4e31b37065de00011f795d","bdp_trlrn","Sun Mar 12 2023 15:14:27 GMT-0600 (Mountain Daylight Time)","1593979","Trustworthy,Untrustworthy","","null","","","","ratingFB","","trustrating_stim/white_mw063.bmp","null","","","","","","","","","","",""
"image-keyboard-response","67","171242","0.0-6.0-1.31","5c4e31b37065de00011f795d","bdp_trlrn","Sun Mar 12 2023 15:14:27 GMT-0600 (Mountain Daylight Time)","1593979","Trustworthy,Untrustworthy","","1838","","","","rating","","trustrating_stim/white_00299_940422_fa_edt.bmp","3","","","","","","","","","","",""
"image-keyboard-response","68","171445","0.0-6.0-2.31","5c4e31b37065de00011f795d","bdp_trlrn","Sun Mar 12 2023 15:14:27 GMT-0600 (Mountain Daylight Time)","1593979","Trustworthy,Untrustworthy","","null","","","","ratingFB","","trustrating_stim/white_00299_940422_fa_edt.bmp","null","","","","","","","","","","",""
"image-keyboard-response","69","174111","0.0-6.0-1.32","5c4e31b37065de00011f795d","bdp_trlrn","Sun Mar 12 2023 15:14:27 GMT-0600 (Mountain Daylight Time)","1593979","Trustworthy,Untrustworthy","","2551","","","","rating","","trustrating_stim/white_mw048.bmp","8","","","","","","","","","","",""
"image-keyboard-response","70","174316","0.0-6.0-2.32","5c4e31b37065de00011f795d","bdp_trlrn","Sun Mar 12 2023 15:14:27 GMT-0600 (Mountain Daylight Time)","1593979","Trustworthy,Untrustworthy","","null","","","","ratingFB","","trustrating_stim/white_mw048.bmp","null","","","","","","","","","","",""
"image-keyboard-response","71","176805","0.0-6.0-1.33","5c4e31b37065de00011f795d","bdp_trlrn","Sun Mar 12 2023 15:14:27 GMT-0600 (Mountain Daylight Time)","1593979","Trustworthy,Untrustworthy","","2382","","","","rating","","trustrating_stim/white_mw046.bmp","6","","","","","","","","","","",""
"image-keyboard-response","72","177010","0.0-6.0-2.33","5c4e31b37065de00011f795d","bdp_trlrn","Sun Mar 12 2023 15:14:27 GMT-0600 (Mountain Daylight Time)","1593979","Trustworthy,Untrustworthy","","null","","","","ratingFB","","trustrating_stim/white_mw046.bmp","null","","","","","","","","","","",""
"image-keyboard-response","73","180418","0.0-6.0-1.34","5c4e31b37065de00011f795d","bdp_trlrn","Sun Mar 12 2023 15:14:27 GMT-0600 (Mountain Daylight Time)","1593979","Trustworthy,Untrustworthy","","3293","","","","rating","","trustrating_stim/white_00129_931230_fb_edt.bmp","3","","","","","","","","","","",""
"image-keyboard-response","74","180621","0.0-6.0-2.34","5c4e31b37065de00011f795d","bdp_trlrn","Sun Mar 12 2023 15:14:27 GMT-0600 (Mountain Daylight Time)","1593979","Trustworthy,Untrustworthy","","null","","","","ratingFB","","trustrating_stim/white_00129_931230_fb_edt.bmp","null","","","","","","","","","","",""
"image-keyboard-response","75","182048","0.0-6.0-1.35","5c4e31b37065de00011f795d","bdp_trlrn","Sun Mar 12 2023 15:14:27 GMT-0600 (Mountain Daylight Time)","1593979","Trustworthy,Untrustworthy","","1321","","","","rating","","trustrating_stim/white_00519_940519_fb_edt.bmp","6","","","","","","","","","","",""
"image-keyboard-response","76","182252","0.0-6.0-2.35","5c4e31b37065de00011f795d","bdp_trlrn","Sun Mar 12 2023 15:14:27 GMT-0600 (Mountain Daylight Time)","1593979","Trustworthy,Untrustworthy","","null","","","","ratingFB","","trustrating_stim/white_00519_940519_fb_edt.bmp","null","","","","","","","","","","",""
"image-keyboard-response","77","185513","0.0-6.0-1.36","5c4e31b37065de00011f795d","bdp_trlrn","Sun Mar 12 2023 15:14:27 GMT-0600 (Mountain Daylight Time)","1593979","Trustworthy,Untrustworthy","","3152","","","","rating","","trustrating_stim/white_00898_960530_fa_edt.bmp","2","","","","","","","","","","",""
"image-keyboard-response","78","185723","0.0-6.0-2.36","5c4e31b37065de00011f795d","bdp_trlrn","Sun Mar 12 2023 15:14:27 GMT-0600 (Mountain Daylight Time)","1593979","Trustworthy,Untrustworthy","","null","","","","ratingFB","","trustrating_stim/white_00898_960530_fa_edt.bmp","null","","","","","","","","","","",""
"image-keyboard-response","79","187228","0.0-6.0-1.37","5c4e31b37065de00011f795d","bdp_trlrn","Sun Mar 12 2023 15:14:27 GMT-0600 (Mountain Daylight Time)","1593979","Trustworthy,Untrustworthy","","1399","","","","rating","","trustrating_stim/white_mw049.bmp","2","","","","","","","","","","",""
"image-keyboard-response","80","187431","0.0-6.0-2.37","5c4e31b37065de00011f795d","bdp_trlrn","Sun Mar 12 2023 15:14:27 GMT-0600 (Mountain Daylight Time)","1593979","Trustworthy,Untrustworthy","","null","","","","ratingFB","","trustrating_stim/white_mw049.bmp","null","","","","","","","","","","",""
"image-keyboard-response","81","188477","0.0-6.0-1.38","5c4e31b37065de00011f795d","bdp_trlrn","Sun Mar 12 2023 15:14:27 GMT-0600 (Mountain Daylight Time)","1593979","Trustworthy,Untrustworthy","","932","","","","rating","","trustrating_stim/white_00602_940928_fb_edt.bmp","2","","","","","","","","","","",""
"image-keyboard-response","82","188680","0.0-6.0-2.38","5c4e31b37065de00011f795d","bdp_trlrn","Sun Mar 12 2023 15:14:27 GMT-0600 (Mountain Daylight Time)","1593979","Trustworthy,Untrustworthy","","null","","","","ratingFB","","trustrating_stim/white_00602_940928_fb_edt.bmp","null","","","","","","","","","","",""
"image-keyboard-response","83","190166","0.0-6.0-1.39","5c4e31b37065de00011f795d","bdp_trlrn","Sun Mar 12 2023 15:14:27 GMT-0600 (Mountain Daylight Time)","1593979","Trustworthy,Untrustworthy","","1377","","","","rating","","trustrating_stim/white_00109_931230_fa_edt.bmp","3","","","","","","","","","","",""
"image-keyboard-response","84","190370","0.0-6.0-2.39","5c4e31b37065de00011f795d","bdp_trlrn","Sun Mar 12 2023 15:14:27 GMT-0600 (Mountain Daylight Time)","1593979","Trustworthy,Untrustworthy","","null","","","","ratingFB","","trustrating_stim/white_00109_931230_fa_edt.bmp","null","","","","","","","","","","",""
"image-keyboard-response","85","193425","0.0-6.0-1.40","5c4e31b37065de00011f795d","bdp_trlrn","Sun Mar 12 2023 15:14:27 GMT-0600 (Mountain Daylight Time)","1593979","Trustworthy,Untrustworthy","","2944","","","","rating","","trustrating_stim/white_00223_940128_fb_edt.bmp","3","","","","","","","","","","",""
"image-keyboard-response","86","193628","0.0-6.0-2.40","5c4e31b37065de00011f795d","bdp_trlrn","Sun Mar 12 2023 15:14:27 GMT-0600 (Mountain Daylight Time)","1593979","Trustworthy,Untrustworthy","","null","","","","ratingFB","","trustrating_stim/white_00223_940128_fb_edt.bmp","null","","","","","","","","","","",""
"image-keyboard-response","87","195392","0.0-6.0-1.41","5c4e31b37065de00011f795d","bdp_trlrn","Sun Mar 12 2023 15:14:27 GMT-0600 (Mountain Daylight Time)","1593979","Trustworthy,Untrustworthy","","1660","","","","rating","","trustrating_stim/white_00757_941201_fa_edt.bmp","3","","","","","","","","","","",""
"image-keyboard-response","88","195595","0.0-6.0-2.41","5c4e31b37065de00011f795d","bdp_trlrn","Sun Mar 12 2023 15:14:27 GMT-0600 (Mountain Daylight Time)","1593979","Trustworthy,Untrustworthy","","null","","","","ratingFB","","trustrating_stim/white_00757_941201_fa_edt.bmp","null","","","","","","","","","","",""
"image-keyboard-response","89","198564","0.0-6.0-1.42","5c4e31b37065de00011f795d","bdp_trlrn","Sun Mar 12 2023 15:14:27 GMT-0600 (Mountain Daylight Time)","1593979","Trustworthy,Untrustworthy","","2861","","","","rating","","trustrating_stim/white_mw071.bmp","7","","","","","","","","","","",""
"image-keyboard-response","90","198769","0.0-6.0-2.42","5c4e31b37065de00011f795d","bdp_trlrn","Sun Mar 12 2023 15:14:27 GMT-0600 (Mountain Daylight Time)","1593979","Trustworthy,Untrustworthy","","null","","","","ratingFB","","trustrating_stim/white_mw071.bmp","null","","","","","","","","","","",""
"image-keyboard-response","91","201067","0.0-6.0-1.43","5c4e31b37065de00011f795d","bdp_trlrn","Sun Mar 12 2023 15:14:27 GMT-0600 (Mountain Daylight Time)","1593979","Trustworthy,Untrustworthy","","2186","","","","rating","","trustrating_stim/white_00761_941201_fb_edt.bmp","5","","","","","","","","","","",""
"image-keyboard-response","92","201277","0.0-6.0-2.43","5c4e31b37065de00011f795d","bdp_trlrn","Sun Mar 12 2023 15:14:27 GMT-0600 (Mountain Daylight Time)","1593979","Trustworthy,Untrustworthy","","null","","","","ratingFB","","trustrating_stim/white_00761_941201_fb_edt.bmp","null","","","","","","","","","","",""
"image-keyboard-response","93","203458","0.0-6.0-1.44","5c4e31b37065de00011f795d","bdp_trlrn","Sun Mar 12 2023 15:14:27 GMT-0600 (Mountain Daylight Time)","1593979","Trustworthy,Untrustworthy","","2073","","","","rating","","trustrating_stim/white_mw084.bmp","4","","","","","","","","","","",""
"image-keyboard-response","94","203664","0.0-6.0-2.44","5c4e31b37065de00011f795d","bdp_trlrn","Sun Mar 12 2023 15:14:27 GMT-0600 (Mountain Daylight Time)","1593979","Trustworthy,Untrustworthy","","null","","","","ratingFB","","trustrating_stim/white_mw084.bmp","null","","","","","","","","","","",""
"image-keyboard-response","95","205019","0.0-6.0-1.45","5c4e31b37065de00011f795d","bdp_trlrn","Sun Mar 12 2023 15:14:27 GMT-0600 (Mountain Daylight Time)","1593979","Trustworthy,Untrustworthy","","1240","","","","rating","","trustrating_stim/white_mw066.bmp","4","","","","","","","","","","",""
"image-keyboard-response","96","205222","0.0-6.0-2.45","5c4e31b37065de00011f795d","bdp_trlrn","Sun Mar 12 2023 15:14:27 GMT-0600 (Mountain Daylight Time)","1593979","Trustworthy,Untrustworthy","","null","","","","ratingFB","","trustrating_stim/white_mw066.bmp","null","","","","","","","","","","",""
"image-keyboard-response","97","207142","0.0-6.0-1.46","5c4e31b37065de00011f795d","bdp_trlrn","Sun Mar 12 2023 15:14:27 GMT-0600 (Mountain Daylight Time)","1593979","Trustworthy,Untrustworthy","","1814","","","","rating","","trustrating_stim/white_00577_940928_fa_edt.bmp","3","","","","","","","","","","",""
"image-keyboard-response","98","207346","0.0-6.0-2.46","5c4e31b37065de00011f795d","bdp_trlrn","Sun Mar 12 2023 15:14:27 GMT-0600 (Mountain Daylight Time)","1593979","Trustworthy,Untrustworthy","","null","","","","ratingFB","","trustrating_stim/white_00577_940928_fa_edt.bmp","null","","","","","","","","","","",""
"image-keyboard-response","99","211010","0.0-6.0-1.47","5c4e31b37065de00011f795d","bdp_trlrn","Sun Mar 12 2023 15:14:27 GMT-0600 (Mountain Daylight Time)","1593979","Trustworthy,Untrustworthy","","3550","","","","rating","","trustrating_stim/white_00659_941121_fa_edt.bmp","3","","","","","","","","","","",""
"image-keyboard-response","100","211216","0.0-6.0-2.47","5c4e31b37065de00011f795d","bdp_trlrn","Sun Mar 12 2023 15:14:27 GMT-0600 (Mountain Daylight Time)","1593979","Trustworthy,Untrustworthy","","null","","","","ratingFB","","trustrating_stim/white_00659_941121_fa_edt.bmp","null","","","","","","","","","","",""
"image-keyboard-response","101","213176","0.0-6.0-1.48","5c4e31b37065de00011f795d","bdp_trlrn","Sun Mar 12 2023 15:14:27 GMT-0600 (Mountain Daylight Time)","1593979","Trustworthy,Untrustworthy","","1852","","","","rating","","trustrating_stim/white_mw033.bmp","5","","","","","","","","","","",""
"image-keyboard-response","102","213379","0.0-6.0-2.48","5c4e31b37065de00011f795d","bdp_trlrn","Sun Mar 12 2023 15:14:27 GMT-0600 (Mountain Daylight Time)","1593979","Trustworthy,Untrustworthy","","null","","","","ratingFB","","trustrating_stim/white_mw033.bmp","null","","","","","","","","","","",""
"image-keyboard-response","103","216006","0.0-6.0-1.49","5c4e31b37065de00011f795d","bdp_trlrn","Sun Mar 12 2023 15:14:27 GMT-0600 (Mountain Daylight Time)","1593979","Trustworthy,Untrustworthy","","2511","","","","rating","","trustrating_stim/white_mw097.bmp","8","","","","","","","","","","",""
"image-keyboard-response","104","216210","0.0-6.0-2.49","5c4e31b37065de00011f795d","bdp_trlrn","Sun Mar 12 2023 15:14:27 GMT-0600 (Mountain Daylight Time)","1593979","Trustworthy,Untrustworthy","","null","","","","ratingFB","","trustrating_stim/white_mw097.bmp","null","","","","","","","","","","",""
"image-keyboard-response","105","218132","0.0-6.0-1.50","5c4e31b37065de00011f795d","bdp_trlrn","Sun Mar 12 2023 15:14:27 GMT-0600 (Mountain Daylight Time)","1593979","Trustworthy,Untrustworthy","","1806","","","","rating","","trustrating_stim/white_mw053.bmp","6","","","","","","","","","","",""
"image-keyboard-response","106","218334","0.0-6.0-2.50","5c4e31b37065de00011f795d","bdp_trlrn","Sun Mar 12 2023 15:14:27 GMT-0600 (Mountain Daylight Time)","1593979","Trustworthy,Untrustworthy","","null","","","","ratingFB","","trustrating_stim/white_mw053.bmp","null","","","","","","","","","","",""
"image-keyboard-response","107","220416","0.0-6.0-1.51","5c4e31b37065de00011f795d","bdp_trlrn","Sun Mar 12 2023 15:14:27 GMT-0600 (Mountain Daylight Time)","1593979","Trustworthy,Untrustworthy","","1960","","","","rating","","trustrating_stim/white_00120_931230_fa_edt.bmp","5","","","","","","","","","","",""
"image-keyboard-response","108","220619","0.0-6.0-2.51","5c4e31b37065de00011f795d","bdp_trlrn","Sun Mar 12 2023 15:14:27 GMT-0600 (Mountain Daylight Time)","1593979","Trustworthy,Untrustworthy","","null","","","","ratingFB","","trustrating_stim/white_00120_931230_fa_edt.bmp","null","","","","","","","","","","",""
"image-keyboard-response","109","223692","0.0-6.0-1.52","5c4e31b37065de00011f795d","bdp_trlrn","Sun Mar 12 2023 15:14:27 GMT-0600 (Mountain Daylight Time)","1593979","Trustworthy,Untrustworthy","","2963","","","","rating","","trustrating_stim/white_00785_941205_fb_edt.bmp","6","","","","","","","","","","",""
"image-keyboard-response","110","223896","0.0-6.0-2.52","5c4e31b37065de00011f795d","bdp_trlrn","Sun Mar 12 2023 15:14:27 GMT-0600 (Mountain Daylight Time)","1593979","Trustworthy,Untrustworthy","","null","","","","ratingFB","","trustrating_stim/white_00785_941205_fb_edt.bmp","null","","","","","","","","","","",""
"image-keyboard-response","111","226083","0.0-6.0-1.53","5c4e31b37065de00011f795d","bdp_trlrn","Sun Mar 12 2023 15:14:27 GMT-0600 (Mountain Daylight Time)","1593979","Trustworthy,Untrustworthy","","2075","","","","rating","","trustrating_stim/white_00340_940422_fa_edt.bmp","5","","","","","","","","","","",""
"image-keyboard-response","112","226289","0.0-6.0-2.53","5c4e31b37065de00011f795d","bdp_trlrn","Sun Mar 12 2023 15:14:27 GMT-0600 (Mountain Daylight Time)","1593979","Trustworthy,Untrustworthy","","null","","","","ratingFB","","trustrating_stim/white_00340_940422_fa_edt.bmp","null","","","","","","","","","","",""
"image-keyboard-response","113","229092","0.0-6.0-1.54","5c4e31b37065de00011f795d","bdp_trlrn","Sun Mar 12 2023 15:14:27 GMT-0600 (Mountain Daylight Time)","1593979","Trustworthy,Untrustworthy","","2684","","","","rating","","trustrating_stim/white_mw035.bmp","6","","","","","","","","","","",""
"image-keyboard-response","114","229304","0.0-6.0-2.54","5c4e31b37065de00011f795d","bdp_trlrn","Sun Mar 12 2023 15:14:27 GMT-0600 (Mountain Daylight Time)","1593979","Trustworthy,Untrustworthy","","null","","","","ratingFB","","trustrating_stim/white_mw035.bmp","null","","","","","","","","","","",""
"image-keyboard-response","115","231631","0.0-6.0-1.55","5c4e31b37065de00011f795d","bdp_trlrn","Sun Mar 12 2023 15:14:27 GMT-0600 (Mountain Daylight Time)","1593979","Trustworthy,Untrustworthy","","2211","","","","rating","","trustrating_stim/white_mw089.bmp","5","","","","","","","","","","",""
"image-keyboard-response","116","231834","0.0-6.0-2.55","5c4e31b37065de00011f795d","bdp_trlrn","Sun Mar 12 2023 15:14:27 GMT-0600 (Mountain Daylight Time)","1593979","Trustworthy,Untrustworthy","","null","","","","ratingFB","","trustrating_stim/white_mw089.bmp","null","","","","","","","","","","",""
"image-keyboard-response","117","236095","0.0-6.0-1.56","5c4e31b37065de00011f795d","bdp_trlrn","Sun Mar 12 2023 15:14:27 GMT-0600 (Mountain Daylight Time)","1593979","Trustworthy,Untrustworthy","","4155","","","","rating","","trustrating_stim/white_mw099.bmp","4","","","","","","","","","","",""
"image-keyboard-response","118","236300","0.0-6.0-2.56","5c4e31b37065de00011f795d","bdp_trlrn","Sun Mar 12 2023 15:14:27 GMT-0600 (Mountain Daylight Time)","1593979","Trustworthy,Untrustworthy","","null","","","","ratingFB","","trustrating_stim/white_mw099.bmp","null","","","","","","","","","","",""
"image-keyboard-response","119","238462","0.0-6.0-1.57","5c4e31b37065de00011f795d","bdp_trlrn","Sun Mar 12 2023 15:14:27 GMT-0600 (Mountain Daylight Time)","1593979","Trustworthy,Untrustworthy","","2051","","","","rating","","trustrating_stim/white_mw056.bmp","3","","","","","","","","","","",""
"image-keyboard-response","120","238669","0.0-6.0-2.57","5c4e31b37065de00011f795d","bdp_trlrn","Sun Mar 12 2023 15:14:27 GMT-0600 (Mountain Daylight Time)","1593979","Trustworthy,Untrustworthy","","null","","","","ratingFB","","trustrating_stim/white_mw056.bmp","null","","","","","","","","","","",""
"image-keyboard-response","121","240871","0.0-6.0-1.58","5c4e31b37065de00011f795d","bdp_trlrn","Sun Mar 12 2023 15:14:27 GMT-0600 (Mountain Daylight Time)","1593979","Trustworthy,Untrustworthy","","2084","","","","rating","","trustrating_stim/white_00807_941205_fb_edt.bmp","5","","","","","","","","","","",""
"image-keyboard-response","122","241077","0.0-6.0-2.58","5c4e31b37065de00011f795d","bdp_trlrn","Sun Mar 12 2023 15:14:27 GMT-0600 (Mountain Daylight Time)","1593979","Trustworthy,Untrustworthy","","null","","","","ratingFB","","trustrating_stim/white_00807_941205_fb_edt.bmp","null","","","","","","","","","","",""
"image-keyboard-response","123","242375","0.0-6.0-1.59","5c4e31b37065de00011f795d","bdp_trlrn","Sun Mar 12 2023 15:14:27 GMT-0600 (Mountain Daylight Time)","1593979","Trustworthy,Untrustworthy","","1187","","","","rating","","trustrating_stim/white_mw060.bmp","4","","","","","","","","","","",""
"image-keyboard-response","124","242579","0.0-6.0-2.59","5c4e31b37065de00011f795d","bdp_trlrn","Sun Mar 12 2023 15:14:27 GMT-0600 (Mountain Daylight Time)","1593979","Trustworthy,Untrustworthy","","null","","","","ratingFB","","trustrating_stim/white_mw060.bmp","null","","","","","","","","","","",""
"instructions","125","244423","0.0-7.0","5c4e31b37065de00011f795d","bdp_trlrn","Sun Mar 12 2023 15:14:27 GMT-0600 (Mountain Daylight Time)","1593979","Trustworthy,Untrustworthy","[{""page_index"":0,""viewing_time"":1729}]","1730","","","","","","","","","","","","","","","","","",""
"instructions","126","405227","0.0-8.0","5c4e31b37065de00011f795d","bdp_trlrn","Sun Mar 12 2023 15:14:27 GMT-0600 (Mountain Daylight Time)","1593979","Trustworthy,Untrustworthy","[{""page_index"":0,""viewing_time"":25775},{""page_index"":1,""viewing_time"":43729},{""page_index"":2,""viewing_time"":7986},{""page_index"":3,""viewing_time"":15898},{""page_index"":4,""viewing_time"":9816},{""page_index"":5,""viewing_time"":9936},{""page_index"":6,""viewing_time"":29429},{""page_index"":7,""viewing_time"":18132}]","160702","","","","","","","","","","","","","","","","","",""
"html-keyboard-response","127","411215","0.0-9.0","5c4e31b37065de00011f795d","bdp_trlrn","Sun Mar 12 2023 15:14:27 GMT-0600 (Mountain Daylight Time)","1593979","Trustworthy,Untrustworthy","","5982","","","","","","<div class='header' style='text-align:left; position: absolute; top: 5%; left: 5%;'><small>Task 2 of 5</small></div><div class='instruxDiv'><p><strong>1) What is the minimum number of points you can choose to send to your partner?</strong></p><p>a) 0</p><p>b) 1</p><p>c) 5</p>","A","","","","","","","","","","",""
"html-keyboard-response","128","418222","0.0-10.0","5c4e31b37065de00011f795d","bdp_trlrn","Sun Mar 12 2023 15:14:27 GMT-0600 (Mountain Daylight Time)","1593979","Trustworthy,Untrustworthy","","6900","","","","","","<div class='header' style='text-align:left; position: absolute; top: 5%; left: 5%;'><small>Task 2 of 5</small></div><div class='instruxDiv'><p><strong>1) What is the minimum number of points you can choose to send to your partner?</strong></p><p style='color:#FF0000'>a) 0</p><p>b) 1</p><p>c) 5</p><h3 style='color:#FF0000'>Incorrect!</h3><h3 class='center-content'>The correct response is b).</h3><h3 class='center-content'>The minimum number of points you can choose to send to your partner is 1 point.</h3><p><em>Press SPACEBAR to continue</em></p></div>"," ","","","","","","","","","","",""
"html-keyboard-response","129","422448","0.0-11.0","5c4e31b37065de00011f795d","bdp_trlrn","Sun Mar 12 2023 15:14:27 GMT-0600 (Mountain Daylight Time)","1593979","Trustworthy,Untrustworthy","","4123","","","","","","<div class='header' style='text-align:left; position: absolute; top: 5%; left: 5%;'><small>Task 2 of 5</small></div><div class='instruxDiv'><p><strong>2) What is the maximum number of points you can choose to send to your partner?</strong></p><p>a) 8</p><p>b) 5</p><p>c) 3</p>","B","","","","","","","","","","",""
"html-keyboard-response","130","425545","0.0-12.0","5c4e31b37065de00011f795d","bdp_trlrn","Sun Mar 12 2023 15:14:27 GMT-0600 (Mountain Daylight Time)","1593979","Trustworthy,Untrustworthy","","2991","","","","","","<div class='header' style='text-align:left; position: absolute; top: 5%; left: 5%;'><small>Task 2 of 5</small></div><div class='instruxDiv'><p><strong>2) What is the maximum number of points you can choose to send to your partner?</strong></p><p>a) 8</p><p style='color:#00FF00'>b) 5</p><p>c) 3</p><h3 style='color:#00FF00'>Correct!</h3><h3 class='center-content'>The correct response is b).</h3><h3 class='center-content'>The maximum number of points you can choose to send to your partner is 5 points.</h3><p><em>Press SPACEBAR to continue</em></p></div>"," ","","","","","","","","","","",""
"html-keyboard-response","131","429335","0.0-13.0","5c4e31b37065de00011f795d","bdp_trlrn","Sun Mar 12 2023 15:14:27 GMT-0600 (Mountain Daylight Time)","1593979","Trustworthy,Untrustworthy","","3687","","","","","","<div class='header' style='text-align:left; position: absolute; top: 5%; left: 5%;'><small>Task 2 of 5</small></div><div class='instruxDiv'><p><strong>3) What happens to the amount of points you send to your partner?</strong></p><p>a) Nothing</p><p>b) It doubles</p><p>c) It quadruples</p>","B","","","","","","","","","","",""
"html-keyboard-response","132","434593","0.0-14.0","5c4e31b37065de00011f795d","bdp_trlrn","Sun Mar 12 2023 15:14:27 GMT-0600 (Mountain Daylight Time)","1593979","Trustworthy,Untrustworthy","","5154","","","","","","<div class='header' style='text-align:left; position: absolute; top: 5%; left: 5%;'><small>Task 2 of 5</small></div><div class='instruxDiv'><p><strong>3) What happens to the amount of points you send to your partner?</strong></p><p>a) Nothing</p><p style='color:#FF0000'>b) It doubles</p><p>c) It quadruples</p><h3 style='color:#FF0000'>Incorrect!</h3><h3 class='center-content'>The correct response is c).</h3><h3 class='center-content'>The amount of points you send to your partner quadruples.</h3><p><em>Press SPACEBAR to continue</em></p></div>"," ","","","","","","","","","","",""
"html-keyboard-response","133","464581","0.0-15.0","5c4e31b37065de00011f795d","bdp_trlrn","Sun Mar 12 2023 15:14:27 GMT-0600 (Mountain Daylight Time)","1593979","Trustworthy,Untrustworthy","","29882","","","","","","<div class='header' style='text-align:left; position: absolute; top: 5%; left: 5%;'><small>Task 2 of 5</small></div><div class='instruxDiv'><p><strong>4) If you decided to share 4 out of 5 points with your partner, and they decided to share half of the amount they received with you, how many points would you receive back from them on this round?</strong></p><p>a) 16</p><p>b) 0</p><p>c) 8</p>","C","","","","","","","","","","",""
"html-keyboard-response","134","469646","0.0-16.0","5c4e31b37065de00011f795d","bdp_trlrn","Sun Mar 12 2023 15:14:27 GMT-0600 (Mountain Daylight Time)","1593979","Trustworthy,Untrustworthy","","4954","","","","","","<div class='header' style='text-align:left; position: absolute; top: 5%; left: 5%;'><small>Task 2 of 5</small></div><div class='instruxDiv'><p><strong>4) If you decided to share 4 out of 5 points with your partner, and they decided to share half of the amount they received with you, how many points would you receive back from them on this round?</strong></p><p>a) 16</p><p>b) 0</p><p style='color:#00FF00'>c) 8</p><h3 style='color:#00FF00'>Correct!</h3><h3 class='center-content'>The correct response is c).</h3><h3 class='center-content'>If you shared 4 out of 5 points with your partner and they decided to share half of the amount they received with you, you would receive 8 points back (i.e. (4 x 4)/2 = 8).</h3><p><em>Press SPACEBAR to continue</em></p></div>"," ","","","","","","","","","","",""
"html-keyboard-response","135","474753","0.0-17.0","5c4e31b37065de00011f795d","bdp_trlrn","Sun Mar 12 2023 15:14:27 GMT-0600 (Mountain Daylight Time)","1593979","Trustworthy,Untrustworthy","","null","","","","","","<div class='header' style='text-align:left; position: absolute; top: 5%; left: 5%;'><small>Task 2 of 5</small></div><div class='instruxDiv'><p>Thank you for completing the quiz<p>These are the actual partners you will be interacting with in the next block:<p><div class='tc' align='center'><img class='introPic' src='trustrating_stim/white_mw049.bmp'><br><strong>Daniel</strong></div><div class='bl' align='center'><img class='introPic' src='trustrating_stim/white_00807_941205_fb_edt.bmp'><br><strong>Richard</strong></div><div class='br' align='center'><img class='introPic' src='trustrating_stim/white_mw071.bmp'><br><strong>Jacob</strong></div></div><p>Across <strong>66 rounds</strong> you will interact with each partner <strong>22 times</strong> (in random order).<p style='align:center; color:white'><font <em>Press SPACEBAR to continue</em></p>","null","","","","","","","","","","",""
"instructions","136","502063","0.0-18.0","5c4e31b37065de00011f795d","bdp_trlrn","Sun Mar 12 2023 15:14:27 GMT-0600 (Mountain Daylight Time)","1593979","Trustworthy,Untrustworthy","[{""page_index"":0,""viewing_time"":6957},{""page_index"":1,""viewing_time"":20347}]","27304","","","","","","","","","","","","","","","","","",""
"html-keyboard-response","137","508832","0.0-19.0-1.0","5c4e31b37065de00011f795d","bdp_trlrn","Sun Mar 12 2023 15:14:27 GMT-0600 (Mountain Daylight Time)","1593979","Trustworthy,Untrustworthy","","6659","","","","decision","","<div class='trialDiv'><img src='trustrating_stim/white_00807_941205_fb_edt.bmp'><br><font class='baseline'><strong>Richard</strong><p>Choose number of points to send.</font><div class='respPicDiv'><img src='img/responseButtonOffersNo0L.png' class='respPic'></div></div>","2","1","Richard","6","Kept","0.2,0.65","12","0.2","trustrating_stim/white_00807_941205_fb_edt.bmp","4.5","5","1"
"html-keyboard-response","138","509092","0.0-19.0-2.0","5c4e31b37065de00011f795d","bdp_trlrn","Sun Mar 12 2023 15:14:27 GMT-0600 (Mountain Daylight Time)","1593979","Trustworthy,Untrustworthy","","null","","","","decisionFB","","<div class='trialDiv'><img src='trustrating_stim/white_00807_941205_fb_edt.bmp'><br><font class='baseline'><strong>Richard</strong><p>Choose number of points to send.</font><div class='respPicDiv'><img src='img/responseButtonOffersNo0L2.png' class='respPic'></div></div>","null","1","Richard","6","Kept","0.2,0.65","12","0.2","trustrating_stim/white_00807_941205_fb_edt.bmp","4.5","3","1"
"html-keyboard-response","139","510100","0.0-19.0-3.0","5c4e31b37065de00011f795d","bdp_trlrn","Sun Mar 12 2023 15:14:27 GMT-0600 (Mountain Daylight Time)","1593979","Trustworthy,Untrustworthy","","null","","","","feedback","","<div class='trialDiv'><img src='trustrating_stim/white_00807_941205_fb_edt.bmp'><br><font class='baseline'><strong>Richard</strong><p>Received: <strong>8</strong></font> &nbsp; &nbsp; &nbsp; &nbsp; &nbsp; &nbsp;<font class='negOutcome'>Shared back: <strong>0</strong></font></font><div class='respPicDiv'><img src='img/responseButtonOffersNo0_wht.png' class='respPic'></div></div>","null","1","Richard","6","Kept","0.2,0.65","12","0.2","trustrating_stim/white_00807_941205_fb_edt.bmp","4.5","3","1"
"html-keyboard-response","140","514584","0.0-19.0-1.1","5c4e31b37065de00011f795d","bdp_trlrn","Sun Mar 12 2023 15:14:27 GMT-0600 (Mountain Daylight Time)","1593979","Trustworthy,Untrustworthy","","4479","","","","decision","","<div class='trialDiv'><img src='trustrating_stim/white_mw071.bmp'><br><font class='baseline'><strong>Jacob</strong><p>Choose number of points to send.</font><div class='respPicDiv'><img src='img/responseButtonOffersNo0L.png' class='respPic'></div></div>","2","1","Jacob","10","Kept","0.65,0.2","8","0.65","trustrating_stim/white_mw071.bmp","7.5","8","2"
"html-keyboard-response","141","514843","0.0-19.0-2.1","5c4e31b37065de00011f795d","bdp_trlrn","Sun Mar 12 2023 15:14:27 GMT-0600 (Mountain Daylight Time)","1593979","Trustworthy,Untrustworthy","","null","","","","decisionFB","","<div class='trialDiv'><img src='trustrating_stim/white_mw071.bmp'><br><font class='baseline'><strong>Jacob</strong><p>Choose number of points to send.</font><div class='respPicDiv'><img src='img/responseButtonOffersNo0L2.png' class='respPic'></div></div>","null","1","Jacob","10","Kept","0.65,0.2","8","0.65","trustrating_stim/white_mw071.bmp","7.5","6","2"
"html-keyboard-response","142","515849","0.0-19.0-3.1","5c4e31b37065de00011f795d","bdp_trlrn","Sun Mar 12 2023 15:14:27 GMT-0600 (Mountain Daylight Time)","1593979","Trustworthy,Untrustworthy","","null","","","","feedback","","<div class='trialDiv'><img src='trustrating_stim/white_mw071.bmp'><br><font class='baseline'><strong>Jacob</strong><p>Received: <strong>8</strong></font> &nbsp; &nbsp; &nbsp; &nbsp; &nbsp; &nbsp;<font class='negOutcome'>Shared back: <strong>0</strong></font></font><div class='respPicDiv'><img src='img/responseButtonOffersNo0_wht.png' class='respPic'></div></div>","null","1","Jacob","10","Kept","0.65,0.2","8","0.65","trustrating_stim/white_mw071.bmp","7.5","6","2"
"html-keyboard-response","143","525304","0.0-19.0-1.2","5c4e31b37065de00011f795d","bdp_trlrn","Sun Mar 12 2023 15:14:27 GMT-0600 (Mountain Daylight Time)","1593979","Trustworthy,Untrustworthy","","9452","","","","decision","","<div class='trialDiv'><img src='trustrating_stim/white_mw049.bmp'><br><font class='baseline'><strong>Daniel</strong><p>Choose number of points to send.</font><div class='respPicDiv'><img src='img/responseButtonOffersNo0L.png' class='respPic'></div></div>","2","1","Daniel","2","Shared","0.8,0.2","12","0.8","trustrating_stim/white_mw049.bmp","2.5","11","3"
"html-keyboard-response","144","525559","0.0-19.0-2.2","5c4e31b37065de00011f795d","bdp_trlrn","Sun Mar 12 2023 15:14:27 GMT-0600 (Mountain Daylight Time)","1593979","Trustworthy,Untrustworthy","","null","","","","decisionFB","","<div class='trialDiv'><img src='trustrating_stim/white_mw049.bmp'><br><font class='baseline'><strong>Daniel</strong><p>Choose number of points to send.</font><div class='respPicDiv'><img src='img/responseButtonOffersNo0L2.png' class='respPic'></div></div>","null","1","Daniel","2","Shared","0.8,0.2","12","0.8","trustrating_stim/white_mw049.bmp","2.5","9","3"
"html-keyboard-response","145","526566","0.0-19.0-3.2","5c4e31b37065de00011f795d","bdp_trlrn","Sun Mar 12 2023 15:14:27 GMT-0600 (Mountain Daylight Time)","1593979","Trustworthy,Untrustworthy","","null","","","","feedback","","<div class='trialDiv'><img src='trustrating_stim/white_mw049.bmp'><br><font class='baseline'><strong>Daniel</strong><p>Received: <strong>8</strong></font> &nbsp; &nbsp; &nbsp; &nbsp; &nbsp; &nbsp;<font class='posOutcome'>Shared back: <strong>4</strong></font></font><div class='respPicDiv'><img src='img/responseButtonOffersNo0_wht.png' class='respPic'></div></div>","null","1","Daniel","2","Shared","0.8,0.2","12","0.8","trustrating_stim/white_mw049.bmp","2.5","13","3"
"html-keyboard-response","146","545218","0.0-19.0-1.3","5c4e31b37065de00011f795d","bdp_trlrn","Sun Mar 12 2023 15:14:27 GMT-0600 (Mountain Daylight Time)","1593979","Trustworthy,Untrustworthy","","18649","","","","decision","","<div class='trialDiv'><img src='trustrating_stim/white_mw071.bmp'><br><font class='baseline'><strong>Jacob</strong><p>Choose number of points to send.</font><div class='respPicDiv'><img src='img/responseButtonOffersNo0L.png' class='respPic'></div></div>","2","2","Jacob","10","Kept","0.65,0.2","8","0.65","trustrating_stim/white_mw071.bmp","7.5","18","4"
"html-keyboard-response","147","545472","0.0-19.0-2.3","5c4e31b37065de00011f795d","bdp_trlrn","Sun Mar 12 2023 15:14:27 GMT-0600 (Mountain Daylight Time)","1593979","Trustworthy,Untrustworthy","","null","","","","decisionFB","","<div class='trialDiv'><img src='trustrating_stim/white_mw071.bmp'><br><font class='baseline'><strong>Jacob</strong><p>Choose number of points to send.</font><div class='respPicDiv'><img src='img/responseButtonOffersNo0L2.png' class='respPic'></div></div>","null","2","Jacob","10","Kept","0.65,0.2","8","0.65","trustrating_stim/white_mw071.bmp","7.5","16","4"
"html-keyboard-response","148","546481","0.0-19.0-3.3","5c4e31b37065de00011f795d","bdp_trlrn","Sun Mar 12 2023 15:14:27 GMT-0600 (Mountain Daylight Time)","1593979","Trustworthy,Untrustworthy","","null","","","","feedback","","<div class='trialDiv'><img src='trustrating_stim/white_mw071.bmp'><br><font class='baseline'><strong>Jacob</strong><p>Received: <strong>8</strong></font> &nbsp; &nbsp; &nbsp; &nbsp; &nbsp; &nbsp;<font class='negOutcome'>Shared back: <strong>0</strong></font></font><div class='respPicDiv'><img src='img/responseButtonOffersNo0_wht.png' class='respPic'></div></div>","null","2","Jacob","10","Kept","0.65,0.2","8","0.65","trustrating_stim/white_mw071.bmp","7.5","16","4"
"html-keyboard-response","149","560108","0.0-19.0-1.4","5c4e31b37065de00011f795d","bdp_trlrn","Sun Mar 12 2023 15:14:27 GMT-0600 (Mountain Daylight Time)","1593979","Trustworthy,Untrustworthy","","13619","","","","decision","","<div class='trialDiv'><img src='trustrating_stim/white_mw049.bmp'><br><font class='baseline'><strong>Daniel</strong><p>Choose number of points to send.</font><div class='respPicDiv'><img src='img/responseButtonOffersNo0L.png' class='respPic'></div></div>","4","2","Daniel","2","Shared","0.8,0.2","12","0.8","trustrating_stim/white_mw049.bmp","2.5","21","5"
"html-keyboard-response","150","560370","0.0-19.0-2.4","5c4e31b37065de00011f795d","bdp_trlrn","Sun Mar 12 2023 15:14:27 GMT-0600 (Mountain Daylight Time)","1593979","Trustworthy,Untrustworthy","","null","","","","decisionFB","","<div class='trialDiv'><img src='trustrating_stim/white_mw049.bmp'><br><font class='baseline'><strong>Daniel</strong><p>Choose number of points to send.</font><div class='respPicDiv'><img src='img/responseButtonOffersNo0L4.png' class='respPic'></div></div>","null","2","Daniel","2","Shared","0.8,0.2","12","0.8","trustrating_stim/white_mw049.bmp","2.5","17","5"
"html-keyboard-response","151","561374","0.0-19.0-3.4","5c4e31b37065de00011f795d","bdp_trlrn","Sun Mar 12 2023 15:14:27 GMT-0600 (Mountain Daylight Time)","1593979","Trustworthy,Untrustworthy","","null","","","","feedback","","<div class='trialDiv'><img src='trustrating_stim/white_mw049.bmp'><br><font class='baseline'><strong>Daniel</strong><p>Received: <strong>16</strong></font> &nbsp; &nbsp; &nbsp; &nbsp; &nbsp; &nbsp;<font class='posOutcome'>Shared back: <strong>8</strong></font></font><div class='respPicDiv'><img src='img/responseButtonOffersNo0_wht.png' class='respPic'></div></div>","null","2","Daniel","2","Shared","0.8,0.2","12","0.8","trustrating_stim/white_mw049.bmp","2.5","25","5"
"html-keyboard-response","152","569733","0.0-19.0-1.5","5c4e31b37065de00011f795d","bdp_trlrn","Sun Mar 12 2023 15:14:27 GMT-0600 (Mountain Daylight Time)","1593979","Trustworthy,Untrustworthy","","8349","","","","decision","","<div class='trialDiv'><img src='trustrating_stim/white_00807_941205_fb_edt.bmp'><br><font class='baseline'><strong>Richard</strong><p>Choose number of points to send.</font><div class='respPicDiv'><img src='img/responseButtonOffersNo0L.png' class='respPic'></div></div>","2","2","Richard","6","Kept","0.2,0.65","12","0.2","trustrating_stim/white_00807_941205_fb_edt.bmp","4.5","30","6"
"html-keyboard-response","153","569989","0.0-19.0-2.5","5c4e31b37065de00011f795d","bdp_trlrn","Sun Mar 12 2023 15:14:27 GMT-0600 (Mountain Daylight Time)","1593979","Trustworthy,Untrustworthy","","null","","","","decisionFB","","<div class='trialDiv'><img src='trustrating_stim/white_00807_941205_fb_edt.bmp'><br><font class='baseline'><strong>Richard</strong><p>Choose number of points to send.</font><div class='respPicDiv'><img src='img/responseButtonOffersNo0L2.png' class='respPic'></div></div>","null","2","Richard","6","Kept","0.2,0.65","12","0.2","trustrating_stim/white_00807_941205_fb_edt.bmp","4.5","28","6"
"html-keyboard-response","154","570998","0.0-19.0-3.5","5c4e31b37065de00011f795d","bdp_trlrn","Sun Mar 12 2023 15:14:27 GMT-0600 (Mountain Daylight Time)","1593979","Trustworthy,Untrustworthy","","null","","","","feedback","","<div class='trialDiv'><img src='trustrating_stim/white_00807_941205_fb_edt.bmp'><br><font class='baseline'><strong>Richard</strong><p>Received: <strong>8</strong></font> &nbsp; &nbsp; &nbsp; &nbsp; &nbsp; &nbsp;<font class='negOutcome'>Shared back: <strong>0</strong></font></font><div class='respPicDiv'><img src='img/responseButtonOffersNo0_wht.png' class='respPic'></div></div>","null","2","Richard","6","Kept","0.2,0.65","12","0.2","trustrating_stim/white_00807_941205_fb_edt.bmp","4.5","28","6"
"html-keyboard-response","155","580026","0.0-19.0-1.6","5c4e31b37065de00011f795d","bdp_trlrn","Sun Mar 12 2023 15:14:27 GMT-0600 (Mountain Daylight Time)","1593979","Trustworthy,Untrustworthy","","9024","","","","decision","","<div class='trialDiv'><img src='trustrating_stim/white_mw071.bmp'><br><font class='baseline'><strong>Jacob</strong><p>Choose number of points to send.</font><div class='respPicDiv'><img src='img/responseButtonOffersNo0L.png' class='respPic'></div></div>","1","3","Jacob","10","Kept","0.65,0.2","8","0.65","trustrating_stim/white_mw071.bmp","7.5","33","7"
"html-keyboard-response","156","580280","0.0-19.0-2.6","5c4e31b37065de00011f795d","bdp_trlrn","Sun Mar 12 2023 15:14:27 GMT-0600 (Mountain Daylight Time)","1593979","Trustworthy,Untrustworthy","","null","","","","decisionFB","","<div class='trialDiv'><img src='trustrating_stim/white_mw071.bmp'><br><font class='baseline'><strong>Jacob</strong><p>Choose number of points to send.</font><div class='respPicDiv'><img src='img/responseButtonOffersNo0L1.png' class='respPic'></div></div>","null","3","Jacob","10","Kept","0.65,0.2","8","0.65","trustrating_stim/white_mw071.bmp","7.5","32","7"
"html-keyboard-response","157","581285","0.0-19.0-3.6","5c4e31b37065de00011f795d","bdp_trlrn","Sun Mar 12 2023 15:14:27 GMT-0600 (Mountain Daylight Time)","1593979","Trustworthy,Untrustworthy","","null","","","","feedback","","<div class='trialDiv'><img src='trustrating_stim/white_mw071.bmp'><br><font class='baseline'><strong>Jacob</strong><p>Received: <strong>4</strong></font> &nbsp; &nbsp; &nbsp; &nbsp; &nbsp; &nbsp;<font class='negOutcome'>Shared back: <strong>0</strong></font></font><div class='respPicDiv'><img src='img/responseButtonOffersNo0_wht.png' class='respPic'></div></div>","null","3","Jacob","10","Kept","0.65,0.2","8","0.65","trustrating_stim/white_mw071.bmp","7.5","32","7"
"html-keyboard-response","158","586406","0.0-19.0-1.7","5c4e31b37065de00011f795d","bdp_trlrn","Sun Mar 12 2023 15:14:27 GMT-0600 (Mountain Daylight Time)","1593979","Trustworthy,Untrustworthy","","5116","","","","decision","","<div class='trialDiv'><img src='trustrating_stim/white_00807_941205_fb_edt.bmp'><br><font class='baseline'><strong>Richard</strong><p>Choose number of points to send.</font><div class='respPicDiv'><img src='img/responseButtonOffersNo0L.png' class='respPic'></div></div>","1","3","Richard","6","Kept","0.2,0.65","12","0.2","trustrating_stim/white_00807_941205_fb_edt.bmp","4.5","37","8"
"html-keyboard-response","159","586670","0.0-19.0-2.7","5c4e31b37065de00011f795d","bdp_trlrn","Sun Mar 12 2023 15:14:27 GMT-0600 (Mountain Daylight Time)","1593979","Trustworthy,Untrustworthy","","null","","","","decisionFB","","<div class='trialDiv'><img src='trustrating_stim/white_00807_941205_fb_edt.bmp'><br><font class='baseline'><strong>Richard</strong><p>Choose number of points to send.</font><div class='respPicDiv'><img src='img/responseButtonOffersNo0L1.png' class='respPic'></div></div>","null","3","Richard","6","Kept","0.2,0.65","12","0.2","trustrating_stim/white_00807_941205_fb_edt.bmp","4.5","36","8"
"html-keyboard-response","160","587681","0.0-19.0-3.7","5c4e31b37065de00011f795d","bdp_trlrn","Sun Mar 12 2023 15:14:27 GMT-0600 (Mountain Daylight Time)","1593979","Trustworthy,Untrustworthy","","null","","","","feedback","","<div class='trialDiv'><img src='trustrating_stim/white_00807_941205_fb_edt.bmp'><br><font class='baseline'><strong>Richard</strong><p>Received: <strong>4</strong></font> &nbsp; &nbsp; &nbsp; &nbsp; &nbsp; &nbsp;<font class='negOutcome'>Shared back: <strong>0</strong></font></font><div class='respPicDiv'><img src='img/responseButtonOffersNo0_wht.png' class='respPic'></div></div>","null","3","Richard","6","Kept","0.2,0.65","12","0.2","trustrating_stim/white_00807_941205_fb_edt.bmp","4.5","36","8"
"html-keyboard-response","161","591596","0.0-19.0-1.8","5c4e31b37065de00011f795d","bdp_trlrn","Sun Mar 12 2023 15:14:27 GMT-0600 (Mountain Daylight Time)","1593979","Trustworthy,Untrustworthy","","3905","","","","decision","","<div class='trialDiv'><img src='trustrating_stim/white_mw049.bmp'><br><font class='baseline'><strong>Daniel</strong><p>Choose number of points to send.</font><div class='respPicDiv'><img src='img/responseButtonOffersNo0L.png' class='respPic'></div></div>","5","3","Daniel","2","Kept","0.8,0.2","12","0.8","trustrating_stim/white_mw049.bmp","2.5","41","9"
"html-keyboard-response","162","591850","0.0-19.0-2.8","5c4e31b37065de00011f795d","bdp_trlrn","Sun Mar 12 2023 15:14:27 GMT-0600 (Mountain Daylight Time)","1593979","Trustworthy,Untrustworthy","","null","","","","decisionFB","","<div class='trialDiv'><img src='trustrating_stim/white_mw049.bmp'><br><font class='baseline'><strong>Daniel</strong><p>Choose number of points to send.</font><div class='respPicDiv'><img src='img/responseButtonOffersNo0L5.png' class='respPic'></div></div>","null","3","Daniel","2","Kept","0.8,0.2","12","0.8","trustrating_stim/white_mw049.bmp","2.5","36","9"
"html-keyboard-response","163","592859","0.0-19.0-3.8","5c4e31b37065de00011f795d","bdp_trlrn","Sun Mar 12 2023 15:14:27 GMT-0600 (Mountain Daylight Time)","1593979","Trustworthy,Untrustworthy","","null","","","","feedback","","<div class='trialDiv'><img src='trustrating_stim/white_mw049.bmp'><br><font class='baseline'><strong>Daniel</strong><p>Received: <strong>20</strong></font> &nbsp; &nbsp; &nbsp; &nbsp; &nbsp; &nbsp;<font class='negOutcome'>Shared back: <strong>0</strong></font></font><div class='respPicDiv'><img src='img/responseButtonOffersNo0_wht.png' class='respPic'></div></div>","null","3","Daniel","2","Kept","0.8,0.2","12","0.8","trustrating_stim/white_mw049.bmp","2.5","36","9"
"html-keyboard-response","164","596977","0.0-19.0-1.9","5c4e31b37065de00011f795d","bdp_trlrn","Sun Mar 12 2023 15:14:27 GMT-0600 (Mountain Daylight Time)","1593979","Trustworthy,Untrustworthy","","4108","","","","decision","","<div class='trialDiv'><img src='trustrating_stim/white_mw071.bmp'><br><font class='baseline'><strong>Jacob</strong><p>Choose number of points to send.</font><div class='respPicDiv'><img src='img/responseButtonOffersNo0L.png' class='respPic'></div></div>","1","4","Jacob","10","Kept","0.65,0.2","8","0.65","trustrating_stim/white_mw071.bmp","7.5","41","10"
"html-keyboard-response","165","597236","0.0-19.0-2.9","5c4e31b37065de00011f795d","bdp_trlrn","Sun Mar 12 2023 15:14:27 GMT-0600 (Mountain Daylight Time)","1593979","Trustworthy,Untrustworthy","","null","","","","decisionFB","","<div class='trialDiv'><img src='trustrating_stim/white_mw071.bmp'><br><font class='baseline'><strong>Jacob</strong><p>Choose number of points to send.</font><div class='respPicDiv'><img src='img/responseButtonOffersNo0L1.png' class='respPic'></div></div>","null","4","Jacob","10","Kept","0.65,0.2","8","0.65","trustrating_stim/white_mw071.bmp","7.5","40","10"
"html-keyboard-response","166","598242","0.0-19.0-3.9","5c4e31b37065de00011f795d","bdp_trlrn","Sun Mar 12 2023 15:14:27 GMT-0600 (Mountain Daylight Time)","1593979","Trustworthy,Untrustworthy","","null","","","","feedback","","<div class='trialDiv'><img src='trustrating_stim/white_mw071.bmp'><br><font class='baseline'><strong>Jacob</strong><p>Received: <strong>4</strong></font> &nbsp; &nbsp; &nbsp; &nbsp; &nbsp; &nbsp;<font class='negOutcome'>Shared back: <strong>0</strong></font></font><div class='respPicDiv'><img src='img/responseButtonOffersNo0_wht.png' class='respPic'></div></div>","null","4","Jacob","10","Kept","0.65,0.2","8","0.65","trustrating_stim/white_mw071.bmp","7.5","40","10"
"html-keyboard-response","167","601954","0.0-19.0-1.10","5c4e31b37065de00011f795d","bdp_trlrn","Sun Mar 12 2023 15:14:27 GMT-0600 (Mountain Daylight Time)","1593979","Trustworthy,Untrustworthy","","3708","","","","decision","","<div class='trialDiv'><img src='trustrating_stim/white_00807_941205_fb_edt.bmp'><br><font class='baseline'><strong>Richard</strong><p>Choose number of points to send.</font><div class='respPicDiv'><img src='img/responseButtonOffersNo0L.png' class='respPic'></div></div>","1","4","Richard","6","Kept","0.2,0.65","12","0.2","trustrating_stim/white_00807_941205_fb_edt.bmp","4.5","45","11"
"html-keyboard-response","168","602214","0.0-19.0-2.10","5c4e31b37065de00011f795d","bdp_trlrn","Sun Mar 12 2023 15:14:27 GMT-0600 (Mountain Daylight Time)","1593979","Trustworthy,Untrustworthy","","null","","","","decisionFB","","<div class='trialDiv'><img src='trustrating_stim/white_00807_941205_fb_edt.bmp'><br><font class='baseline'><strong>Richard</strong><p>Choose number of points to send.</font><div class='respPicDiv'><img src='img/responseButtonOffersNo0L1.png' class='respPic'></div></div>","null","4","Richard","6","Kept","0.2,0.65","12","0.2","trustrating_stim/white_00807_941205_fb_edt.bmp","4.5","44","11"
"html-keyboard-response","169","603219","0.0-19.0-3.10","5c4e31b37065de00011f795d","bdp_trlrn","Sun Mar 12 2023 15:14:27 GMT-0600 (Mountain Daylight Time)","1593979","Trustworthy,Untrustworthy","","null","","","","feedback","","<div class='trialDiv'><img src='trustrating_stim/white_00807_941205_fb_edt.bmp'><br><font class='baseline'><strong>Richard</strong><p>Received: <strong>4</strong></font> &nbsp; &nbsp; &nbsp; &nbsp; &nbsp; &nbsp;<font class='negOutcome'>Shared back: <strong>0</strong></font></font><div class='respPicDiv'><img src='img/responseButtonOffersNo0_wht.png' class='respPic'></div></div>","null","4","Richard","6","Kept","0.2,0.65","12","0.2","trustrating_stim/white_00807_941205_fb_edt.bmp","4.5","44","11"
"html-keyboard-response","170","609987","0.0-19.0-1.11","5c4e31b37065de00011f795d","bdp_trlrn","Sun Mar 12 2023 15:14:27 GMT-0600 (Mountain Daylight Time)","1593979","Trustworthy,Untrustworthy","","6759","","","","decision","","<div class='trialDiv'><img src='trustrating_stim/white_mw049.bmp'><br><font class='baseline'><strong>Daniel</strong><p>Choose number of points to send.</font><div class='respPicDiv'><img src='img/responseButtonOffersNo0L.png' class='respPic'></div></div>","3","4","Daniel","2","Shared","0.8,0.2","12","0.8","trustrating_stim/white_mw049.bmp","2.5","49","12"
"html-keyboard-response","171","610247","0.0-19.0-2.11","5c4e31b37065de00011f795d","bdp_trlrn","Sun Mar 12 2023 15:14:27 GMT-0600 (Mountain Daylight Time)","1593979","Trustworthy,Untrustworthy","","null","","","","decisionFB","","<div class='trialDiv'><img src='trustrating_stim/white_mw049.bmp'><br><font class='baseline'><strong>Daniel</strong><p>Choose number of points to send.</font><div class='respPicDiv'><img src='img/responseButtonOffersNo0L3.png' class='respPic'></div></div>","null","4","Daniel","2","Shared","0.8,0.2","12","0.8","trustrating_stim/white_mw049.bmp","2.5","46","12"
"html-keyboard-response","172","611254","0.0-19.0-3.11","5c4e31b37065de00011f795d","bdp_trlrn","Sun Mar 12 2023 15:14:27 GMT-0600 (Mountain Daylight Time)","1593979","Trustworthy,Untrustworthy","","null","","","","feedback","","<div class='trialDiv'><img src='trustrating_stim/white_mw049.bmp'><br><font class='baseline'><strong>Daniel</strong><p>Received: <strong>12</strong></font> &nbsp; &nbsp; &nbsp; &nbsp; &nbsp; &nbsp;<font class='posOutcome'>Shared back: <strong>6</strong></font></font><div class='respPicDiv'><img src='img/responseButtonOffersNo0_wht.png' class='respPic'></div></div>","null","4","Daniel","2","Shared","0.8,0.2","12","0.8","trustrating_stim/white_mw049.bmp","2.5","52","12"
"html-keyboard-response","173","620066","0.0-19.0-1.12","5c4e31b37065de00011f795d","bdp_trlrn","Sun Mar 12 2023 15:14:27 GMT-0600 (Mountain Daylight Time)","1593979","Trustworthy,Untrustworthy","","8804","","","","decision","","<div class='trialDiv'><img src='trustrating_stim/white_00807_941205_fb_edt.bmp'><br><font class='baseline'><strong>Richard</strong><p>Choose number of points to send.</font><div class='respPicDiv'><img src='img/responseButtonOffersNo0L.png' class='respPic'></div></div>","1","5","Richard","6","Kept","0.2,0.65","12","0.2","trustrating_stim/white_00807_941205_fb_edt.bmp","4.5","57","13"
"html-keyboard-response","174","620325","0.0-19.0-2.12","5c4e31b37065de00011f795d","bdp_trlrn","Sun Mar 12 2023 15:14:27 GMT-0600 (Mountain Daylight Time)","1593979","Trustworthy,Untrustworthy","","null","","","","decisionFB","","<div class='trialDiv'><img src='trustrating_stim/white_00807_941205_fb_edt.bmp'><br><font class='baseline'><strong>Richard</strong><p>Choose number of points to send.</font><div class='respPicDiv'><img src='img/responseButtonOffersNo0L1.png' class='respPic'></div></div>","null","5","Richard","6","Kept","0.2,0.65","12","0.2","trustrating_stim/white_00807_941205_fb_edt.bmp","4.5","56","13"
"html-keyboard-response","175","621328","0.0-19.0-3.12","5c4e31b37065de00011f795d","bdp_trlrn","Sun Mar 12 2023 15:14:27 GMT-0600 (Mountain Daylight Time)","1593979","Trustworthy,Untrustworthy","","null","","","","feedback","","<div class='trialDiv'><img src='trustrating_stim/white_00807_941205_fb_edt.bmp'><br><font class='baseline'><strong>Richard</strong><p>Received: <strong>4</strong></font> &nbsp; &nbsp; &nbsp; &nbsp; &nbsp; &nbsp;<font class='negOutcome'>Shared back: <strong>0</strong></font></font><div class='respPicDiv'><img src='img/responseButtonOffersNo0_wht.png' class='respPic'></div></div>","null","5","Richard","6","Kept","0.2,0.65","12","0.2","trustrating_stim/white_00807_941205_fb_edt.bmp","4.5","56","13"
"html-keyboard-response","176","627262","0.0-19.0-1.13","5c4e31b37065de00011f795d","bdp_trlrn","Sun Mar 12 2023 15:14:27 GMT-0600 (Mountain Daylight Time)","1593979","Trustworthy,Untrustworthy","","5931","","","","decision","","<div class='trialDiv'><img src='trustrating_stim/white_mw071.bmp'><br><font class='baseline'><strong>Jacob</strong><p>Choose number of points to send.</font><div class='respPicDiv'><img src='img/responseButtonOffersNo0L.png' class='respPic'></div></div>","1","5","Jacob","10","Shared","0.65,0.2","8","0.65","trustrating_stim/white_mw071.bmp","7.5","61","14"
"html-keyboard-response","177","627520","0.0-19.0-2.13","5c4e31b37065de00011f795d","bdp_trlrn","Sun Mar 12 2023 15:14:27 GMT-0600 (Mountain Daylight Time)","1593979","Trustworthy,Untrustworthy","","null","","","","decisionFB","","<div class='trialDiv'><img src='trustrating_stim/white_mw071.bmp'><br><font class='baseline'><strong>Jacob</strong><p>Choose number of points to send.</font><div class='respPicDiv'><img src='img/responseButtonOffersNo0L1.png' class='respPic'></div></div>","null","5","Jacob","10","Shared","0.65,0.2","8","0.65","trustrating_stim/white_mw071.bmp","7.5","60","14"
"html-keyboard-response","178","628524","0.0-19.0-3.13","5c4e31b37065de00011f795d","bdp_trlrn","Sun Mar 12 2023 15:14:27 GMT-0600 (Mountain Daylight Time)","1593979","Trustworthy,Untrustworthy","","null","","","","feedback","","<div class='trialDiv'><img src='trustrating_stim/white_mw071.bmp'><br><font class='baseline'><strong>Jacob</strong><p>Received: <strong>4</strong></font> &nbsp; &nbsp; &nbsp; &nbsp; &nbsp; &nbsp;<font class='posOutcome'>Shared back: <strong>2</strong></font></font><div class='respPicDiv'><img src='img/responseButtonOffersNo0_wht.png' class='respPic'></div></div>","null","5","Jacob","10","Shared","0.65,0.2","8","0.65","trustrating_stim/white_mw071.bmp","7.5","62","14"
"html-keyboard-response","179","635664","0.0-19.0-1.14","5c4e31b37065de00011f795d","bdp_trlrn","Sun Mar 12 2023 15:14:27 GMT-0600 (Mountain Daylight Time)","1593979","Trustworthy,Untrustworthy","","7137","","","","decision","","<div class='trialDiv'><img src='trustrating_stim/white_mw049.bmp'><br><font class='baseline'><strong>Daniel</strong><p>Choose number of points to send.</font><div class='respPicDiv'><img src='img/responseButtonOffersNo0L.png' class='respPic'></div></div>","2","5","Daniel","2","Shared","0.8,0.2","12","0.8","trustrating_stim/white_mw049.bmp","2.5","67","15"
"html-keyboard-response","180","635920","0.0-19.0-2.14","5c4e31b37065de00011f795d","bdp_trlrn","Sun Mar 12 2023 15:14:27 GMT-0600 (Mountain Daylight Time)","1593979","Trustworthy,Untrustworthy","","null","","","","decisionFB","","<div class='trialDiv'><img src='trustrating_stim/white_mw049.bmp'><br><font class='baseline'><strong>Daniel</strong><p>Choose number of points to send.</font><div class='respPicDiv'><img src='img/responseButtonOffersNo0L2.png' class='respPic'></div></div>","null","5","Daniel","2","Shared","0.8,0.2","12","0.8","trustrating_stim/white_mw049.bmp","2.5","65","15"
"html-keyboard-response","181","636930","0.0-19.0-3.14","5c4e31b37065de00011f795d","bdp_trlrn","Sun Mar 12 2023 15:14:27 GMT-0600 (Mountain Daylight Time)","1593979","Trustworthy,Untrustworthy","","null","","","","feedback","","<div class='trialDiv'><img src='trustrating_stim/white_mw049.bmp'><br><font class='baseline'><strong>Daniel</strong><p>Received: <strong>8</strong></font> &nbsp; &nbsp; &nbsp; &nbsp; &nbsp; &nbsp;<font class='posOutcome'>Shared back: <strong>4</strong></font></font><div class='respPicDiv'><img src='img/responseButtonOffersNo0_wht.png' class='respPic'></div></div>","null","5","Daniel","2","Shared","0.8,0.2","12","0.8","trustrating_stim/white_mw049.bmp","2.5","69","15"
"html-keyboard-response","182","644921","0.0-19.0-1.15","5c4e31b37065de00011f795d","bdp_trlrn","Sun Mar 12 2023 15:14:27 GMT-0600 (Mountain Daylight Time)","1593979","Trustworthy,Untrustworthy","","7989","","","","decision","","<div class='trialDiv'><img src='trustrating_stim/white_00807_941205_fb_edt.bmp'><br><font class='baseline'><strong>Richard</strong><p>Choose number of points to send.</font><div class='respPicDiv'><img src='img/responseButtonOffersNo0L.png' class='respPic'></div></div>","1","6","Richard","6","Kept","0.2,0.65","12","0.2","trustrating_stim/white_00807_941205_fb_edt.bmp","4.5","74","16"
"html-keyboard-response","183","645175","0.0-19.0-2.15","5c4e31b37065de00011f795d","bdp_trlrn","Sun Mar 12 2023 15:14:27 GMT-0600 (Mountain Daylight Time)","1593979","Trustworthy,Untrustworthy","","null","","","","decisionFB","","<div class='trialDiv'><img src='trustrating_stim/white_00807_941205_fb_edt.bmp'><br><font class='baseline'><strong>Richard</strong><p>Choose number of points to send.</font><div class='respPicDiv'><img src='img/responseButtonOffersNo0L1.png' class='respPic'></div></div>","null","6","Richard","6","Kept","0.2,0.65","12","0.2","trustrating_stim/white_00807_941205_fb_edt.bmp","4.5","73","16"
"html-keyboard-response","184","646181","0.0-19.0-3.15","5c4e31b37065de00011f795d","bdp_trlrn","Sun Mar 12 2023 15:14:27 GMT-0600 (Mountain Daylight Time)","1593979","Trustworthy,Untrustworthy","","null","","","","feedback","","<div class='trialDiv'><img src='trustrating_stim/white_00807_941205_fb_edt.bmp'><br><font class='baseline'><strong>Richard</strong><p>Received: <strong>4</strong></font> &nbsp; &nbsp; &nbsp; &nbsp; &nbsp; &nbsp;<font class='negOutcome'>Shared back: <strong>0</strong></font></font><div class='respPicDiv'><img src='img/responseButtonOffersNo0_wht.png' class='respPic'></div></div>","null","6","Richard","6","Kept","0.2,0.65","12","0.2","trustrating_stim/white_00807_941205_fb_edt.bmp","4.5","73","16"
"html-keyboard-response","185","650124","0.0-19.0-1.16","5c4e31b37065de00011f795d","bdp_trlrn","Sun Mar 12 2023 15:14:27 GMT-0600 (Mountain Daylight Time)","1593979","Trustworthy,Untrustworthy","","3938","","","","decision","","<div class='trialDiv'><img src='trustrating_stim/white_mw071.bmp'><br><font class='baseline'><strong>Jacob</strong><p>Choose number of points to send.</font><div class='respPicDiv'><img src='img/responseButtonOffersNo0L.png' class='respPic'></div></div>","1","6","Jacob","10","Shared","0.65,0.2","8","0.65","trustrating_stim/white_mw071.bmp","7.5","78","17"
"html-keyboard-response","186","650378","0.0-19.0-2.16","5c4e31b37065de00011f795d","bdp_trlrn","Sun Mar 12 2023 15:14:27 GMT-0600 (Mountain Daylight Time)","1593979","Trustworthy,Untrustworthy","","null","","","","decisionFB","","<div class='trialDiv'><img src='trustrating_stim/white_mw071.bmp'><br><font class='baseline'><strong>Jacob</strong><p>Choose number of points to send.</font><div class='respPicDiv'><img src='img/responseButtonOffersNo0L1.png' class='respPic'></div></div>","null","6","Jacob","10","Shared","0.65,0.2","8","0.65","trustrating_stim/white_mw071.bmp","7.5","77","17"
"html-keyboard-response","187","651387","0.0-19.0-3.16","5c4e31b37065de00011f795d","bdp_trlrn","Sun Mar 12 2023 15:14:27 GMT-0600 (Mountain Daylight Time)","1593979","Trustworthy,Untrustworthy","","null","","","","feedback","","<div class='trialDiv'><img src='trustrating_stim/white_mw071.bmp'><br><font class='baseline'><strong>Jacob</strong><p>Received: <strong>4</strong></font> &nbsp; &nbsp; &nbsp; &nbsp; &nbsp; &nbsp;<font class='posOutcome'>Shared back: <strong>2</strong></font></font><div class='respPicDiv'><img src='img/responseButtonOffersNo0_wht.png' class='respPic'></div></div>","null","6","Jacob","10","Shared","0.65,0.2","8","0.65","trustrating_stim/white_mw071.bmp","7.5","79","17"
"html-keyboard-response","188","661808","0.0-19.0-1.17","5c4e31b37065de00011f795d","bdp_trlrn","Sun Mar 12 2023 15:14:27 GMT-0600 (Mountain Daylight Time)","1593979","Trustworthy,Untrustworthy","","10412","","","","decision","","<div class='trialDiv'><img src='trustrating_stim/white_mw049.bmp'><br><font class='baseline'><strong>Daniel</strong><p>Choose number of points to send.</font><div class='respPicDiv'><img src='img/responseButtonOffersNo0L.png' class='respPic'></div></div>","1","6","Daniel","2","Shared","0.8,0.2","12","0.8","trustrating_stim/white_mw049.bmp","2.5","84","18"
"html-keyboard-response","189","662066","0.0-19.0-2.17","5c4e31b37065de00011f795d","bdp_trlrn","Sun Mar 12 2023 15:14:27 GMT-0600 (Mountain Daylight Time)","1593979","Trustworthy,Untrustworthy","","null","","","","decisionFB","","<div class='trialDiv'><img src='trustrating_stim/white_mw049.bmp'><br><font class='baseline'><strong>Daniel</strong><p>Choose number of points to send.</font><div class='respPicDiv'><img src='img/responseButtonOffersNo0L1.png' class='respPic'></div></div>","null","6","Daniel","2","Shared","0.8,0.2","12","0.8","trustrating_stim/white_mw049.bmp","2.5","83","18"
"html-keyboard-response","190","663069","0.0-19.0-3.17","5c4e31b37065de00011f795d","bdp_trlrn","Sun Mar 12 2023 15:14:27 GMT-0600 (Mountain Daylight Time)","1593979","Trustworthy,Untrustworthy","","null","","","","feedback","","<div class='trialDiv'><img src='trustrating_stim/white_mw049.bmp'><br><font class='baseline'><strong>Daniel</strong><p>Received: <strong>4</strong></font> &nbsp; &nbsp; &nbsp; &nbsp; &nbsp; &nbsp;<font class='posOutcome'>Shared back: <strong>2</strong></font></font><div class='respPicDiv'><img src='img/responseButtonOffersNo0_wht.png' class='respPic'></div></div>","null","6","Daniel","2","Shared","0.8,0.2","12","0.8","trustrating_stim/white_mw049.bmp","2.5","85","18"
"html-keyboard-response","191","667780","0.0-19.0-1.18","5c4e31b37065de00011f795d","bdp_trlrn","Sun Mar 12 2023 15:14:27 GMT-0600 (Mountain Daylight Time)","1593979","Trustworthy,Untrustworthy","","4707","","","","decision","","<div class='trialDiv'><img src='trustrating_stim/white_00807_941205_fb_edt.bmp'><br><font class='baseline'><strong>Richard</strong><p>Choose number of points to send.</font><div class='respPicDiv'><img src='img/responseButtonOffersNo0L.png' class='respPic'></div></div>","1","7","Richard","6","Shared","0.2,0.65","12","0.2","trustrating_stim/white_00807_941205_fb_edt.bmp","4.5","90","19"
"html-keyboard-response","192","668042","0.0-19.0-2.18","5c4e31b37065de00011f795d","bdp_trlrn","Sun Mar 12 2023 15:14:27 GMT-0600 (Mountain Daylight Time)","1593979","Trustworthy,Untrustworthy","","null","","","","decisionFB","","<div class='trialDiv'><img src='trustrating_stim/white_00807_941205_fb_edt.bmp'><br><font class='baseline'><strong>Richard</strong><p>Choose number of points to send.</font><div class='respPicDiv'><img src='img/responseButtonOffersNo0L1.png' class='respPic'></div></div>","null","7","Richard","6","Shared","0.2,0.65","12","0.2","trustrating_stim/white_00807_941205_fb_edt.bmp","4.5","89","19"
"html-keyboard-response","193","669051","0.0-19.0-3.18","5c4e31b37065de00011f795d","bdp_trlrn","Sun Mar 12 2023 15:14:27 GMT-0600 (Mountain Daylight Time)","1593979","Trustworthy,Untrustworthy","","null","","","","feedback","","<div class='trialDiv'><img src='trustrating_stim/white_00807_941205_fb_edt.bmp'><br><font class='baseline'><strong>Richard</strong><p>Received: <strong>4</strong></font> &nbsp; &nbsp; &nbsp; &nbsp; &nbsp; &nbsp;<font class='posOutcome'>Shared back: <strong>2</strong></font></font><div class='respPicDiv'><img src='img/responseButtonOffersNo0_wht.png' class='respPic'></div></div>","null","7","Richard","6","Shared","0.2,0.65","12","0.2","trustrating_stim/white_00807_941205_fb_edt.bmp","4.5","91","19"
"html-keyboard-response","194","678181","0.0-19.0-1.19","5c4e31b37065de00011f795d","bdp_trlrn","Sun Mar 12 2023 15:14:27 GMT-0600 (Mountain Daylight Time)","1593979","Trustworthy,Untrustworthy","","9126","","","","decision","","<div class='trialDiv'><img src='trustrating_stim/white_mw049.bmp'><br><font class='baseline'><strong>Daniel</strong><p>Choose number of points to send.</font><div class='respPicDiv'><img src='img/responseButtonOffersNo0L.png' class='respPic'></div></div>","3","7","Daniel","2","Shared","0.8,0.2","12","0.8","trustrating_stim/white_mw049.bmp","2.5","96","20"
"html-keyboard-response","195","678436","0.0-19.0-2.19","5c4e31b37065de00011f795d","bdp_trlrn","Sun Mar 12 2023 15:14:27 GMT-0600 (Mountain Daylight Time)","1593979","Trustworthy,Untrustworthy","","null","","","","decisionFB","","<div class='trialDiv'><img src='trustrating_stim/white_mw049.bmp'><br><font class='baseline'><strong>Daniel</strong><p>Choose number of points to send.</font><div class='respPicDiv'><img src='img/responseButtonOffersNo0L3.png' class='respPic'></div></div>","null","7","Daniel","2","Shared","0.8,0.2","12","0.8","trustrating_stim/white_mw049.bmp","2.5","93","20"
"html-keyboard-response","196","679441","0.0-19.0-3.19","5c4e31b37065de00011f795d","bdp_trlrn","Sun Mar 12 2023 15:14:27 GMT-0600 (Mountain Daylight Time)","1593979","Trustworthy,Untrustworthy","","null","","","","feedback","","<div class='trialDiv'><img src='trustrating_stim/white_mw049.bmp'><br><font class='baseline'><strong>Daniel</strong><p>Received: <strong>12</strong></font> &nbsp; &nbsp; &nbsp; &nbsp; &nbsp; &nbsp;<font class='posOutcome'>Shared back: <strong>6</strong></font></font><div class='respPicDiv'><img src='img/responseButtonOffersNo0_wht.png' class='respPic'></div></div>","null","7","Daniel","2","Shared","0.8,0.2","12","0.8","trustrating_stim/white_mw049.bmp","2.5","99","20"
"html-keyboard-response","197","687153","0.0-19.0-1.20","5c4e31b37065de00011f795d","bdp_trlrn","Sun Mar 12 2023 15:14:27 GMT-0600 (Mountain Daylight Time)","1593979","Trustworthy,Untrustworthy","","7706","","","","decision","","<div class='trialDiv'><img src='trustrating_stim/white_mw071.bmp'><br><font class='baseline'><strong>Jacob</strong><p>Choose number of points to send.</font><div class='respPicDiv'><img src='img/responseButtonOffersNo0L.png' class='respPic'></div></div>","1","7","Jacob","10","Shared","0.65,0.2","8","0.65","trustrating_stim/white_mw071.bmp","7.5","104","21"
"html-keyboard-response","198","687417","0.0-19.0-2.20","5c4e31b37065de00011f795d","bdp_trlrn","Sun Mar 12 2023 15:14:27 GMT-0600 (Mountain Daylight Time)","1593979","Trustworthy,Untrustworthy","","null","","","","decisionFB","","<div class='trialDiv'><img src='trustrating_stim/white_mw071.bmp'><br><font class='baseline'><strong>Jacob</strong><p>Choose number of points to send.</font><div class='respPicDiv'><img src='img/responseButtonOffersNo0L1.png' class='respPic'></div></div>","null","7","Jacob","10","Shared","0.65,0.2","8","0.65","trustrating_stim/white_mw071.bmp","7.5","103","21"
"html-keyboard-response","199","688429","0.0-19.0-3.20","5c4e31b37065de00011f795d","bdp_trlrn","Sun Mar 12 2023 15:14:27 GMT-0600 (Mountain Daylight Time)","1593979","Trustworthy,Untrustworthy","","null","","","","feedback","","<div class='trialDiv'><img src='trustrating_stim/white_mw071.bmp'><br><font class='baseline'><strong>Jacob</strong><p>Received: <strong>4</strong></font> &nbsp; &nbsp; &nbsp; &nbsp; &nbsp; &nbsp;<font class='posOutcome'>Shared back: <strong>2</strong></font></font><div class='respPicDiv'><img src='img/responseButtonOffersNo0_wht.png' class='respPic'></div></div>","null","7","Jacob","10","Shared","0.65,0.2","8","0.65","trustrating_stim/white_mw071.bmp","7.5","105","21"
"html-keyboard-response","200","692672","0.0-19.0-1.21","5c4e31b37065de00011f795d","bdp_trlrn","Sun Mar 12 2023 15:14:27 GMT-0600 (Mountain Daylight Time)","1593979","Trustworthy,Untrustworthy","","4240","","","","decision","","<div class='trialDiv'><img src='trustrating_stim/white_00807_941205_fb_edt.bmp'><br><font class='baseline'><strong>Richard</strong><p>Choose number of points to send.</font><div class='respPicDiv'><img src='img/responseButtonOffersNo0L.png' class='respPic'></div></div>","1","8","Richard","6","Kept","0.2,0.65","12","0.2","trustrating_stim/white_00807_941205_fb_edt.bmp","4.5","110","22"
"html-keyboard-response","201","692931","0.0-19.0-2.21","5c4e31b37065de00011f795d","bdp_trlrn","Sun Mar 12 2023 15:14:27 GMT-0600 (Mountain Daylight Time)","1593979","Trustworthy,Untrustworthy","","null","","","","decisionFB","","<div class='trialDiv'><img src='trustrating_stim/white_00807_941205_fb_edt.bmp'><br><font class='baseline'><strong>Richard</strong><p>Choose number of points to send.</font><div class='respPicDiv'><img src='img/responseButtonOffersNo0L1.png' class='respPic'></div></div>","null","8","Richard","6","Kept","0.2,0.65","12","0.2","trustrating_stim/white_00807_941205_fb_edt.bmp","4.5","109","22"
"html-keyboard-response","202","693934","0.0-19.0-3.21","5c4e31b37065de00011f795d","bdp_trlrn","Sun Mar 12 2023 15:14:27 GMT-0600 (Mountain Daylight Time)","1593979","Trustworthy,Untrustworthy","","null","","","","feedback","","<div class='trialDiv'><img src='trustrating_stim/white_00807_941205_fb_edt.bmp'><br><font class='baseline'><strong>Richard</strong><p>Received: <strong>4</strong></font> &nbsp; &nbsp; &nbsp; &nbsp; &nbsp; &nbsp;<font class='negOutcome'>Shared back: <strong>0</strong></font></font><div class='respPicDiv'><img src='img/responseButtonOffersNo0_wht.png' class='respPic'></div></div>","null","8","Richard","6","Kept","0.2,0.65","12","0.2","trustrating_stim/white_00807_941205_fb_edt.bmp","4.5","109","22"
"html-keyboard-response","203","701244","0.0-19.0-1.22","5c4e31b37065de00011f795d","bdp_trlrn","Sun Mar 12 2023 15:14:27 GMT-0600 (Mountain Daylight Time)","1593979","Trustworthy,Untrustworthy","","7306","","","","decision","","<div class='trialDiv'><img src='trustrating_stim/white_mw071.bmp'><br><font class='baseline'><strong>Jacob</strong><p>Choose number of points to send.</font><div class='respPicDiv'><img src='img/responseButtonOffersNo0L.png' class='respPic'></div></div>","2","8","Jacob","10","Shared","0.65,0.2","8","0.65","trustrating_stim/white_mw071.bmp","7.5","114","23"
"html-keyboard-response","204","701500","0.0-19.0-2.22","5c4e31b37065de00011f795d","bdp_trlrn","Sun Mar 12 2023 15:14:27 GMT-0600 (Mountain Daylight Time)","1593979","Trustworthy,Untrustworthy","","null","","","","decisionFB","","<div class='trialDiv'><img src='trustrating_stim/white_mw071.bmp'><br><font class='baseline'><strong>Jacob</strong><p>Choose number of points to send.</font><div class='respPicDiv'><img src='img/responseButtonOffersNo0L2.png' class='respPic'></div></div>","null","8","Jacob","10","Shared","0.65,0.2","8","0.65","trustrating_stim/white_mw071.bmp","7.5","112","23"
"html-keyboard-response","205","702509","0.0-19.0-3.22","5c4e31b37065de00011f795d","bdp_trlrn","Sun Mar 12 2023 15:14:27 GMT-0600 (Mountain Daylight Time)","1593979","Trustworthy,Untrustworthy","","null","","","","feedback","","<div class='trialDiv'><img src='trustrating_stim/white_mw071.bmp'><br><font class='baseline'><strong>Jacob</strong><p>Received: <strong>8</strong></font> &nbsp; &nbsp; &nbsp; &nbsp; &nbsp; &nbsp;<font class='posOutcome'>Shared back: <strong>4</strong></font></font><div class='respPicDiv'><img src='img/responseButtonOffersNo0_wht.png' class='respPic'></div></div>","null","8","Jacob","10","Shared","0.65,0.2","8","0.65","trustrating_stim/white_mw071.bmp","7.5","116","23"
"html-keyboard-response","206","708936","0.0-19.0-1.23","5c4e31b37065de00011f795d","bdp_trlrn","Sun Mar 12 2023 15:14:27 GMT-0600 (Mountain Daylight Time)","1593979","Trustworthy,Untrustworthy","","6420","","","","decision","","<div class='trialDiv'><img src='trustrating_stim/white_mw049.bmp'><br><font class='baseline'><strong>Daniel</strong><p>Choose number of points to send.</font><div class='respPicDiv'><img src='img/responseButtonOffersNo0L.png' class='respPic'></div></div>","5","8","Daniel","2","Shared","0.8,0.2","12","0.8","trustrating_stim/white_mw049.bmp","2.5","121","24"
"html-keyboard-response","207","709191","0.0-19.0-2.23","5c4e31b37065de00011f795d","bdp_trlrn","Sun Mar 12 2023 15:14:27 GMT-0600 (Mountain Daylight Time)","1593979","Trustworthy,Untrustworthy","","null","","","","decisionFB","","<div class='trialDiv'><img src='trustrating_stim/white_mw049.bmp'><br><font class='baseline'><strong>Daniel</strong><p>Choose number of points to send.</font><div class='respPicDiv'><img src='img/responseButtonOffersNo0L5.png' class='respPic'></div></div>","null","8","Daniel","2","Shared","0.8,0.2","12","0.8","trustrating_stim/white_mw049.bmp","2.5","116","24"
"html-keyboard-response","208","710200","0.0-19.0-3.23","5c4e31b37065de00011f795d","bdp_trlrn","Sun Mar 12 2023 15:14:27 GMT-0600 (Mountain Daylight Time)","1593979","Trustworthy,Untrustworthy","","null","","","","feedback","","<div class='trialDiv'><img src='trustrating_stim/white_mw049.bmp'><br><font class='baseline'><strong>Daniel</strong><p>Received: <strong>20</strong></font> &nbsp; &nbsp; &nbsp; &nbsp; &nbsp; &nbsp;<font class='posOutcome'>Shared back: <strong>10</strong></font></font><div class='respPicDiv'><img src='img/responseButtonOffersNo0_wht.png' class='respPic'></div></div>","null","8","Daniel","2","Shared","0.8,0.2","12","0.8","trustrating_stim/white_mw049.bmp","2.5","126","24"
"html-keyboard-response","209","714916","0.0-19.0-1.24","5c4e31b37065de00011f795d","bdp_trlrn","Sun Mar 12 2023 15:14:27 GMT-0600 (Mountain Daylight Time)","1593979","Trustworthy,Untrustworthy","","4709","","","","decision","","<div class='trialDiv'><img src='trustrating_stim/white_mw071.bmp'><br><font class='baseline'><strong>Jacob</strong><p>Choose number of points to send.</font><div class='respPicDiv'><img src='img/responseButtonOffersNo0L.png' class='respPic'></div></div>","5","9","Jacob","10","Shared","0.65,0.2","8","0.65","trustrating_stim/white_mw071.bmp","7.5","131","25"
"html-keyboard-response","210","715178","0.0-19.0-2.24","5c4e31b37065de00011f795d","bdp_trlrn","Sun Mar 12 2023 15:14:27 GMT-0600 (Mountain Daylight Time)","1593979","Trustworthy,Untrustworthy","","null","","","","decisionFB","","<div class='trialDiv'><img src='trustrating_stim/white_mw071.bmp'><br><font class='baseline'><strong>Jacob</strong><p>Choose number of points to send.</font><div class='respPicDiv'><img src='img/responseButtonOffersNo0L5.png' class='respPic'></div></div>","null","9","Jacob","10","Shared","0.65,0.2","8","0.65","trustrating_stim/white_mw071.bmp","7.5","126","25"
"html-keyboard-response","211","716185","0.0-19.0-3.24","5c4e31b37065de00011f795d","bdp_trlrn","Sun Mar 12 2023 15:14:27 GMT-0600 (Mountain Daylight Time)","1593979","Trustworthy,Untrustworthy","","null","","","","feedback","","<div class='trialDiv'><img src='trustrating_stim/white_mw071.bmp'><br><font class='baseline'><strong>Jacob</strong><p>Received: <strong>20</strong></font> &nbsp; &nbsp; &nbsp; &nbsp; &nbsp; &nbsp;<font class='posOutcome'>Shared back: <strong>10</strong></font></font><div class='respPicDiv'><img src='img/responseButtonOffersNo0_wht.png' class='respPic'></div></div>","null","9","Jacob","10","Shared","0.65,0.2","8","0.65","trustrating_stim/white_mw071.bmp","7.5","136","25"
"html-keyboard-response","212","721570","0.0-19.0-1.25","5c4e31b37065de00011f795d","bdp_trlrn","Sun Mar 12 2023 15:14:27 GMT-0600 (Mountain Daylight Time)","1593979","Trustworthy,Untrustworthy","","5375","","","","decision","","<div class='trialDiv'><img src='trustrating_stim/white_mw049.bmp'><br><font class='baseline'><strong>Daniel</strong><p>Choose number of points to send.</font><div class='respPicDiv'><img src='img/responseButtonOffersNo0L.png' class='respPic'></div></div>","3","9","Daniel","2","Shared","0.8,0.2","12","0.8","trustrating_stim/white_mw049.bmp","2.5","141","26"
"html-keyboard-response","213","721827","0.0-19.0-2.25","5c4e31b37065de00011f795d","bdp_trlrn","Sun Mar 12 2023 15:14:27 GMT-0600 (Mountain Daylight Time)","1593979","Trustworthy,Untrustworthy","","null","","","","decisionFB","","<div class='trialDiv'><img src='trustrating_stim/white_mw049.bmp'><br><font class='baseline'><strong>Daniel</strong><p>Choose number of points to send.</font><div class='respPicDiv'><img src='img/responseButtonOffersNo0L3.png' class='respPic'></div></div>","null","9","Daniel","2","Shared","0.8,0.2","12","0.8","trustrating_stim/white_mw049.bmp","2.5","138","26"
"html-keyboard-response","214","722831","0.0-19.0-3.25","5c4e31b37065de00011f795d","bdp_trlrn","Sun Mar 12 2023 15:14:27 GMT-0600 (Mountain Daylight Time)","1593979","Trustworthy,Untrustworthy","","null","","","","feedback","","<div class='trialDiv'><img src='trustrating_stim/white_mw049.bmp'><br><font class='baseline'><strong>Daniel</strong><p>Received: <strong>12</strong></font> &nbsp; &nbsp; &nbsp; &nbsp; &nbsp; &nbsp;<font class='posOutcome'>Shared back: <strong>6</strong></font></font><div class='respPicDiv'><img src='img/responseButtonOffersNo0_wht.png' class='respPic'></div></div>","null","9","Daniel","2","Shared","0.8,0.2","12","0.8","trustrating_stim/white_mw049.bmp","2.5","144","26"
"html-keyboard-response","215","728878","0.0-19.0-1.26","5c4e31b37065de00011f795d","bdp_trlrn","Sun Mar 12 2023 15:14:27 GMT-0600 (Mountain Daylight Time)","1593979","Trustworthy,Untrustworthy","","6044","","","","decision","","<div class='trialDiv'><img src='trustrating_stim/white_00807_941205_fb_edt.bmp'><br><font class='baseline'><strong>Richard</strong><p>Choose number of points to send.</font><div class='respPicDiv'><img src='img/responseButtonOffersNo0L.png' class='respPic'></div></div>","1","9","Richard","6","Shared","0.2,0.65","12","0.2","trustrating_stim/white_00807_941205_fb_edt.bmp","4.5","149","27"
"html-keyboard-response","216","729133","0.0-19.0-2.26","5c4e31b37065de00011f795d","bdp_trlrn","Sun Mar 12 2023 15:14:27 GMT-0600 (Mountain Daylight Time)","1593979","Trustworthy,Untrustworthy","","null","","","","decisionFB","","<div class='trialDiv'><img src='trustrating_stim/white_00807_941205_fb_edt.bmp'><br><font class='baseline'><strong>Richard</strong><p>Choose number of points to send.</font><div class='respPicDiv'><img src='img/responseButtonOffersNo0L1.png' class='respPic'></div></div>","null","9","Richard","6","Shared","0.2,0.65","12","0.2","trustrating_stim/white_00807_941205_fb_edt.bmp","4.5","148","27"
"html-keyboard-response","217","730136","0.0-19.0-3.26","5c4e31b37065de00011f795d","bdp_trlrn","Sun Mar 12 2023 15:14:27 GMT-0600 (Mountain Daylight Time)","1593979","Trustworthy,Untrustworthy","","null","","","","feedback","","<div class='trialDiv'><img src='trustrating_stim/white_00807_941205_fb_edt.bmp'><br><font class='baseline'><strong>Richard</strong><p>Received: <strong>4</strong></font> &nbsp; &nbsp; &nbsp; &nbsp; &nbsp; &nbsp;<font class='posOutcome'>Shared back: <strong>2</strong></font></font><div class='respPicDiv'><img src='img/responseButtonOffersNo0_wht.png' class='respPic'></div></div>","null","9","Richard","6","Shared","0.2,0.65","12","0.2","trustrating_stim/white_00807_941205_fb_edt.bmp","4.5","150","27"
"html-keyboard-response","218","733665","0.0-19.0-1.27","5c4e31b37065de00011f795d","bdp_trlrn","Sun Mar 12 2023 15:14:27 GMT-0600 (Mountain Daylight Time)","1593979","Trustworthy,Untrustworthy","","3525","","","","decision","","<div class='trialDiv'><img src='trustrating_stim/white_mw049.bmp'><br><font class='baseline'><strong>Daniel</strong><p>Choose number of points to send.</font><div class='respPicDiv'><img src='img/responseButtonOffersNo0L.png' class='respPic'></div></div>","5","10","Daniel","2","Shared","0.8,0.2","12","0.8","trustrating_stim/white_mw049.bmp","2.5","155","28"
"html-keyboard-response","219","733920","0.0-19.0-2.27","5c4e31b37065de00011f795d","bdp_trlrn","Sun Mar 12 2023 15:14:27 GMT-0600 (Mountain Daylight Time)","1593979","Trustworthy,Untrustworthy","","null","","","","decisionFB","","<div class='trialDiv'><img src='trustrating_stim/white_mw049.bmp'><br><font class='baseline'><strong>Daniel</strong><p>Choose number of points to send.</font><div class='respPicDiv'><img src='img/responseButtonOffersNo0L5.png' class='respPic'></div></div>","null","10","Daniel","2","Shared","0.8,0.2","12","0.8","trustrating_stim/white_mw049.bmp","2.5","150","28"
"html-keyboard-response","220","734924","0.0-19.0-3.27","5c4e31b37065de00011f795d","bdp_trlrn","Sun Mar 12 2023 15:14:27 GMT-0600 (Mountain Daylight Time)","1593979","Trustworthy,Untrustworthy","","null","","","","feedback","","<div class='trialDiv'><img src='trustrating_stim/white_mw049.bmp'><br><font class='baseline'><strong>Daniel</strong><p>Received: <strong>20</strong></font> &nbsp; &nbsp; &nbsp; &nbsp; &nbsp; &nbsp;<font class='posOutcome'>Shared back: <strong>10</strong></font></font><div class='respPicDiv'><img src='img/responseButtonOffersNo0_wht.png' class='respPic'></div></div>","null","10","Daniel","2","Shared","0.8,0.2","12","0.8","trustrating_stim/white_mw049.bmp","2.5","160","28"
