"trial_type","trial_index","time_elapsed","internal_node_id","subject_id","task","startTime","totalTime","labels","view_history","rt","event","trial","time","trialtype","success","stimulus","key_press","aground","name","faceID","outcome","agenttype","agentswpt","agentcurrpshare","face","avgRating","point_total","round"
"pavlovia","0","3","0.0-0.0","6108114eaacc3458294b244c","bdp_trlrn","Tue Mar 14 2023 13:17:47 GMT-0400 (Eastern Daylight Time)","910240","Trustworthy,Untrustworthy","","","","","","","","","","","","","","","","","","","",""
"instructions","1","6804","0.0-1.0","6108114eaacc3458294b244c","bdp_trlrn","Tue Mar 14 2023 13:17:47 GMT-0400 (Eastern Daylight Time)","910240","Trustworthy,Untrustworthy","[{""page_index"":0,""viewing_time"":6800}]","6800","","","","","","","","","","","","","","","","","",""
"","","","","6108114eaacc3458294b244c","bdp_trlrn","Tue Mar 14 2023 13:17:47 GMT-0400 (Eastern Daylight Time)","910240","Trustworthy,Untrustworthy","","","fullscreenenter","2","9601","fullscreenenter","","","","","","","","","","","","","",""
"fullscreen","2","10594","0.0-2.0","6108114eaacc3458294b244c","bdp_trlrn","Tue Mar 14 2023 13:17:47 GMT-0400 (Eastern Daylight Time)","910240","Trustworthy,Untrustworthy","","","","","","","true","","","","","","","","","","","","",""
"instructions","3","34910","0.0-4.0","6108114eaacc3458294b244c","bdp_trlrn","Tue Mar 14 2023 13:17:47 GMT-0400 (Eastern Daylight Time)","910240","Trustworthy,Untrustworthy","[{""page_index"":0,""viewing_time"":12448},{""page_index"":1,""viewing_time"":11866}]","24314","","","","","","","","","","","","","","","","","",""
"instructions","4","36219","0.0-5.0","6108114eaacc3458294b244c","bdp_trlrn","Tue Mar 14 2023 13:17:47 GMT-0400 (Eastern Daylight Time)","910240","Trustworthy,Untrustworthy","[{""page_index"":0,""viewing_time"":1309}]","1309","","","","","","","","","","","","","","","","","",""
"image-keyboard-response","5","42634","0.0-6.0-1.0","6108114eaacc3458294b244c","bdp_trlrn","Tue Mar 14 2023 13:17:47 GMT-0400 (Eastern Daylight Time)","910240","Trustworthy,Untrustworthy","","6308","","","","rating","","trustrating_stim/white_mw063.bmp","7","","","","","","","","","","",""
"image-keyboard-response","6","42843","0.0-6.0-2.0","6108114eaacc3458294b244c","bdp_trlrn","Tue Mar 14 2023 13:17:47 GMT-0400 (Eastern Daylight Time)","910240","Trustworthy,Untrustworthy","","null","","","","ratingFB","","trustrating_stim/white_mw063.bmp","null","","","","","","","","","","",""
"image-keyboard-response","7","45625","0.0-6.0-1.1","6108114eaacc3458294b244c","bdp_trlrn","Tue Mar 14 2023 13:17:47 GMT-0400 (Eastern Daylight Time)","910240","Trustworthy,Untrustworthy","","2677","","","","rating","","trustrating_stim/white_00785_941205_fb_edt.bmp","8","","","","","","","","","","",""
"image-keyboard-response","8","45831","0.0-6.0-2.1","6108114eaacc3458294b244c","bdp_trlrn","Tue Mar 14 2023 13:17:47 GMT-0400 (Eastern Daylight Time)","910240","Trustworthy,Untrustworthy","","null","","","","ratingFB","","trustrating_stim/white_00785_941205_fb_edt.bmp","null","","","","","","","","","","",""
"image-keyboard-response","9","48676","0.0-6.0-1.2","6108114eaacc3458294b244c","bdp_trlrn","Tue Mar 14 2023 13:17:47 GMT-0400 (Eastern Daylight Time)","910240","Trustworthy,Untrustworthy","","2736","","","","rating","","trustrating_stim/white_00109_931230_fa_edt.bmp","6","","","","","","","","","","",""
"image-keyboard-response","10","48882","0.0-6.0-2.2","6108114eaacc3458294b244c","bdp_trlrn","Tue Mar 14 2023 13:17:47 GMT-0400 (Eastern Daylight Time)","910240","Trustworthy,Untrustworthy","","null","","","","ratingFB","","trustrating_stim/white_00109_931230_fa_edt.bmp","null","","","","","","","","","","",""
"image-keyboard-response","11","50663","0.0-6.0-1.3","6108114eaacc3458294b244c","bdp_trlrn","Tue Mar 14 2023 13:17:47 GMT-0400 (Eastern Daylight Time)","910240","Trustworthy,Untrustworthy","","1675","","","","rating","","trustrating_stim/white_00340_940422_fa_edt.bmp","8","","","","","","","","","","",""
"image-keyboard-response","12","50872","0.0-6.0-2.3","6108114eaacc3458294b244c","bdp_trlrn","Tue Mar 14 2023 13:17:47 GMT-0400 (Eastern Daylight Time)","910240","Trustworthy,Untrustworthy","","null","","","","ratingFB","","trustrating_stim/white_00340_940422_fa_edt.bmp","null","","","","","","","","","","",""
"image-keyboard-response","13","53196","0.0-6.0-1.4","6108114eaacc3458294b244c","bdp_trlrn","Tue Mar 14 2023 13:17:47 GMT-0400 (Eastern Daylight Time)","910240","Trustworthy,Untrustworthy","","2215","","","","rating","","trustrating_stim/white_00120_931230_fa_edt.bmp","6","","","","","","","","","","",""
"image-keyboard-response","14","53403","0.0-6.0-2.4","6108114eaacc3458294b244c","bdp_trlrn","Tue Mar 14 2023 13:17:47 GMT-0400 (Eastern Daylight Time)","910240","Trustworthy,Untrustworthy","","null","","","","ratingFB","","trustrating_stim/white_00120_931230_fa_edt.bmp","null","","","","","","","","","","",""
"image-keyboard-response","15","56868","0.0-6.0-1.5","6108114eaacc3458294b244c","bdp_trlrn","Tue Mar 14 2023 13:17:47 GMT-0400 (Eastern Daylight Time)","910240","Trustworthy,Untrustworthy","","3358","","","","rating","","trustrating_stim/white_mw033.bmp","5","","","","","","","","","","",""
"image-keyboard-response","16","57076","0.0-6.0-2.5","6108114eaacc3458294b244c","bdp_trlrn","Tue Mar 14 2023 13:17:47 GMT-0400 (Eastern Daylight Time)","910240","Trustworthy,Untrustworthy","","null","","","","ratingFB","","trustrating_stim/white_mw033.bmp","null","","","","","","","","","","",""
"image-keyboard-response","17","59089","0.0-6.0-1.6","6108114eaacc3458294b244c","bdp_trlrn","Tue Mar 14 2023 13:17:47 GMT-0400 (Eastern Daylight Time)","910240","Trustworthy,Untrustworthy","","1906","","","","rating","","trustrating_stim/white_mw035.bmp","5","","","","","","","","","","",""
"image-keyboard-response","18","59292","0.0-6.0-2.6","6108114eaacc3458294b244c","bdp_trlrn","Tue Mar 14 2023 13:17:47 GMT-0400 (Eastern Daylight Time)","910240","Trustworthy,Untrustworthy","","null","","","","ratingFB","","trustrating_stim/white_mw035.bmp","null","","","","","","","","","","",""
"image-keyboard-response","19","61276","0.0-6.0-1.7","6108114eaacc3458294b244c","bdp_trlrn","Tue Mar 14 2023 13:17:47 GMT-0400 (Eastern Daylight Time)","910240","Trustworthy,Untrustworthy","","1876","","","","rating","","trustrating_stim/white_00299_940422_fa_edt.bmp","7","","","","","","","","","","",""
"image-keyboard-response","20","61484","0.0-6.0-2.7","6108114eaacc3458294b244c","bdp_trlrn","Tue Mar 14 2023 13:17:47 GMT-0400 (Eastern Daylight Time)","910240","Trustworthy,Untrustworthy","","null","","","","ratingFB","","trustrating_stim/white_00299_940422_fa_edt.bmp","null","","","","","","","","","","",""
"image-keyboard-response","21","63730","0.0-6.0-1.8","6108114eaacc3458294b244c","bdp_trlrn","Tue Mar 14 2023 13:17:47 GMT-0400 (Eastern Daylight Time)","910240","Trustworthy,Untrustworthy","","2141","","","","rating","","trustrating_stim/white_00757_941201_fa_edt.bmp","7","","","","","","","","","","",""
"image-keyboard-response","22","63932","0.0-6.0-2.8","6108114eaacc3458294b244c","bdp_trlrn","Tue Mar 14 2023 13:17:47 GMT-0400 (Eastern Daylight Time)","910240","Trustworthy,Untrustworthy","","null","","","","ratingFB","","trustrating_stim/white_00757_941201_fa_edt.bmp","null","","","","","","","","","","",""
"image-keyboard-response","23","69408","0.0-6.0-1.9","6108114eaacc3458294b244c","bdp_trlrn","Tue Mar 14 2023 13:17:47 GMT-0400 (Eastern Daylight Time)","910240","Trustworthy,Untrustworthy","","5367","","","","rating","","trustrating_stim/white_00659_941121_fa_edt.bmp","8","","","","","","","","","","",""
"image-keyboard-response","24","69616","0.0-6.0-2.9","6108114eaacc3458294b244c","bdp_trlrn","Tue Mar 14 2023 13:17:47 GMT-0400 (Eastern Daylight Time)","910240","Trustworthy,Untrustworthy","","null","","","","ratingFB","","trustrating_stim/white_00659_941121_fa_edt.bmp","null","","","","","","","","","","",""
"image-keyboard-response","25","71669","0.0-6.0-1.10","6108114eaacc3458294b244c","bdp_trlrn","Tue Mar 14 2023 13:17:47 GMT-0400 (Eastern Daylight Time)","910240","Trustworthy,Untrustworthy","","1941","","","","rating","","trustrating_stim/white_00807_941205_fb_edt.bmp","8","","","","","","","","","","",""
"image-keyboard-response","26","71880","0.0-6.0-2.10","6108114eaacc3458294b244c","bdp_trlrn","Tue Mar 14 2023 13:17:47 GMT-0400 (Eastern Daylight Time)","910240","Trustworthy,Untrustworthy","","null","","","","ratingFB","","trustrating_stim/white_00807_941205_fb_edt.bmp","null","","","","","","","","","","",""
"image-keyboard-response","27","74120","0.0-6.0-1.11","6108114eaacc3458294b244c","bdp_trlrn","Tue Mar 14 2023 13:17:47 GMT-0400 (Eastern Daylight Time)","910240","Trustworthy,Untrustworthy","","2132","","","","rating","","trustrating_stim/white_mw049.bmp","6","","","","","","","","","","",""
"image-keyboard-response","28","74325","0.0-6.0-2.11","6108114eaacc3458294b244c","bdp_trlrn","Tue Mar 14 2023 13:17:47 GMT-0400 (Eastern Daylight Time)","910240","Trustworthy,Untrustworthy","","null","","","","ratingFB","","trustrating_stim/white_mw049.bmp","null","","","","","","","","","","",""
"image-keyboard-response","29","78149","0.0-6.0-1.12","6108114eaacc3458294b244c","bdp_trlrn","Tue Mar 14 2023 13:17:47 GMT-0400 (Eastern Daylight Time)","910240","Trustworthy,Untrustworthy","","3720","","","","rating","","trustrating_stim/white_mw060.bmp","7","","","","","","","","","","",""
"image-keyboard-response","30","78357","0.0-6.0-2.12","6108114eaacc3458294b244c","bdp_trlrn","Tue Mar 14 2023 13:17:47 GMT-0400 (Eastern Daylight Time)","910240","Trustworthy,Untrustworthy","","null","","","","ratingFB","","trustrating_stim/white_mw060.bmp","null","","","","","","","","","","",""
"image-keyboard-response","31","79678","0.0-6.0-1.13","6108114eaacc3458294b244c","bdp_trlrn","Tue Mar 14 2023 13:17:47 GMT-0400 (Eastern Daylight Time)","910240","Trustworthy,Untrustworthy","","1217","","","","rating","","trustrating_stim/white_00223_940128_fb_edt.bmp","8","","","","","","","","","","",""
"image-keyboard-response","32","79887","0.0-6.0-2.13","6108114eaacc3458294b244c","bdp_trlrn","Tue Mar 14 2023 13:17:47 GMT-0400 (Eastern Daylight Time)","910240","Trustworthy,Untrustworthy","","null","","","","ratingFB","","trustrating_stim/white_00223_940128_fb_edt.bmp","null","","","","","","","","","","",""
"image-keyboard-response","33","81261","0.0-6.0-1.14","6108114eaacc3458294b244c","bdp_trlrn","Tue Mar 14 2023 13:17:47 GMT-0400 (Eastern Daylight Time)","910240","Trustworthy,Untrustworthy","","1264","","","","rating","","trustrating_stim/white_00129_931230_fb_edt.bmp","6","","","","","","","","","","",""
"image-keyboard-response","34","81472","0.0-6.0-2.14","6108114eaacc3458294b244c","bdp_trlrn","Tue Mar 14 2023 13:17:47 GMT-0400 (Eastern Daylight Time)","910240","Trustworthy,Untrustworthy","","null","","","","ratingFB","","trustrating_stim/white_00129_931230_fb_edt.bmp","null","","","","","","","","","","",""
"image-keyboard-response","35","82814","0.0-6.0-1.15","6108114eaacc3458294b244c","bdp_trlrn","Tue Mar 14 2023 13:17:47 GMT-0400 (Eastern Daylight Time)","910240","Trustworthy,Untrustworthy","","1233","","","","rating","","trustrating_stim/white_mw089.bmp","7","","","","","","","","","","",""
"image-keyboard-response","36","83024","0.0-6.0-2.15","6108114eaacc3458294b244c","bdp_trlrn","Tue Mar 14 2023 13:17:47 GMT-0400 (Eastern Daylight Time)","910240","Trustworthy,Untrustworthy","","null","","","","ratingFB","","trustrating_stim/white_mw089.bmp","null","","","","","","","","","","",""
"image-keyboard-response","37","85386","0.0-6.0-1.16","6108114eaacc3458294b244c","bdp_trlrn","Tue Mar 14 2023 13:17:47 GMT-0400 (Eastern Daylight Time)","910240","Trustworthy,Untrustworthy","","2253","","","","rating","","trustrating_stim/white_mw056.bmp","8","","","","","","","","","","",""
"image-keyboard-response","38","85589","0.0-6.0-2.16","6108114eaacc3458294b244c","bdp_trlrn","Tue Mar 14 2023 13:17:47 GMT-0400 (Eastern Daylight Time)","910240","Trustworthy,Untrustworthy","","null","","","","ratingFB","","trustrating_stim/white_mw056.bmp","null","","","","","","","","","","",""
"image-keyboard-response","39","87281","0.0-6.0-1.17","6108114eaacc3458294b244c","bdp_trlrn","Tue Mar 14 2023 13:17:47 GMT-0400 (Eastern Daylight Time)","910240","Trustworthy,Untrustworthy","","1589","","","","rating","","trustrating_stim/white_mw099.bmp","8","","","","","","","","","","",""
"image-keyboard-response","40","87484","0.0-6.0-2.17","6108114eaacc3458294b244c","bdp_trlrn","Tue Mar 14 2023 13:17:47 GMT-0400 (Eastern Daylight Time)","910240","Trustworthy,Untrustworthy","","null","","","","ratingFB","","trustrating_stim/white_mw099.bmp","null","","","","","","","","","","",""
"image-keyboard-response","41","89058","0.0-6.0-1.18","6108114eaacc3458294b244c","bdp_trlrn","Tue Mar 14 2023 13:17:47 GMT-0400 (Eastern Daylight Time)","910240","Trustworthy,Untrustworthy","","1469","","","","rating","","trustrating_stim/white_00761_941201_fb_edt.bmp","8","","","","","","","","","","",""
"image-keyboard-response","42","89264","0.0-6.0-2.18","6108114eaacc3458294b244c","bdp_trlrn","Tue Mar 14 2023 13:17:47 GMT-0400 (Eastern Daylight Time)","910240","Trustworthy,Untrustworthy","","null","","","","ratingFB","","trustrating_stim/white_00761_941201_fb_edt.bmp","null","","","","","","","","","","",""
"image-keyboard-response","43","90537","0.0-6.0-1.19","6108114eaacc3458294b244c","bdp_trlrn","Tue Mar 14 2023 13:17:47 GMT-0400 (Eastern Daylight Time)","910240","Trustworthy,Untrustworthy","","1164","","","","rating","","trustrating_stim/white_mw046.bmp","7","","","","","","","","","","",""
"image-keyboard-response","44","90741","0.0-6.0-2.19","6108114eaacc3458294b244c","bdp_trlrn","Tue Mar 14 2023 13:17:47 GMT-0400 (Eastern Daylight Time)","910240","Trustworthy,Untrustworthy","","null","","","","ratingFB","","trustrating_stim/white_mw046.bmp","null","","","","","","","","","","",""
"image-keyboard-response","45","93066","0.0-6.0-1.20","6108114eaacc3458294b244c","bdp_trlrn","Tue Mar 14 2023 13:17:47 GMT-0400 (Eastern Daylight Time)","910240","Trustworthy,Untrustworthy","","2219","","","","rating","","trustrating_stim/white_00602_940928_fb_edt.bmp","6","","","","","","","","","","",""
"image-keyboard-response","46","93270","0.0-6.0-2.20","6108114eaacc3458294b244c","bdp_trlrn","Tue Mar 14 2023 13:17:47 GMT-0400 (Eastern Daylight Time)","910240","Trustworthy,Untrustworthy","","null","","","","ratingFB","","trustrating_stim/white_00602_940928_fb_edt.bmp","null","","","","","","","","","","",""
"image-keyboard-response","47","95837","0.0-6.0-1.21","6108114eaacc3458294b244c","bdp_trlrn","Tue Mar 14 2023 13:17:47 GMT-0400 (Eastern Daylight Time)","910240","Trustworthy,Untrustworthy","","2463","","","","rating","","trustrating_stim/white_mw066.bmp","5","","","","","","","","","","",""
"image-keyboard-response","48","96045","0.0-6.0-2.21","6108114eaacc3458294b244c","bdp_trlrn","Tue Mar 14 2023 13:17:47 GMT-0400 (Eastern Daylight Time)","910240","Trustworthy,Untrustworthy","","null","","","","ratingFB","","trustrating_stim/white_mw066.bmp","null","","","","","","","","","","",""
"image-keyboard-response","49","98042","0.0-6.0-1.22","6108114eaacc3458294b244c","bdp_trlrn","Tue Mar 14 2023 13:17:47 GMT-0400 (Eastern Daylight Time)","910240","Trustworthy,Untrustworthy","","1890","","","","rating","","trustrating_stim/white_mw071.bmp","8","","","","","","","","","","",""
"image-keyboard-response","50","98248","0.0-6.0-2.22","6108114eaacc3458294b244c","bdp_trlrn","Tue Mar 14 2023 13:17:47 GMT-0400 (Eastern Daylight Time)","910240","Trustworthy,Untrustworthy","","null","","","","ratingFB","","trustrating_stim/white_mw071.bmp","null","","","","","","","","","","",""
"image-keyboard-response","51","99409","0.0-6.0-1.23","6108114eaacc3458294b244c","bdp_trlrn","Tue Mar 14 2023 13:17:47 GMT-0400 (Eastern Daylight Time)","910240","Trustworthy,Untrustworthy","","1051","","","","rating","","trustrating_stim/white_00577_940928_fa_edt.bmp","8","","","","","","","","","","",""
"image-keyboard-response","52","99617","0.0-6.0-2.23","6108114eaacc3458294b244c","bdp_trlrn","Tue Mar 14 2023 13:17:47 GMT-0400 (Eastern Daylight Time)","910240","Trustworthy,Untrustworthy","","null","","","","ratingFB","","trustrating_stim/white_00577_940928_fa_edt.bmp","null","","","","","","","","","","",""
"image-keyboard-response","53","102998","0.0-6.0-1.24","6108114eaacc3458294b244c","bdp_trlrn","Tue Mar 14 2023 13:17:47 GMT-0400 (Eastern Daylight Time)","910240","Trustworthy,Untrustworthy","","3269","","","","rating","","trustrating_stim/white_00898_960530_fa_edt.bmp","5","","","","","","","","","","",""
"image-keyboard-response","54","103206","0.0-6.0-2.24","6108114eaacc3458294b244c","bdp_trlrn","Tue Mar 14 2023 13:17:47 GMT-0400 (Eastern Daylight Time)","910240","Trustworthy,Untrustworthy","","null","","","","ratingFB","","trustrating_stim/white_00898_960530_fa_edt.bmp","null","","","","","","","","","","",""
"image-keyboard-response","55","104885","0.0-6.0-1.25","6108114eaacc3458294b244c","bdp_trlrn","Tue Mar 14 2023 13:17:47 GMT-0400 (Eastern Daylight Time)","910240","Trustworthy,Untrustworthy","","1577","","","","rating","","trustrating_stim/white_mw097.bmp","7","","","","","","","","","","",""
"image-keyboard-response","56","105096","0.0-6.0-2.25","6108114eaacc3458294b244c","bdp_trlrn","Tue Mar 14 2023 13:17:47 GMT-0400 (Eastern Daylight Time)","910240","Trustworthy,Untrustworthy","","null","","","","ratingFB","","trustrating_stim/white_mw097.bmp","null","","","","","","","","","","",""
"image-keyboard-response","57","108540","0.0-6.0-1.26","6108114eaacc3458294b244c","bdp_trlrn","Tue Mar 14 2023 13:17:47 GMT-0400 (Eastern Daylight Time)","910240","Trustworthy,Untrustworthy","","3334","","","","rating","","trustrating_stim/white_mw053.bmp","6","","","","","","","","","","",""
"image-keyboard-response","58","108749","0.0-6.0-2.26","6108114eaacc3458294b244c","bdp_trlrn","Tue Mar 14 2023 13:17:47 GMT-0400 (Eastern Daylight Time)","910240","Trustworthy,Untrustworthy","","null","","","","ratingFB","","trustrating_stim/white_mw053.bmp","null","","","","","","","","","","",""
"image-keyboard-response","59","110957","0.0-6.0-1.27","6108114eaacc3458294b244c","bdp_trlrn","Tue Mar 14 2023 13:17:47 GMT-0400 (Eastern Daylight Time)","910240","Trustworthy,Untrustworthy","","2100","","","","rating","","trustrating_stim/white_mw048.bmp","7","","","","","","","","","","",""
"image-keyboard-response","60","111166","0.0-6.0-2.27","6108114eaacc3458294b244c","bdp_trlrn","Tue Mar 14 2023 13:17:47 GMT-0400 (Eastern Daylight Time)","910240","Trustworthy,Untrustworthy","","null","","","","ratingFB","","trustrating_stim/white_mw048.bmp","null","","","","","","","","","","",""
"image-keyboard-response","61","112333","0.0-6.0-1.28","6108114eaacc3458294b244c","bdp_trlrn","Tue Mar 14 2023 13:17:47 GMT-0400 (Eastern Daylight Time)","910240","Trustworthy,Untrustworthy","","1059","","","","rating","","trustrating_stim/white_00519_940519_fb_edt.bmp","8","","","","","","","","","","",""
"image-keyboard-response","62","112545","0.0-6.0-2.28","6108114eaacc3458294b244c","bdp_trlrn","Tue Mar 14 2023 13:17:47 GMT-0400 (Eastern Daylight Time)","910240","Trustworthy,Untrustworthy","","null","","","","ratingFB","","trustrating_stim/white_00519_940519_fb_edt.bmp","null","","","","","","","","","","",""
"image-keyboard-response","63","113686","0.0-6.0-1.29","6108114eaacc3458294b244c","bdp_trlrn","Tue Mar 14 2023 13:17:47 GMT-0400 (Eastern Daylight Time)","910240","Trustworthy,Untrustworthy","","1032","","","","rating","","trustrating_stim/white_mw084.bmp","8","","","","","","","","","","",""
"image-keyboard-response","64","113894","0.0-6.0-2.29","6108114eaacc3458294b244c","bdp_trlrn","Tue Mar 14 2023 13:17:47 GMT-0400 (Eastern Daylight Time)","910240","Trustworthy,Untrustworthy","","null","","","","ratingFB","","trustrating_stim/white_mw084.bmp","null","","","","","","","","","","",""
"image-keyboard-response","65","115147","0.0-6.0-1.30","6108114eaacc3458294b244c","bdp_trlrn","Tue Mar 14 2023 13:17:47 GMT-0400 (Eastern Daylight Time)","910240","Trustworthy,Untrustworthy","","1149","","","","rating","","trustrating_stim/white_00757_941201_fa_edt.bmp","8","","","","","","","","","","",""
"image-keyboard-response","66","115350","0.0-6.0-2.30","6108114eaacc3458294b244c","bdp_trlrn","Tue Mar 14 2023 13:17:47 GMT-0400 (Eastern Daylight Time)","910240","Trustworthy,Untrustworthy","","null","","","","ratingFB","","trustrating_stim/white_00757_941201_fa_edt.bmp","null","","","","","","","","","","",""
"image-keyboard-response","67","117696","0.0-6.0-1.31","6108114eaacc3458294b244c","bdp_trlrn","Tue Mar 14 2023 13:17:47 GMT-0400 (Eastern Daylight Time)","910240","Trustworthy,Untrustworthy","","2242","","","","rating","","trustrating_stim/white_mw049.bmp","6","","","","","","","","","","",""
"image-keyboard-response","68","117906","0.0-6.0-2.31","6108114eaacc3458294b244c","bdp_trlrn","Tue Mar 14 2023 13:17:47 GMT-0400 (Eastern Daylight Time)","910240","Trustworthy,Untrustworthy","","null","","","","ratingFB","","trustrating_stim/white_mw049.bmp","null","","","","","","","","","","",""
"image-keyboard-response","69","119303","0.0-6.0-1.32","6108114eaacc3458294b244c","bdp_trlrn","Tue Mar 14 2023 13:17:47 GMT-0400 (Eastern Daylight Time)","910240","Trustworthy,Untrustworthy","","1289","","","","rating","","trustrating_stim/white_mw048.bmp","8","","","","","","","","","","",""
"image-keyboard-response","70","119510","0.0-6.0-2.32","6108114eaacc3458294b244c","bdp_trlrn","Tue Mar 14 2023 13:17:47 GMT-0400 (Eastern Daylight Time)","910240","Trustworthy,Untrustworthy","","null","","","","ratingFB","","trustrating_stim/white_mw048.bmp","null","","","","","","","","","","",""
"image-keyboard-response","71","121813","0.0-6.0-1.33","6108114eaacc3458294b244c","bdp_trlrn","Tue Mar 14 2023 13:17:47 GMT-0400 (Eastern Daylight Time)","910240","Trustworthy,Untrustworthy","","2198","","","","rating","","trustrating_stim/white_mw033.bmp","6","","","","","","","","","","",""
"image-keyboard-response","72","122026","0.0-6.0-2.33","6108114eaacc3458294b244c","bdp_trlrn","Tue Mar 14 2023 13:17:47 GMT-0400 (Eastern Daylight Time)","910240","Trustworthy,Untrustworthy","","null","","","","ratingFB","","trustrating_stim/white_mw033.bmp","null","","","","","","","","","","",""
"image-keyboard-response","73","124024","0.0-6.0-1.34","6108114eaacc3458294b244c","bdp_trlrn","Tue Mar 14 2023 13:17:47 GMT-0400 (Eastern Daylight Time)","910240","Trustworthy,Untrustworthy","","1889","","","","rating","","trustrating_stim/white_mw066.bmp","6","","","","","","","","","","",""
"image-keyboard-response","74","124232","0.0-6.0-2.34","6108114eaacc3458294b244c","bdp_trlrn","Tue Mar 14 2023 13:17:47 GMT-0400 (Eastern Daylight Time)","910240","Trustworthy,Untrustworthy","","null","","","","ratingFB","","trustrating_stim/white_mw066.bmp","null","","","","","","","","","","",""
"image-keyboard-response","75","127502","0.0-6.0-1.35","6108114eaacc3458294b244c","bdp_trlrn","Tue Mar 14 2023 13:17:47 GMT-0400 (Eastern Daylight Time)","910240","Trustworthy,Untrustworthy","","3156","","","","rating","","trustrating_stim/white_mw056.bmp","8","","","","","","","","","","",""
"image-keyboard-response","76","127710","0.0-6.0-2.35","6108114eaacc3458294b244c","bdp_trlrn","Tue Mar 14 2023 13:17:47 GMT-0400 (Eastern Daylight Time)","910240","Trustworthy,Untrustworthy","","null","","","","ratingFB","","trustrating_stim/white_mw056.bmp","null","","","","","","","","","","",""
"image-keyboard-response","77","128643","0.0-6.0-1.36","6108114eaacc3458294b244c","bdp_trlrn","Tue Mar 14 2023 13:17:47 GMT-0400 (Eastern Daylight Time)","910240","Trustworthy,Untrustworthy","","825","","","","rating","","trustrating_stim/white_mw071.bmp","8","","","","","","","","","","",""
"image-keyboard-response","78","128847","0.0-6.0-2.36","6108114eaacc3458294b244c","bdp_trlrn","Tue Mar 14 2023 13:17:47 GMT-0400 (Eastern Daylight Time)","910240","Trustworthy,Untrustworthy","","null","","","","ratingFB","","trustrating_stim/white_mw071.bmp","null","","","","","","","","","","",""
"image-keyboard-response","79","129596","0.0-6.0-1.37","6108114eaacc3458294b244c","bdp_trlrn","Tue Mar 14 2023 13:17:47 GMT-0400 (Eastern Daylight Time)","910240","Trustworthy,Untrustworthy","","645","","","","rating","","trustrating_stim/white_00519_940519_fb_edt.bmp","8","","","","","","","","","","",""
"image-keyboard-response","80","129806","0.0-6.0-2.37","6108114eaacc3458294b244c","bdp_trlrn","Tue Mar 14 2023 13:17:47 GMT-0400 (Eastern Daylight Time)","910240","Trustworthy,Untrustworthy","","null","","","","ratingFB","","trustrating_stim/white_00519_940519_fb_edt.bmp","null","","","","","","","","","","",""
"image-keyboard-response","81","131820","0.0-6.0-1.38","6108114eaacc3458294b244c","bdp_trlrn","Tue Mar 14 2023 13:17:47 GMT-0400 (Eastern Daylight Time)","910240","Trustworthy,Untrustworthy","","1909","","","","rating","","trustrating_stim/white_mw046.bmp","9","","","","","","","","","","",""
"image-keyboard-response","82","132023","0.0-6.0-2.38","6108114eaacc3458294b244c","bdp_trlrn","Tue Mar 14 2023 13:17:47 GMT-0400 (Eastern Daylight Time)","910240","Trustworthy,Untrustworthy","","null","","","","ratingFB","","trustrating_stim/white_mw046.bmp","null","","","","","","","","","","",""
"image-keyboard-response","83","133098","0.0-6.0-1.39","6108114eaacc3458294b244c","bdp_trlrn","Tue Mar 14 2023 13:17:47 GMT-0400 (Eastern Daylight Time)","910240","Trustworthy,Untrustworthy","","971","","","","rating","","trustrating_stim/white_00340_940422_fa_edt.bmp","9","","","","","","","","","","",""
"image-keyboard-response","84","133305","0.0-6.0-2.39","6108114eaacc3458294b244c","bdp_trlrn","Tue Mar 14 2023 13:17:47 GMT-0400 (Eastern Daylight Time)","910240","Trustworthy,Untrustworthy","","null","","","","ratingFB","","trustrating_stim/white_00340_940422_fa_edt.bmp","null","","","","","","","","","","",""
"image-keyboard-response","85","134527","0.0-6.0-1.40","6108114eaacc3458294b244c","bdp_trlrn","Tue Mar 14 2023 13:17:47 GMT-0400 (Eastern Daylight Time)","910240","Trustworthy,Untrustworthy","","1109","","","","rating","","trustrating_stim/white_00577_940928_fa_edt.bmp","8","","","","","","","","","","",""
"image-keyboard-response","86","134736","0.0-6.0-2.40","6108114eaacc3458294b244c","bdp_trlrn","Tue Mar 14 2023 13:17:47 GMT-0400 (Eastern Daylight Time)","910240","Trustworthy,Untrustworthy","","null","","","","ratingFB","","trustrating_stim/white_00577_940928_fa_edt.bmp","null","","","","","","","","","","",""
"image-keyboard-response","87","135793","0.0-6.0-1.41","6108114eaacc3458294b244c","bdp_trlrn","Tue Mar 14 2023 13:17:47 GMT-0400 (Eastern Daylight Time)","910240","Trustworthy,Untrustworthy","","945","","","","rating","","trustrating_stim/white_00299_940422_fa_edt.bmp","9","","","","","","","","","","",""
"image-keyboard-response","88","135997","0.0-6.0-2.41","6108114eaacc3458294b244c","bdp_trlrn","Tue Mar 14 2023 13:17:47 GMT-0400 (Eastern Daylight Time)","910240","Trustworthy,Untrustworthy","","null","","","","ratingFB","","trustrating_stim/white_00299_940422_fa_edt.bmp","null","","","","","","","","","","",""
"image-keyboard-response","89","138729","0.0-6.0-1.42","6108114eaacc3458294b244c","bdp_trlrn","Tue Mar 14 2023 13:17:47 GMT-0400 (Eastern Daylight Time)","910240","Trustworthy,Untrustworthy","","2626","","","","rating","","trustrating_stim/white_00223_940128_fb_edt.bmp","9","","","","","","","","","","",""
"image-keyboard-response","90","138933","0.0-6.0-2.42","6108114eaacc3458294b244c","bdp_trlrn","Tue Mar 14 2023 13:17:47 GMT-0400 (Eastern Daylight Time)","910240","Trustworthy,Untrustworthy","","null","","","","ratingFB","","trustrating_stim/white_00223_940128_fb_edt.bmp","null","","","","","","","","","","",""
"image-keyboard-response","91","140899","0.0-6.0-1.43","6108114eaacc3458294b244c","bdp_trlrn","Tue Mar 14 2023 13:17:47 GMT-0400 (Eastern Daylight Time)","910240","Trustworthy,Untrustworthy","","1861","","","","rating","","trustrating_stim/white_00898_960530_fa_edt.bmp","5","","","","","","","","","","",""
"image-keyboard-response","92","141102","0.0-6.0-2.43","6108114eaacc3458294b244c","bdp_trlrn","Tue Mar 14 2023 13:17:47 GMT-0400 (Eastern Daylight Time)","910240","Trustworthy,Untrustworthy","","null","","","","ratingFB","","trustrating_stim/white_00898_960530_fa_edt.bmp","null","","","","","","","","","","",""
"image-keyboard-response","93","142760","0.0-6.0-1.44","6108114eaacc3458294b244c","bdp_trlrn","Tue Mar 14 2023 13:17:47 GMT-0400 (Eastern Daylight Time)","910240","Trustworthy,Untrustworthy","","1553","","","","rating","","trustrating_stim/white_00761_941201_fb_edt.bmp","8","","","","","","","","","","",""
"image-keyboard-response","94","142967","0.0-6.0-2.44","6108114eaacc3458294b244c","bdp_trlrn","Tue Mar 14 2023 13:17:47 GMT-0400 (Eastern Daylight Time)","910240","Trustworthy,Untrustworthy","","null","","","","ratingFB","","trustrating_stim/white_00761_941201_fb_edt.bmp","null","","","","","","","","","","",""
"image-keyboard-response","95","144798","0.0-6.0-1.45","6108114eaacc3458294b244c","bdp_trlrn","Tue Mar 14 2023 13:17:47 GMT-0400 (Eastern Daylight Time)","910240","Trustworthy,Untrustworthy","","1727","","","","rating","","trustrating_stim/white_00602_940928_fb_edt.bmp","7","","","","","","","","","","",""
"image-keyboard-response","96","145008","0.0-6.0-2.45","6108114eaacc3458294b244c","bdp_trlrn","Tue Mar 14 2023 13:17:47 GMT-0400 (Eastern Daylight Time)","910240","Trustworthy,Untrustworthy","","null","","","","ratingFB","","trustrating_stim/white_00602_940928_fb_edt.bmp","null","","","","","","","","","","",""
"image-keyboard-response","97","147533","0.0-6.0-1.46","6108114eaacc3458294b244c","bdp_trlrn","Tue Mar 14 2023 13:17:47 GMT-0400 (Eastern Daylight Time)","910240","Trustworthy,Untrustworthy","","2414","","","","rating","","trustrating_stim/white_mw053.bmp","6","","","","","","","","","","",""
"image-keyboard-response","98","147743","0.0-6.0-2.46","6108114eaacc3458294b244c","bdp_trlrn","Tue Mar 14 2023 13:17:47 GMT-0400 (Eastern Daylight Time)","910240","Trustworthy,Untrustworthy","","null","","","","ratingFB","","trustrating_stim/white_mw053.bmp","null","","","","","","","","","","",""
"image-keyboard-response","99","149982","0.0-6.0-1.47","6108114eaacc3458294b244c","bdp_trlrn","Tue Mar 14 2023 13:17:47 GMT-0400 (Eastern Daylight Time)","910240","Trustworthy,Untrustworthy","","2133","","","","rating","","trustrating_stim/white_00129_931230_fb_edt.bmp","7","","","","","","","","","","",""
"image-keyboard-response","100","150191","0.0-6.0-2.47","6108114eaacc3458294b244c","bdp_trlrn","Tue Mar 14 2023 13:17:47 GMT-0400 (Eastern Daylight Time)","910240","Trustworthy,Untrustworthy","","null","","","","ratingFB","","trustrating_stim/white_00129_931230_fb_edt.bmp","null","","","","","","","","","","",""
"image-keyboard-response","101","152071","0.0-6.0-1.48","6108114eaacc3458294b244c","bdp_trlrn","Tue Mar 14 2023 13:17:47 GMT-0400 (Eastern Daylight Time)","910240","Trustworthy,Untrustworthy","","1775","","","","rating","","trustrating_stim/white_mw063.bmp","8","","","","","","","","","","",""
"image-keyboard-response","102","152279","0.0-6.0-2.48","6108114eaacc3458294b244c","bdp_trlrn","Tue Mar 14 2023 13:17:47 GMT-0400 (Eastern Daylight Time)","910240","Trustworthy,Untrustworthy","","null","","","","ratingFB","","trustrating_stim/white_mw063.bmp","null","","","","","","","","","","",""
"image-keyboard-response","103","153322","0.0-6.0-1.49","6108114eaacc3458294b244c","bdp_trlrn","Tue Mar 14 2023 13:17:47 GMT-0400 (Eastern Daylight Time)","910240","Trustworthy,Untrustworthy","","938","","","","rating","","trustrating_stim/white_00785_941205_fb_edt.bmp","9","","","","","","","","","","",""
"image-keyboard-response","104","153531","0.0-6.0-2.49","6108114eaacc3458294b244c","bdp_trlrn","Tue Mar 14 2023 13:17:47 GMT-0400 (Eastern Daylight Time)","910240","Trustworthy,Untrustworthy","","null","","","","ratingFB","","trustrating_stim/white_00785_941205_fb_edt.bmp","null","","","","","","","","","","",""
"image-keyboard-response","105","154598","0.0-6.0-1.50","6108114eaacc3458294b244c","bdp_trlrn","Tue Mar 14 2023 13:17:47 GMT-0400 (Eastern Daylight Time)","910240","Trustworthy,Untrustworthy","","955","","","","rating","","trustrating_stim/white_00659_941121_fa_edt.bmp","9","","","","","","","","","","",""
"image-keyboard-response","106","154807","0.0-6.0-2.50","6108114eaacc3458294b244c","bdp_trlrn","Tue Mar 14 2023 13:17:47 GMT-0400 (Eastern Daylight Time)","910240","Trustworthy,Untrustworthy","","null","","","","ratingFB","","trustrating_stim/white_00659_941121_fa_edt.bmp","null","","","","","","","","","","",""
"image-keyboard-response","107","157871","0.0-6.0-1.51","6108114eaacc3458294b244c","bdp_trlrn","Tue Mar 14 2023 13:17:47 GMT-0400 (Eastern Daylight Time)","910240","Trustworthy,Untrustworthy","","2956","","","","rating","","trustrating_stim/white_mw035.bmp","7","","","","","","","","","","",""
"image-keyboard-response","108","158078","0.0-6.0-2.51","6108114eaacc3458294b244c","bdp_trlrn","Tue Mar 14 2023 13:17:47 GMT-0400 (Eastern Daylight Time)","910240","Trustworthy,Untrustworthy","","null","","","","ratingFB","","trustrating_stim/white_mw035.bmp","null","","","","","","","","","","",""
"image-keyboard-response","109","159651","0.0-6.0-1.52","6108114eaacc3458294b244c","bdp_trlrn","Tue Mar 14 2023 13:17:47 GMT-0400 (Eastern Daylight Time)","910240","Trustworthy,Untrustworthy","","1464","","","","rating","","trustrating_stim/white_mw097.bmp","9","","","","","","","","","","",""
"image-keyboard-response","110","159854","0.0-6.0-2.52","6108114eaacc3458294b244c","bdp_trlrn","Tue Mar 14 2023 13:17:47 GMT-0400 (Eastern Daylight Time)","910240","Trustworthy,Untrustworthy","","null","","","","ratingFB","","trustrating_stim/white_mw097.bmp","null","","","","","","","","","","",""
"image-keyboard-response","111","166633","0.0-6.0-1.53","6108114eaacc3458294b244c","bdp_trlrn","Tue Mar 14 2023 13:17:47 GMT-0400 (Eastern Daylight Time)","910240","Trustworthy,Untrustworthy","","6675","","","","rating","","trustrating_stim/white_00120_931230_fa_edt.bmp","7","","","","","","","","","","",""
"image-keyboard-response","112","166843","0.0-6.0-2.53","6108114eaacc3458294b244c","bdp_trlrn","Tue Mar 14 2023 13:17:47 GMT-0400 (Eastern Daylight Time)","910240","Trustworthy,Untrustworthy","","null","","","","ratingFB","","trustrating_stim/white_00120_931230_fa_edt.bmp","null","","","","","","","","","","",""
"image-keyboard-response","113","168657","0.0-6.0-1.54","6108114eaacc3458294b244c","bdp_trlrn","Tue Mar 14 2023 13:17:47 GMT-0400 (Eastern Daylight Time)","910240","Trustworthy,Untrustworthy","","1705","","","","rating","","trustrating_stim/white_mw099.bmp","8","","","","","","","","","","",""
"image-keyboard-response","114","168865","0.0-6.0-2.54","6108114eaacc3458294b244c","bdp_trlrn","Tue Mar 14 2023 13:17:47 GMT-0400 (Eastern Daylight Time)","910240","Trustworthy,Untrustworthy","","null","","","","ratingFB","","trustrating_stim/white_mw099.bmp","null","","","","","","","","","","",""
"image-keyboard-response","115","188940","0.0-6.0-1.55","6108114eaacc3458294b244c","bdp_trlrn","Tue Mar 14 2023 13:17:47 GMT-0400 (Eastern Daylight Time)","910240","Trustworthy,Untrustworthy","","19961","","","","rating","","trustrating_stim/white_00807_941205_fb_edt.bmp","8","","","","","","","","","","",""
"image-keyboard-response","116","189145","0.0-6.0-2.55","6108114eaacc3458294b244c","bdp_trlrn","Tue Mar 14 2023 13:17:47 GMT-0400 (Eastern Daylight Time)","910240","Trustworthy,Untrustworthy","","null","","","","ratingFB","","trustrating_stim/white_00807_941205_fb_edt.bmp","null","","","","","","","","","","",""
"image-keyboard-response","117","190171","0.0-6.0-1.56","6108114eaacc3458294b244c","bdp_trlrn","Tue Mar 14 2023 13:17:47 GMT-0400 (Eastern Daylight Time)","910240","Trustworthy,Untrustworthy","","911","","","","rating","","trustrating_stim/white_mw060.bmp","8","","","","","","","","","","",""
"image-keyboard-response","118","190376","0.0-6.0-2.56","6108114eaacc3458294b244c","bdp_trlrn","Tue Mar 14 2023 13:17:47 GMT-0400 (Eastern Daylight Time)","910240","Trustworthy,Untrustworthy","","null","","","","ratingFB","","trustrating_stim/white_mw060.bmp","null","","","","","","","","","","",""
"image-keyboard-response","119","192266","0.0-6.0-1.57","6108114eaacc3458294b244c","bdp_trlrn","Tue Mar 14 2023 13:17:47 GMT-0400 (Eastern Daylight Time)","910240","Trustworthy,Untrustworthy","","1782","","","","rating","","trustrating_stim/white_mw084.bmp","8","","","","","","","","","","",""
"image-keyboard-response","120","192476","0.0-6.0-2.57","6108114eaacc3458294b244c","bdp_trlrn","Tue Mar 14 2023 13:17:47 GMT-0400 (Eastern Daylight Time)","910240","Trustworthy,Untrustworthy","","null","","","","ratingFB","","trustrating_stim/white_mw084.bmp","null","","","","","","","","","","",""
"image-keyboard-response","121","195774","0.0-6.0-1.58","6108114eaacc3458294b244c","bdp_trlrn","Tue Mar 14 2023 13:17:47 GMT-0400 (Eastern Daylight Time)","910240","Trustworthy,Untrustworthy","","3190","","","","rating","","trustrating_stim/white_mw089.bmp","8","","","","","","","","","","",""
"image-keyboard-response","122","195985","0.0-6.0-2.58","6108114eaacc3458294b244c","bdp_trlrn","Tue Mar 14 2023 13:17:47 GMT-0400 (Eastern Daylight Time)","910240","Trustworthy,Untrustworthy","","null","","","","ratingFB","","trustrating_stim/white_mw089.bmp","null","","","","","","","","","","",""
"image-keyboard-response","123","197493","0.0-6.0-1.59","6108114eaacc3458294b244c","bdp_trlrn","Tue Mar 14 2023 13:17:47 GMT-0400 (Eastern Daylight Time)","910240","Trustworthy,Untrustworthy","","1402","","","","rating","","trustrating_stim/white_00109_931230_fa_edt.bmp","7","","","","","","","","","","",""
"image-keyboard-response","124","197698","0.0-6.0-2.59","6108114eaacc3458294b244c","bdp_trlrn","Tue Mar 14 2023 13:17:47 GMT-0400 (Eastern Daylight Time)","910240","Trustworthy,Untrustworthy","","null","","","","ratingFB","","trustrating_stim/white_00109_931230_fa_edt.bmp","null","","","","","","","","","","",""
"instructions","125","199516","0.0-7.0","6108114eaacc3458294b244c","bdp_trlrn","Tue Mar 14 2023 13:17:47 GMT-0400 (Eastern Daylight Time)","910240","Trustworthy,Untrustworthy","[{""page_index"":0,""viewing_time"":1709}]","1709","","","","","","","","","","","","","","","","","",""
"instructions","126","284219","0.0-8.0","6108114eaacc3458294b244c","bdp_trlrn","Tue Mar 14 2023 13:17:47 GMT-0400 (Eastern Daylight Time)","910240","Trustworthy,Untrustworthy","[{""page_index"":0,""viewing_time"":15315},{""page_index"":1,""viewing_time"":24969},{""page_index"":2,""viewing_time"":13289},{""page_index"":3,""viewing_time"":8211},{""page_index"":4,""viewing_time"":1837},{""page_index"":5,""viewing_time"":2199},{""page_index"":6,""viewing_time"":17102},{""page_index"":7,""viewing_time"":1670}]","84592","","","","","","","","","","","","","","","","","",""
"html-keyboard-response","127","290974","0.0-9.0","6108114eaacc3458294b244c","bdp_trlrn","Tue Mar 14 2023 13:17:47 GMT-0400 (Eastern Daylight Time)","910240","Trustworthy,Untrustworthy","","6754","","","","","","<div class='header' style='text-align:left; position: absolute; top: 5%; left: 5%;'><small>Task 2 of 5</small></div><div class='instruxDiv'><p><strong>1) What is the minimum number of points you can choose to send to your partner?</strong></p><p>a) 0</p><p>b) 1</p><p>c) 5</p>","B","","","","","","","","","","",""
"html-keyboard-response","128","293477","0.0-10.0","6108114eaacc3458294b244c","bdp_trlrn","Tue Mar 14 2023 13:17:47 GMT-0400 (Eastern Daylight Time)","910240","Trustworthy,Untrustworthy","","2399","","","","","","<div class='header' style='text-align:left; position: absolute; top: 5%; left: 5%;'><small>Task 2 of 5</small></div><div class='instruxDiv'><p><strong>1) What is the minimum number of points you can choose to send to your partner?</strong></p><p>a) 0</p><p style='color:#00FF00'>b) 1</p><p>c) 5</p><h3 style='color:#00FF00'>Correct!</h3><h3 class='center-content'>The correct response is b).</h3><h3 class='center-content'>The minimum number of points you can choose to send to your partner is 1 point.</h3><p><em>Press SPACEBAR to continue</em></p></div>"," ","","","","","","","","","","",""
"html-keyboard-response","129","296074","0.0-11.0","6108114eaacc3458294b244c","bdp_trlrn","Tue Mar 14 2023 13:17:47 GMT-0400 (Eastern Daylight Time)","910240","Trustworthy,Untrustworthy","","2495","","","","","","<div class='header' style='text-align:left; position: absolute; top: 5%; left: 5%;'><small>Task 2 of 5</small></div><div class='instruxDiv'><p><strong>2) What is the maximum number of points you can choose to send to your partner?</strong></p><p>a) 8</p><p>b) 5</p><p>c) 3</p>","B","","","","","","","","","","",""
"html-keyboard-response","130","297040","0.0-12.0","6108114eaacc3458294b244c","bdp_trlrn","Tue Mar 14 2023 13:17:47 GMT-0400 (Eastern Daylight Time)","910240","Trustworthy,Untrustworthy","","860","","","","","","<div class='header' style='text-align:left; position: absolute; top: 5%; left: 5%;'><small>Task 2 of 5</small></div><div class='instruxDiv'><p><strong>2) What is the maximum number of points you can choose to send to your partner?</strong></p><p>a) 8</p><p style='color:#00FF00'>b) 5</p><p>c) 3</p><h3 style='color:#00FF00'>Correct!</h3><h3 class='center-content'>The correct response is b).</h3><h3 class='center-content'>The maximum number of points you can choose to send to your partner is 5 points.</h3><p><em>Press SPACEBAR to continue</em></p></div>"," ","","","","","","","","","","",""
"html-keyboard-response","131","301190","0.0-13.0","6108114eaacc3458294b244c","bdp_trlrn","Tue Mar 14 2023 13:17:47 GMT-0400 (Eastern Daylight Time)","910240","Trustworthy,Untrustworthy","","4039","","","","","","<div class='header' style='text-align:left; position: absolute; top: 5%; left: 5%;'><small>Task 2 of 5</small></div><div class='instruxDiv'><p><strong>3) What happens to the amount of points you send to your partner?</strong></p><p>a) Nothing</p><p>b) It doubles</p><p>c) It quadruples</p>","B","","","","","","","","","","",""
"html-keyboard-response","132","303254","0.0-14.0","6108114eaacc3458294b244c","bdp_trlrn","Tue Mar 14 2023 13:17:47 GMT-0400 (Eastern Daylight Time)","910240","Trustworthy,Untrustworthy","","1954","","","","","","<div class='header' style='text-align:left; position: absolute; top: 5%; left: 5%;'><small>Task 2 of 5</small></div><div class='instruxDiv'><p><strong>3) What happens to the amount of points you send to your partner?</strong></p><p>a) Nothing</p><p style='color:#FF0000'>b) It doubles</p><p>c) It quadruples</p><h3 style='color:#FF0000'>Incorrect!</h3><h3 class='center-content'>The correct response is c).</h3><h3 class='center-content'>The amount of points you send to your partner quadruples.</h3><p><em>Press SPACEBAR to continue</em></p></div>"," ","","","","","","","","","","",""
"html-keyboard-response","133","315370","0.0-15.0","6108114eaacc3458294b244c","bdp_trlrn","Tue Mar 14 2023 13:17:47 GMT-0400 (Eastern Daylight Time)","910240","Trustworthy,Untrustworthy","","12007","","","","","","<div class='header' style='text-align:left; position: absolute; top: 5%; left: 5%;'><small>Task 2 of 5</small></div><div class='instruxDiv'><p><strong>4) If you decided to share 4 out of 5 points with your partner, and they decided to share half of the amount they received with you, how many points would you receive back from them on this round?</strong></p><p>a) 16</p><p>b) 0</p><p>c) 8</p>","C","","","","","","","","","","",""
"html-keyboard-response","134","316201","0.0-16.0","6108114eaacc3458294b244c","bdp_trlrn","Tue Mar 14 2023 13:17:47 GMT-0400 (Eastern Daylight Time)","910240","Trustworthy,Untrustworthy","","721","","","","","","<div class='header' style='text-align:left; position: absolute; top: 5%; left: 5%;'><small>Task 2 of 5</small></div><div class='instruxDiv'><p><strong>4) If you decided to share 4 out of 5 points with your partner, and they decided to share half of the amount they received with you, how many points would you receive back from them on this round?</strong></p><p>a) 16</p><p>b) 0</p><p style='color:#00FF00'>c) 8</p><h3 style='color:#00FF00'>Correct!</h3><h3 class='center-content'>The correct response is c).</h3><h3 class='center-content'>If you shared 4 out of 5 points with your partner and they decided to share half of the amount they received with you, you would receive 8 points back (i.e. (4 x 4)/2 = 8).</h3><p><em>Press SPACEBAR to continue</em></p></div>"," ","","","","","","","","","","",""
"html-keyboard-response","135","321316","0.0-17.0","6108114eaacc3458294b244c","bdp_trlrn","Tue Mar 14 2023 13:17:47 GMT-0400 (Eastern Daylight Time)","910240","Trustworthy,Untrustworthy","","null","","","","","","<div class='header' style='text-align:left; position: absolute; top: 5%; left: 5%;'><small>Task 2 of 5</small></div><div class='instruxDiv'><p>Thank you for completing the quiz<p>These are the actual partners you will be interacting with in the next block:<p><div class='tc' align='center'><img class='introPic' src='trustrating_stim/white_mw033.bmp'><br><strong>Benjamin</strong></div><div class='bl' align='center'><img class='introPic' src='trustrating_stim/white_mw084.bmp'><br><strong>Chris</strong></div><div class='br' align='center'><img class='introPic' src='trustrating_stim/white_00223_940128_fb_edt.bmp'><br><strong>Matthew</strong></div></div><p>Across <strong>66 rounds</strong> you will interact with each partner <strong>22 times</strong> (in random order).<p style='align:center; color:white'><font <em>Press SPACEBAR to continue</em></p>","null","","","","","","","","","","",""
"instructions","136","328366","0.0-18.0","6108114eaacc3458294b244c","bdp_trlrn","Tue Mar 14 2023 13:17:47 GMT-0400 (Eastern Daylight Time)","910240","Trustworthy,Untrustworthy","[{""page_index"":0,""viewing_time"":4254},{""page_index"":1,""viewing_time"":2795}]","7049","","","","","","","","","","","","","","","","","",""
"html-keyboard-response","137","334193","0.0-19.0-1.0","6108114eaacc3458294b244c","bdp_trlrn","Tue Mar 14 2023 13:17:47 GMT-0400 (Eastern Daylight Time)","910240","Trustworthy,Untrustworthy","","5722","","","","decision","","<div class='trialDiv'><img src='trustrating_stim/white_mw084.bmp'><br><font class='baseline'><strong>Chris</strong><p>Choose number of points to send.</font><div class='respPicDiv'><img src='img/responseButtonOffersNo0L.png' class='respPic'></div></div>","3","1","Chris","7","Kept","0.2,0.65","10","0.2","trustrating_stim/white_mw084.bmp","8","5","1"
"html-keyboard-response","138","334452","0.0-19.0-2.0","6108114eaacc3458294b244c","bdp_trlrn","Tue Mar 14 2023 13:17:47 GMT-0400 (Eastern Daylight Time)","910240","Trustworthy,Untrustworthy","","null","","","","decisionFB","","<div class='trialDiv'><img src='trustrating_stim/white_mw084.bmp'><br><font class='baseline'><strong>Chris</strong><p>Choose number of points to send.</font><div class='respPicDiv'><img src='img/responseButtonOffersNo0L3.png' class='respPic'></div></div>","null","1","Chris","7","Kept","0.2,0.65","10","0.2","trustrating_stim/white_mw084.bmp","8","2","1"
"html-keyboard-response","139","335459","0.0-19.0-3.0","6108114eaacc3458294b244c","bdp_trlrn","Tue Mar 14 2023 13:17:47 GMT-0400 (Eastern Daylight Time)","910240","Trustworthy,Untrustworthy","","null","","","","feedback","","<div class='trialDiv'><img src='trustrating_stim/white_mw084.bmp'><br><font class='baseline'><strong>Chris</strong><p>Received: <strong>12</strong></font> &nbsp; &nbsp; &nbsp; &nbsp; &nbsp; &nbsp;<font class='negOutcome'>Shared back: <strong>0</strong></font></font><div class='respPicDiv'><img src='img/responseButtonOffersNo0_wht.png' class='respPic'></div></div>","null","1","Chris","7","Kept","0.2,0.65","10","0.2","trustrating_stim/white_mw084.bmp","8","2","1"
"html-keyboard-response","140","343256","0.0-19.0-1.1","6108114eaacc3458294b244c","bdp_trlrn","Tue Mar 14 2023 13:17:47 GMT-0400 (Eastern Daylight Time)","910240","Trustworthy,Untrustworthy","","7796","","","","decision","","<div class='trialDiv'><img src='trustrating_stim/white_00223_940128_fb_edt.bmp'><br><font class='baseline'><strong>Matthew</strong><p>Choose number of points to send.</font><div class='respPicDiv'><img src='img/responseButtonOffersNo0L.png' class='respPic'></div></div>","4","1","Matthew","10","Shared","0.8,0.35","11","0.8","trustrating_stim/white_00223_940128_fb_edt.bmp","8.5","7","2"
"html-keyboard-response","141","343516","0.0-19.0-2.1","6108114eaacc3458294b244c","bdp_trlrn","Tue Mar 14 2023 13:17:47 GMT-0400 (Eastern Daylight Time)","910240","Trustworthy,Untrustworthy","","null","","","","decisionFB","","<div class='trialDiv'><img src='trustrating_stim/white_00223_940128_fb_edt.bmp'><br><font class='baseline'><strong>Matthew</strong><p>Choose number of points to send.</font><div class='respPicDiv'><img src='img/responseButtonOffersNo0L4.png' class='respPic'></div></div>","null","1","Matthew","10","Shared","0.8,0.35","11","0.8","trustrating_stim/white_00223_940128_fb_edt.bmp","8.5","3","2"
"html-keyboard-response","142","344526","0.0-19.0-3.1","6108114eaacc3458294b244c","bdp_trlrn","Tue Mar 14 2023 13:17:47 GMT-0400 (Eastern Daylight Time)","910240","Trustworthy,Untrustworthy","","null","","","","feedback","","<div class='trialDiv'><img src='trustrating_stim/white_00223_940128_fb_edt.bmp'><br><font class='baseline'><strong>Matthew</strong><p>Received: <strong>16</strong></font> &nbsp; &nbsp; &nbsp; &nbsp; &nbsp; &nbsp;<font class='posOutcome'>Shared back: <strong>8</strong></font></font><div class='respPicDiv'><img src='img/responseButtonOffersNo0_wht.png' class='respPic'></div></div>","null","1","Matthew","10","Shared","0.8,0.35","11","0.8","trustrating_stim/white_00223_940128_fb_edt.bmp","8.5","11","2"
"html-keyboard-response","143","347911","0.0-19.0-1.2","6108114eaacc3458294b244c","bdp_trlrn","Tue Mar 14 2023 13:17:47 GMT-0400 (Eastern Daylight Time)","910240","Trustworthy,Untrustworthy","","3384","","","","decision","","<div class='trialDiv'><img src='trustrating_stim/white_mw033.bmp'><br><font class='baseline'><strong>Benjamin</strong><p>Choose number of points to send.</font><div class='respPicDiv'><img src='img/responseButtonOffersNo0L.png' class='respPic'></div></div>","4","1","Benjamin","2","Shared","0.8,0.2","8","0.8","trustrating_stim/white_mw033.bmp","5.5","16","3"
"html-keyboard-response","144","348164","0.0-19.0-2.2","6108114eaacc3458294b244c","bdp_trlrn","Tue Mar 14 2023 13:17:47 GMT-0400 (Eastern Daylight Time)","910240","Trustworthy,Untrustworthy","","null","","","","decisionFB","","<div class='trialDiv'><img src='trustrating_stim/white_mw033.bmp'><br><font class='baseline'><strong>Benjamin</strong><p>Choose number of points to send.</font><div class='respPicDiv'><img src='img/responseButtonOffersNo0L4.png' class='respPic'></div></div>","null","1","Benjamin","2","Shared","0.8,0.2","8","0.8","trustrating_stim/white_mw033.bmp","5.5","12","3"
"html-keyboard-response","145","349172","0.0-19.0-3.2","6108114eaacc3458294b244c","bdp_trlrn","Tue Mar 14 2023 13:17:47 GMT-0400 (Eastern Daylight Time)","910240","Trustworthy,Untrustworthy","","null","","","","feedback","","<div class='trialDiv'><img src='trustrating_stim/white_mw033.bmp'><br><font class='baseline'><strong>Benjamin</strong><p>Received: <strong>16</strong></font> &nbsp; &nbsp; &nbsp; &nbsp; &nbsp; &nbsp;<font class='posOutcome'>Shared back: <strong>8</strong></font></font><div class='respPicDiv'><img src='img/responseButtonOffersNo0_wht.png' class='respPic'></div></div>","null","1","Benjamin","2","Shared","0.8,0.2","8","0.8","trustrating_stim/white_mw033.bmp","5.5","20","3"
"html-keyboard-response","146","352509","0.0-19.0-1.3","6108114eaacc3458294b244c","bdp_trlrn","Tue Mar 14 2023 13:17:47 GMT-0400 (Eastern Daylight Time)","910240","Trustworthy,Untrustworthy","","3336","","","","decision","","<div class='trialDiv'><img src='trustrating_stim/white_mw084.bmp'><br><font class='baseline'><strong>Chris</strong><p>Choose number of points to send.</font><div class='respPicDiv'><img src='img/responseButtonOffersNo0L.png' class='respPic'></div></div>","2","2","Chris","7","Kept","0.2,0.65","10","0.2","trustrating_stim/white_mw084.bmp","8","25","4"
"html-keyboard-response","147","352765","0.0-19.0-2.3","6108114eaacc3458294b244c","bdp_trlrn","Tue Mar 14 2023 13:17:47 GMT-0400 (Eastern Daylight Time)","910240","Trustworthy,Untrustworthy","","null","","","","decisionFB","","<div class='trialDiv'><img src='trustrating_stim/white_mw084.bmp'><br><font class='baseline'><strong>Chris</strong><p>Choose number of points to send.</font><div class='respPicDiv'><img src='img/responseButtonOffersNo0L2.png' class='respPic'></div></div>","null","2","Chris","7","Kept","0.2,0.65","10","0.2","trustrating_stim/white_mw084.bmp","8","23","4"
"html-keyboard-response","148","353772","0.0-19.0-3.3","6108114eaacc3458294b244c","bdp_trlrn","Tue Mar 14 2023 13:17:47 GMT-0400 (Eastern Daylight Time)","910240","Trustworthy,Untrustworthy","","null","","","","feedback","","<div class='trialDiv'><img src='trustrating_stim/white_mw084.bmp'><br><font class='baseline'><strong>Chris</strong><p>Received: <strong>8</strong></font> &nbsp; &nbsp; &nbsp; &nbsp; &nbsp; &nbsp;<font class='negOutcome'>Shared back: <strong>0</strong></font></font><div class='respPicDiv'><img src='img/responseButtonOffersNo0_wht.png' class='respPic'></div></div>","null","2","Chris","7","Kept","0.2,0.65","10","0.2","trustrating_stim/white_mw084.bmp","8","23","4"
"html-keyboard-response","149","356537","0.0-19.0-1.4","6108114eaacc3458294b244c","bdp_trlrn","Tue Mar 14 2023 13:17:47 GMT-0400 (Eastern Daylight Time)","910240","Trustworthy,Untrustworthy","","2764","","","","decision","","<div class='trialDiv'><img src='trustrating_stim/white_00223_940128_fb_edt.bmp'><br><font class='baseline'><strong>Matthew</strong><p>Choose number of points to send.</font><div class='respPicDiv'><img src='img/responseButtonOffersNo0L.png' class='respPic'></div></div>","4","2","Matthew","10","Shared","0.8,0.35","11","0.8","trustrating_stim/white_00223_940128_fb_edt.bmp","8.5","28","5"
"html-keyboard-response","150","356798","0.0-19.0-2.4","6108114eaacc3458294b244c","bdp_trlrn","Tue Mar 14 2023 13:17:47 GMT-0400 (Eastern Daylight Time)","910240","Trustworthy,Untrustworthy","","null","","","","decisionFB","","<div class='trialDiv'><img src='trustrating_stim/white_00223_940128_fb_edt.bmp'><br><font class='baseline'><strong>Matthew</strong><p>Choose number of points to send.</font><div class='respPicDiv'><img src='img/responseButtonOffersNo0L4.png' class='respPic'></div></div>","null","2","Matthew","10","Shared","0.8,0.35","11","0.8","trustrating_stim/white_00223_940128_fb_edt.bmp","8.5","24","5"
"html-keyboard-response","151","357805","0.0-19.0-3.4","6108114eaacc3458294b244c","bdp_trlrn","Tue Mar 14 2023 13:17:47 GMT-0400 (Eastern Daylight Time)","910240","Trustworthy,Untrustworthy","","null","","","","feedback","","<div class='trialDiv'><img src='trustrating_stim/white_00223_940128_fb_edt.bmp'><br><font class='baseline'><strong>Matthew</strong><p>Received: <strong>16</strong></font> &nbsp; &nbsp; &nbsp; &nbsp; &nbsp; &nbsp;<font class='posOutcome'>Shared back: <strong>8</strong></font></font><div class='respPicDiv'><img src='img/responseButtonOffersNo0_wht.png' class='respPic'></div></div>","null","2","Matthew","10","Shared","0.8,0.35","11","0.8","trustrating_stim/white_00223_940128_fb_edt.bmp","8.5","32","5"
"html-keyboard-response","152","359023","0.0-19.0-1.5","6108114eaacc3458294b244c","bdp_trlrn","Tue Mar 14 2023 13:17:47 GMT-0400 (Eastern Daylight Time)","910240","Trustworthy,Untrustworthy","","1217","","","","decision","","<div class='trialDiv'><img src='trustrating_stim/white_mw033.bmp'><br><font class='baseline'><strong>Benjamin</strong><p>Choose number of points to send.</font><div class='respPicDiv'><img src='img/responseButtonOffersNo0L.png' class='respPic'></div></div>","4","2","Benjamin","2","Kept","0.8,0.2","8","0.8","trustrating_stim/white_mw033.bmp","5.5","37","6"
"html-keyboard-response","153","359277","0.0-19.0-2.5","6108114eaacc3458294b244c","bdp_trlrn","Tue Mar 14 2023 13:17:47 GMT-0400 (Eastern Daylight Time)","910240","Trustworthy,Untrustworthy","","null","","","","decisionFB","","<div class='trialDiv'><img src='trustrating_stim/white_mw033.bmp'><br><font class='baseline'><strong>Benjamin</strong><p>Choose number of points to send.</font><div class='respPicDiv'><img src='img/responseButtonOffersNo0L4.png' class='respPic'></div></div>","null","2","Benjamin","2","Kept","0.8,0.2","8","0.8","trustrating_stim/white_mw033.bmp","5.5","33","6"
"html-keyboard-response","154","360284","0.0-19.0-3.5","6108114eaacc3458294b244c","bdp_trlrn","Tue Mar 14 2023 13:17:47 GMT-0400 (Eastern Daylight Time)","910240","Trustworthy,Untrustworthy","","null","","","","feedback","","<div class='trialDiv'><img src='trustrating_stim/white_mw033.bmp'><br><font class='baseline'><strong>Benjamin</strong><p>Received: <strong>16</strong></font> &nbsp; &nbsp; &nbsp; &nbsp; &nbsp; &nbsp;<font class='negOutcome'>Shared back: <strong>0</strong></font></font><div class='respPicDiv'><img src='img/responseButtonOffersNo0_wht.png' class='respPic'></div></div>","null","2","Benjamin","2","Kept","0.8,0.2","8","0.8","trustrating_stim/white_mw033.bmp","5.5","33","6"
"html-keyboard-response","155","361912","0.0-19.0-1.6","6108114eaacc3458294b244c","bdp_trlrn","Tue Mar 14 2023 13:17:47 GMT-0400 (Eastern Daylight Time)","910240","Trustworthy,Untrustworthy","","1627","","","","decision","","<div class='trialDiv'><img src='trustrating_stim/white_mw084.bmp'><br><font class='baseline'><strong>Chris</strong><p>Choose number of points to send.</font><div class='respPicDiv'><img src='img/responseButtonOffersNo0L.png' class='respPic'></div></div>","1","3","Chris","7","Kept","0.2,0.65","10","0.2","trustrating_stim/white_mw084.bmp","8","38","7"
"html-keyboard-response","156","362165","0.0-19.0-2.6","6108114eaacc3458294b244c","bdp_trlrn","Tue Mar 14 2023 13:17:47 GMT-0400 (Eastern Daylight Time)","910240","Trustworthy,Untrustworthy","","null","","","","decisionFB","","<div class='trialDiv'><img src='trustrating_stim/white_mw084.bmp'><br><font class='baseline'><strong>Chris</strong><p>Choose number of points to send.</font><div class='respPicDiv'><img src='img/responseButtonOffersNo0L1.png' class='respPic'></div></div>","null","3","Chris","7","Kept","0.2,0.65","10","0.2","trustrating_stim/white_mw084.bmp","8","37","7"
"html-keyboard-response","157","363173","0.0-19.0-3.6","6108114eaacc3458294b244c","bdp_trlrn","Tue Mar 14 2023 13:17:47 GMT-0400 (Eastern Daylight Time)","910240","Trustworthy,Untrustworthy","","null","","","","feedback","","<div class='trialDiv'><img src='trustrating_stim/white_mw084.bmp'><br><font class='baseline'><strong>Chris</strong><p>Received: <strong>4</strong></font> &nbsp; &nbsp; &nbsp; &nbsp; &nbsp; &nbsp;<font class='negOutcome'>Shared back: <strong>0</strong></font></font><div class='respPicDiv'><img src='img/responseButtonOffersNo0_wht.png' class='respPic'></div></div>","null","3","Chris","7","Kept","0.2,0.65","10","0.2","trustrating_stim/white_mw084.bmp","8","37","7"
"html-keyboard-response","158","366504","0.0-19.0-1.7","6108114eaacc3458294b244c","bdp_trlrn","Tue Mar 14 2023 13:17:47 GMT-0400 (Eastern Daylight Time)","910240","Trustworthy,Untrustworthy","","3330","","","","decision","","<div class='trialDiv'><img src='trustrating_stim/white_00223_940128_fb_edt.bmp'><br><font class='baseline'><strong>Matthew</strong><p>Choose number of points to send.</font><div class='respPicDiv'><img src='img/responseButtonOffersNo0L.png' class='respPic'></div></div>","5","3","Matthew","10","Shared","0.8,0.35","11","0.8","trustrating_stim/white_00223_940128_fb_edt.bmp","8.5","42","8"
"html-keyboard-response","159","366756","0.0-19.0-2.7","6108114eaacc3458294b244c","bdp_trlrn","Tue Mar 14 2023 13:17:47 GMT-0400 (Eastern Daylight Time)","910240","Trustworthy,Untrustworthy","","null","","","","decisionFB","","<div class='trialDiv'><img src='trustrating_stim/white_00223_940128_fb_edt.bmp'><br><font class='baseline'><strong>Matthew</strong><p>Choose number of points to send.</font><div class='respPicDiv'><img src='img/responseButtonOffersNo0L5.png' class='respPic'></div></div>","null","3","Matthew","10","Shared","0.8,0.35","11","0.8","trustrating_stim/white_00223_940128_fb_edt.bmp","8.5","37","8"
"html-keyboard-response","160","367768","0.0-19.0-3.7","6108114eaacc3458294b244c","bdp_trlrn","Tue Mar 14 2023 13:17:47 GMT-0400 (Eastern Daylight Time)","910240","Trustworthy,Untrustworthy","","null","","","","feedback","","<div class='trialDiv'><img src='trustrating_stim/white_00223_940128_fb_edt.bmp'><br><font class='baseline'><strong>Matthew</strong><p>Received: <strong>20</strong></font> &nbsp; &nbsp; &nbsp; &nbsp; &nbsp; &nbsp;<font class='posOutcome'>Shared back: <strong>10</strong></font></font><div class='respPicDiv'><img src='img/responseButtonOffersNo0_wht.png' class='respPic'></div></div>","null","3","Matthew","10","Shared","0.8,0.35","11","0.8","trustrating_stim/white_00223_940128_fb_edt.bmp","8.5","47","8"
"html-keyboard-response","161","368853","0.0-19.0-1.8","6108114eaacc3458294b244c","bdp_trlrn","Tue Mar 14 2023 13:17:47 GMT-0400 (Eastern Daylight Time)","910240","Trustworthy,Untrustworthy","","1084","","","","decision","","<div class='trialDiv'><img src='trustrating_stim/white_mw033.bmp'><br><font class='baseline'><strong>Benjamin</strong><p>Choose number of points to send.</font><div class='respPicDiv'><img src='img/responseButtonOffersNo0L.png' class='respPic'></div></div>","3","3","Benjamin","2","Shared","0.8,0.2","8","0.8","trustrating_stim/white_mw033.bmp","5.5","52","9"
"html-keyboard-response","162","369109","0.0-19.0-2.8","6108114eaacc3458294b244c","bdp_trlrn","Tue Mar 14 2023 13:17:47 GMT-0400 (Eastern Daylight Time)","910240","Trustworthy,Untrustworthy","","null","","","","decisionFB","","<div class='trialDiv'><img src='trustrating_stim/white_mw033.bmp'><br><font class='baseline'><strong>Benjamin</strong><p>Choose number of points to send.</font><div class='respPicDiv'><img src='img/responseButtonOffersNo0L3.png' class='respPic'></div></div>","null","3","Benjamin","2","Shared","0.8,0.2","8","0.8","trustrating_stim/white_mw033.bmp","5.5","49","9"
"html-keyboard-response","163","370116","0.0-19.0-3.8","6108114eaacc3458294b244c","bdp_trlrn","Tue Mar 14 2023 13:17:47 GMT-0400 (Eastern Daylight Time)","910240","Trustworthy,Untrustworthy","","null","","","","feedback","","<div class='trialDiv'><img src='trustrating_stim/white_mw033.bmp'><br><font class='baseline'><strong>Benjamin</strong><p>Received: <strong>12</strong></font> &nbsp; &nbsp; &nbsp; &nbsp; &nbsp; &nbsp;<font class='posOutcome'>Shared back: <strong>6</strong></font></font><div class='respPicDiv'><img src='img/responseButtonOffersNo0_wht.png' class='respPic'></div></div>","null","3","Benjamin","2","Shared","0.8,0.2","8","0.8","trustrating_stim/white_mw033.bmp","5.5","55","9"
"html-keyboard-response","164","371896","0.0-19.0-1.9","6108114eaacc3458294b244c","bdp_trlrn","Tue Mar 14 2023 13:17:47 GMT-0400 (Eastern Daylight Time)","910240","Trustworthy,Untrustworthy","","1779","","","","decision","","<div class='trialDiv'><img src='trustrating_stim/white_mw084.bmp'><br><font class='baseline'><strong>Chris</strong><p>Choose number of points to send.</font><div class='respPicDiv'><img src='img/responseButtonOffersNo0L.png' class='respPic'></div></div>","1","4","Chris","7","Kept","0.2,0.65","10","0.2","trustrating_stim/white_mw084.bmp","8","60","10"
"html-keyboard-response","165","372153","0.0-19.0-2.9","6108114eaacc3458294b244c","bdp_trlrn","Tue Mar 14 2023 13:17:47 GMT-0400 (Eastern Daylight Time)","910240","Trustworthy,Untrustworthy","","null","","","","decisionFB","","<div class='trialDiv'><img src='trustrating_stim/white_mw084.bmp'><br><font class='baseline'><strong>Chris</strong><p>Choose number of points to send.</font><div class='respPicDiv'><img src='img/responseButtonOffersNo0L1.png' class='respPic'></div></div>","null","4","Chris","7","Kept","0.2,0.65","10","0.2","trustrating_stim/white_mw084.bmp","8","59","10"
"html-keyboard-response","166","373160","0.0-19.0-3.9","6108114eaacc3458294b244c","bdp_trlrn","Tue Mar 14 2023 13:17:47 GMT-0400 (Eastern Daylight Time)","910240","Trustworthy,Untrustworthy","","null","","","","feedback","","<div class='trialDiv'><img src='trustrating_stim/white_mw084.bmp'><br><font class='baseline'><strong>Chris</strong><p>Received: <strong>4</strong></font> &nbsp; &nbsp; &nbsp; &nbsp; &nbsp; &nbsp;<font class='negOutcome'>Shared back: <strong>0</strong></font></font><div class='respPicDiv'><img src='img/responseButtonOffersNo0_wht.png' class='respPic'></div></div>","null","4","Chris","7","Kept","0.2,0.65","10","0.2","trustrating_stim/white_mw084.bmp","8","59","10"
"html-keyboard-response","167","377013","0.0-19.0-1.10","6108114eaacc3458294b244c","bdp_trlrn","Tue Mar 14 2023 13:17:47 GMT-0400 (Eastern Daylight Time)","910240","Trustworthy,Untrustworthy","","3851","","","","decision","","<div class='trialDiv'><img src='trustrating_stim/white_mw033.bmp'><br><font class='baseline'><strong>Benjamin</strong><p>Choose number of points to send.</font><div class='respPicDiv'><img src='img/responseButtonOffersNo0L.png' class='respPic'></div></div>","5","4","Benjamin","2","Shared","0.8,0.2","8","0.8","trustrating_stim/white_mw033.bmp","5.5","64","11"
"html-keyboard-response","168","377272","0.0-19.0-2.10","6108114eaacc3458294b244c","bdp_trlrn","Tue Mar 14 2023 13:17:47 GMT-0400 (Eastern Daylight Time)","910240","Trustworthy,Untrustworthy","","null","","","","decisionFB","","<div class='trialDiv'><img src='trustrating_stim/white_mw033.bmp'><br><font class='baseline'><strong>Benjamin</strong><p>Choose number of points to send.</font><div class='respPicDiv'><img src='img/responseButtonOffersNo0L5.png' class='respPic'></div></div>","null","4","Benjamin","2","Shared","0.8,0.2","8","0.8","trustrating_stim/white_mw033.bmp","5.5","59","11"
"html-keyboard-response","169","378277","0.0-19.0-3.10","6108114eaacc3458294b244c","bdp_trlrn","Tue Mar 14 2023 13:17:47 GMT-0400 (Eastern Daylight Time)","910240","Trustworthy,Untrustworthy","","null","","","","feedback","","<div class='trialDiv'><img src='trustrating_stim/white_mw033.bmp'><br><font class='baseline'><strong>Benjamin</strong><p>Received: <strong>20</strong></font> &nbsp; &nbsp; &nbsp; &nbsp; &nbsp; &nbsp;<font class='posOutcome'>Shared back: <strong>10</strong></font></font><div class='respPicDiv'><img src='img/responseButtonOffersNo0_wht.png' class='respPic'></div></div>","null","4","Benjamin","2","Shared","0.8,0.2","8","0.8","trustrating_stim/white_mw033.bmp","5.5","69","11"
"html-keyboard-response","170","379359","0.0-19.0-1.11","6108114eaacc3458294b244c","bdp_trlrn","Tue Mar 14 2023 13:17:47 GMT-0400 (Eastern Daylight Time)","910240","Trustworthy,Untrustworthy","","1081","","","","decision","","<div class='trialDiv'><img src='trustrating_stim/white_00223_940128_fb_edt.bmp'><br><font class='baseline'><strong>Matthew</strong><p>Choose number of points to send.</font><div class='respPicDiv'><img src='img/responseButtonOffersNo0L.png' class='respPic'></div></div>","5","4","Matthew","10","Shared","0.8,0.35","11","0.8","trustrating_stim/white_00223_940128_fb_edt.bmp","8.5","74","12"
"html-keyboard-response","171","379615","0.0-19.0-2.11","6108114eaacc3458294b244c","bdp_trlrn","Tue Mar 14 2023 13:17:47 GMT-0400 (Eastern Daylight Time)","910240","Trustworthy,Untrustworthy","","null","","","","decisionFB","","<div class='trialDiv'><img src='trustrating_stim/white_00223_940128_fb_edt.bmp'><br><font class='baseline'><strong>Matthew</strong><p>Choose number of points to send.</font><div class='respPicDiv'><img src='img/responseButtonOffersNo0L5.png' class='respPic'></div></div>","null","4","Matthew","10","Shared","0.8,0.35","11","0.8","trustrating_stim/white_00223_940128_fb_edt.bmp","8.5","69","12"
"html-keyboard-response","172","380622","0.0-19.0-3.11","6108114eaacc3458294b244c","bdp_trlrn","Tue Mar 14 2023 13:17:47 GMT-0400 (Eastern Daylight Time)","910240","Trustworthy,Untrustworthy","","null","","","","feedback","","<div class='trialDiv'><img src='trustrating_stim/white_00223_940128_fb_edt.bmp'><br><font class='baseline'><strong>Matthew</strong><p>Received: <strong>20</strong></font> &nbsp; &nbsp; &nbsp; &nbsp; &nbsp; &nbsp;<font class='posOutcome'>Shared back: <strong>10</strong></font></font><div class='respPicDiv'><img src='img/responseButtonOffersNo0_wht.png' class='respPic'></div></div>","null","4","Matthew","10","Shared","0.8,0.35","11","0.8","trustrating_stim/white_00223_940128_fb_edt.bmp","8.5","79","12"
"html-keyboard-response","173","382403","0.0-19.0-1.12","6108114eaacc3458294b244c","bdp_trlrn","Tue Mar 14 2023 13:17:47 GMT-0400 (Eastern Daylight Time)","910240","Trustworthy,Untrustworthy","","1780","","","","decision","","<div class='trialDiv'><img src='trustrating_stim/white_mw084.bmp'><br><font class='baseline'><strong>Chris</strong><p>Choose number of points to send.</font><div class='respPicDiv'><img src='img/responseButtonOffersNo0L.png' class='respPic'></div></div>","1","5","Chris","7","Shared","0.2,0.65","10","0.2","trustrating_stim/white_mw084.bmp","8","84","13"
"html-keyboard-response","174","382662","0.0-19.0-2.12","6108114eaacc3458294b244c","bdp_trlrn","Tue Mar 14 2023 13:17:47 GMT-0400 (Eastern Daylight Time)","910240","Trustworthy,Untrustworthy","","null","","","","decisionFB","","<div class='trialDiv'><img src='trustrating_stim/white_mw084.bmp'><br><font class='baseline'><strong>Chris</strong><p>Choose number of points to send.</font><div class='respPicDiv'><img src='img/responseButtonOffersNo0L1.png' class='respPic'></div></div>","null","5","Chris","7","Shared","0.2,0.65","10","0.2","trustrating_stim/white_mw084.bmp","8","83","13"
"html-keyboard-response","175","383670","0.0-19.0-3.12","6108114eaacc3458294b244c","bdp_trlrn","Tue Mar 14 2023 13:17:47 GMT-0400 (Eastern Daylight Time)","910240","Trustworthy,Untrustworthy","","null","","","","feedback","","<div class='trialDiv'><img src='trustrating_stim/white_mw084.bmp'><br><font class='baseline'><strong>Chris</strong><p>Received: <strong>4</strong></font> &nbsp; &nbsp; &nbsp; &nbsp; &nbsp; &nbsp;<font class='posOutcome'>Shared back: <strong>2</strong></font></font><div class='respPicDiv'><img src='img/responseButtonOffersNo0_wht.png' class='respPic'></div></div>","null","5","Chris","7","Shared","0.2,0.65","10","0.2","trustrating_stim/white_mw084.bmp","8","85","13"
"html-keyboard-response","176","385298","0.0-19.0-1.13","6108114eaacc3458294b244c","bdp_trlrn","Tue Mar 14 2023 13:17:47 GMT-0400 (Eastern Daylight Time)","910240","Trustworthy,Untrustworthy","","1627","","","","decision","","<div class='trialDiv'><img src='trustrating_stim/white_mw033.bmp'><br><font class='baseline'><strong>Benjamin</strong><p>Choose number of points to send.</font><div class='respPicDiv'><img src='img/responseButtonOffersNo0L.png' class='respPic'></div></div>","4","5","Benjamin","2","Kept","0.8,0.2","8","0.8","trustrating_stim/white_mw033.bmp","5.5","90","14"
"html-keyboard-response","177","385558","0.0-19.0-2.13","6108114eaacc3458294b244c","bdp_trlrn","Tue Mar 14 2023 13:17:47 GMT-0400 (Eastern Daylight Time)","910240","Trustworthy,Untrustworthy","","null","","","","decisionFB","","<div class='trialDiv'><img src='trustrating_stim/white_mw033.bmp'><br><font class='baseline'><strong>Benjamin</strong><p>Choose number of points to send.</font><div class='respPicDiv'><img src='img/responseButtonOffersNo0L4.png' class='respPic'></div></div>","null","5","Benjamin","2","Kept","0.8,0.2","8","0.8","trustrating_stim/white_mw033.bmp","5.5","86","14"
"html-keyboard-response","178","386565","0.0-19.0-3.13","6108114eaacc3458294b244c","bdp_trlrn","Tue Mar 14 2023 13:17:47 GMT-0400 (Eastern Daylight Time)","910240","Trustworthy,Untrustworthy","","null","","","","feedback","","<div class='trialDiv'><img src='trustrating_stim/white_mw033.bmp'><br><font class='baseline'><strong>Benjamin</strong><p>Received: <strong>16</strong></font> &nbsp; &nbsp; &nbsp; &nbsp; &nbsp; &nbsp;<font class='negOutcome'>Shared back: <strong>0</strong></font></font><div class='respPicDiv'><img src='img/responseButtonOffersNo0_wht.png' class='respPic'></div></div>","null","5","Benjamin","2","Kept","0.8,0.2","8","0.8","trustrating_stim/white_mw033.bmp","5.5","86","14"
"html-keyboard-response","179","389105","0.0-19.0-1.14","6108114eaacc3458294b244c","bdp_trlrn","Tue Mar 14 2023 13:17:47 GMT-0400 (Eastern Daylight Time)","910240","Trustworthy,Untrustworthy","","2540","","","","decision","","<div class='trialDiv'><img src='trustrating_stim/white_00223_940128_fb_edt.bmp'><br><font class='baseline'><strong>Matthew</strong><p>Choose number of points to send.</font><div class='respPicDiv'><img src='img/responseButtonOffersNo0L.png' class='respPic'></div></div>","5","5","Matthew","10","Shared","0.8,0.35","11","0.8","trustrating_stim/white_00223_940128_fb_edt.bmp","8.5","91","15"
"html-keyboard-response","180","389358","0.0-19.0-2.14","6108114eaacc3458294b244c","bdp_trlrn","Tue Mar 14 2023 13:17:47 GMT-0400 (Eastern Daylight Time)","910240","Trustworthy,Untrustworthy","","null","","","","decisionFB","","<div class='trialDiv'><img src='trustrating_stim/white_00223_940128_fb_edt.bmp'><br><font class='baseline'><strong>Matthew</strong><p>Choose number of points to send.</font><div class='respPicDiv'><img src='img/responseButtonOffersNo0L5.png' class='respPic'></div></div>","null","5","Matthew","10","Shared","0.8,0.35","11","0.8","trustrating_stim/white_00223_940128_fb_edt.bmp","8.5","86","15"
"html-keyboard-response","181","390367","0.0-19.0-3.14","6108114eaacc3458294b244c","bdp_trlrn","Tue Mar 14 2023 13:17:47 GMT-0400 (Eastern Daylight Time)","910240","Trustworthy,Untrustworthy","","null","","","","feedback","","<div class='trialDiv'><img src='trustrating_stim/white_00223_940128_fb_edt.bmp'><br><font class='baseline'><strong>Matthew</strong><p>Received: <strong>20</strong></font> &nbsp; &nbsp; &nbsp; &nbsp; &nbsp; &nbsp;<font class='posOutcome'>Shared back: <strong>10</strong></font></font><div class='respPicDiv'><img src='img/responseButtonOffersNo0_wht.png' class='respPic'></div></div>","null","5","Matthew","10","Shared","0.8,0.35","11","0.8","trustrating_stim/white_00223_940128_fb_edt.bmp","8.5","96","15"
"html-keyboard-response","182","392903","0.0-19.0-1.15","6108114eaacc3458294b244c","bdp_trlrn","Tue Mar 14 2023 13:17:47 GMT-0400 (Eastern Daylight Time)","910240","Trustworthy,Untrustworthy","","2534","","","","decision","","<div class='trialDiv'><img src='trustrating_stim/white_mw033.bmp'><br><font class='baseline'><strong>Benjamin</strong><p>Choose number of points to send.</font><div class='respPicDiv'><img src='img/responseButtonOffersNo0L.png' class='respPic'></div></div>","3","6","Benjamin","2","Shared","0.8,0.2","8","0.8","trustrating_stim/white_mw033.bmp","5.5","101","16"
"html-keyboard-response","183","393160","0.0-19.0-2.15","6108114eaacc3458294b244c","bdp_trlrn","Tue Mar 14 2023 13:17:47 GMT-0400 (Eastern Daylight Time)","910240","Trustworthy,Untrustworthy","","null","","","","decisionFB","","<div class='trialDiv'><img src='trustrating_stim/white_mw033.bmp'><br><font class='baseline'><strong>Benjamin</strong><p>Choose number of points to send.</font><div class='respPicDiv'><img src='img/responseButtonOffersNo0L3.png' class='respPic'></div></div>","null","6","Benjamin","2","Shared","0.8,0.2","8","0.8","trustrating_stim/white_mw033.bmp","5.5","98","16"
"html-keyboard-response","184","394166","0.0-19.0-3.15","6108114eaacc3458294b244c","bdp_trlrn","Tue Mar 14 2023 13:17:47 GMT-0400 (Eastern Daylight Time)","910240","Trustworthy,Untrustworthy","","null","","","","feedback","","<div class='trialDiv'><img src='trustrating_stim/white_mw033.bmp'><br><font class='baseline'><strong>Benjamin</strong><p>Received: <strong>12</strong></font> &nbsp; &nbsp; &nbsp; &nbsp; &nbsp; &nbsp;<font class='posOutcome'>Shared back: <strong>6</strong></font></font><div class='respPicDiv'><img src='img/responseButtonOffersNo0_wht.png' class='respPic'></div></div>","null","6","Benjamin","2","Shared","0.8,0.2","8","0.8","trustrating_stim/white_mw033.bmp","5.5","104","16"
"html-keyboard-response","185","395359","0.0-19.0-1.16","6108114eaacc3458294b244c","bdp_trlrn","Tue Mar 14 2023 13:17:47 GMT-0400 (Eastern Daylight Time)","910240","Trustworthy,Untrustworthy","","1192","","","","decision","","<div class='trialDiv'><img src='trustrating_stim/white_mw084.bmp'><br><font class='baseline'><strong>Chris</strong><p>Choose number of points to send.</font><div class='respPicDiv'><img src='img/responseButtonOffersNo0L.png' class='respPic'></div></div>","1","6","Chris","7","Kept","0.2,0.65","10","0.2","trustrating_stim/white_mw084.bmp","8","109","17"
"html-keyboard-response","186","395617","0.0-19.0-2.16","6108114eaacc3458294b244c","bdp_trlrn","Tue Mar 14 2023 13:17:47 GMT-0400 (Eastern Daylight Time)","910240","Trustworthy,Untrustworthy","","null","","","","decisionFB","","<div class='trialDiv'><img src='trustrating_stim/white_mw084.bmp'><br><font class='baseline'><strong>Chris</strong><p>Choose number of points to send.</font><div class='respPicDiv'><img src='img/responseButtonOffersNo0L1.png' class='respPic'></div></div>","null","6","Chris","7","Kept","0.2,0.65","10","0.2","trustrating_stim/white_mw084.bmp","8","108","17"
"html-keyboard-response","187","396624","0.0-19.0-3.16","6108114eaacc3458294b244c","bdp_trlrn","Tue Mar 14 2023 13:17:47 GMT-0400 (Eastern Daylight Time)","910240","Trustworthy,Untrustworthy","","null","","","","feedback","","<div class='trialDiv'><img src='trustrating_stim/white_mw084.bmp'><br><font class='baseline'><strong>Chris</strong><p>Received: <strong>4</strong></font> &nbsp; &nbsp; &nbsp; &nbsp; &nbsp; &nbsp;<font class='negOutcome'>Shared back: <strong>0</strong></font></font><div class='respPicDiv'><img src='img/responseButtonOffersNo0_wht.png' class='respPic'></div></div>","null","6","Chris","7","Kept","0.2,0.65","10","0.2","trustrating_stim/white_mw084.bmp","8","108","17"
"html-keyboard-response","188","398082","0.0-19.0-1.17","6108114eaacc3458294b244c","bdp_trlrn","Tue Mar 14 2023 13:17:47 GMT-0400 (Eastern Daylight Time)","910240","Trustworthy,Untrustworthy","","1457","","","","decision","","<div class='trialDiv'><img src='trustrating_stim/white_00223_940128_fb_edt.bmp'><br><font class='baseline'><strong>Matthew</strong><p>Choose number of points to send.</font><div class='respPicDiv'><img src='img/responseButtonOffersNo0L.png' class='respPic'></div></div>","5","6","Matthew","10","Shared","0.8,0.35","11","0.8","trustrating_stim/white_00223_940128_fb_edt.bmp","8.5","113","18"
"html-keyboard-response","189","398334","0.0-19.0-2.17","6108114eaacc3458294b244c","bdp_trlrn","Tue Mar 14 2023 13:17:47 GMT-0400 (Eastern Daylight Time)","910240","Trustworthy,Untrustworthy","","null","","","","decisionFB","","<div class='trialDiv'><img src='trustrating_stim/white_00223_940128_fb_edt.bmp'><br><font class='baseline'><strong>Matthew</strong><p>Choose number of points to send.</font><div class='respPicDiv'><img src='img/responseButtonOffersNo0L5.png' class='respPic'></div></div>","null","6","Matthew","10","Shared","0.8,0.35","11","0.8","trustrating_stim/white_00223_940128_fb_edt.bmp","8.5","108","18"
"html-keyboard-response","190","399345","0.0-19.0-3.17","6108114eaacc3458294b244c","bdp_trlrn","Tue Mar 14 2023 13:17:47 GMT-0400 (Eastern Daylight Time)","910240","Trustworthy,Untrustworthy","","null","","","","feedback","","<div class='trialDiv'><img src='trustrating_stim/white_00223_940128_fb_edt.bmp'><br><font class='baseline'><strong>Matthew</strong><p>Received: <strong>20</strong></font> &nbsp; &nbsp; &nbsp; &nbsp; &nbsp; &nbsp;<font class='posOutcome'>Shared back: <strong>10</strong></font></font><div class='respPicDiv'><img src='img/responseButtonOffersNo0_wht.png' class='respPic'></div></div>","null","6","Matthew","10","Shared","0.8,0.35","11","0.8","trustrating_stim/white_00223_940128_fb_edt.bmp","8.5","118","18"
"html-keyboard-response","191","400968","0.0-19.0-1.18","6108114eaacc3458294b244c","bdp_trlrn","Tue Mar 14 2023 13:17:47 GMT-0400 (Eastern Daylight Time)","910240","Trustworthy,Untrustworthy","","1622","","","","decision","","<div class='trialDiv'><img src='trustrating_stim/white_mw033.bmp'><br><font class='baseline'><strong>Benjamin</strong><p>Choose number of points to send.</font><div class='respPicDiv'><img src='img/responseButtonOffersNo0L.png' class='respPic'></div></div>","3","7","Benjamin","2","Shared","0.8,0.2","8","0.8","trustrating_stim/white_mw033.bmp","5.5","123","19"
"html-keyboard-response","192","401222","0.0-19.0-2.18","6108114eaacc3458294b244c","bdp_trlrn","Tue Mar 14 2023 13:17:47 GMT-0400 (Eastern Daylight Time)","910240","Trustworthy,Untrustworthy","","null","","","","decisionFB","","<div class='trialDiv'><img src='trustrating_stim/white_mw033.bmp'><br><font class='baseline'><strong>Benjamin</strong><p>Choose number of points to send.</font><div class='respPicDiv'><img src='img/responseButtonOffersNo0L3.png' class='respPic'></div></div>","null","7","Benjamin","2","Shared","0.8,0.2","8","0.8","trustrating_stim/white_mw033.bmp","5.5","120","19"
"html-keyboard-response","193","402234","0.0-19.0-3.18","6108114eaacc3458294b244c","bdp_trlrn","Tue Mar 14 2023 13:17:47 GMT-0400 (Eastern Daylight Time)","910240","Trustworthy,Untrustworthy","","null","","","","feedback","","<div class='trialDiv'><img src='trustrating_stim/white_mw033.bmp'><br><font class='baseline'><strong>Benjamin</strong><p>Received: <strong>12</strong></font> &nbsp; &nbsp; &nbsp; &nbsp; &nbsp; &nbsp;<font class='posOutcome'>Shared back: <strong>6</strong></font></font><div class='respPicDiv'><img src='img/responseButtonOffersNo0_wht.png' class='respPic'></div></div>","null","7","Benjamin","2","Shared","0.8,0.2","8","0.8","trustrating_stim/white_mw033.bmp","5.5","126","19"
"html-keyboard-response","194","403309","0.0-19.0-1.19","6108114eaacc3458294b244c","bdp_trlrn","Tue Mar 14 2023 13:17:47 GMT-0400 (Eastern Daylight Time)","910240","Trustworthy,Untrustworthy","","1074","","","","decision","","<div class='trialDiv'><img src='trustrating_stim/white_mw084.bmp'><br><font class='baseline'><strong>Chris</strong><p>Choose number of points to send.</font><div class='respPicDiv'><img src='img/responseButtonOffersNo0L.png' class='respPic'></div></div>","1","7","Chris","7","Kept","0.2,0.65","10","0.2","trustrating_stim/white_mw084.bmp","8","131","20"
"html-keyboard-response","195","403566","0.0-19.0-2.19","6108114eaacc3458294b244c","bdp_trlrn","Tue Mar 14 2023 13:17:47 GMT-0400 (Eastern Daylight Time)","910240","Trustworthy,Untrustworthy","","null","","","","decisionFB","","<div class='trialDiv'><img src='trustrating_stim/white_mw084.bmp'><br><font class='baseline'><strong>Chris</strong><p>Choose number of points to send.</font><div class='respPicDiv'><img src='img/responseButtonOffersNo0L1.png' class='respPic'></div></div>","null","7","Chris","7","Kept","0.2,0.65","10","0.2","trustrating_stim/white_mw084.bmp","8","130","20"
"html-keyboard-response","196","404574","0.0-19.0-3.19","6108114eaacc3458294b244c","bdp_trlrn","Tue Mar 14 2023 13:17:47 GMT-0400 (Eastern Daylight Time)","910240","Trustworthy,Untrustworthy","","null","","","","feedback","","<div class='trialDiv'><img src='trustrating_stim/white_mw084.bmp'><br><font class='baseline'><strong>Chris</strong><p>Received: <strong>4</strong></font> &nbsp; &nbsp; &nbsp; &nbsp; &nbsp; &nbsp;<font class='negOutcome'>Shared back: <strong>0</strong></font></font><div class='respPicDiv'><img src='img/responseButtonOffersNo0_wht.png' class='respPic'></div></div>","null","7","Chris","7","Kept","0.2,0.65","10","0.2","trustrating_stim/white_mw084.bmp","8","130","20"
"html-keyboard-response","197","407210","0.0-19.0-1.20","6108114eaacc3458294b244c","bdp_trlrn","Tue Mar 14 2023 13:17:47 GMT-0400 (Eastern Daylight Time)","910240","Trustworthy,Untrustworthy","","2635","","","","decision","","<div class='trialDiv'><img src='trustrating_stim/white_00223_940128_fb_edt.bmp'><br><font class='baseline'><strong>Matthew</strong><p>Choose number of points to send.</font><div class='respPicDiv'><img src='img/responseButtonOffersNo0L.png' class='respPic'></div></div>","5","7","Matthew","10","Shared","0.8,0.35","11","0.8","trustrating_stim/white_00223_940128_fb_edt.bmp","8.5","135","21"
"html-keyboard-response","198","407463","0.0-19.0-2.20","6108114eaacc3458294b244c","bdp_trlrn","Tue Mar 14 2023 13:17:47 GMT-0400 (Eastern Daylight Time)","910240","Trustworthy,Untrustworthy","","null","","","","decisionFB","","<div class='trialDiv'><img src='trustrating_stim/white_00223_940128_fb_edt.bmp'><br><font class='baseline'><strong>Matthew</strong><p>Choose number of points to send.</font><div class='respPicDiv'><img src='img/responseButtonOffersNo0L5.png' class='respPic'></div></div>","null","7","Matthew","10","Shared","0.8,0.35","11","0.8","trustrating_stim/white_00223_940128_fb_edt.bmp","8.5","130","21"
"html-keyboard-response","199","408470","0.0-19.0-3.20","6108114eaacc3458294b244c","bdp_trlrn","Tue Mar 14 2023 13:17:47 GMT-0400 (Eastern Daylight Time)","910240","Trustworthy,Untrustworthy","","null","","","","feedback","","<div class='trialDiv'><img src='trustrating_stim/white_00223_940128_fb_edt.bmp'><br><font class='baseline'><strong>Matthew</strong><p>Received: <strong>20</strong></font> &nbsp; &nbsp; &nbsp; &nbsp; &nbsp; &nbsp;<font class='posOutcome'>Shared back: <strong>10</strong></font></font><div class='respPicDiv'><img src='img/responseButtonOffersNo0_wht.png' class='respPic'></div></div>","null","7","Matthew","10","Shared","0.8,0.35","11","0.8","trustrating_stim/white_00223_940128_fb_edt.bmp","8.5","140","21"
"html-keyboard-response","200","411329","0.0-19.0-1.21","6108114eaacc3458294b244c","bdp_trlrn","Tue Mar 14 2023 13:17:47 GMT-0400 (Eastern Daylight Time)","910240","Trustworthy,Untrustworthy","","2858","","","","decision","","<div class='trialDiv'><img src='trustrating_stim/white_mw033.bmp'><br><font class='baseline'><strong>Benjamin</strong><p>Choose number of points to send.</font><div class='respPicDiv'><img src='img/responseButtonOffersNo0L.png' class='respPic'></div></div>","3","8","Benjamin","2","Kept","0.8,0.2","8","0.8","trustrating_stim/white_mw033.bmp","5.5","145","22"
"html-keyboard-response","201","411585","0.0-19.0-2.21","6108114eaacc3458294b244c","bdp_trlrn","Tue Mar 14 2023 13:17:47 GMT-0400 (Eastern Daylight Time)","910240","Trustworthy,Untrustworthy","","null","","","","decisionFB","","<div class='trialDiv'><img src='trustrating_stim/white_mw033.bmp'><br><font class='baseline'><strong>Benjamin</strong><p>Choose number of points to send.</font><div class='respPicDiv'><img src='img/responseButtonOffersNo0L3.png' class='respPic'></div></div>","null","8","Benjamin","2","Kept","0.8,0.2","8","0.8","trustrating_stim/white_mw033.bmp","5.5","142","22"
"html-keyboard-response","202","412591","0.0-19.0-3.21","6108114eaacc3458294b244c","bdp_trlrn","Tue Mar 14 2023 13:17:47 GMT-0400 (Eastern Daylight Time)","910240","Trustworthy,Untrustworthy","","null","","","","feedback","","<div class='trialDiv'><img src='trustrating_stim/white_mw033.bmp'><br><font class='baseline'><strong>Benjamin</strong><p>Received: <strong>12</strong></font> &nbsp; &nbsp; &nbsp; &nbsp; &nbsp; &nbsp;<font class='negOutcome'>Shared back: <strong>0</strong></font></font><div class='respPicDiv'><img src='img/responseButtonOffersNo0_wht.png' class='respPic'></div></div>","null","8","Benjamin","2","Kept","0.8,0.2","8","0.8","trustrating_stim/white_mw033.bmp","5.5","142","22"
"html-keyboard-response","203","417129","0.0-19.0-1.22","6108114eaacc3458294b244c","bdp_trlrn","Tue Mar 14 2023 13:17:47 GMT-0400 (Eastern Daylight Time)","910240","Trustworthy,Untrustworthy","","4537","","","","decision","","<div class='trialDiv'><img src='trustrating_stim/white_mw084.bmp'><br><font class='baseline'><strong>Chris</strong><p>Choose number of points to send.</font><div class='respPicDiv'><img src='img/responseButtonOffersNo0L.png' class='respPic'></div></div>","1","8","Chris","7","Shared","0.2,0.65","10","0.2","trustrating_stim/white_mw084.bmp","8","147","23"
"html-keyboard-response","204","417383","0.0-19.0-2.22","6108114eaacc3458294b244c","bdp_trlrn","Tue Mar 14 2023 13:17:47 GMT-0400 (Eastern Daylight Time)","910240","Trustworthy,Untrustworthy","","null","","","","decisionFB","","<div class='trialDiv'><img src='trustrating_stim/white_mw084.bmp'><br><font class='baseline'><strong>Chris</strong><p>Choose number of points to send.</font><div class='respPicDiv'><img src='img/responseButtonOffersNo0L1.png' class='respPic'></div></div>","null","8","Chris","7","Shared","0.2,0.65","10","0.2","trustrating_stim/white_mw084.bmp","8","146","23"
"html-keyboard-response","205","418391","0.0-19.0-3.22","6108114eaacc3458294b244c","bdp_trlrn","Tue Mar 14 2023 13:17:47 GMT-0400 (Eastern Daylight Time)","910240","Trustworthy,Untrustworthy","","null","","","","feedback","","<div class='trialDiv'><img src='trustrating_stim/white_mw084.bmp'><br><font class='baseline'><strong>Chris</strong><p>Received: <strong>4</strong></font> &nbsp; &nbsp; &nbsp; &nbsp; &nbsp; &nbsp;<font class='posOutcome'>Shared back: <strong>2</strong></font></font><div class='respPicDiv'><img src='img/responseButtonOffersNo0_wht.png' class='respPic'></div></div>","null","8","Chris","7","Shared","0.2,0.65","10","0.2","trustrating_stim/white_mw084.bmp","8","148","23"
"html-keyboard-response","206","420472","0.0-19.0-1.23","6108114eaacc3458294b244c","bdp_trlrn","Tue Mar 14 2023 13:17:47 GMT-0400 (Eastern Daylight Time)","910240","Trustworthy,Untrustworthy","","2080","","","","decision","","<div class='trialDiv'><img src='trustrating_stim/white_00223_940128_fb_edt.bmp'><br><font class='baseline'><strong>Matthew</strong><p>Choose number of points to send.</font><div class='respPicDiv'><img src='img/responseButtonOffersNo0L.png' class='respPic'></div></div>","5","8","Matthew","10","Shared","0.8,0.35","11","0.8","trustrating_stim/white_00223_940128_fb_edt.bmp","8.5","153","24"
"html-keyboard-response","207","420727","0.0-19.0-2.23","6108114eaacc3458294b244c","bdp_trlrn","Tue Mar 14 2023 13:17:47 GMT-0400 (Eastern Daylight Time)","910240","Trustworthy,Untrustworthy","","null","","","","decisionFB","","<div class='trialDiv'><img src='trustrating_stim/white_00223_940128_fb_edt.bmp'><br><font class='baseline'><strong>Matthew</strong><p>Choose number of points to send.</font><div class='respPicDiv'><img src='img/responseButtonOffersNo0L5.png' class='respPic'></div></div>","null","8","Matthew","10","Shared","0.8,0.35","11","0.8","trustrating_stim/white_00223_940128_fb_edt.bmp","8.5","148","24"
"html-keyboard-response","208","421738","0.0-19.0-3.23","6108114eaacc3458294b244c","bdp_trlrn","Tue Mar 14 2023 13:17:47 GMT-0400 (Eastern Daylight Time)","910240","Trustworthy,Untrustworthy","","null","","","","feedback","","<div class='trialDiv'><img src='trustrating_stim/white_00223_940128_fb_edt.bmp'><br><font class='baseline'><strong>Matthew</strong><p>Received: <strong>20</strong></font> &nbsp; &nbsp; &nbsp; &nbsp; &nbsp; &nbsp;<font class='posOutcome'>Shared back: <strong>10</strong></font></font><div class='respPicDiv'><img src='img/responseButtonOffersNo0_wht.png' class='respPic'></div></div>","null","8","Matthew","10","Shared","0.8,0.35","11","0.8","trustrating_stim/white_00223_940128_fb_edt.bmp","8.5","158","24"
"html-keyboard-response","209","423253","0.0-19.0-1.24","6108114eaacc3458294b244c","bdp_trlrn","Tue Mar 14 2023 13:17:47 GMT-0400 (Eastern Daylight Time)","910240","Trustworthy,Untrustworthy","","1514","","","","decision","","<div class='trialDiv'><img src='trustrating_stim/white_mw033.bmp'><br><font class='baseline'><strong>Benjamin</strong><p>Choose number of points to send.</font><div class='respPicDiv'><img src='img/responseButtonOffersNo0L.png' class='respPic'></div></div>","5","9","Benjamin","2","Kept","0.8,0.2","8","0.8","trustrating_stim/white_mw033.bmp","5.5","163","25"
"html-keyboard-response","210","423512","0.0-19.0-2.24","6108114eaacc3458294b244c","bdp_trlrn","Tue Mar 14 2023 13:17:47 GMT-0400 (Eastern Daylight Time)","910240","Trustworthy,Untrustworthy","","null","","","","decisionFB","","<div class='trialDiv'><img src='trustrating_stim/white_mw033.bmp'><br><font class='baseline'><strong>Benjamin</strong><p>Choose number of points to send.</font><div class='respPicDiv'><img src='img/responseButtonOffersNo0L5.png' class='respPic'></div></div>","null","9","Benjamin","2","Kept","0.8,0.2","8","0.8","trustrating_stim/white_mw033.bmp","5.5","158","25"
"html-keyboard-response","211","424520","0.0-19.0-3.24","6108114eaacc3458294b244c","bdp_trlrn","Tue Mar 14 2023 13:17:47 GMT-0400 (Eastern Daylight Time)","910240","Trustworthy,Untrustworthy","","null","","","","feedback","","<div class='trialDiv'><img src='trustrating_stim/white_mw033.bmp'><br><font class='baseline'><strong>Benjamin</strong><p>Received: <strong>20</strong></font> &nbsp; &nbsp; &nbsp; &nbsp; &nbsp; &nbsp;<font class='negOutcome'>Shared back: <strong>0</strong></font></font><div class='respPicDiv'><img src='img/responseButtonOffersNo0_wht.png' class='respPic'></div></div>","null","9","Benjamin","2","Kept","0.8,0.2","8","0.8","trustrating_stim/white_mw033.bmp","5.5","158","25"
"html-keyboard-response","212","425631","0.0-19.0-1.25","6108114eaacc3458294b244c","bdp_trlrn","Tue Mar 14 2023 13:17:47 GMT-0400 (Eastern Daylight Time)","910240","Trustworthy,Untrustworthy","","1110","","","","decision","","<div class='trialDiv'><img src='trustrating_stim/white_mw084.bmp'><br><font class='baseline'><strong>Chris</strong><p>Choose number of points to send.</font><div class='respPicDiv'><img src='img/responseButtonOffersNo0L.png' class='respPic'></div></div>","1","9","Chris","7","Kept","0.2,0.65","10","0.2","trustrating_stim/white_mw084.bmp","8","163","26"
"html-keyboard-response","213","425887","0.0-19.0-2.25","6108114eaacc3458294b244c","bdp_trlrn","Tue Mar 14 2023 13:17:47 GMT-0400 (Eastern Daylight Time)","910240","Trustworthy,Untrustworthy","","null","","","","decisionFB","","<div class='trialDiv'><img src='trustrating_stim/white_mw084.bmp'><br><font class='baseline'><strong>Chris</strong><p>Choose number of points to send.</font><div class='respPicDiv'><img src='img/responseButtonOffersNo0L1.png' class='respPic'></div></div>","null","9","Chris","7","Kept","0.2,0.65","10","0.2","trustrating_stim/white_mw084.bmp","8","162","26"
"html-keyboard-response","214","426899","0.0-19.0-3.25","6108114eaacc3458294b244c","bdp_trlrn","Tue Mar 14 2023 13:17:47 GMT-0400 (Eastern Daylight Time)","910240","Trustworthy,Untrustworthy","","null","","","","feedback","","<div class='trialDiv'><img src='trustrating_stim/white_mw084.bmp'><br><font class='baseline'><strong>Chris</strong><p>Received: <strong>4</strong></font> &nbsp; &nbsp; &nbsp; &nbsp; &nbsp; &nbsp;<font class='negOutcome'>Shared back: <strong>0</strong></font></font><div class='respPicDiv'><img src='img/responseButtonOffersNo0_wht.png' class='respPic'></div></div>","null","9","Chris","7","Kept","0.2,0.65","10","0.2","trustrating_stim/white_mw084.bmp","8","162","26"
"html-keyboard-response","215","428007","0.0-19.0-1.26","6108114eaacc3458294b244c","bdp_trlrn","Tue Mar 14 2023 13:17:47 GMT-0400 (Eastern Daylight Time)","910240","Trustworthy,Untrustworthy","","1108","","","","decision","","<div class='trialDiv'><img src='trustrating_stim/white_00223_940128_fb_edt.bmp'><br><font class='baseline'><strong>Matthew</strong><p>Choose number of points to send.</font><div class='respPicDiv'><img src='img/responseButtonOffersNo0L.png' class='respPic'></div></div>","5","9","Matthew","10","Shared","0.8,0.35","11","0.8","trustrating_stim/white_00223_940128_fb_edt.bmp","8.5","167","27"
"html-keyboard-response","216","428265","0.0-19.0-2.26","6108114eaacc3458294b244c","bdp_trlrn","Tue Mar 14 2023 13:17:47 GMT-0400 (Eastern Daylight Time)","910240","Trustworthy,Untrustworthy","","null","","","","decisionFB","","<div class='trialDiv'><img src='trustrating_stim/white_00223_940128_fb_edt.bmp'><br><font class='baseline'><strong>Matthew</strong><p>Choose number of points to send.</font><div class='respPicDiv'><img src='img/responseButtonOffersNo0L5.png' class='respPic'></div></div>","null","9","Matthew","10","Shared","0.8,0.35","11","0.8","trustrating_stim/white_00223_940128_fb_edt.bmp","8.5","162","27"
"html-keyboard-response","217","429272","0.0-19.0-3.26","6108114eaacc3458294b244c","bdp_trlrn","Tue Mar 14 2023 13:17:47 GMT-0400 (Eastern Daylight Time)","910240","Trustworthy,Untrustworthy","","null","","","","feedback","","<div class='trialDiv'><img src='trustrating_stim/white_00223_940128_fb_edt.bmp'><br><font class='baseline'><strong>Matthew</strong><p>Received: <strong>20</strong></font> &nbsp; &nbsp; &nbsp; &nbsp; &nbsp; &nbsp;<font class='posOutcome'>Shared back: <strong>10</strong></font></font><div class='respPicDiv'><img src='img/responseButtonOffersNo0_wht.png' class='respPic'></div></div>","null","9","Matthew","10","Shared","0.8,0.35","11","0.8","trustrating_stim/white_00223_940128_fb_edt.bmp","8.5","172","27"
"html-keyboard-response","218","430341","0.0-19.0-1.27","6108114eaacc3458294b244c","bdp_trlrn","Tue Mar 14 2023 13:17:47 GMT-0400 (Eastern Daylight Time)","910240","Trustworthy,Untrustworthy","","1069","","","","decision","","<div class='trialDiv'><img src='trustrating_stim/white_mw033.bmp'><br><font class='baseline'><strong>Benjamin</strong><p>Choose number of points to send.</font><div class='respPicDiv'><img src='img/responseButtonOffersNo0L.png' class='respPic'></div></div>","1","10","Benjamin","2","Kept","0.8,0.2","8","0.8","trustrating_stim/white_mw033.bmp","5.5","177","28"
"html-keyboard-response","219","430600","0.0-19.0-2.27","6108114eaacc3458294b244c","bdp_trlrn","Tue Mar 14 2023 13:17:47 GMT-0400 (Eastern Daylight Time)","910240","Trustworthy,Untrustworthy","","null","","","","decisionFB","","<div class='trialDiv'><img src='trustrating_stim/white_mw033.bmp'><br><font class='baseline'><strong>Benjamin</strong><p>Choose number of points to send.</font><div class='respPicDiv'><img src='img/responseButtonOffersNo0L1.png' class='respPic'></div></div>","null","10","Benjamin","2","Kept","0.8,0.2","8","0.8","trustrating_stim/white_mw033.bmp","5.5","176","28"
"html-keyboard-response","220","431607","0.0-19.0-3.27","6108114eaacc3458294b244c","bdp_trlrn","Tue Mar 14 2023 13:17:47 GMT-0400 (Eastern Daylight Time)","910240","Trustworthy,Untrustworthy","","null","","","","feedback","","<div class='trialDiv'><img src='trustrating_stim/white_mw033.bmp'><br><font class='baseline'><strong>Benjamin</strong><p>Received: <strong>4</strong></font> &nbsp; &nbsp; &nbsp; &nbsp; &nbsp; &nbsp;<font class='negOutcome'>Shared back: <strong>0</strong></font></font><div class='respPicDiv'><img src='img/responseButtonOffersNo0_wht.png' class='respPic'></div></div>","null","10","Benjamin","2","Kept","0.8,0.2","8","0.8","trustrating_stim/white_mw033.bmp","5.5","176","28"
