"trial_type","trial_index","time_elapsed","internal_node_id","subject_id","task","startTime","totalTime","labels","view_history","rt","event","trial","time","trialtype","success","stimulus","key_press","aground","name","face","outcome","agenttype","agentswpt","agentcurrpshare","point_total","round"
"pavlovia","0","3","0.0-0.0","603f2ea779e354025b981c15","bdp_trlrn","Tue May 11 2021 22:11:28 GMT-0500 (Central Daylight Time)","606302","Untrustworthy,Trustworthy","","","","","","","","","","","","","","","","","",""
"instructions","1","4443","0.0-1.0","603f2ea779e354025b981c15","bdp_trlrn","Tue May 11 2021 22:11:28 GMT-0500 (Central Daylight Time)","606302","Untrustworthy,Trustworthy","[{""page_index"":0,""viewing_time"":4440}]","4440","","","","","","","","","","","","","","","",""
"","","","","603f2ea779e354025b981c15","bdp_trlrn","Tue May 11 2021 22:11:28 GMT-0500 (Central Daylight Time)","606302","Untrustworthy,Trustworthy","","","fullscreenenter","2","6018","fullscreenenter","","","","","","","","","","","",""
"fullscreen","2","7005","0.0-2.0","603f2ea779e354025b981c15","bdp_trlrn","Tue May 11 2021 22:11:28 GMT-0500 (Central Daylight Time)","606302","Untrustworthy,Trustworthy","","","","","","","true","","","","","","","","","","",""
"instructions","3","32407","0.0-4.0","603f2ea779e354025b981c15","bdp_trlrn","Tue May 11 2021 22:11:28 GMT-0500 (Central Daylight Time)","606302","Untrustworthy,Trustworthy","[{""page_index"":0,""viewing_time"":7843},{""page_index"":1,""viewing_time"":17553}]","25396","","","","","","","","","","","","","","","",""
"instructions","4","33600","0.0-5.0","603f2ea779e354025b981c15","bdp_trlrn","Tue May 11 2021 22:11:28 GMT-0500 (Central Daylight Time)","606302","Untrustworthy,Trustworthy","[{""page_index"":0,""viewing_time"":1191}]","1191","","","","","","","","","","","","","","","",""
"image-keyboard-response","5","38262","0.0-6.0-1.0","603f2ea779e354025b981c15","bdp_trlrn","Tue May 11 2021 22:11:28 GMT-0500 (Central Daylight Time)","606302","Untrustworthy,Trustworthy","","4558","","","","rating","","trustrating_stim/white_mw089.bmp","4","","","","","","","","",""
"image-keyboard-response","6","38463","0.0-6.0-2.0","603f2ea779e354025b981c15","bdp_trlrn","Tue May 11 2021 22:11:28 GMT-0500 (Central Daylight Time)","606302","Untrustworthy,Trustworthy","","null","","","","ratingFB","","trustrating_stim/white_mw089.bmp","null","","","","","","","","",""
"image-keyboard-response","7","41767","0.0-6.0-1.1","603f2ea779e354025b981c15","bdp_trlrn","Tue May 11 2021 22:11:28 GMT-0500 (Central Daylight Time)","606302","Untrustworthy,Trustworthy","","3198","","","","rating","","trustrating_stim/white_00109_931230_fa_edt.bmp","7","","","","","","","","",""
"image-keyboard-response","8","41973","0.0-6.0-2.1","603f2ea779e354025b981c15","bdp_trlrn","Tue May 11 2021 22:11:28 GMT-0500 (Central Daylight Time)","606302","Untrustworthy,Trustworthy","","null","","","","ratingFB","","trustrating_stim/white_00109_931230_fa_edt.bmp","null","","","","","","","","",""
"image-keyboard-response","9","43769","0.0-6.0-1.2","603f2ea779e354025b981c15","bdp_trlrn","Tue May 11 2021 22:11:28 GMT-0500 (Central Daylight Time)","606302","Untrustworthy,Trustworthy","","1692","","","","rating","","trustrating_stim/white_mw044.bmp","2","","","","","","","","",""
"image-keyboard-response","10","43973","0.0-6.0-2.2","603f2ea779e354025b981c15","bdp_trlrn","Tue May 11 2021 22:11:28 GMT-0500 (Central Daylight Time)","606302","Untrustworthy,Trustworthy","","null","","","","ratingFB","","trustrating_stim/white_mw044.bmp","null","","","","","","","","",""
"image-keyboard-response","11","46681","0.0-6.0-1.3","603f2ea779e354025b981c15","bdp_trlrn","Tue May 11 2021 22:11:28 GMT-0500 (Central Daylight Time)","606302","Untrustworthy,Trustworthy","","2604","","","","rating","","trustrating_stim/white_mw085.bmp","5","","","","","","","","",""
"image-keyboard-response","12","46885","0.0-6.0-2.3","603f2ea779e354025b981c15","bdp_trlrn","Tue May 11 2021 22:11:28 GMT-0500 (Central Daylight Time)","606302","Untrustworthy,Trustworthy","","null","","","","ratingFB","","trustrating_stim/white_mw085.bmp","null","","","","","","","","",""
"image-keyboard-response","13","48809","0.0-6.0-1.4","603f2ea779e354025b981c15","bdp_trlrn","Tue May 11 2021 22:11:28 GMT-0500 (Central Daylight Time)","606302","Untrustworthy,Trustworthy","","1820","","","","rating","","trustrating_stim/white_mw051.bmp","5","","","","","","","","",""
"image-keyboard-response","14","49013","0.0-6.0-2.4","603f2ea779e354025b981c15","bdp_trlrn","Tue May 11 2021 22:11:28 GMT-0500 (Central Daylight Time)","606302","Untrustworthy,Trustworthy","","null","","","","ratingFB","","trustrating_stim/white_mw051.bmp","null","","","","","","","","",""
"image-keyboard-response","15","50921","0.0-6.0-1.5","603f2ea779e354025b981c15","bdp_trlrn","Tue May 11 2021 22:11:28 GMT-0500 (Central Daylight Time)","606302","Untrustworthy,Trustworthy","","1806","","","","rating","","trustrating_stim/white_00657_941121_fa_edt.bmp","9","","","","","","","","",""
"image-keyboard-response","16","51125","0.0-6.0-2.5","603f2ea779e354025b981c15","bdp_trlrn","Tue May 11 2021 22:11:28 GMT-0500 (Central Daylight Time)","606302","Untrustworthy,Trustworthy","","null","","","","ratingFB","","trustrating_stim/white_00657_941121_fa_edt.bmp","null","","","","","","","","",""
"image-keyboard-response","17","55796","0.0-6.0-1.6","603f2ea779e354025b981c15","bdp_trlrn","Tue May 11 2021 22:11:28 GMT-0500 (Central Daylight Time)","606302","Untrustworthy,Trustworthy","","4567","","","","rating","","trustrating_stim/white_00120_931230_fa_edt.bmp","7","","","","","","","","",""
"image-keyboard-response","18","55999","0.0-6.0-2.6","603f2ea779e354025b981c15","bdp_trlrn","Tue May 11 2021 22:11:28 GMT-0500 (Central Daylight Time)","606302","Untrustworthy,Trustworthy","","null","","","","ratingFB","","trustrating_stim/white_00120_931230_fa_edt.bmp","null","","","","","","","","",""
"image-keyboard-response","19","58890","0.0-6.0-1.7","603f2ea779e354025b981c15","bdp_trlrn","Tue May 11 2021 22:11:28 GMT-0500 (Central Daylight Time)","606302","Untrustworthy,Trustworthy","","2788","","","","rating","","trustrating_stim/white_mw099.bmp","4","","","","","","","","",""
"image-keyboard-response","20","59093","0.0-6.0-2.7","603f2ea779e354025b981c15","bdp_trlrn","Tue May 11 2021 22:11:28 GMT-0500 (Central Daylight Time)","606302","Untrustworthy,Trustworthy","","null","","","","ratingFB","","trustrating_stim/white_mw099.bmp","null","","","","","","","","",""
"image-keyboard-response","21","61055","0.0-6.0-1.8","603f2ea779e354025b981c15","bdp_trlrn","Tue May 11 2021 22:11:28 GMT-0500 (Central Daylight Time)","606302","Untrustworthy,Trustworthy","","1855","","","","rating","","trustrating_stim/white_mw084.bmp","5","","","","","","","","",""
"image-keyboard-response","22","61258","0.0-6.0-2.8","603f2ea779e354025b981c15","bdp_trlrn","Tue May 11 2021 22:11:28 GMT-0500 (Central Daylight Time)","606302","Untrustworthy,Trustworthy","","null","","","","ratingFB","","trustrating_stim/white_mw084.bmp","null","","","","","","","","",""
"image-keyboard-response","23","62810","0.0-6.0-1.9","603f2ea779e354025b981c15","bdp_trlrn","Tue May 11 2021 22:11:28 GMT-0500 (Central Daylight Time)","606302","Untrustworthy,Trustworthy","","1450","","","","rating","","trustrating_stim/white_mw071.bmp","1","","","","","","","","",""
"image-keyboard-response","24","63013","0.0-6.0-2.9","603f2ea779e354025b981c15","bdp_trlrn","Tue May 11 2021 22:11:28 GMT-0500 (Central Daylight Time)","606302","Untrustworthy,Trustworthy","","null","","","","ratingFB","","trustrating_stim/white_mw071.bmp","null","","","","","","","","",""
"image-keyboard-response","25","64593","0.0-6.0-1.10","603f2ea779e354025b981c15","bdp_trlrn","Tue May 11 2021 22:11:28 GMT-0500 (Central Daylight Time)","606302","Untrustworthy,Trustworthy","","1477","","","","rating","","trustrating_stim/white_00253_940128_fa_edt.bmp","2","","","","","","","","",""
"image-keyboard-response","26","64794","0.0-6.0-2.10","603f2ea779e354025b981c15","bdp_trlrn","Tue May 11 2021 22:11:28 GMT-0500 (Central Daylight Time)","606302","Untrustworthy,Trustworthy","","null","","","","ratingFB","","trustrating_stim/white_00253_940128_fa_edt.bmp","null","","","","","","","","",""
"image-keyboard-response","27","66776","0.0-6.0-1.11","603f2ea779e354025b981c15","bdp_trlrn","Tue May 11 2021 22:11:28 GMT-0500 (Central Daylight Time)","606302","Untrustworthy,Trustworthy","","1880","","","","rating","","trustrating_stim/white_mw019.bmp","5","","","","","","","","",""
"image-keyboard-response","28","66981","0.0-6.0-2.11","603f2ea779e354025b981c15","bdp_trlrn","Tue May 11 2021 22:11:28 GMT-0500 (Central Daylight Time)","606302","Untrustworthy,Trustworthy","","null","","","","ratingFB","","trustrating_stim/white_mw019.bmp","null","","","","","","","","",""
"image-keyboard-response","29","69485","0.0-6.0-1.12","603f2ea779e354025b981c15","bdp_trlrn","Tue May 11 2021 22:11:28 GMT-0500 (Central Daylight Time)","606302","Untrustworthy,Trustworthy","","2402","","","","rating","","trustrating_stim/white_00223_940128_fb_edt.bmp","5","","","","","","","","",""
"image-keyboard-response","30","69690","0.0-6.0-2.12","603f2ea779e354025b981c15","bdp_trlrn","Tue May 11 2021 22:11:28 GMT-0500 (Central Daylight Time)","606302","Untrustworthy,Trustworthy","","null","","","","ratingFB","","trustrating_stim/white_00223_940128_fb_edt.bmp","null","","","","","","","","",""
"image-keyboard-response","31","70867","0.0-6.0-1.13","603f2ea779e354025b981c15","bdp_trlrn","Tue May 11 2021 22:11:28 GMT-0500 (Central Daylight Time)","606302","Untrustworthy,Trustworthy","","1074","","","","rating","","trustrating_stim/white_00602_940928_fb_edt.bmp","7","","","","","","","","",""
"image-keyboard-response","32","71071","0.0-6.0-2.13","603f2ea779e354025b981c15","bdp_trlrn","Tue May 11 2021 22:11:28 GMT-0500 (Central Daylight Time)","606302","Untrustworthy,Trustworthy","","null","","","","ratingFB","","trustrating_stim/white_00602_940928_fb_edt.bmp","null","","","","","","","","",""
"image-keyboard-response","33","72343","0.0-6.0-1.14","603f2ea779e354025b981c15","bdp_trlrn","Tue May 11 2021 22:11:28 GMT-0500 (Central Daylight Time)","606302","Untrustworthy,Trustworthy","","1166","","","","rating","","trustrating_stim/white_mw035.bmp","6","","","","","","","","",""
"image-keyboard-response","34","72544","0.0-6.0-2.14","603f2ea779e354025b981c15","bdp_trlrn","Tue May 11 2021 22:11:28 GMT-0500 (Central Daylight Time)","606302","Untrustworthy,Trustworthy","","null","","","","ratingFB","","trustrating_stim/white_mw035.bmp","null","","","","","","","","",""
"image-keyboard-response","35","74152","0.0-6.0-1.15","603f2ea779e354025b981c15","bdp_trlrn","Tue May 11 2021 22:11:28 GMT-0500 (Central Daylight Time)","606302","Untrustworthy,Trustworthy","","1506","","","","rating","","trustrating_stim/white_00785_941205_fb_edt.bmp","2","","","","","","","","",""
"image-keyboard-response","36","74357","0.0-6.0-2.15","603f2ea779e354025b981c15","bdp_trlrn","Tue May 11 2021 22:11:28 GMT-0500 (Central Daylight Time)","606302","Untrustworthy,Trustworthy","","null","","","","ratingFB","","trustrating_stim/white_00785_941205_fb_edt.bmp","null","","","","","","","","",""
"image-keyboard-response","37","76297","0.0-6.0-1.16","603f2ea779e354025b981c15","bdp_trlrn","Tue May 11 2021 22:11:28 GMT-0500 (Central Daylight Time)","606302","Untrustworthy,Trustworthy","","1838","","","","rating","","trustrating_stim/white_mw013.bmp","4","","","","","","","","",""
"image-keyboard-response","38","76501","0.0-6.0-2.16","603f2ea779e354025b981c15","bdp_trlrn","Tue May 11 2021 22:11:28 GMT-0500 (Central Daylight Time)","606302","Untrustworthy,Trustworthy","","null","","","","ratingFB","","trustrating_stim/white_mw013.bmp","null","","","","","","","","",""
"image-keyboard-response","39","78758","0.0-6.0-1.17","603f2ea779e354025b981c15","bdp_trlrn","Tue May 11 2021 22:11:28 GMT-0500 (Central Daylight Time)","606302","Untrustworthy,Trustworthy","","2156","","","","rating","","trustrating_stim/white_mw022.bmp","8","","","","","","","","",""
"image-keyboard-response","40","78960","0.0-6.0-2.17","603f2ea779e354025b981c15","bdp_trlrn","Tue May 11 2021 22:11:28 GMT-0500 (Central Daylight Time)","606302","Untrustworthy,Trustworthy","","null","","","","ratingFB","","trustrating_stim/white_mw022.bmp","null","","","","","","","","",""
"image-keyboard-response","41","81935","0.0-6.0-1.18","603f2ea779e354025b981c15","bdp_trlrn","Tue May 11 2021 22:11:28 GMT-0500 (Central Daylight Time)","606302","Untrustworthy,Trustworthy","","2874","","","","rating","","trustrating_stim/white_mw097.bmp","6","","","","","","","","",""
"image-keyboard-response","42","82138","0.0-6.0-2.18","603f2ea779e354025b981c15","bdp_trlrn","Tue May 11 2021 22:11:28 GMT-0500 (Central Daylight Time)","606302","Untrustworthy,Trustworthy","","null","","","","ratingFB","","trustrating_stim/white_mw097.bmp","null","","","","","","","","",""
"image-keyboard-response","43","85853","0.0-6.0-1.19","603f2ea779e354025b981c15","bdp_trlrn","Tue May 11 2021 22:11:28 GMT-0500 (Central Daylight Time)","606302","Untrustworthy,Trustworthy","","3613","","","","rating","","trustrating_stim/white_00757_941201_fa_edt.bmp","6","","","","","","","","",""
"image-keyboard-response","44","86058","0.0-6.0-2.19","603f2ea779e354025b981c15","bdp_trlrn","Tue May 11 2021 22:11:28 GMT-0500 (Central Daylight Time)","606302","Untrustworthy,Trustworthy","","null","","","","ratingFB","","trustrating_stim/white_00757_941201_fa_edt.bmp","null","","","","","","","","",""
"image-keyboard-response","45","89399","0.0-6.0-1.20","603f2ea779e354025b981c15","bdp_trlrn","Tue May 11 2021 22:11:28 GMT-0500 (Central Daylight Time)","606302","Untrustworthy,Trustworthy","","3239","","","","rating","","trustrating_stim/white_mw046.bmp","6","","","","","","","","",""
"image-keyboard-response","46","89605","0.0-6.0-2.20","603f2ea779e354025b981c15","bdp_trlrn","Tue May 11 2021 22:11:28 GMT-0500 (Central Daylight Time)","606302","Untrustworthy,Trustworthy","","null","","","","ratingFB","","trustrating_stim/white_mw046.bmp","null","","","","","","","","",""
"image-keyboard-response","47","90783","0.0-6.0-1.21","603f2ea779e354025b981c15","bdp_trlrn","Tue May 11 2021 22:11:28 GMT-0500 (Central Daylight Time)","606302","Untrustworthy,Trustworthy","","1074","","","","rating","","trustrating_stim/white_00658_941121_fb_edt.bmp","4","","","","","","","","",""
"image-keyboard-response","48","90986","0.0-6.0-2.21","603f2ea779e354025b981c15","bdp_trlrn","Tue May 11 2021 22:11:28 GMT-0500 (Central Daylight Time)","606302","Untrustworthy,Trustworthy","","null","","","","ratingFB","","trustrating_stim/white_00658_941121_fb_edt.bmp","null","","","","","","","","",""
"image-keyboard-response","49","92878","0.0-6.0-1.22","603f2ea779e354025b981c15","bdp_trlrn","Tue May 11 2021 22:11:28 GMT-0500 (Central Daylight Time)","606302","Untrustworthy,Trustworthy","","1790","","","","rating","","trustrating_stim/white_mw057.bmp","8","","","","","","","","",""
"image-keyboard-response","50","93082","0.0-6.0-2.22","603f2ea779e354025b981c15","bdp_trlrn","Tue May 11 2021 22:11:28 GMT-0500 (Central Daylight Time)","606302","Untrustworthy,Trustworthy","","null","","","","ratingFB","","trustrating_stim/white_mw057.bmp","null","","","","","","","","",""
"image-keyboard-response","51","94887","0.0-6.0-1.23","603f2ea779e354025b981c15","bdp_trlrn","Tue May 11 2021 22:11:28 GMT-0500 (Central Daylight Time)","606302","Untrustworthy,Trustworthy","","1703","","","","rating","","trustrating_stim/white_00897_960530_fb_edt.bmp","7","","","","","","","","",""
"image-keyboard-response","52","95093","0.0-6.0-2.23","603f2ea779e354025b981c15","bdp_trlrn","Tue May 11 2021 22:11:28 GMT-0500 (Central Daylight Time)","606302","Untrustworthy,Trustworthy","","null","","","","ratingFB","","trustrating_stim/white_00897_960530_fb_edt.bmp","null","","","","","","","","",""
"image-keyboard-response","53","96661","0.0-6.0-1.24","603f2ea779e354025b981c15","bdp_trlrn","Tue May 11 2021 22:11:28 GMT-0500 (Central Daylight Time)","606302","Untrustworthy,Trustworthy","","1463","","","","rating","","trustrating_stim/white_00761_941201_fb_edt.bmp","1","","","","","","","","",""
"image-keyboard-response","54","96864","0.0-6.0-2.24","603f2ea779e354025b981c15","bdp_trlrn","Tue May 11 2021 22:11:28 GMT-0500 (Central Daylight Time)","606302","Untrustworthy,Trustworthy","","null","","","","ratingFB","","trustrating_stim/white_00761_941201_fb_edt.bmp","null","","","","","","","","",""
"image-keyboard-response","55","98115","0.0-6.0-1.25","603f2ea779e354025b981c15","bdp_trlrn","Tue May 11 2021 22:11:28 GMT-0500 (Central Daylight Time)","606302","Untrustworthy,Trustworthy","","1149","","","","rating","","trustrating_stim/white_mw080.bmp","1","","","","","","","","",""
"image-keyboard-response","56","98320","0.0-6.0-2.25","603f2ea779e354025b981c15","bdp_trlrn","Tue May 11 2021 22:11:28 GMT-0500 (Central Daylight Time)","606302","Untrustworthy,Trustworthy","","null","","","","ratingFB","","trustrating_stim/white_mw080.bmp","null","","","","","","","","",""
"image-keyboard-response","57","99632","0.0-6.0-1.26","603f2ea779e354025b981c15","bdp_trlrn","Tue May 11 2021 22:11:28 GMT-0500 (Central Daylight Time)","606302","Untrustworthy,Trustworthy","","1210","","","","rating","","trustrating_stim/white_mw072.bmp","3","","","","","","","","",""
"image-keyboard-response","58","99834","0.0-6.0-2.26","603f2ea779e354025b981c15","bdp_trlrn","Tue May 11 2021 22:11:28 GMT-0500 (Central Daylight Time)","606302","Untrustworthy,Trustworthy","","null","","","","ratingFB","","trustrating_stim/white_mw072.bmp","null","","","","","","","","",""
"image-keyboard-response","59","101964","0.0-6.0-1.27","603f2ea779e354025b981c15","bdp_trlrn","Tue May 11 2021 22:11:28 GMT-0500 (Central Daylight Time)","606302","Untrustworthy,Trustworthy","","2028","","","","rating","","trustrating_stim/white_mw082.bmp","7","","","","","","","","",""
"image-keyboard-response","60","102169","0.0-6.0-2.27","603f2ea779e354025b981c15","bdp_trlrn","Tue May 11 2021 22:11:28 GMT-0500 (Central Daylight Time)","606302","Untrustworthy,Trustworthy","","null","","","","ratingFB","","trustrating_stim/white_mw082.bmp","null","","","","","","","","",""
"image-keyboard-response","61","103755","0.0-6.0-1.28","603f2ea779e354025b981c15","bdp_trlrn","Tue May 11 2021 22:11:28 GMT-0500 (Central Daylight Time)","606302","Untrustworthy,Trustworthy","","1483","","","","rating","","trustrating_stim/white_mw066.bmp","6","","","","","","","","",""
"image-keyboard-response","62","103959","0.0-6.0-2.28","603f2ea779e354025b981c15","bdp_trlrn","Tue May 11 2021 22:11:28 GMT-0500 (Central Daylight Time)","606302","Untrustworthy,Trustworthy","","null","","","","ratingFB","","trustrating_stim/white_mw066.bmp","null","","","","","","","","",""
"image-keyboard-response","63","105104","0.0-6.0-1.29","603f2ea779e354025b981c15","bdp_trlrn","Tue May 11 2021 22:11:28 GMT-0500 (Central Daylight Time)","606302","Untrustworthy,Trustworthy","","1040","","","","rating","","trustrating_stim/white_mw006.bmp","2","","","","","","","","",""
"image-keyboard-response","64","105306","0.0-6.0-2.29","603f2ea779e354025b981c15","bdp_trlrn","Tue May 11 2021 22:11:28 GMT-0500 (Central Daylight Time)","606302","Untrustworthy,Trustworthy","","null","","","","ratingFB","","trustrating_stim/white_mw006.bmp","null","","","","","","","","",""
"image-keyboard-response","65","106474","0.0-6.0-1.30","603f2ea779e354025b981c15","bdp_trlrn","Tue May 11 2021 22:11:28 GMT-0500 (Central Daylight Time)","606302","Untrustworthy,Trustworthy","","1066","","","","rating","","trustrating_stim/white_mw040.bmp","3","","","","","","","","",""
"image-keyboard-response","66","106677","0.0-6.0-2.30","603f2ea779e354025b981c15","bdp_trlrn","Tue May 11 2021 22:11:28 GMT-0500 (Central Daylight Time)","606302","Untrustworthy,Trustworthy","","null","","","","ratingFB","","trustrating_stim/white_mw040.bmp","null","","","","","","","","",""
"image-keyboard-response","67","108602","0.0-6.0-1.31","603f2ea779e354025b981c15","bdp_trlrn","Tue May 11 2021 22:11:28 GMT-0500 (Central Daylight Time)","606302","Untrustworthy,Trustworthy","","1821","","","","rating","","trustrating_stim/white_00807_941205_fb_edt.bmp","7","","","","","","","","",""
"image-keyboard-response","68","108805","0.0-6.0-2.31","603f2ea779e354025b981c15","bdp_trlrn","Tue May 11 2021 22:11:28 GMT-0500 (Central Daylight Time)","606302","Untrustworthy,Trustworthy","","null","","","","ratingFB","","trustrating_stim/white_00807_941205_fb_edt.bmp","null","","","","","","","","",""
"image-keyboard-response","69","110135","0.0-6.0-1.32","603f2ea779e354025b981c15","bdp_trlrn","Tue May 11 2021 22:11:28 GMT-0500 (Central Daylight Time)","606302","Untrustworthy,Trustworthy","","1222","","","","rating","","trustrating_stim/white_mw054.bmp","7","","","","","","","","",""
"image-keyboard-response","70","110341","0.0-6.0-2.32","603f2ea779e354025b981c15","bdp_trlrn","Tue May 11 2021 22:11:28 GMT-0500 (Central Daylight Time)","606302","Untrustworthy,Trustworthy","","null","","","","ratingFB","","trustrating_stim/white_mw054.bmp","null","","","","","","","","",""
"image-keyboard-response","71","111659","0.0-6.0-1.33","603f2ea779e354025b981c15","bdp_trlrn","Tue May 11 2021 22:11:28 GMT-0500 (Central Daylight Time)","606302","Untrustworthy,Trustworthy","","1215","","","","rating","","trustrating_stim/white_00960_960627_fb_edt.bmp","3","","","","","","","","",""
"image-keyboard-response","72","111861","0.0-6.0-2.33","603f2ea779e354025b981c15","bdp_trlrn","Tue May 11 2021 22:11:28 GMT-0500 (Central Daylight Time)","606302","Untrustworthy,Trustworthy","","null","","","","ratingFB","","trustrating_stim/white_00960_960627_fb_edt.bmp","null","","","","","","","","",""
"image-keyboard-response","73","113619","0.0-6.0-1.34","603f2ea779e354025b981c15","bdp_trlrn","Tue May 11 2021 22:11:28 GMT-0500 (Central Daylight Time)","606302","Untrustworthy,Trustworthy","","1656","","","","rating","","trustrating_stim/white_mw058.bmp","1","","","","","","","","",""
"image-keyboard-response","74","113825","0.0-6.0-2.34","603f2ea779e354025b981c15","bdp_trlrn","Tue May 11 2021 22:11:28 GMT-0500 (Central Daylight Time)","606302","Untrustworthy,Trustworthy","","null","","","","ratingFB","","trustrating_stim/white_mw058.bmp","null","","","","","","","","",""
"image-keyboard-response","75","115843","0.0-6.0-1.35","603f2ea779e354025b981c15","bdp_trlrn","Tue May 11 2021 22:11:28 GMT-0500 (Central Daylight Time)","606302","Untrustworthy,Trustworthy","","1913","","","","rating","","trustrating_stim/white_mw012.bmp","8","","","","","","","","",""
"image-keyboard-response","76","116046","0.0-6.0-2.35","603f2ea779e354025b981c15","bdp_trlrn","Tue May 11 2021 22:11:28 GMT-0500 (Central Daylight Time)","606302","Untrustworthy,Trustworthy","","null","","","","ratingFB","","trustrating_stim/white_mw012.bmp","null","","","","","","","","",""
"image-keyboard-response","77","117221","0.0-6.0-1.36","603f2ea779e354025b981c15","bdp_trlrn","Tue May 11 2021 22:11:28 GMT-0500 (Central Daylight Time)","606302","Untrustworthy,Trustworthy","","1071","","","","rating","","trustrating_stim/white_mw004.bmp","8","","","","","","","","",""
"image-keyboard-response","78","117424","0.0-6.0-2.36","603f2ea779e354025b981c15","bdp_trlrn","Tue May 11 2021 22:11:28 GMT-0500 (Central Daylight Time)","606302","Untrustworthy,Trustworthy","","null","","","","ratingFB","","trustrating_stim/white_mw004.bmp","null","","","","","","","","",""
"image-keyboard-response","79","118601","0.0-6.0-1.37","603f2ea779e354025b981c15","bdp_trlrn","Tue May 11 2021 22:11:28 GMT-0500 (Central Daylight Time)","606302","Untrustworthy,Trustworthy","","1075","","","","rating","","trustrating_stim/white_mw016.bmp","6","","","","","","","","",""
"image-keyboard-response","80","118805","0.0-6.0-2.37","603f2ea779e354025b981c15","bdp_trlrn","Tue May 11 2021 22:11:28 GMT-0500 (Central Daylight Time)","606302","Untrustworthy,Trustworthy","","null","","","","ratingFB","","trustrating_stim/white_mw016.bmp","null","","","","","","","","",""
"image-keyboard-response","81","120360","0.0-6.0-1.38","603f2ea779e354025b981c15","bdp_trlrn","Tue May 11 2021 22:11:28 GMT-0500 (Central Daylight Time)","606302","Untrustworthy,Trustworthy","","1454","","","","rating","","trustrating_stim/white_mw025.bmp","3","","","","","","","","",""
"image-keyboard-response","82","120565","0.0-6.0-2.38","603f2ea779e354025b981c15","bdp_trlrn","Tue May 11 2021 22:11:28 GMT-0500 (Central Daylight Time)","606302","Untrustworthy,Trustworthy","","null","","","","ratingFB","","trustrating_stim/white_mw025.bmp","null","","","","","","","","",""
"image-keyboard-response","83","122286","0.0-6.0-1.39","603f2ea779e354025b981c15","bdp_trlrn","Tue May 11 2021 22:11:28 GMT-0500 (Central Daylight Time)","606302","Untrustworthy,Trustworthy","","1619","","","","rating","","trustrating_stim/white_mw043.bmp","2","","","","","","","","",""
"image-keyboard-response","84","122491","0.0-6.0-2.39","603f2ea779e354025b981c15","bdp_trlrn","Tue May 11 2021 22:11:28 GMT-0500 (Central Daylight Time)","606302","Untrustworthy,Trustworthy","","null","","","","ratingFB","","trustrating_stim/white_mw043.bmp","null","","","","","","","","",""
"instructions","85","124076","0.0-7.0","603f2ea779e354025b981c15","bdp_trlrn","Tue May 11 2021 22:11:28 GMT-0500 (Central Daylight Time)","606302","Untrustworthy,Trustworthy","[{""page_index"":0,""viewing_time"":1484}]","1484","","","","","","","","","","","","","","","",""
"instructions","86","250315","0.0-8.0","603f2ea779e354025b981c15","bdp_trlrn","Tue May 11 2021 22:11:28 GMT-0500 (Central Daylight Time)","606302","Untrustworthy,Trustworthy","[{""page_index"":0,""viewing_time"":74206},{""page_index"":1,""viewing_time"":10882},{""page_index"":2,""viewing_time"":6736},{""page_index"":3,""viewing_time"":7573},{""page_index"":4,""viewing_time"":11854},{""page_index"":5,""viewing_time"":5572},{""page_index"":6,""viewing_time"":9310}]","126133","","","","","","","","","","","","","","","",""
"html-keyboard-response","87","256917","0.0-9.0","603f2ea779e354025b981c15","bdp_trlrn","Tue May 11 2021 22:11:28 GMT-0500 (Central Daylight Time)","606302","Untrustworthy,Trustworthy","","6601","","","","","","<div class='header' style='text-align:left; position: absolute; top: 5%; left: 5%;'><small>Task 3 of 4</small></div><div style='text-align:left; position: absolute; top: 10%; left: 20%; width: 60%'><p><strong>1) What is the minimum number of points you can choose to send to your partner?</strong></p><p>a) 0</p><p>b) 1</p><p>c) 5</p>","A","","","","","","","","",""
"html-keyboard-response","88","261721","0.0-10.0","603f2ea779e354025b981c15","bdp_trlrn","Tue May 11 2021 22:11:28 GMT-0500 (Central Daylight Time)","606302","Untrustworthy,Trustworthy","","4700","","","","","","<div class='header' style='text-align:left; position: absolute; top: 5%; left: 5%;'><small>Task 3 of 4</small></div><div style='text-align:left; position: absolute; top: 10%; left: 20%; width: 60%'><p><strong>1) What is the minimum number of points you can choose to send to your partner?</strong></p><p style='color:#FF0000'>a) 0</p><p>b) 1</p><p>c) 5</p><h3 style='color:#FF0000'>Incorrect!</h3><h3 class='center-content'>The correct response is b).</h3><h3 class='center-content'>The minimum number of points you can choose to send to your partner is 1 point.</h3><p><em>Press SPACEBAR to continue</em></p></div>"," ","","","","","","","","",""
"html-keyboard-response","89","264747","0.0-11.0","603f2ea779e354025b981c15","bdp_trlrn","Tue May 11 2021 22:11:28 GMT-0500 (Central Daylight Time)","606302","Untrustworthy,Trustworthy","","2923","","","","","","<div class='header' style='text-align:left; position: absolute; top: 5%; left: 5%;'><small>Task 3 of 4</small></div><div style='text-align:left; position: absolute; top: 10%; left: 20%; width: 60%'><p><strong>2) What is the maximum number of points you can choose to send to your partner?</strong></p><p>a) 8</p><p>b) 5</p><p>c) 3</p>","B","","","","","","","","",""
"html-keyboard-response","90","267566","0.0-12.0","603f2ea779e354025b981c15","bdp_trlrn","Tue May 11 2021 22:11:28 GMT-0500 (Central Daylight Time)","606302","Untrustworthy,Trustworthy","","2716","","","","","","<div class='header' style='text-align:left; position: absolute; top: 5%; left: 5%;'><small>Task 3 of 4</small></div><div style='text-align:left; position: absolute; top: 10%; left: 20%; width: 60%'><p><strong>2) What is the maximum number of points you can choose to send to your partner?</strong></p><p>a) 8</p><p style='color:#00FF00'>b) 5</p><p>c) 3</p><h3 style='color:#00FF00'>Correct!</h3><h3 class='center-content'>The correct response is b).</h3><h3 class='center-content'>The maximum number of points you can choose to send to your partner is 5 points.</h3><p><em>Press SPACEBAR to continue</em></p></div>"," ","","","","","","","","",""
"html-keyboard-response","91","270858","0.0-13.0","603f2ea779e354025b981c15","bdp_trlrn","Tue May 11 2021 22:11:28 GMT-0500 (Central Daylight Time)","606302","Untrustworthy,Trustworthy","","3187","","","","","","<div class='header' style='text-align:left; position: absolute; top: 5%; left: 5%;'><small>Task 3 of 4</small></div><div style='text-align:left; position: absolute; top: 10%; left: 20%; width: 60%'><p><strong>3) What happens to the amount of points you send to your partner?</strong></p><p>a) Nothing</p><p>b) It doubles</p><p>c) It quadruples</p>","C","","","","","","","","",""
"html-keyboard-response","92","272761","0.0-14.0","603f2ea779e354025b981c15","bdp_trlrn","Tue May 11 2021 22:11:28 GMT-0500 (Central Daylight Time)","606302","Untrustworthy,Trustworthy","","1800","","","","","","<div class='header' style='text-align:left; position: absolute; top: 5%; left: 5%;'><small>Task 3 of 4</small></div><div style='text-align:left; position: absolute; top: 10%; left: 20%; width: 60%'><p><strong>3) What happens to the amount of points you send to your partner?</strong></p><p>a) Nothing</p><p>b) It doubles</p><p style='color:#00FF00'>c) It quadruples</p><h3 style='color:#00FF00'>Correct!</h3><h3 class='center-content'>The correct response is c).</h3><h3 class='center-content'>The amount of points you send to your partner quadruples.</h3><p><em>Press SPACEBAR to continue</em></p></div>"," ","","","","","","","","",""
"html-keyboard-response","93","292162","0.0-15.0","603f2ea779e354025b981c15","bdp_trlrn","Tue May 11 2021 22:11:28 GMT-0500 (Central Daylight Time)","606302","Untrustworthy,Trustworthy","","19296","","","","","","<div class='header' style='text-align:left; position: absolute; top: 5%; left: 5%;'><small>Task 3 of 4</small></div><div style='text-align:left; position: absolute; top: 10%; left: 20%; width: 60%'><p><strong>4) If you decide to share 4 out of 5 points with your partner, and he decided to share half of what he received, how many points would you end up with in this round?</strong></p><p>a) 16</p><p>b) 0</p><p>c) 9</p>","C","","","","","","","","",""
"html-keyboard-response","94","293893","0.0-16.0","603f2ea779e354025b981c15","bdp_trlrn","Tue May 11 2021 22:11:28 GMT-0500 (Central Daylight Time)","606302","Untrustworthy,Trustworthy","","1627","","","","","","<div class='header' style='text-align:left; position: absolute; top: 5%; left: 5%;'><small>Task 3 of 4</small></div><div style='text-align:left; position: absolute; top: 10%; left: 20%; width: 60%'><p><strong>4) If you decide to share 4 points with your partner, and he decided to share half of what he received, how many points would you end up with in this round?</strong></p><p>a) 16</p><p>b) 0</p><p style='color:#00FF00'>c) 9</p><h3 style='color:#00FF00'>Correct!</h3><h3 class='center-content'>The correct response is c).</h3><h3 class='center-content'>If you share 4 out of 5 points with your partner and he decided to share half with you, you would receive 8 points back (i.e. (4 x 4)/2 = 8), totaling to 9 points altogether.</h3><p><em>Press SPACEBAR to continue</em></p></div>"," ","","","","","","","","",""
"instructions","95","299328","0.0-17.0","603f2ea779e354025b981c15","bdp_trlrn","Tue May 11 2021 22:11:28 GMT-0500 (Central Daylight Time)","606302","Untrustworthy,Trustworthy","[{""page_index"":0,""viewing_time"":5333}]","5333","","","","","","","","","","","","","","","",""
"html-keyboard-response","96","301596","0.0-18.0-1.0","603f2ea779e354025b981c15","bdp_trlrn","Tue May 11 2021 22:11:28 GMT-0500 (Central Daylight Time)","606302","Untrustworthy,Trustworthy","","2165","","","","decision","","<div class='trialDiv'><img src='trustrating_stim/white_00785_941205_fb_edt.bmp'><br><font class='baseline'><strong>Marcus</strong><p>Choose number of points to send.</font><div class='respPicDiv'><img src='img/responseButtonOffersNo0L.png' class='respPic'></div></div>","5","1","Marcus","trustrating_stim/white_00785_941205_fb_edt.bmp","Shared","0.6,0.2","14","0.6","5","1"
"html-keyboard-response","97","301852","0.0-18.0-2.0","603f2ea779e354025b981c15","bdp_trlrn","Tue May 11 2021 22:11:28 GMT-0500 (Central Daylight Time)","606302","Untrustworthy,Trustworthy","","null","","","","decisionFB","","<div class='trialDiv'><img src='trustrating_stim/white_00785_941205_fb_edt.bmp'><br><font class='baseline'><strong>Marcus</strong><p>Choose number of points to send.</font><div class='respPicDiv'><img src='img/responseButtonOffersNo0L5.png' class='respPic'></div></div>","null","1","Marcus","trustrating_stim/white_00785_941205_fb_edt.bmp","Shared","0.6,0.2","14","0.6","0","1"
"html-keyboard-response","98","302856","0.0-18.0-3.0","603f2ea779e354025b981c15","bdp_trlrn","Tue May 11 2021 22:11:28 GMT-0500 (Central Daylight Time)","606302","Untrustworthy,Trustworthy","","null","","","","feedback","","<div class='trialDiv'><img src='trustrating_stim/white_00785_941205_fb_edt.bmp'><br><font class='baseline'><strong>Marcus</strong><p>Received: <strong>20</strong></font> &nbsp; &nbsp; &nbsp; &nbsp; &nbsp; &nbsp;<font class='posOutcome'>Shared back: <strong>10</strong></font></font><div class='respPicDiv'><img src='img/responseButtonOffersNo0_wht.png' class='respPic'></div></div>","null","1","Marcus","trustrating_stim/white_00785_941205_fb_edt.bmp","Shared","0.6,0.2","14","0.6","10","1"
"html-keyboard-response","99","315057","0.0-18.0-1.1","603f2ea779e354025b981c15","bdp_trlrn","Tue May 11 2021 22:11:28 GMT-0500 (Central Daylight Time)","606302","Untrustworthy,Trustworthy","","12200","","","","decision","","<div class='trialDiv'><img src='trustrating_stim/white_mw084.bmp'><br><font class='baseline'><strong>Daniel</strong><p>Choose number of points to send.</font><div class='respPicDiv'><img src='img/responseButtonOffersNo0L.png' class='respPic'></div></div>","4","1","Daniel","trustrating_stim/white_mw084.bmp","Shared","0.8,0.4","13","0.8","15","2"
"html-keyboard-response","100","315313","0.0-18.0-2.1","603f2ea779e354025b981c15","bdp_trlrn","Tue May 11 2021 22:11:28 GMT-0500 (Central Daylight Time)","606302","Untrustworthy,Trustworthy","","null","","","","decisionFB","","<div class='trialDiv'><img src='trustrating_stim/white_mw084.bmp'><br><font class='baseline'><strong>Daniel</strong><p>Choose number of points to send.</font><div class='respPicDiv'><img src='img/responseButtonOffersNo0L4.png' class='respPic'></div></div>","null","1","Daniel","trustrating_stim/white_mw084.bmp","Shared","0.8,0.4","13","0.8","11","2"
"html-keyboard-response","101","316316","0.0-18.0-3.1","603f2ea779e354025b981c15","bdp_trlrn","Tue May 11 2021 22:11:28 GMT-0500 (Central Daylight Time)","606302","Untrustworthy,Trustworthy","","null","","","","feedback","","<div class='trialDiv'><img src='trustrating_stim/white_mw084.bmp'><br><font class='baseline'><strong>Daniel</strong><p>Received: <strong>16</strong></font> &nbsp; &nbsp; &nbsp; &nbsp; &nbsp; &nbsp;<font class='posOutcome'>Shared back: <strong>8</strong></font></font><div class='respPicDiv'><img src='img/responseButtonOffersNo0_wht.png' class='respPic'></div></div>","null","1","Daniel","trustrating_stim/white_mw084.bmp","Shared","0.8,0.4","13","0.8","19","2"
"html-keyboard-response","102","320791","0.0-18.0-1.2","603f2ea779e354025b981c15","bdp_trlrn","Tue May 11 2021 22:11:28 GMT-0500 (Central Daylight Time)","606302","Untrustworthy,Trustworthy","","4474","","","","decision","","<div class='trialDiv'><img src='trustrating_stim/white_mw099.bmp'><br><font class='baseline'><strong>Timothy</strong><p>Choose number of points to send.</font><div class='respPicDiv'><img src='img/responseButtonOffersNo0L.png' class='respPic'></div></div>","2","1","Timothy","trustrating_stim/white_mw099.bmp","Shared","0.4,0.8","12","0.4","24","3"
"html-keyboard-response","103","321046","0.0-18.0-2.2","603f2ea779e354025b981c15","bdp_trlrn","Tue May 11 2021 22:11:28 GMT-0500 (Central Daylight Time)","606302","Untrustworthy,Trustworthy","","null","","","","decisionFB","","<div class='trialDiv'><img src='trustrating_stim/white_mw099.bmp'><br><font class='baseline'><strong>Timothy</strong><p>Choose number of points to send.</font><div class='respPicDiv'><img src='img/responseButtonOffersNo0L2.png' class='respPic'></div></div>","null","1","Timothy","trustrating_stim/white_mw099.bmp","Shared","0.4,0.8","12","0.4","22","3"
"html-keyboard-response","104","322049","0.0-18.0-3.2","603f2ea779e354025b981c15","bdp_trlrn","Tue May 11 2021 22:11:28 GMT-0500 (Central Daylight Time)","606302","Untrustworthy,Trustworthy","","null","","","","feedback","","<div class='trialDiv'><img src='trustrating_stim/white_mw099.bmp'><br><font class='baseline'><strong>Timothy</strong><p>Received: <strong>8</strong></font> &nbsp; &nbsp; &nbsp; &nbsp; &nbsp; &nbsp;<font class='posOutcome'>Shared back: <strong>4</strong></font></font><div class='respPicDiv'><img src='img/responseButtonOffersNo0_wht.png' class='respPic'></div></div>","null","1","Timothy","trustrating_stim/white_mw099.bmp","Shared","0.4,0.8","12","0.4","26","3"
"html-keyboard-response","105","324335","0.0-18.0-1.3","603f2ea779e354025b981c15","bdp_trlrn","Tue May 11 2021 22:11:28 GMT-0500 (Central Daylight Time)","606302","Untrustworthy,Trustworthy","","2285","","","","decision","","<div class='trialDiv'><img src='trustrating_stim/white_00761_941201_fb_edt.bmp'><br><font class='baseline'><strong>Richard</strong><p>Choose number of points to send.</font><div class='respPicDiv'><img src='img/responseButtonOffersNo0L.png' class='respPic'></div></div>","4","1","Richard","trustrating_stim/white_00761_941201_fb_edt.bmp","Kept","0.2,0.6","11","0.2","31","4"
"html-keyboard-response","106","324588","0.0-18.0-2.3","603f2ea779e354025b981c15","bdp_trlrn","Tue May 11 2021 22:11:28 GMT-0500 (Central Daylight Time)","606302","Untrustworthy,Trustworthy","","null","","","","decisionFB","","<div class='trialDiv'><img src='trustrating_stim/white_00761_941201_fb_edt.bmp'><br><font class='baseline'><strong>Richard</strong><p>Choose number of points to send.</font><div class='respPicDiv'><img src='img/responseButtonOffersNo0L4.png' class='respPic'></div></div>","null","1","Richard","trustrating_stim/white_00761_941201_fb_edt.bmp","Kept","0.2,0.6","11","0.2","27","4"
"html-keyboard-response","107","325590","0.0-18.0-3.3","603f2ea779e354025b981c15","bdp_trlrn","Tue May 11 2021 22:11:28 GMT-0500 (Central Daylight Time)","606302","Untrustworthy,Trustworthy","","null","","","","feedback","","<div class='trialDiv'><img src='trustrating_stim/white_00761_941201_fb_edt.bmp'><br><font class='baseline'><strong>Richard</strong><p>Received: <strong>16</strong></font> &nbsp; &nbsp; &nbsp; &nbsp; &nbsp; &nbsp;<font class='negOutcome'>Shared back: <strong>0</strong></font></font><div class='respPicDiv'><img src='img/responseButtonOffersNo0_wht.png' class='respPic'></div></div>","null","1","Richard","trustrating_stim/white_00761_941201_fb_edt.bmp","Kept","0.2,0.6","11","0.2","27","4"
"html-keyboard-response","108","332765","0.0-18.0-1.4","603f2ea779e354025b981c15","bdp_trlrn","Tue May 11 2021 22:11:28 GMT-0500 (Central Daylight Time)","606302","Untrustworthy,Trustworthy","","7174","","","","decision","","<div class='trialDiv'><img src='trustrating_stim/white_mw099.bmp'><br><font class='baseline'><strong>Timothy</strong><p>Choose number of points to send.</font><div class='respPicDiv'><img src='img/responseButtonOffersNo0L.png' class='respPic'></div></div>","3","2","Timothy","trustrating_stim/white_mw099.bmp","Kept","0.4,0.8","12","0.4","32","5"
"html-keyboard-response","109","333020","0.0-18.0-2.4","603f2ea779e354025b981c15","bdp_trlrn","Tue May 11 2021 22:11:28 GMT-0500 (Central Daylight Time)","606302","Untrustworthy,Trustworthy","","null","","","","decisionFB","","<div class='trialDiv'><img src='trustrating_stim/white_mw099.bmp'><br><font class='baseline'><strong>Timothy</strong><p>Choose number of points to send.</font><div class='respPicDiv'><img src='img/responseButtonOffersNo0L3.png' class='respPic'></div></div>","null","2","Timothy","trustrating_stim/white_mw099.bmp","Kept","0.4,0.8","12","0.4","29","5"
"html-keyboard-response","110","334022","0.0-18.0-3.4","603f2ea779e354025b981c15","bdp_trlrn","Tue May 11 2021 22:11:28 GMT-0500 (Central Daylight Time)","606302","Untrustworthy,Trustworthy","","null","","","","feedback","","<div class='trialDiv'><img src='trustrating_stim/white_mw099.bmp'><br><font class='baseline'><strong>Timothy</strong><p>Received: <strong>12</strong></font> &nbsp; &nbsp; &nbsp; &nbsp; &nbsp; &nbsp;<font class='negOutcome'>Shared back: <strong>0</strong></font></font><div class='respPicDiv'><img src='img/responseButtonOffersNo0_wht.png' class='respPic'></div></div>","null","2","Timothy","trustrating_stim/white_mw099.bmp","Kept","0.4,0.8","12","0.4","29","5"
"html-keyboard-response","111","336798","0.0-18.0-1.5","603f2ea779e354025b981c15","bdp_trlrn","Tue May 11 2021 22:11:28 GMT-0500 (Central Daylight Time)","606302","Untrustworthy,Trustworthy","","2775","","","","decision","","<div class='trialDiv'><img src='trustrating_stim/white_00785_941205_fb_edt.bmp'><br><font class='baseline'><strong>Marcus</strong><p>Choose number of points to send.</font><div class='respPicDiv'><img src='img/responseButtonOffersNo0L.png' class='respPic'></div></div>","5","2","Marcus","trustrating_stim/white_00785_941205_fb_edt.bmp","Kept","0.6,0.2","14","0.6","34","6"
"html-keyboard-response","112","337052","0.0-18.0-2.5","603f2ea779e354025b981c15","bdp_trlrn","Tue May 11 2021 22:11:28 GMT-0500 (Central Daylight Time)","606302","Untrustworthy,Trustworthy","","null","","","","decisionFB","","<div class='trialDiv'><img src='trustrating_stim/white_00785_941205_fb_edt.bmp'><br><font class='baseline'><strong>Marcus</strong><p>Choose number of points to send.</font><div class='respPicDiv'><img src='img/responseButtonOffersNo0L5.png' class='respPic'></div></div>","null","2","Marcus","trustrating_stim/white_00785_941205_fb_edt.bmp","Kept","0.6,0.2","14","0.6","29","6"
"html-keyboard-response","113","338057","0.0-18.0-3.5","603f2ea779e354025b981c15","bdp_trlrn","Tue May 11 2021 22:11:28 GMT-0500 (Central Daylight Time)","606302","Untrustworthy,Trustworthy","","null","","","","feedback","","<div class='trialDiv'><img src='trustrating_stim/white_00785_941205_fb_edt.bmp'><br><font class='baseline'><strong>Marcus</strong><p>Received: <strong>20</strong></font> &nbsp; &nbsp; &nbsp; &nbsp; &nbsp; &nbsp;<font class='negOutcome'>Shared back: <strong>0</strong></font></font><div class='respPicDiv'><img src='img/responseButtonOffersNo0_wht.png' class='respPic'></div></div>","null","2","Marcus","trustrating_stim/white_00785_941205_fb_edt.bmp","Kept","0.6,0.2","14","0.6","29","6"
"html-keyboard-response","114","339163","0.0-18.0-1.6","603f2ea779e354025b981c15","bdp_trlrn","Tue May 11 2021 22:11:28 GMT-0500 (Central Daylight Time)","606302","Untrustworthy,Trustworthy","","1105","","","","decision","","<div class='trialDiv'><img src='trustrating_stim/white_00761_941201_fb_edt.bmp'><br><font class='baseline'><strong>Richard</strong><p>Choose number of points to send.</font><div class='respPicDiv'><img src='img/responseButtonOffersNo0L.png' class='respPic'></div></div>","1","2","Richard","trustrating_stim/white_00761_941201_fb_edt.bmp","Kept","0.2,0.6","11","0.2","34","7"
"html-keyboard-response","115","339419","0.0-18.0-2.6","603f2ea779e354025b981c15","bdp_trlrn","Tue May 11 2021 22:11:28 GMT-0500 (Central Daylight Time)","606302","Untrustworthy,Trustworthy","","null","","","","decisionFB","","<div class='trialDiv'><img src='trustrating_stim/white_00761_941201_fb_edt.bmp'><br><font class='baseline'><strong>Richard</strong><p>Choose number of points to send.</font><div class='respPicDiv'><img src='img/responseButtonOffersNo0L1.png' class='respPic'></div></div>","null","2","Richard","trustrating_stim/white_00761_941201_fb_edt.bmp","Kept","0.2,0.6","11","0.2","33","7"
"html-keyboard-response","116","340424","0.0-18.0-3.6","603f2ea779e354025b981c15","bdp_trlrn","Tue May 11 2021 22:11:28 GMT-0500 (Central Daylight Time)","606302","Untrustworthy,Trustworthy","","null","","","","feedback","","<div class='trialDiv'><img src='trustrating_stim/white_00761_941201_fb_edt.bmp'><br><font class='baseline'><strong>Richard</strong><p>Received: <strong>4</strong></font> &nbsp; &nbsp; &nbsp; &nbsp; &nbsp; &nbsp;<font class='negOutcome'>Shared back: <strong>0</strong></font></font><div class='respPicDiv'><img src='img/responseButtonOffersNo0_wht.png' class='respPic'></div></div>","null","2","Richard","trustrating_stim/white_00761_941201_fb_edt.bmp","Kept","0.2,0.6","11","0.2","33","7"
"html-keyboard-response","117","342874","0.0-18.0-1.7","603f2ea779e354025b981c15","bdp_trlrn","Tue May 11 2021 22:11:28 GMT-0500 (Central Daylight Time)","606302","Untrustworthy,Trustworthy","","2449","","","","decision","","<div class='trialDiv'><img src='trustrating_stim/white_mw084.bmp'><br><font class='baseline'><strong>Daniel</strong><p>Choose number of points to send.</font><div class='respPicDiv'><img src='img/responseButtonOffersNo0L.png' class='respPic'></div></div>","2","2","Daniel","trustrating_stim/white_mw084.bmp","Shared","0.8,0.4","13","0.8","38","8"
"html-keyboard-response","118","343126","0.0-18.0-2.7","603f2ea779e354025b981c15","bdp_trlrn","Tue May 11 2021 22:11:28 GMT-0500 (Central Daylight Time)","606302","Untrustworthy,Trustworthy","","null","","","","decisionFB","","<div class='trialDiv'><img src='trustrating_stim/white_mw084.bmp'><br><font class='baseline'><strong>Daniel</strong><p>Choose number of points to send.</font><div class='respPicDiv'><img src='img/responseButtonOffersNo0L2.png' class='respPic'></div></div>","null","2","Daniel","trustrating_stim/white_mw084.bmp","Shared","0.8,0.4","13","0.8","36","8"
"html-keyboard-response","119","344129","0.0-18.0-3.7","603f2ea779e354025b981c15","bdp_trlrn","Tue May 11 2021 22:11:28 GMT-0500 (Central Daylight Time)","606302","Untrustworthy,Trustworthy","","null","","","","feedback","","<div class='trialDiv'><img src='trustrating_stim/white_mw084.bmp'><br><font class='baseline'><strong>Daniel</strong><p>Received: <strong>8</strong></font> &nbsp; &nbsp; &nbsp; &nbsp; &nbsp; &nbsp;<font class='posOutcome'>Shared back: <strong>4</strong></font></font><div class='respPicDiv'><img src='img/responseButtonOffersNo0_wht.png' class='respPic'></div></div>","null","2","Daniel","trustrating_stim/white_mw084.bmp","Shared","0.8,0.4","13","0.8","40","8"
"html-keyboard-response","120","345052","0.0-18.0-1.8","603f2ea779e354025b981c15","bdp_trlrn","Tue May 11 2021 22:11:28 GMT-0500 (Central Daylight Time)","606302","Untrustworthy,Trustworthy","","921","","","","decision","","<div class='trialDiv'><img src='trustrating_stim/white_00785_941205_fb_edt.bmp'><br><font class='baseline'><strong>Marcus</strong><p>Choose number of points to send.</font><div class='respPicDiv'><img src='img/responseButtonOffersNo0L.png' class='respPic'></div></div>","1","3","Marcus","trustrating_stim/white_00785_941205_fb_edt.bmp","Shared","0.6,0.2","14","0.6","45","9"
"html-keyboard-response","121","345308","0.0-18.0-2.8","603f2ea779e354025b981c15","bdp_trlrn","Tue May 11 2021 22:11:28 GMT-0500 (Central Daylight Time)","606302","Untrustworthy,Trustworthy","","null","","","","decisionFB","","<div class='trialDiv'><img src='trustrating_stim/white_00785_941205_fb_edt.bmp'><br><font class='baseline'><strong>Marcus</strong><p>Choose number of points to send.</font><div class='respPicDiv'><img src='img/responseButtonOffersNo0L1.png' class='respPic'></div></div>","null","3","Marcus","trustrating_stim/white_00785_941205_fb_edt.bmp","Shared","0.6,0.2","14","0.6","44","9"
"html-keyboard-response","122","346311","0.0-18.0-3.8","603f2ea779e354025b981c15","bdp_trlrn","Tue May 11 2021 22:11:28 GMT-0500 (Central Daylight Time)","606302","Untrustworthy,Trustworthy","","null","","","","feedback","","<div class='trialDiv'><img src='trustrating_stim/white_00785_941205_fb_edt.bmp'><br><font class='baseline'><strong>Marcus</strong><p>Received: <strong>4</strong></font> &nbsp; &nbsp; &nbsp; &nbsp; &nbsp; &nbsp;<font class='posOutcome'>Shared back: <strong>2</strong></font></font><div class='respPicDiv'><img src='img/responseButtonOffersNo0_wht.png' class='respPic'></div></div>","null","3","Marcus","trustrating_stim/white_00785_941205_fb_edt.bmp","Shared","0.6,0.2","14","0.6","46","9"
"html-keyboard-response","123","347747","0.0-18.0-1.9","603f2ea779e354025b981c15","bdp_trlrn","Tue May 11 2021 22:11:28 GMT-0500 (Central Daylight Time)","606302","Untrustworthy,Trustworthy","","1434","","","","decision","","<div class='trialDiv'><img src='trustrating_stim/white_mw084.bmp'><br><font class='baseline'><strong>Daniel</strong><p>Choose number of points to send.</font><div class='respPicDiv'><img src='img/responseButtonOffersNo0L.png' class='respPic'></div></div>","5","3","Daniel","trustrating_stim/white_mw084.bmp","Shared","0.8,0.4","13","0.8","51","10"
"html-keyboard-response","124","348001","0.0-18.0-2.9","603f2ea779e354025b981c15","bdp_trlrn","Tue May 11 2021 22:11:28 GMT-0500 (Central Daylight Time)","606302","Untrustworthy,Trustworthy","","null","","","","decisionFB","","<div class='trialDiv'><img src='trustrating_stim/white_mw084.bmp'><br><font class='baseline'><strong>Daniel</strong><p>Choose number of points to send.</font><div class='respPicDiv'><img src='img/responseButtonOffersNo0L5.png' class='respPic'></div></div>","null","3","Daniel","trustrating_stim/white_mw084.bmp","Shared","0.8,0.4","13","0.8","46","10"
"html-keyboard-response","125","349008","0.0-18.0-3.9","603f2ea779e354025b981c15","bdp_trlrn","Tue May 11 2021 22:11:28 GMT-0500 (Central Daylight Time)","606302","Untrustworthy,Trustworthy","","null","","","","feedback","","<div class='trialDiv'><img src='trustrating_stim/white_mw084.bmp'><br><font class='baseline'><strong>Daniel</strong><p>Received: <strong>20</strong></font> &nbsp; &nbsp; &nbsp; &nbsp; &nbsp; &nbsp;<font class='posOutcome'>Shared back: <strong>10</strong></font></font><div class='respPicDiv'><img src='img/responseButtonOffersNo0_wht.png' class='respPic'></div></div>","null","3","Daniel","trustrating_stim/white_mw084.bmp","Shared","0.8,0.4","13","0.8","56","10"
"html-keyboard-response","126","350741","0.0-18.0-1.10","603f2ea779e354025b981c15","bdp_trlrn","Tue May 11 2021 22:11:28 GMT-0500 (Central Daylight Time)","606302","Untrustworthy,Trustworthy","","1732","","","","decision","","<div class='trialDiv'><img src='trustrating_stim/white_mw099.bmp'><br><font class='baseline'><strong>Timothy</strong><p>Choose number of points to send.</font><div class='respPicDiv'><img src='img/responseButtonOffersNo0L.png' class='respPic'></div></div>","4","3","Timothy","trustrating_stim/white_mw099.bmp","Kept","0.4,0.8","12","0.4","61","11"
"html-keyboard-response","127","350993","0.0-18.0-2.10","603f2ea779e354025b981c15","bdp_trlrn","Tue May 11 2021 22:11:28 GMT-0500 (Central Daylight Time)","606302","Untrustworthy,Trustworthy","","null","","","","decisionFB","","<div class='trialDiv'><img src='trustrating_stim/white_mw099.bmp'><br><font class='baseline'><strong>Timothy</strong><p>Choose number of points to send.</font><div class='respPicDiv'><img src='img/responseButtonOffersNo0L4.png' class='respPic'></div></div>","null","3","Timothy","trustrating_stim/white_mw099.bmp","Kept","0.4,0.8","12","0.4","57","11"
"html-keyboard-response","128","351995","0.0-18.0-3.10","603f2ea779e354025b981c15","bdp_trlrn","Tue May 11 2021 22:11:28 GMT-0500 (Central Daylight Time)","606302","Untrustworthy,Trustworthy","","null","","","","feedback","","<div class='trialDiv'><img src='trustrating_stim/white_mw099.bmp'><br><font class='baseline'><strong>Timothy</strong><p>Received: <strong>16</strong></font> &nbsp; &nbsp; &nbsp; &nbsp; &nbsp; &nbsp;<font class='negOutcome'>Shared back: <strong>0</strong></font></font><div class='respPicDiv'><img src='img/responseButtonOffersNo0_wht.png' class='respPic'></div></div>","null","3","Timothy","trustrating_stim/white_mw099.bmp","Kept","0.4,0.8","12","0.4","57","11"
"html-keyboard-response","129","353045","0.0-18.0-1.11","603f2ea779e354025b981c15","bdp_trlrn","Tue May 11 2021 22:11:28 GMT-0500 (Central Daylight Time)","606302","Untrustworthy,Trustworthy","","1049","","","","decision","","<div class='trialDiv'><img src='trustrating_stim/white_00761_941201_fb_edt.bmp'><br><font class='baseline'><strong>Richard</strong><p>Choose number of points to send.</font><div class='respPicDiv'><img src='img/responseButtonOffersNo0L.png' class='respPic'></div></div>","1","3","Richard","trustrating_stim/white_00761_941201_fb_edt.bmp","Kept","0.2,0.6","11","0.2","62","12"
"html-keyboard-response","130","353297","0.0-18.0-2.11","603f2ea779e354025b981c15","bdp_trlrn","Tue May 11 2021 22:11:28 GMT-0500 (Central Daylight Time)","606302","Untrustworthy,Trustworthy","","null","","","","decisionFB","","<div class='trialDiv'><img src='trustrating_stim/white_00761_941201_fb_edt.bmp'><br><font class='baseline'><strong>Richard</strong><p>Choose number of points to send.</font><div class='respPicDiv'><img src='img/responseButtonOffersNo0L1.png' class='respPic'></div></div>","null","3","Richard","trustrating_stim/white_00761_941201_fb_edt.bmp","Kept","0.2,0.6","11","0.2","61","12"
"html-keyboard-response","131","354300","0.0-18.0-3.11","603f2ea779e354025b981c15","bdp_trlrn","Tue May 11 2021 22:11:28 GMT-0500 (Central Daylight Time)","606302","Untrustworthy,Trustworthy","","null","","","","feedback","","<div class='trialDiv'><img src='trustrating_stim/white_00761_941201_fb_edt.bmp'><br><font class='baseline'><strong>Richard</strong><p>Received: <strong>4</strong></font> &nbsp; &nbsp; &nbsp; &nbsp; &nbsp; &nbsp;<font class='negOutcome'>Shared back: <strong>0</strong></font></font><div class='respPicDiv'><img src='img/responseButtonOffersNo0_wht.png' class='respPic'></div></div>","null","3","Richard","trustrating_stim/white_00761_941201_fb_edt.bmp","Kept","0.2,0.6","11","0.2","61","12"
"html-keyboard-response","132","355604","0.0-18.0-1.12","603f2ea779e354025b981c15","bdp_trlrn","Tue May 11 2021 22:11:28 GMT-0500 (Central Daylight Time)","606302","Untrustworthy,Trustworthy","","1302","","","","decision","","<div class='trialDiv'><img src='trustrating_stim/white_mw084.bmp'><br><font class='baseline'><strong>Daniel</strong><p>Choose number of points to send.</font><div class='respPicDiv'><img src='img/responseButtonOffersNo0L.png' class='respPic'></div></div>","2","4","Daniel","trustrating_stim/white_mw084.bmp","Shared","0.8,0.4","13","0.8","66","13"
"html-keyboard-response","133","355857","0.0-18.0-2.12","603f2ea779e354025b981c15","bdp_trlrn","Tue May 11 2021 22:11:28 GMT-0500 (Central Daylight Time)","606302","Untrustworthy,Trustworthy","","null","","","","decisionFB","","<div class='trialDiv'><img src='trustrating_stim/white_mw084.bmp'><br><font class='baseline'><strong>Daniel</strong><p>Choose number of points to send.</font><div class='respPicDiv'><img src='img/responseButtonOffersNo0L2.png' class='respPic'></div></div>","null","4","Daniel","trustrating_stim/white_mw084.bmp","Shared","0.8,0.4","13","0.8","64","13"
"html-keyboard-response","134","356860","0.0-18.0-3.12","603f2ea779e354025b981c15","bdp_trlrn","Tue May 11 2021 22:11:28 GMT-0500 (Central Daylight Time)","606302","Untrustworthy,Trustworthy","","null","","","","feedback","","<div class='trialDiv'><img src='trustrating_stim/white_mw084.bmp'><br><font class='baseline'><strong>Daniel</strong><p>Received: <strong>8</strong></font> &nbsp; &nbsp; &nbsp; &nbsp; &nbsp; &nbsp;<font class='posOutcome'>Shared back: <strong>4</strong></font></font><div class='respPicDiv'><img src='img/responseButtonOffersNo0_wht.png' class='respPic'></div></div>","null","4","Daniel","trustrating_stim/white_mw084.bmp","Shared","0.8,0.4","13","0.8","68","13"
"html-keyboard-response","135","357948","0.0-18.0-1.13","603f2ea779e354025b981c15","bdp_trlrn","Tue May 11 2021 22:11:28 GMT-0500 (Central Daylight Time)","606302","Untrustworthy,Trustworthy","","1087","","","","decision","","<div class='trialDiv'><img src='trustrating_stim/white_mw099.bmp'><br><font class='baseline'><strong>Timothy</strong><p>Choose number of points to send.</font><div class='respPicDiv'><img src='img/responseButtonOffersNo0L.png' class='respPic'></div></div>","2","4","Timothy","trustrating_stim/white_mw099.bmp","Shared","0.4,0.8","12","0.4","73","14"
"html-keyboard-response","136","358204","0.0-18.0-2.13","603f2ea779e354025b981c15","bdp_trlrn","Tue May 11 2021 22:11:28 GMT-0500 (Central Daylight Time)","606302","Untrustworthy,Trustworthy","","null","","","","decisionFB","","<div class='trialDiv'><img src='trustrating_stim/white_mw099.bmp'><br><font class='baseline'><strong>Timothy</strong><p>Choose number of points to send.</font><div class='respPicDiv'><img src='img/responseButtonOffersNo0L2.png' class='respPic'></div></div>","null","4","Timothy","trustrating_stim/white_mw099.bmp","Shared","0.4,0.8","12","0.4","71","14"
"html-keyboard-response","137","359207","0.0-18.0-3.13","603f2ea779e354025b981c15","bdp_trlrn","Tue May 11 2021 22:11:28 GMT-0500 (Central Daylight Time)","606302","Untrustworthy,Trustworthy","","null","","","","feedback","","<div class='trialDiv'><img src='trustrating_stim/white_mw099.bmp'><br><font class='baseline'><strong>Timothy</strong><p>Received: <strong>8</strong></font> &nbsp; &nbsp; &nbsp; &nbsp; &nbsp; &nbsp;<font class='posOutcome'>Shared back: <strong>4</strong></font></font><div class='respPicDiv'><img src='img/responseButtonOffersNo0_wht.png' class='respPic'></div></div>","null","4","Timothy","trustrating_stim/white_mw099.bmp","Shared","0.4,0.8","12","0.4","75","14"
"html-keyboard-response","138","359966","0.0-18.0-1.14","603f2ea779e354025b981c15","bdp_trlrn","Tue May 11 2021 22:11:28 GMT-0500 (Central Daylight Time)","606302","Untrustworthy,Trustworthy","","758","","","","decision","","<div class='trialDiv'><img src='trustrating_stim/white_00761_941201_fb_edt.bmp'><br><font class='baseline'><strong>Richard</strong><p>Choose number of points to send.</font><div class='respPicDiv'><img src='img/responseButtonOffersNo0L.png' class='respPic'></div></div>","1","4","Richard","trustrating_stim/white_00761_941201_fb_edt.bmp","Kept","0.2,0.6","11","0.2","80","15"
"html-keyboard-response","139","360219","0.0-18.0-2.14","603f2ea779e354025b981c15","bdp_trlrn","Tue May 11 2021 22:11:28 GMT-0500 (Central Daylight Time)","606302","Untrustworthy,Trustworthy","","null","","","","decisionFB","","<div class='trialDiv'><img src='trustrating_stim/white_00761_941201_fb_edt.bmp'><br><font class='baseline'><strong>Richard</strong><p>Choose number of points to send.</font><div class='respPicDiv'><img src='img/responseButtonOffersNo0L1.png' class='respPic'></div></div>","null","4","Richard","trustrating_stim/white_00761_941201_fb_edt.bmp","Kept","0.2,0.6","11","0.2","79","15"
"html-keyboard-response","140","361224","0.0-18.0-3.14","603f2ea779e354025b981c15","bdp_trlrn","Tue May 11 2021 22:11:28 GMT-0500 (Central Daylight Time)","606302","Untrustworthy,Trustworthy","","null","","","","feedback","","<div class='trialDiv'><img src='trustrating_stim/white_00761_941201_fb_edt.bmp'><br><font class='baseline'><strong>Richard</strong><p>Received: <strong>4</strong></font> &nbsp; &nbsp; &nbsp; &nbsp; &nbsp; &nbsp;<font class='negOutcome'>Shared back: <strong>0</strong></font></font><div class='respPicDiv'><img src='img/responseButtonOffersNo0_wht.png' class='respPic'></div></div>","null","4","Richard","trustrating_stim/white_00761_941201_fb_edt.bmp","Kept","0.2,0.6","11","0.2","79","15"
"html-keyboard-response","141","364082","0.0-18.0-1.15","603f2ea779e354025b981c15","bdp_trlrn","Tue May 11 2021 22:11:28 GMT-0500 (Central Daylight Time)","606302","Untrustworthy,Trustworthy","","2857","","","","decision","","<div class='trialDiv'><img src='trustrating_stim/white_00785_941205_fb_edt.bmp'><br><font class='baseline'><strong>Marcus</strong><p>Choose number of points to send.</font><div class='respPicDiv'><img src='img/responseButtonOffersNo0L.png' class='respPic'></div></div>","3","4","Marcus","trustrating_stim/white_00785_941205_fb_edt.bmp","Kept","0.6,0.2","14","0.6","84","16"
"html-keyboard-response","142","364337","0.0-18.0-2.15","603f2ea779e354025b981c15","bdp_trlrn","Tue May 11 2021 22:11:28 GMT-0500 (Central Daylight Time)","606302","Untrustworthy,Trustworthy","","null","","","","decisionFB","","<div class='trialDiv'><img src='trustrating_stim/white_00785_941205_fb_edt.bmp'><br><font class='baseline'><strong>Marcus</strong><p>Choose number of points to send.</font><div class='respPicDiv'><img src='img/responseButtonOffersNo0L3.png' class='respPic'></div></div>","null","4","Marcus","trustrating_stim/white_00785_941205_fb_edt.bmp","Kept","0.6,0.2","14","0.6","81","16"
"html-keyboard-response","143","365340","0.0-18.0-3.15","603f2ea779e354025b981c15","bdp_trlrn","Tue May 11 2021 22:11:28 GMT-0500 (Central Daylight Time)","606302","Untrustworthy,Trustworthy","","null","","","","feedback","","<div class='trialDiv'><img src='trustrating_stim/white_00785_941205_fb_edt.bmp'><br><font class='baseline'><strong>Marcus</strong><p>Received: <strong>12</strong></font> &nbsp; &nbsp; &nbsp; &nbsp; &nbsp; &nbsp;<font class='negOutcome'>Shared back: <strong>0</strong></font></font><div class='respPicDiv'><img src='img/responseButtonOffersNo0_wht.png' class='respPic'></div></div>","null","4","Marcus","trustrating_stim/white_00785_941205_fb_edt.bmp","Kept","0.6,0.2","14","0.6","81","16"
"html-keyboard-response","144","366422","0.0-18.0-1.16","603f2ea779e354025b981c15","bdp_trlrn","Tue May 11 2021 22:11:28 GMT-0500 (Central Daylight Time)","606302","Untrustworthy,Trustworthy","","1081","","","","decision","","<div class='trialDiv'><img src='trustrating_stim/white_mw084.bmp'><br><font class='baseline'><strong>Daniel</strong><p>Choose number of points to send.</font><div class='respPicDiv'><img src='img/responseButtonOffersNo0L.png' class='respPic'></div></div>","1","5","Daniel","trustrating_stim/white_mw084.bmp","Shared","0.8,0.4","13","0.8","86","17"
"html-keyboard-response","145","366678","0.0-18.0-2.16","603f2ea779e354025b981c15","bdp_trlrn","Tue May 11 2021 22:11:28 GMT-0500 (Central Daylight Time)","606302","Untrustworthy,Trustworthy","","null","","","","decisionFB","","<div class='trialDiv'><img src='trustrating_stim/white_mw084.bmp'><br><font class='baseline'><strong>Daniel</strong><p>Choose number of points to send.</font><div class='respPicDiv'><img src='img/responseButtonOffersNo0L1.png' class='respPic'></div></div>","null","5","Daniel","trustrating_stim/white_mw084.bmp","Shared","0.8,0.4","13","0.8","85","17"
"html-keyboard-response","146","367681","0.0-18.0-3.16","603f2ea779e354025b981c15","bdp_trlrn","Tue May 11 2021 22:11:28 GMT-0500 (Central Daylight Time)","606302","Untrustworthy,Trustworthy","","null","","","","feedback","","<div class='trialDiv'><img src='trustrating_stim/white_mw084.bmp'><br><font class='baseline'><strong>Daniel</strong><p>Received: <strong>4</strong></font> &nbsp; &nbsp; &nbsp; &nbsp; &nbsp; &nbsp;<font class='posOutcome'>Shared back: <strong>2</strong></font></font><div class='respPicDiv'><img src='img/responseButtonOffersNo0_wht.png' class='respPic'></div></div>","null","5","Daniel","trustrating_stim/white_mw084.bmp","Shared","0.8,0.4","13","0.8","87","17"
"html-keyboard-response","147","368654","0.0-18.0-1.17","603f2ea779e354025b981c15","bdp_trlrn","Tue May 11 2021 22:11:28 GMT-0500 (Central Daylight Time)","606302","Untrustworthy,Trustworthy","","971","","","","decision","","<div class='trialDiv'><img src='trustrating_stim/white_00785_941205_fb_edt.bmp'><br><font class='baseline'><strong>Marcus</strong><p>Choose number of points to send.</font><div class='respPicDiv'><img src='img/responseButtonOffersNo0L.png' class='respPic'></div></div>","2","5","Marcus","trustrating_stim/white_00785_941205_fb_edt.bmp","Kept","0.6,0.2","14","0.6","92","18"
"html-keyboard-response","148","368907","0.0-18.0-2.17","603f2ea779e354025b981c15","bdp_trlrn","Tue May 11 2021 22:11:28 GMT-0500 (Central Daylight Time)","606302","Untrustworthy,Trustworthy","","null","","","","decisionFB","","<div class='trialDiv'><img src='trustrating_stim/white_00785_941205_fb_edt.bmp'><br><font class='baseline'><strong>Marcus</strong><p>Choose number of points to send.</font><div class='respPicDiv'><img src='img/responseButtonOffersNo0L2.png' class='respPic'></div></div>","null","5","Marcus","trustrating_stim/white_00785_941205_fb_edt.bmp","Kept","0.6,0.2","14","0.6","90","18"
"html-keyboard-response","149","369911","0.0-18.0-3.17","603f2ea779e354025b981c15","bdp_trlrn","Tue May 11 2021 22:11:28 GMT-0500 (Central Daylight Time)","606302","Untrustworthy,Trustworthy","","null","","","","feedback","","<div class='trialDiv'><img src='trustrating_stim/white_00785_941205_fb_edt.bmp'><br><font class='baseline'><strong>Marcus</strong><p>Received: <strong>8</strong></font> &nbsp; &nbsp; &nbsp; &nbsp; &nbsp; &nbsp;<font class='negOutcome'>Shared back: <strong>0</strong></font></font><div class='respPicDiv'><img src='img/responseButtonOffersNo0_wht.png' class='respPic'></div></div>","null","5","Marcus","trustrating_stim/white_00785_941205_fb_edt.bmp","Kept","0.6,0.2","14","0.6","90","18"
"html-keyboard-response","150","371730","0.0-18.0-1.18","603f2ea779e354025b981c15","bdp_trlrn","Tue May 11 2021 22:11:28 GMT-0500 (Central Daylight Time)","606302","Untrustworthy,Trustworthy","","1818","","","","decision","","<div class='trialDiv'><img src='trustrating_stim/white_mw099.bmp'><br><font class='baseline'><strong>Timothy</strong><p>Choose number of points to send.</font><div class='respPicDiv'><img src='img/responseButtonOffersNo0L.png' class='respPic'></div></div>","5","5","Timothy","trustrating_stim/white_mw099.bmp","Kept","0.4,0.8","12","0.4","95","19"
"html-keyboard-response","151","371985","0.0-18.0-2.18","603f2ea779e354025b981c15","bdp_trlrn","Tue May 11 2021 22:11:28 GMT-0500 (Central Daylight Time)","606302","Untrustworthy,Trustworthy","","null","","","","decisionFB","","<div class='trialDiv'><img src='trustrating_stim/white_mw099.bmp'><br><font class='baseline'><strong>Timothy</strong><p>Choose number of points to send.</font><div class='respPicDiv'><img src='img/responseButtonOffersNo0L5.png' class='respPic'></div></div>","null","5","Timothy","trustrating_stim/white_mw099.bmp","Kept","0.4,0.8","12","0.4","90","19"
"html-keyboard-response","152","372988","0.0-18.0-3.18","603f2ea779e354025b981c15","bdp_trlrn","Tue May 11 2021 22:11:28 GMT-0500 (Central Daylight Time)","606302","Untrustworthy,Trustworthy","","null","","","","feedback","","<div class='trialDiv'><img src='trustrating_stim/white_mw099.bmp'><br><font class='baseline'><strong>Timothy</strong><p>Received: <strong>20</strong></font> &nbsp; &nbsp; &nbsp; &nbsp; &nbsp; &nbsp;<font class='negOutcome'>Shared back: <strong>0</strong></font></font><div class='respPicDiv'><img src='img/responseButtonOffersNo0_wht.png' class='respPic'></div></div>","null","5","Timothy","trustrating_stim/white_mw099.bmp","Kept","0.4,0.8","12","0.4","90","19"
"html-keyboard-response","153","374555","0.0-18.0-1.19","603f2ea779e354025b981c15","bdp_trlrn","Tue May 11 2021 22:11:28 GMT-0500 (Central Daylight Time)","606302","Untrustworthy,Trustworthy","","1565","","","","decision","","<div class='trialDiv'><img src='trustrating_stim/white_00761_941201_fb_edt.bmp'><br><font class='baseline'><strong>Richard</strong><p>Choose number of points to send.</font><div class='respPicDiv'><img src='img/responseButtonOffersNo0L.png' class='respPic'></div></div>","2","5","Richard","trustrating_stim/white_00761_941201_fb_edt.bmp","Kept","0.2,0.6","11","0.2","95","20"
"html-keyboard-response","154","374807","0.0-18.0-2.19","603f2ea779e354025b981c15","bdp_trlrn","Tue May 11 2021 22:11:28 GMT-0500 (Central Daylight Time)","606302","Untrustworthy,Trustworthy","","null","","","","decisionFB","","<div class='trialDiv'><img src='trustrating_stim/white_00761_941201_fb_edt.bmp'><br><font class='baseline'><strong>Richard</strong><p>Choose number of points to send.</font><div class='respPicDiv'><img src='img/responseButtonOffersNo0L2.png' class='respPic'></div></div>","null","5","Richard","trustrating_stim/white_00761_941201_fb_edt.bmp","Kept","0.2,0.6","11","0.2","93","20"
"html-keyboard-response","155","375809","0.0-18.0-3.19","603f2ea779e354025b981c15","bdp_trlrn","Tue May 11 2021 22:11:28 GMT-0500 (Central Daylight Time)","606302","Untrustworthy,Trustworthy","","null","","","","feedback","","<div class='trialDiv'><img src='trustrating_stim/white_00761_941201_fb_edt.bmp'><br><font class='baseline'><strong>Richard</strong><p>Received: <strong>8</strong></font> &nbsp; &nbsp; &nbsp; &nbsp; &nbsp; &nbsp;<font class='negOutcome'>Shared back: <strong>0</strong></font></font><div class='respPicDiv'><img src='img/responseButtonOffersNo0_wht.png' class='respPic'></div></div>","null","5","Richard","trustrating_stim/white_00761_941201_fb_edt.bmp","Kept","0.2,0.6","11","0.2","93","20"
"html-keyboard-response","156","376633","0.0-18.0-1.20","603f2ea779e354025b981c15","bdp_trlrn","Tue May 11 2021 22:11:28 GMT-0500 (Central Daylight Time)","606302","Untrustworthy,Trustworthy","","823","","","","decision","","<div class='trialDiv'><img src='trustrating_stim/white_00785_941205_fb_edt.bmp'><br><font class='baseline'><strong>Marcus</strong><p>Choose number of points to send.</font><div class='respPicDiv'><img src='img/responseButtonOffersNo0L.png' class='respPic'></div></div>","1","6","Marcus","trustrating_stim/white_00785_941205_fb_edt.bmp","Shared","0.6,0.2","14","0.6","98","21"
"html-keyboard-response","157","376887","0.0-18.0-2.20","603f2ea779e354025b981c15","bdp_trlrn","Tue May 11 2021 22:11:28 GMT-0500 (Central Daylight Time)","606302","Untrustworthy,Trustworthy","","null","","","","decisionFB","","<div class='trialDiv'><img src='trustrating_stim/white_00785_941205_fb_edt.bmp'><br><font class='baseline'><strong>Marcus</strong><p>Choose number of points to send.</font><div class='respPicDiv'><img src='img/responseButtonOffersNo0L1.png' class='respPic'></div></div>","null","6","Marcus","trustrating_stim/white_00785_941205_fb_edt.bmp","Shared","0.6,0.2","14","0.6","97","21"
"html-keyboard-response","158","377889","0.0-18.0-3.20","603f2ea779e354025b981c15","bdp_trlrn","Tue May 11 2021 22:11:28 GMT-0500 (Central Daylight Time)","606302","Untrustworthy,Trustworthy","","null","","","","feedback","","<div class='trialDiv'><img src='trustrating_stim/white_00785_941205_fb_edt.bmp'><br><font class='baseline'><strong>Marcus</strong><p>Received: <strong>4</strong></font> &nbsp; &nbsp; &nbsp; &nbsp; &nbsp; &nbsp;<font class='posOutcome'>Shared back: <strong>2</strong></font></font><div class='respPicDiv'><img src='img/responseButtonOffersNo0_wht.png' class='respPic'></div></div>","null","6","Marcus","trustrating_stim/white_00785_941205_fb_edt.bmp","Shared","0.6,0.2","14","0.6","99","21"
"html-keyboard-response","159","378581","0.0-18.0-1.21","603f2ea779e354025b981c15","bdp_trlrn","Tue May 11 2021 22:11:28 GMT-0500 (Central Daylight Time)","606302","Untrustworthy,Trustworthy","","691","","","","decision","","<div class='trialDiv'><img src='trustrating_stim/white_00761_941201_fb_edt.bmp'><br><font class='baseline'><strong>Richard</strong><p>Choose number of points to send.</font><div class='respPicDiv'><img src='img/responseButtonOffersNo0L.png' class='respPic'></div></div>","1","6","Richard","trustrating_stim/white_00761_941201_fb_edt.bmp","Shared","0.2,0.6","11","0.2","104","22"
"html-keyboard-response","160","378833","0.0-18.0-2.21","603f2ea779e354025b981c15","bdp_trlrn","Tue May 11 2021 22:11:28 GMT-0500 (Central Daylight Time)","606302","Untrustworthy,Trustworthy","","null","","","","decisionFB","","<div class='trialDiv'><img src='trustrating_stim/white_00761_941201_fb_edt.bmp'><br><font class='baseline'><strong>Richard</strong><p>Choose number of points to send.</font><div class='respPicDiv'><img src='img/responseButtonOffersNo0L1.png' class='respPic'></div></div>","null","6","Richard","trustrating_stim/white_00761_941201_fb_edt.bmp","Shared","0.2,0.6","11","0.2","103","22"
"html-keyboard-response","161","379836","0.0-18.0-3.21","603f2ea779e354025b981c15","bdp_trlrn","Tue May 11 2021 22:11:28 GMT-0500 (Central Daylight Time)","606302","Untrustworthy,Trustworthy","","null","","","","feedback","","<div class='trialDiv'><img src='trustrating_stim/white_00761_941201_fb_edt.bmp'><br><font class='baseline'><strong>Richard</strong><p>Received: <strong>4</strong></font> &nbsp; &nbsp; &nbsp; &nbsp; &nbsp; &nbsp;<font class='posOutcome'>Shared back: <strong>2</strong></font></font><div class='respPicDiv'><img src='img/responseButtonOffersNo0_wht.png' class='respPic'></div></div>","null","6","Richard","trustrating_stim/white_00761_941201_fb_edt.bmp","Shared","0.2,0.6","11","0.2","105","22"
"html-keyboard-response","162","380505","0.0-18.0-1.22","603f2ea779e354025b981c15","bdp_trlrn","Tue May 11 2021 22:11:28 GMT-0500 (Central Daylight Time)","606302","Untrustworthy,Trustworthy","","668","","","","decision","","<div class='trialDiv'><img src='trustrating_stim/white_mw099.bmp'><br><font class='baseline'><strong>Timothy</strong><p>Choose number of points to send.</font><div class='respPicDiv'><img src='img/responseButtonOffersNo0L.png' class='respPic'></div></div>","1","6","Timothy","trustrating_stim/white_mw099.bmp","Kept","0.4,0.8","12","0.4","110","23"
"html-keyboard-response","163","380757","0.0-18.0-2.22","603f2ea779e354025b981c15","bdp_trlrn","Tue May 11 2021 22:11:28 GMT-0500 (Central Daylight Time)","606302","Untrustworthy,Trustworthy","","null","","","","decisionFB","","<div class='trialDiv'><img src='trustrating_stim/white_mw099.bmp'><br><font class='baseline'><strong>Timothy</strong><p>Choose number of points to send.</font><div class='respPicDiv'><img src='img/responseButtonOffersNo0L1.png' class='respPic'></div></div>","null","6","Timothy","trustrating_stim/white_mw099.bmp","Kept","0.4,0.8","12","0.4","109","23"
"html-keyboard-response","164","381759","0.0-18.0-3.22","603f2ea779e354025b981c15","bdp_trlrn","Tue May 11 2021 22:11:28 GMT-0500 (Central Daylight Time)","606302","Untrustworthy,Trustworthy","","null","","","","feedback","","<div class='trialDiv'><img src='trustrating_stim/white_mw099.bmp'><br><font class='baseline'><strong>Timothy</strong><p>Received: <strong>4</strong></font> &nbsp; &nbsp; &nbsp; &nbsp; &nbsp; &nbsp;<font class='negOutcome'>Shared back: <strong>0</strong></font></font><div class='respPicDiv'><img src='img/responseButtonOffersNo0_wht.png' class='respPic'></div></div>","null","6","Timothy","trustrating_stim/white_mw099.bmp","Kept","0.4,0.8","12","0.4","109","23"
"html-keyboard-response","165","382242","0.0-18.0-1.23","603f2ea779e354025b981c15","bdp_trlrn","Tue May 11 2021 22:11:28 GMT-0500 (Central Daylight Time)","606302","Untrustworthy,Trustworthy","","482","","","","decision","","<div class='trialDiv'><img src='trustrating_stim/white_mw084.bmp'><br><font class='baseline'><strong>Daniel</strong><p>Choose number of points to send.</font><div class='respPicDiv'><img src='img/responseButtonOffersNo0L.png' class='respPic'></div></div>","1","6","Daniel","trustrating_stim/white_mw084.bmp","Shared","0.8,0.4","13","0.8","114","24"
"html-keyboard-response","166","382497","0.0-18.0-2.23","603f2ea779e354025b981c15","bdp_trlrn","Tue May 11 2021 22:11:28 GMT-0500 (Central Daylight Time)","606302","Untrustworthy,Trustworthy","","null","","","","decisionFB","","<div class='trialDiv'><img src='trustrating_stim/white_mw084.bmp'><br><font class='baseline'><strong>Daniel</strong><p>Choose number of points to send.</font><div class='respPicDiv'><img src='img/responseButtonOffersNo0L1.png' class='respPic'></div></div>","null","6","Daniel","trustrating_stim/white_mw084.bmp","Shared","0.8,0.4","13","0.8","113","24"
"html-keyboard-response","167","383500","0.0-18.0-3.23","603f2ea779e354025b981c15","bdp_trlrn","Tue May 11 2021 22:11:28 GMT-0500 (Central Daylight Time)","606302","Untrustworthy,Trustworthy","","null","","","","feedback","","<div class='trialDiv'><img src='trustrating_stim/white_mw084.bmp'><br><font class='baseline'><strong>Daniel</strong><p>Received: <strong>4</strong></font> &nbsp; &nbsp; &nbsp; &nbsp; &nbsp; &nbsp;<font class='posOutcome'>Shared back: <strong>2</strong></font></font><div class='respPicDiv'><img src='img/responseButtonOffersNo0_wht.png' class='respPic'></div></div>","null","6","Daniel","trustrating_stim/white_mw084.bmp","Shared","0.8,0.4","13","0.8","115","24"
"html-keyboard-response","168","384957","0.0-18.0-1.24","603f2ea779e354025b981c15","bdp_trlrn","Tue May 11 2021 22:11:28 GMT-0500 (Central Daylight Time)","606302","Untrustworthy,Trustworthy","","1456","","","","decision","","<div class='trialDiv'><img src='trustrating_stim/white_00761_941201_fb_edt.bmp'><br><font class='baseline'><strong>Richard</strong><p>Choose number of points to send.</font><div class='respPicDiv'><img src='img/responseButtonOffersNo0L.png' class='respPic'></div></div>","5","7","Richard","trustrating_stim/white_00761_941201_fb_edt.bmp","Shared","0.2,0.6","11","0.2","120","25"
"html-keyboard-response","169","385212","0.0-18.0-2.24","603f2ea779e354025b981c15","bdp_trlrn","Tue May 11 2021 22:11:28 GMT-0500 (Central Daylight Time)","606302","Untrustworthy,Trustworthy","","null","","","","decisionFB","","<div class='trialDiv'><img src='trustrating_stim/white_00761_941201_fb_edt.bmp'><br><font class='baseline'><strong>Richard</strong><p>Choose number of points to send.</font><div class='respPicDiv'><img src='img/responseButtonOffersNo0L5.png' class='respPic'></div></div>","null","7","Richard","trustrating_stim/white_00761_941201_fb_edt.bmp","Shared","0.2,0.6","11","0.2","115","25"
"html-keyboard-response","170","386215","0.0-18.0-3.24","603f2ea779e354025b981c15","bdp_trlrn","Tue May 11 2021 22:11:28 GMT-0500 (Central Daylight Time)","606302","Untrustworthy,Trustworthy","","null","","","","feedback","","<div class='trialDiv'><img src='trustrating_stim/white_00761_941201_fb_edt.bmp'><br><font class='baseline'><strong>Richard</strong><p>Received: <strong>20</strong></font> &nbsp; &nbsp; &nbsp; &nbsp; &nbsp; &nbsp;<font class='posOutcome'>Shared back: <strong>10</strong></font></font><div class='respPicDiv'><img src='img/responseButtonOffersNo0_wht.png' class='respPic'></div></div>","null","7","Richard","trustrating_stim/white_00761_941201_fb_edt.bmp","Shared","0.2,0.6","11","0.2","125","25"
"html-keyboard-response","171","389031","0.0-18.0-1.25","603f2ea779e354025b981c15","bdp_trlrn","Tue May 11 2021 22:11:28 GMT-0500 (Central Daylight Time)","606302","Untrustworthy,Trustworthy","","2815","","","","decision","","<div class='trialDiv'><img src='trustrating_stim/white_mw084.bmp'><br><font class='baseline'><strong>Daniel</strong><p>Choose number of points to send.</font><div class='respPicDiv'><img src='img/responseButtonOffersNo0L.png' class='respPic'></div></div>","4","7","Daniel","trustrating_stim/white_mw084.bmp","Kept","0.8,0.4","13","0.8","130","26"
"html-keyboard-response","172","389287","0.0-18.0-2.25","603f2ea779e354025b981c15","bdp_trlrn","Tue May 11 2021 22:11:28 GMT-0500 (Central Daylight Time)","606302","Untrustworthy,Trustworthy","","null","","","","decisionFB","","<div class='trialDiv'><img src='trustrating_stim/white_mw084.bmp'><br><font class='baseline'><strong>Daniel</strong><p>Choose number of points to send.</font><div class='respPicDiv'><img src='img/responseButtonOffersNo0L4.png' class='respPic'></div></div>","null","7","Daniel","trustrating_stim/white_mw084.bmp","Kept","0.8,0.4","13","0.8","126","26"
"html-keyboard-response","173","390289","0.0-18.0-3.25","603f2ea779e354025b981c15","bdp_trlrn","Tue May 11 2021 22:11:28 GMT-0500 (Central Daylight Time)","606302","Untrustworthy,Trustworthy","","null","","","","feedback","","<div class='trialDiv'><img src='trustrating_stim/white_mw084.bmp'><br><font class='baseline'><strong>Daniel</strong><p>Received: <strong>16</strong></font> &nbsp; &nbsp; &nbsp; &nbsp; &nbsp; &nbsp;<font class='negOutcome'>Shared back: <strong>0</strong></font></font><div class='respPicDiv'><img src='img/responseButtonOffersNo0_wht.png' class='respPic'></div></div>","null","7","Daniel","trustrating_stim/white_mw084.bmp","Kept","0.8,0.4","13","0.8","126","26"
"html-keyboard-response","174","391393","0.0-18.0-1.26","603f2ea779e354025b981c15","bdp_trlrn","Tue May 11 2021 22:11:28 GMT-0500 (Central Daylight Time)","606302","Untrustworthy,Trustworthy","","1103","","","","decision","","<div class='trialDiv'><img src='trustrating_stim/white_00785_941205_fb_edt.bmp'><br><font class='baseline'><strong>Marcus</strong><p>Choose number of points to send.</font><div class='respPicDiv'><img src='img/responseButtonOffersNo0L.png' class='respPic'></div></div>","3","7","Marcus","trustrating_stim/white_00785_941205_fb_edt.bmp","Kept","0.6,0.2","14","0.6","131","27"
"html-keyboard-response","175","391644","0.0-18.0-2.26","603f2ea779e354025b981c15","bdp_trlrn","Tue May 11 2021 22:11:28 GMT-0500 (Central Daylight Time)","606302","Untrustworthy,Trustworthy","","null","","","","decisionFB","","<div class='trialDiv'><img src='trustrating_stim/white_00785_941205_fb_edt.bmp'><br><font class='baseline'><strong>Marcus</strong><p>Choose number of points to send.</font><div class='respPicDiv'><img src='img/responseButtonOffersNo0L3.png' class='respPic'></div></div>","null","7","Marcus","trustrating_stim/white_00785_941205_fb_edt.bmp","Kept","0.6,0.2","14","0.6","128","27"
"html-keyboard-response","176","392647","0.0-18.0-3.26","603f2ea779e354025b981c15","bdp_trlrn","Tue May 11 2021 22:11:28 GMT-0500 (Central Daylight Time)","606302","Untrustworthy,Trustworthy","","null","","","","feedback","","<div class='trialDiv'><img src='trustrating_stim/white_00785_941205_fb_edt.bmp'><br><font class='baseline'><strong>Marcus</strong><p>Received: <strong>12</strong></font> &nbsp; &nbsp; &nbsp; &nbsp; &nbsp; &nbsp;<font class='negOutcome'>Shared back: <strong>0</strong></font></font><div class='respPicDiv'><img src='img/responseButtonOffersNo0_wht.png' class='respPic'></div></div>","null","7","Marcus","trustrating_stim/white_00785_941205_fb_edt.bmp","Kept","0.6,0.2","14","0.6","128","27"
"html-keyboard-response","177","393333","0.0-18.0-1.27","603f2ea779e354025b981c15","bdp_trlrn","Tue May 11 2021 22:11:28 GMT-0500 (Central Daylight Time)","606302","Untrustworthy,Trustworthy","","685","","","","decision","","<div class='trialDiv'><img src='trustrating_stim/white_mw099.bmp'><br><font class='baseline'><strong>Timothy</strong><p>Choose number of points to send.</font><div class='respPicDiv'><img src='img/responseButtonOffersNo0L.png' class='respPic'></div></div>","2","7","Timothy","trustrating_stim/white_mw099.bmp","Kept","0.4,0.8","12","0.4","133","28"
"html-keyboard-response","178","393585","0.0-18.0-2.27","603f2ea779e354025b981c15","bdp_trlrn","Tue May 11 2021 22:11:28 GMT-0500 (Central Daylight Time)","606302","Untrustworthy,Trustworthy","","null","","","","decisionFB","","<div class='trialDiv'><img src='trustrating_stim/white_mw099.bmp'><br><font class='baseline'><strong>Timothy</strong><p>Choose number of points to send.</font><div class='respPicDiv'><img src='img/responseButtonOffersNo0L2.png' class='respPic'></div></div>","null","7","Timothy","trustrating_stim/white_mw099.bmp","Kept","0.4,0.8","12","0.4","131","28"
"html-keyboard-response","179","394588","0.0-18.0-3.27","603f2ea779e354025b981c15","bdp_trlrn","Tue May 11 2021 22:11:28 GMT-0500 (Central Daylight Time)","606302","Untrustworthy,Trustworthy","","null","","","","feedback","","<div class='trialDiv'><img src='trustrating_stim/white_mw099.bmp'><br><font class='baseline'><strong>Timothy</strong><p>Received: <strong>8</strong></font> &nbsp; &nbsp; &nbsp; &nbsp; &nbsp; &nbsp;<font class='negOutcome'>Shared back: <strong>0</strong></font></font><div class='respPicDiv'><img src='img/responseButtonOffersNo0_wht.png' class='respPic'></div></div>","null","7","Timothy","trustrating_stim/white_mw099.bmp","Kept","0.4,0.8","12","0.4","131","28"
"html-keyboard-response","180","395340","0.0-18.0-1.28","603f2ea779e354025b981c15","bdp_trlrn","Tue May 11 2021 22:11:28 GMT-0500 (Central Daylight Time)","606302","Untrustworthy,Trustworthy","","751","","","","decision","","<div class='trialDiv'><img src='trustrating_stim/white_00785_941205_fb_edt.bmp'><br><font class='baseline'><strong>Marcus</strong><p>Choose number of points to send.</font><div class='respPicDiv'><img src='img/responseButtonOffersNo0L.png' class='respPic'></div></div>","5","8","Marcus","trustrating_stim/white_00785_941205_fb_edt.bmp","Kept","0.6,0.2","14","0.6","136","29"
"html-keyboard-response","181","395592","0.0-18.0-2.28","603f2ea779e354025b981c15","bdp_trlrn","Tue May 11 2021 22:11:28 GMT-0500 (Central Daylight Time)","606302","Untrustworthy,Trustworthy","","null","","","","decisionFB","","<div class='trialDiv'><img src='trustrating_stim/white_00785_941205_fb_edt.bmp'><br><font class='baseline'><strong>Marcus</strong><p>Choose number of points to send.</font><div class='respPicDiv'><img src='img/responseButtonOffersNo0L5.png' class='respPic'></div></div>","null","8","Marcus","trustrating_stim/white_00785_941205_fb_edt.bmp","Kept","0.6,0.2","14","0.6","131","29"
"html-keyboard-response","182","396594","0.0-18.0-3.28","603f2ea779e354025b981c15","bdp_trlrn","Tue May 11 2021 22:11:28 GMT-0500 (Central Daylight Time)","606302","Untrustworthy,Trustworthy","","null","","","","feedback","","<div class='trialDiv'><img src='trustrating_stim/white_00785_941205_fb_edt.bmp'><br><font class='baseline'><strong>Marcus</strong><p>Received: <strong>20</strong></font> &nbsp; &nbsp; &nbsp; &nbsp; &nbsp; &nbsp;<font class='negOutcome'>Shared back: <strong>0</strong></font></font><div class='respPicDiv'><img src='img/responseButtonOffersNo0_wht.png' class='respPic'></div></div>","null","8","Marcus","trustrating_stim/white_00785_941205_fb_edt.bmp","Kept","0.6,0.2","14","0.6","131","29"
"html-keyboard-response","183","398808","0.0-18.0-1.29","603f2ea779e354025b981c15","bdp_trlrn","Tue May 11 2021 22:11:28 GMT-0500 (Central Daylight Time)","606302","Untrustworthy,Trustworthy","","2212","","","","decision","","<div class='trialDiv'><img src='trustrating_stim/white_00761_941201_fb_edt.bmp'><br><font class='baseline'><strong>Richard</strong><p>Choose number of points to send.</font><div class='respPicDiv'><img src='img/responseButtonOffersNo0L.png' class='respPic'></div></div>","1","8","Richard","trustrating_stim/white_00761_941201_fb_edt.bmp","Kept","0.2,0.6","11","0.2","136","30"
"html-keyboard-response","184","399063","0.0-18.0-2.29","603f2ea779e354025b981c15","bdp_trlrn","Tue May 11 2021 22:11:28 GMT-0500 (Central Daylight Time)","606302","Untrustworthy,Trustworthy","","null","","","","decisionFB","","<div class='trialDiv'><img src='trustrating_stim/white_00761_941201_fb_edt.bmp'><br><font class='baseline'><strong>Richard</strong><p>Choose number of points to send.</font><div class='respPicDiv'><img src='img/responseButtonOffersNo0L1.png' class='respPic'></div></div>","null","8","Richard","trustrating_stim/white_00761_941201_fb_edt.bmp","Kept","0.2,0.6","11","0.2","135","30"
"html-keyboard-response","185","400065","0.0-18.0-3.29","603f2ea779e354025b981c15","bdp_trlrn","Tue May 11 2021 22:11:28 GMT-0500 (Central Daylight Time)","606302","Untrustworthy,Trustworthy","","null","","","","feedback","","<div class='trialDiv'><img src='trustrating_stim/white_00761_941201_fb_edt.bmp'><br><font class='baseline'><strong>Richard</strong><p>Received: <strong>4</strong></font> &nbsp; &nbsp; &nbsp; &nbsp; &nbsp; &nbsp;<font class='negOutcome'>Shared back: <strong>0</strong></font></font><div class='respPicDiv'><img src='img/responseButtonOffersNo0_wht.png' class='respPic'></div></div>","null","8","Richard","trustrating_stim/white_00761_941201_fb_edt.bmp","Kept","0.2,0.6","11","0.2","135","30"
"html-keyboard-response","186","400350","0.0-18.0-1.30","603f2ea779e354025b981c15","bdp_trlrn","Tue May 11 2021 22:11:28 GMT-0500 (Central Daylight Time)","606302","Untrustworthy,Trustworthy","","282","","","","decision","","<div class='trialDiv'><img src='trustrating_stim/white_mw099.bmp'><br><font class='baseline'><strong>Timothy</strong><p>Choose number of points to send.</font><div class='respPicDiv'><img src='img/responseButtonOffersNo0L.png' class='respPic'></div></div>","2","8","Timothy","trustrating_stim/white_mw099.bmp","Kept","0.4,0.8","12","0.4","140","31"
"html-keyboard-response","187","400604","0.0-18.0-2.30","603f2ea779e354025b981c15","bdp_trlrn","Tue May 11 2021 22:11:28 GMT-0500 (Central Daylight Time)","606302","Untrustworthy,Trustworthy","","null","","","","decisionFB","","<div class='trialDiv'><img src='trustrating_stim/white_mw099.bmp'><br><font class='baseline'><strong>Timothy</strong><p>Choose number of points to send.</font><div class='respPicDiv'><img src='img/responseButtonOffersNo0L2.png' class='respPic'></div></div>","null","8","Timothy","trustrating_stim/white_mw099.bmp","Kept","0.4,0.8","12","0.4","138","31"
"html-keyboard-response","188","401606","0.0-18.0-3.30","603f2ea779e354025b981c15","bdp_trlrn","Tue May 11 2021 22:11:28 GMT-0500 (Central Daylight Time)","606302","Untrustworthy,Trustworthy","","null","","","","feedback","","<div class='trialDiv'><img src='trustrating_stim/white_mw099.bmp'><br><font class='baseline'><strong>Timothy</strong><p>Received: <strong>8</strong></font> &nbsp; &nbsp; &nbsp; &nbsp; &nbsp; &nbsp;<font class='negOutcome'>Shared back: <strong>0</strong></font></font><div class='respPicDiv'><img src='img/responseButtonOffersNo0_wht.png' class='respPic'></div></div>","null","8","Timothy","trustrating_stim/white_mw099.bmp","Kept","0.4,0.8","12","0.4","138","31"
"html-keyboard-response","189","401869","0.0-18.0-1.31","603f2ea779e354025b981c15","bdp_trlrn","Tue May 11 2021 22:11:28 GMT-0500 (Central Daylight Time)","606302","Untrustworthy,Trustworthy","","262","","","","decision","","<div class='trialDiv'><img src='trustrating_stim/white_mw084.bmp'><br><font class='baseline'><strong>Daniel</strong><p>Choose number of points to send.</font><div class='respPicDiv'><img src='img/responseButtonOffersNo0L.png' class='respPic'></div></div>","1","8","Daniel","trustrating_stim/white_mw084.bmp","Shared","0.8,0.4","13","0.8","143","32"
"html-keyboard-response","190","402124","0.0-18.0-2.31","603f2ea779e354025b981c15","bdp_trlrn","Tue May 11 2021 22:11:28 GMT-0500 (Central Daylight Time)","606302","Untrustworthy,Trustworthy","","null","","","","decisionFB","","<div class='trialDiv'><img src='trustrating_stim/white_mw084.bmp'><br><font class='baseline'><strong>Daniel</strong><p>Choose number of points to send.</font><div class='respPicDiv'><img src='img/responseButtonOffersNo0L1.png' class='respPic'></div></div>","null","8","Daniel","trustrating_stim/white_mw084.bmp","Shared","0.8,0.4","13","0.8","142","32"
"html-keyboard-response","191","403127","0.0-18.0-3.31","603f2ea779e354025b981c15","bdp_trlrn","Tue May 11 2021 22:11:28 GMT-0500 (Central Daylight Time)","606302","Untrustworthy,Trustworthy","","null","","","","feedback","","<div class='trialDiv'><img src='trustrating_stim/white_mw084.bmp'><br><font class='baseline'><strong>Daniel</strong><p>Received: <strong>4</strong></font> &nbsp; &nbsp; &nbsp; &nbsp; &nbsp; &nbsp;<font class='posOutcome'>Shared back: <strong>2</strong></font></font><div class='respPicDiv'><img src='img/responseButtonOffersNo0_wht.png' class='respPic'></div></div>","null","8","Daniel","trustrating_stim/white_mw084.bmp","Shared","0.8,0.4","13","0.8","144","32"
"html-keyboard-response","192","403595","0.0-18.0-1.32","603f2ea779e354025b981c15","bdp_trlrn","Tue May 11 2021 22:11:28 GMT-0500 (Central Daylight Time)","606302","Untrustworthy,Trustworthy","","466","","","","decision","","<div class='trialDiv'><img src='trustrating_stim/white_00761_941201_fb_edt.bmp'><br><font class='baseline'><strong>Richard</strong><p>Choose number of points to send.</font><div class='respPicDiv'><img src='img/responseButtonOffersNo0L.png' class='respPic'></div></div>","1","9","Richard","trustrating_stim/white_00761_941201_fb_edt.bmp","Shared","0.2,0.6","11","0.2","149","33"
"html-keyboard-response","193","403847","0.0-18.0-2.32","603f2ea779e354025b981c15","bdp_trlrn","Tue May 11 2021 22:11:28 GMT-0500 (Central Daylight Time)","606302","Untrustworthy,Trustworthy","","null","","","","decisionFB","","<div class='trialDiv'><img src='trustrating_stim/white_00761_941201_fb_edt.bmp'><br><font class='baseline'><strong>Richard</strong><p>Choose number of points to send.</font><div class='respPicDiv'><img src='img/responseButtonOffersNo0L1.png' class='respPic'></div></div>","null","9","Richard","trustrating_stim/white_00761_941201_fb_edt.bmp","Shared","0.2,0.6","11","0.2","148","33"
"html-keyboard-response","194","404850","0.0-18.0-3.32","603f2ea779e354025b981c15","bdp_trlrn","Tue May 11 2021 22:11:28 GMT-0500 (Central Daylight Time)","606302","Untrustworthy,Trustworthy","","null","","","","feedback","","<div class='trialDiv'><img src='trustrating_stim/white_00761_941201_fb_edt.bmp'><br><font class='baseline'><strong>Richard</strong><p>Received: <strong>4</strong></font> &nbsp; &nbsp; &nbsp; &nbsp; &nbsp; &nbsp;<font class='posOutcome'>Shared back: <strong>2</strong></font></font><div class='respPicDiv'><img src='img/responseButtonOffersNo0_wht.png' class='respPic'></div></div>","null","9","Richard","trustrating_stim/white_00761_941201_fb_edt.bmp","Shared","0.2,0.6","11","0.2","150","33"
"html-keyboard-response","195","405433","0.0-18.0-1.33","603f2ea779e354025b981c15","bdp_trlrn","Tue May 11 2021 22:11:28 GMT-0500 (Central Daylight Time)","606302","Untrustworthy,Trustworthy","","581","","","","decision","","<div class='trialDiv'><img src='trustrating_stim/white_00785_941205_fb_edt.bmp'><br><font class='baseline'><strong>Marcus</strong><p>Choose number of points to send.</font><div class='respPicDiv'><img src='img/responseButtonOffersNo0L.png' class='respPic'></div></div>","1","9","Marcus","trustrating_stim/white_00785_941205_fb_edt.bmp","Shared","0.6,0.2","14","0.6","155","34"
"html-keyboard-response","196","405687","0.0-18.0-2.33","603f2ea779e354025b981c15","bdp_trlrn","Tue May 11 2021 22:11:28 GMT-0500 (Central Daylight Time)","606302","Untrustworthy,Trustworthy","","null","","","","decisionFB","","<div class='trialDiv'><img src='trustrating_stim/white_00785_941205_fb_edt.bmp'><br><font class='baseline'><strong>Marcus</strong><p>Choose number of points to send.</font><div class='respPicDiv'><img src='img/responseButtonOffersNo0L1.png' class='respPic'></div></div>","null","9","Marcus","trustrating_stim/white_00785_941205_fb_edt.bmp","Shared","0.6,0.2","14","0.6","154","34"
"html-keyboard-response","197","406690","0.0-18.0-3.33","603f2ea779e354025b981c15","bdp_trlrn","Tue May 11 2021 22:11:28 GMT-0500 (Central Daylight Time)","606302","Untrustworthy,Trustworthy","","null","","","","feedback","","<div class='trialDiv'><img src='trustrating_stim/white_00785_941205_fb_edt.bmp'><br><font class='baseline'><strong>Marcus</strong><p>Received: <strong>4</strong></font> &nbsp; &nbsp; &nbsp; &nbsp; &nbsp; &nbsp;<font class='posOutcome'>Shared back: <strong>2</strong></font></font><div class='respPicDiv'><img src='img/responseButtonOffersNo0_wht.png' class='respPic'></div></div>","null","9","Marcus","trustrating_stim/white_00785_941205_fb_edt.bmp","Shared","0.6,0.2","14","0.6","156","34"
"html-keyboard-response","198","407053","0.0-18.0-1.34","603f2ea779e354025b981c15","bdp_trlrn","Tue May 11 2021 22:11:28 GMT-0500 (Central Daylight Time)","606302","Untrustworthy,Trustworthy","","362","","","","decision","","<div class='trialDiv'><img src='trustrating_stim/white_mw084.bmp'><br><font class='baseline'><strong>Daniel</strong><p>Choose number of points to send.</font><div class='respPicDiv'><img src='img/responseButtonOffersNo0L.png' class='respPic'></div></div>","1","9","Daniel","trustrating_stim/white_mw084.bmp","Shared","0.8,0.4","13","0.8","161","35"
"html-keyboard-response","199","407308","0.0-18.0-2.34","603f2ea779e354025b981c15","bdp_trlrn","Tue May 11 2021 22:11:28 GMT-0500 (Central Daylight Time)","606302","Untrustworthy,Trustworthy","","null","","","","decisionFB","","<div class='trialDiv'><img src='trustrating_stim/white_mw084.bmp'><br><font class='baseline'><strong>Daniel</strong><p>Choose number of points to send.</font><div class='respPicDiv'><img src='img/responseButtonOffersNo0L1.png' class='respPic'></div></div>","null","9","Daniel","trustrating_stim/white_mw084.bmp","Shared","0.8,0.4","13","0.8","160","35"
"html-keyboard-response","200","408311","0.0-18.0-3.34","603f2ea779e354025b981c15","bdp_trlrn","Tue May 11 2021 22:11:28 GMT-0500 (Central Daylight Time)","606302","Untrustworthy,Trustworthy","","null","","","","feedback","","<div class='trialDiv'><img src='trustrating_stim/white_mw084.bmp'><br><font class='baseline'><strong>Daniel</strong><p>Received: <strong>4</strong></font> &nbsp; &nbsp; &nbsp; &nbsp; &nbsp; &nbsp;<font class='posOutcome'>Shared back: <strong>2</strong></font></font><div class='respPicDiv'><img src='img/responseButtonOffersNo0_wht.png' class='respPic'></div></div>","null","9","Daniel","trustrating_stim/white_mw084.bmp","Shared","0.8,0.4","13","0.8","162","35"
"html-keyboard-response","201","408589","0.0-18.0-1.35","603f2ea779e354025b981c15","bdp_trlrn","Tue May 11 2021 22:11:28 GMT-0500 (Central Daylight Time)","606302","Untrustworthy,Trustworthy","","277","","","","decision","","<div class='trialDiv'><img src='trustrating_stim/white_mw099.bmp'><br><font class='baseline'><strong>Timothy</strong><p>Choose number of points to send.</font><div class='respPicDiv'><img src='img/responseButtonOffersNo0L.png' class='respPic'></div></div>","1","9","Timothy","trustrating_stim/white_mw099.bmp","Kept","0.4,0.8","12","0.4","167","36"
"html-keyboard-response","202","408842","0.0-18.0-2.35","603f2ea779e354025b981c15","bdp_trlrn","Tue May 11 2021 22:11:28 GMT-0500 (Central Daylight Time)","606302","Untrustworthy,Trustworthy","","null","","","","decisionFB","","<div class='trialDiv'><img src='trustrating_stim/white_mw099.bmp'><br><font class='baseline'><strong>Timothy</strong><p>Choose number of points to send.</font><div class='respPicDiv'><img src='img/responseButtonOffersNo0L1.png' class='respPic'></div></div>","null","9","Timothy","trustrating_stim/white_mw099.bmp","Kept","0.4,0.8","12","0.4","166","36"
