"trial_type","trial_index","time_elapsed","internal_node_id","subject_id","task","startTime","totalTime","labels","view_history","rt","event","trial","time","trialtype","success","stimulus","key_press","aground","name","faceID","outcome","agenttype","agentswpt","agentcurrpshare","face","avgRating","point_total","round"
"pavlovia","0","2","0.0-0.0","62a74b5136555a52d4911cac","bdp_trlrn","Tue Mar 14 2023 12:54:19 GMT-0500 (Central Daylight Time)","909188","Trustworthy,Untrustworthy","","","","","","","","","","","","","","","","","","","",""
"instructions","1","10891","0.0-1.0","62a74b5136555a52d4911cac","bdp_trlrn","Tue Mar 14 2023 12:54:19 GMT-0500 (Central Daylight Time)","909188","Trustworthy,Untrustworthy","[{""page_index"":0,""viewing_time"":10889}]","10889","","","","","","","","","","","","","","","","","",""
"","","","","62a74b5136555a52d4911cac","bdp_trlrn","Tue Mar 14 2023 12:54:19 GMT-0500 (Central Daylight Time)","909188","Trustworthy,Untrustworthy","","","fullscreenenter","2","17124","fullscreenenter","","","","","","","","","","","","","",""
"fullscreen","2","18009","0.0-2.0","62a74b5136555a52d4911cac","bdp_trlrn","Tue Mar 14 2023 12:54:19 GMT-0500 (Central Daylight Time)","909188","Trustworthy,Untrustworthy","","","","","","","true","","","","","","","","","","","","",""
"instructions","3","60967","0.0-4.0","62a74b5136555a52d4911cac","bdp_trlrn","Tue Mar 14 2023 12:54:19 GMT-0500 (Central Daylight Time)","909188","Trustworthy,Untrustworthy","[{""page_index"":0,""viewing_time"":20497},{""page_index"":1,""viewing_time"":22461}]","42958","","","","","","","","","","","","","","","","","",""
"instructions","4","64706","0.0-5.0","62a74b5136555a52d4911cac","bdp_trlrn","Tue Mar 14 2023 12:54:19 GMT-0500 (Central Daylight Time)","909188","Trustworthy,Untrustworthy","[{""page_index"":0,""viewing_time"":3739}]","3739","","","","","","","","","","","","","","","","","",""
"image-keyboard-response","5","66482","0.0-6.0-1.0","62a74b5136555a52d4911cac","bdp_trlrn","Tue Mar 14 2023 12:54:19 GMT-0500 (Central Daylight Time)","909188","Trustworthy,Untrustworthy","","1664","","","","rating","","trustrating_stim/white_00659_941121_fa_edt.bmp","5","","","","","","","","","","",""
"image-keyboard-response","6","66688","0.0-6.0-2.0","62a74b5136555a52d4911cac","bdp_trlrn","Tue Mar 14 2023 12:54:19 GMT-0500 (Central Daylight Time)","909188","Trustworthy,Untrustworthy","","null","","","","ratingFB","","trustrating_stim/white_00659_941121_fa_edt.bmp","null","","","","","","","","","","",""
"image-keyboard-response","7","67815","0.0-6.0-1.1","62a74b5136555a52d4911cac","bdp_trlrn","Tue Mar 14 2023 12:54:19 GMT-0500 (Central Daylight Time)","909188","Trustworthy,Untrustworthy","","1019","","","","rating","","trustrating_stim/white_00757_941201_fa_edt.bmp","5","","","","","","","","","","",""
"image-keyboard-response","8","68029","0.0-6.0-2.1","62a74b5136555a52d4911cac","bdp_trlrn","Tue Mar 14 2023 12:54:19 GMT-0500 (Central Daylight Time)","909188","Trustworthy,Untrustworthy","","null","","","","ratingFB","","trustrating_stim/white_00757_941201_fa_edt.bmp","null","","","","","","","","","","",""
"image-keyboard-response","9","68851","0.0-6.0-1.2","62a74b5136555a52d4911cac","bdp_trlrn","Tue Mar 14 2023 12:54:19 GMT-0500 (Central Daylight Time)","909188","Trustworthy,Untrustworthy","","721","","","","rating","","trustrating_stim/white_00223_940128_fb_edt.bmp","5","","","","","","","","","","",""
"image-keyboard-response","10","69058","0.0-6.0-2.2","62a74b5136555a52d4911cac","bdp_trlrn","Tue Mar 14 2023 12:54:19 GMT-0500 (Central Daylight Time)","909188","Trustworthy,Untrustworthy","","null","","","","ratingFB","","trustrating_stim/white_00223_940128_fb_edt.bmp","null","","","","","","","","","","",""
"image-keyboard-response","11","70687","0.0-6.0-1.3","62a74b5136555a52d4911cac","bdp_trlrn","Tue Mar 14 2023 12:54:19 GMT-0500 (Central Daylight Time)","909188","Trustworthy,Untrustworthy","","1519","","","","rating","","trustrating_stim/white_mw060.bmp","5","","","","","","","","","","",""
"image-keyboard-response","12","70898","0.0-6.0-2.3","62a74b5136555a52d4911cac","bdp_trlrn","Tue Mar 14 2023 12:54:19 GMT-0500 (Central Daylight Time)","909188","Trustworthy,Untrustworthy","","null","","","","ratingFB","","trustrating_stim/white_mw060.bmp","null","","","","","","","","","","",""
"image-keyboard-response","13","72638","0.0-6.0-1.4","62a74b5136555a52d4911cac","bdp_trlrn","Tue Mar 14 2023 12:54:19 GMT-0500 (Central Daylight Time)","909188","Trustworthy,Untrustworthy","","1639","","","","rating","","trustrating_stim/white_mw071.bmp","5","","","","","","","","","","",""
"image-keyboard-response","14","72846","0.0-6.0-2.4","62a74b5136555a52d4911cac","bdp_trlrn","Tue Mar 14 2023 12:54:19 GMT-0500 (Central Daylight Time)","909188","Trustworthy,Untrustworthy","","null","","","","ratingFB","","trustrating_stim/white_mw071.bmp","null","","","","","","","","","","",""
"image-keyboard-response","15","74333","0.0-6.0-1.5","62a74b5136555a52d4911cac","bdp_trlrn","Tue Mar 14 2023 12:54:19 GMT-0500 (Central Daylight Time)","909188","Trustworthy,Untrustworthy","","1379","","","","rating","","trustrating_stim/white_00785_941205_fb_edt.bmp","5","","","","","","","","","","",""
"image-keyboard-response","16","74549","0.0-6.0-2.5","62a74b5136555a52d4911cac","bdp_trlrn","Tue Mar 14 2023 12:54:19 GMT-0500 (Central Daylight Time)","909188","Trustworthy,Untrustworthy","","null","","","","ratingFB","","trustrating_stim/white_00785_941205_fb_edt.bmp","null","","","","","","","","","","",""
"image-keyboard-response","17","76177","0.0-6.0-1.6","62a74b5136555a52d4911cac","bdp_trlrn","Tue Mar 14 2023 12:54:19 GMT-0500 (Central Daylight Time)","909188","Trustworthy,Untrustworthy","","1520","","","","rating","","trustrating_stim/white_00898_960530_fa_edt.bmp","5","","","","","","","","","","",""
"image-keyboard-response","18","76382","0.0-6.0-2.6","62a74b5136555a52d4911cac","bdp_trlrn","Tue Mar 14 2023 12:54:19 GMT-0500 (Central Daylight Time)","909188","Trustworthy,Untrustworthy","","null","","","","ratingFB","","trustrating_stim/white_00898_960530_fa_edt.bmp","null","","","","","","","","","","",""
"image-keyboard-response","19","78679","0.0-6.0-1.7","62a74b5136555a52d4911cac","bdp_trlrn","Tue Mar 14 2023 12:54:19 GMT-0500 (Central Daylight Time)","909188","Trustworthy,Untrustworthy","","2188","","","","rating","","trustrating_stim/white_mw099.bmp","5","","","","","","","","","","",""
"image-keyboard-response","20","78889","0.0-6.0-2.7","62a74b5136555a52d4911cac","bdp_trlrn","Tue Mar 14 2023 12:54:19 GMT-0500 (Central Daylight Time)","909188","Trustworthy,Untrustworthy","","null","","","","ratingFB","","trustrating_stim/white_mw099.bmp","null","","","","","","","","","","",""
"image-keyboard-response","21","80103","0.0-6.0-1.8","62a74b5136555a52d4911cac","bdp_trlrn","Tue Mar 14 2023 12:54:19 GMT-0500 (Central Daylight Time)","909188","Trustworthy,Untrustworthy","","1112","","","","rating","","trustrating_stim/white_00340_940422_fa_edt.bmp","5","","","","","","","","","","",""
"image-keyboard-response","22","80309","0.0-6.0-2.8","62a74b5136555a52d4911cac","bdp_trlrn","Tue Mar 14 2023 12:54:19 GMT-0500 (Central Daylight Time)","909188","Trustworthy,Untrustworthy","","null","","","","ratingFB","","trustrating_stim/white_00340_940422_fa_edt.bmp","null","","","","","","","","","","",""
"image-keyboard-response","23","81645","0.0-6.0-1.9","62a74b5136555a52d4911cac","bdp_trlrn","Tue Mar 14 2023 12:54:19 GMT-0500 (Central Daylight Time)","909188","Trustworthy,Untrustworthy","","1225","","","","rating","","trustrating_stim/white_00761_941201_fb_edt.bmp","5","","","","","","","","","","",""
"image-keyboard-response","24","81856","0.0-6.0-2.9","62a74b5136555a52d4911cac","bdp_trlrn","Tue Mar 14 2023 12:54:19 GMT-0500 (Central Daylight Time)","909188","Trustworthy,Untrustworthy","","null","","","","ratingFB","","trustrating_stim/white_00761_941201_fb_edt.bmp","null","","","","","","","","","","",""
"image-keyboard-response","25","82850","0.0-6.0-1.10","62a74b5136555a52d4911cac","bdp_trlrn","Tue Mar 14 2023 12:54:19 GMT-0500 (Central Daylight Time)","909188","Trustworthy,Untrustworthy","","884","","","","rating","","trustrating_stim/white_mw048.bmp","5","","","","","","","","","","",""
"image-keyboard-response","26","83057","0.0-6.0-2.10","62a74b5136555a52d4911cac","bdp_trlrn","Tue Mar 14 2023 12:54:19 GMT-0500 (Central Daylight Time)","909188","Trustworthy,Untrustworthy","","null","","","","ratingFB","","trustrating_stim/white_mw048.bmp","null","","","","","","","","","","",""
"image-keyboard-response","27","83922","0.0-6.0-1.11","62a74b5136555a52d4911cac","bdp_trlrn","Tue Mar 14 2023 12:54:19 GMT-0500 (Central Daylight Time)","909188","Trustworthy,Untrustworthy","","754","","","","rating","","trustrating_stim/white_mw049.bmp","5","","","","","","","","","","",""
"image-keyboard-response","28","84132","0.0-6.0-2.11","62a74b5136555a52d4911cac","bdp_trlrn","Tue Mar 14 2023 12:54:19 GMT-0500 (Central Daylight Time)","909188","Trustworthy,Untrustworthy","","null","","","","ratingFB","","trustrating_stim/white_mw049.bmp","null","","","","","","","","","","",""
"image-keyboard-response","29","84790","0.0-6.0-1.12","62a74b5136555a52d4911cac","bdp_trlrn","Tue Mar 14 2023 12:54:19 GMT-0500 (Central Daylight Time)","909188","Trustworthy,Untrustworthy","","550","","","","rating","","trustrating_stim/white_mw035.bmp","5","","","","","","","","","","",""
"image-keyboard-response","30","84993","0.0-6.0-2.12","62a74b5136555a52d4911cac","bdp_trlrn","Tue Mar 14 2023 12:54:19 GMT-0500 (Central Daylight Time)","909188","Trustworthy,Untrustworthy","","null","","","","ratingFB","","trustrating_stim/white_mw035.bmp","null","","","","","","","","","","",""
"image-keyboard-response","31","86134","0.0-6.0-1.13","62a74b5136555a52d4911cac","bdp_trlrn","Tue Mar 14 2023 12:54:19 GMT-0500 (Central Daylight Time)","909188","Trustworthy,Untrustworthy","","1040","","","","rating","","trustrating_stim/white_00109_931230_fa_edt.bmp","5","","","","","","","","","","",""
"image-keyboard-response","32","86348","0.0-6.0-2.13","62a74b5136555a52d4911cac","bdp_trlrn","Tue Mar 14 2023 12:54:19 GMT-0500 (Central Daylight Time)","909188","Trustworthy,Untrustworthy","","null","","","","ratingFB","","trustrating_stim/white_00109_931230_fa_edt.bmp","null","","","","","","","","","","",""
"image-keyboard-response","33","87441","0.0-6.0-1.14","62a74b5136555a52d4911cac","bdp_trlrn","Tue Mar 14 2023 12:54:19 GMT-0500 (Central Daylight Time)","909188","Trustworthy,Untrustworthy","","985","","","","rating","","trustrating_stim/white_mw056.bmp","5","","","","","","","","","","",""
"image-keyboard-response","34","87650","0.0-6.0-2.14","62a74b5136555a52d4911cac","bdp_trlrn","Tue Mar 14 2023 12:54:19 GMT-0500 (Central Daylight Time)","909188","Trustworthy,Untrustworthy","","null","","","","ratingFB","","trustrating_stim/white_mw056.bmp","null","","","","","","","","","","",""
"image-keyboard-response","35","88222","0.0-6.0-1.15","62a74b5136555a52d4911cac","bdp_trlrn","Tue Mar 14 2023 12:54:19 GMT-0500 (Central Daylight Time)","909188","Trustworthy,Untrustworthy","","463","","","","rating","","trustrating_stim/white_00120_931230_fa_edt.bmp","5","","","","","","","","","","",""
"image-keyboard-response","36","88428","0.0-6.0-2.15","62a74b5136555a52d4911cac","bdp_trlrn","Tue Mar 14 2023 12:54:19 GMT-0500 (Central Daylight Time)","909188","Trustworthy,Untrustworthy","","null","","","","ratingFB","","trustrating_stim/white_00120_931230_fa_edt.bmp","null","","","","","","","","","","",""
"image-keyboard-response","37","89106","0.0-6.0-1.16","62a74b5136555a52d4911cac","bdp_trlrn","Tue Mar 14 2023 12:54:19 GMT-0500 (Central Daylight Time)","909188","Trustworthy,Untrustworthy","","568","","","","rating","","trustrating_stim/white_mw033.bmp","5","","","","","","","","","","",""
"image-keyboard-response","38","89318","0.0-6.0-2.16","62a74b5136555a52d4911cac","bdp_trlrn","Tue Mar 14 2023 12:54:19 GMT-0500 (Central Daylight Time)","909188","Trustworthy,Untrustworthy","","null","","","","ratingFB","","trustrating_stim/white_mw033.bmp","null","","","","","","","","","","",""
"image-keyboard-response","39","89883","0.0-6.0-1.17","62a74b5136555a52d4911cac","bdp_trlrn","Tue Mar 14 2023 12:54:19 GMT-0500 (Central Daylight Time)","909188","Trustworthy,Untrustworthy","","457","","","","rating","","trustrating_stim/white_mw097.bmp","5","","","","","","","","","","",""
"image-keyboard-response","40","90091","0.0-6.0-2.17","62a74b5136555a52d4911cac","bdp_trlrn","Tue Mar 14 2023 12:54:19 GMT-0500 (Central Daylight Time)","909188","Trustworthy,Untrustworthy","","null","","","","ratingFB","","trustrating_stim/white_mw097.bmp","null","","","","","","","","","","",""
"image-keyboard-response","41","90915","0.0-6.0-1.18","62a74b5136555a52d4911cac","bdp_trlrn","Tue Mar 14 2023 12:54:19 GMT-0500 (Central Daylight Time)","909188","Trustworthy,Untrustworthy","","714","","","","rating","","trustrating_stim/white_00519_940519_fb_edt.bmp","5","","","","","","","","","","",""
"image-keyboard-response","42","91122","0.0-6.0-2.18","62a74b5136555a52d4911cac","bdp_trlrn","Tue Mar 14 2023 12:54:19 GMT-0500 (Central Daylight Time)","909188","Trustworthy,Untrustworthy","","null","","","","ratingFB","","trustrating_stim/white_00519_940519_fb_edt.bmp","null","","","","","","","","","","",""
"image-keyboard-response","43","91929","0.0-6.0-1.19","62a74b5136555a52d4911cac","bdp_trlrn","Tue Mar 14 2023 12:54:19 GMT-0500 (Central Daylight Time)","909188","Trustworthy,Untrustworthy","","698","","","","rating","","trustrating_stim/white_mw089.bmp","5","","","","","","","","","","",""
"image-keyboard-response","44","92132","0.0-6.0-2.19","62a74b5136555a52d4911cac","bdp_trlrn","Tue Mar 14 2023 12:54:19 GMT-0500 (Central Daylight Time)","909188","Trustworthy,Untrustworthy","","null","","","","ratingFB","","trustrating_stim/white_mw089.bmp","null","","","","","","","","","","",""
"image-keyboard-response","45","95614","0.0-6.0-1.20","62a74b5136555a52d4911cac","bdp_trlrn","Tue Mar 14 2023 12:54:19 GMT-0500 (Central Daylight Time)","909188","Trustworthy,Untrustworthy","","3375","","","","rating","","trustrating_stim/white_mw046.bmp","5","","","","","","","","","","",""
"image-keyboard-response","46","95825","0.0-6.0-2.20","62a74b5136555a52d4911cac","bdp_trlrn","Tue Mar 14 2023 12:54:19 GMT-0500 (Central Daylight Time)","909188","Trustworthy,Untrustworthy","","null","","","","ratingFB","","trustrating_stim/white_mw046.bmp","null","","","","","","","","","","",""
"image-keyboard-response","47","97002","0.0-6.0-1.21","62a74b5136555a52d4911cac","bdp_trlrn","Tue Mar 14 2023 12:54:19 GMT-0500 (Central Daylight Time)","909188","Trustworthy,Untrustworthy","","1068","","","","rating","","trustrating_stim/white_mw084.bmp","5","","","","","","","","","","",""
"image-keyboard-response","48","97214","0.0-6.0-2.21","62a74b5136555a52d4911cac","bdp_trlrn","Tue Mar 14 2023 12:54:19 GMT-0500 (Central Daylight Time)","909188","Trustworthy,Untrustworthy","","null","","","","ratingFB","","trustrating_stim/white_mw084.bmp","null","","","","","","","","","","",""
"image-keyboard-response","49","98190","0.0-6.0-1.22","62a74b5136555a52d4911cac","bdp_trlrn","Tue Mar 14 2023 12:54:19 GMT-0500 (Central Daylight Time)","909188","Trustworthy,Untrustworthy","","865","","","","rating","","trustrating_stim/white_00807_941205_fb_edt.bmp","5","","","","","","","","","","",""
"image-keyboard-response","50","98398","0.0-6.0-2.22","62a74b5136555a52d4911cac","bdp_trlrn","Tue Mar 14 2023 12:54:19 GMT-0500 (Central Daylight Time)","909188","Trustworthy,Untrustworthy","","null","","","","ratingFB","","trustrating_stim/white_00807_941205_fb_edt.bmp","null","","","","","","","","","","",""
"image-keyboard-response","51","99057","0.0-6.0-1.23","62a74b5136555a52d4911cac","bdp_trlrn","Tue Mar 14 2023 12:54:19 GMT-0500 (Central Daylight Time)","909188","Trustworthy,Untrustworthy","","558","","","","rating","","trustrating_stim/white_00602_940928_fb_edt.bmp","5","","","","","","","","","","",""
"image-keyboard-response","52","99271","0.0-6.0-2.23","62a74b5136555a52d4911cac","bdp_trlrn","Tue Mar 14 2023 12:54:19 GMT-0500 (Central Daylight Time)","909188","Trustworthy,Untrustworthy","","null","","","","ratingFB","","trustrating_stim/white_00602_940928_fb_edt.bmp","null","","","","","","","","","","",""
"image-keyboard-response","53","100186","0.0-6.0-1.24","62a74b5136555a52d4911cac","bdp_trlrn","Tue Mar 14 2023 12:54:19 GMT-0500 (Central Daylight Time)","909188","Trustworthy,Untrustworthy","","805","","","","rating","","trustrating_stim/white_mw066.bmp","5","","","","","","","","","","",""
"image-keyboard-response","54","100394","0.0-6.0-2.24","62a74b5136555a52d4911cac","bdp_trlrn","Tue Mar 14 2023 12:54:19 GMT-0500 (Central Daylight Time)","909188","Trustworthy,Untrustworthy","","null","","","","ratingFB","","trustrating_stim/white_mw066.bmp","null","","","","","","","","","","",""
"image-keyboard-response","55","101869","0.0-6.0-1.25","62a74b5136555a52d4911cac","bdp_trlrn","Tue Mar 14 2023 12:54:19 GMT-0500 (Central Daylight Time)","909188","Trustworthy,Untrustworthy","","1373","","","","rating","","trustrating_stim/white_00129_931230_fb_edt.bmp","5","","","","","","","","","","",""
"image-keyboard-response","56","102078","0.0-6.0-2.25","62a74b5136555a52d4911cac","bdp_trlrn","Tue Mar 14 2023 12:54:19 GMT-0500 (Central Daylight Time)","909188","Trustworthy,Untrustworthy","","null","","","","ratingFB","","trustrating_stim/white_00129_931230_fb_edt.bmp","null","","","","","","","","","","",""
"image-keyboard-response","57","102867","0.0-6.0-1.26","62a74b5136555a52d4911cac","bdp_trlrn","Tue Mar 14 2023 12:54:19 GMT-0500 (Central Daylight Time)","909188","Trustworthy,Untrustworthy","","681","","","","rating","","trustrating_stim/white_mw063.bmp","5","","","","","","","","","","",""
"image-keyboard-response","58","103074","0.0-6.0-2.26","62a74b5136555a52d4911cac","bdp_trlrn","Tue Mar 14 2023 12:54:19 GMT-0500 (Central Daylight Time)","909188","Trustworthy,Untrustworthy","","null","","","","ratingFB","","trustrating_stim/white_mw063.bmp","null","","","","","","","","","","",""
"image-keyboard-response","59","105078","0.0-6.0-1.27","62a74b5136555a52d4911cac","bdp_trlrn","Tue Mar 14 2023 12:54:19 GMT-0500 (Central Daylight Time)","909188","Trustworthy,Untrustworthy","","1896","","","","rating","","trustrating_stim/white_00577_940928_fa_edt.bmp","5","","","","","","","","","","",""
"image-keyboard-response","60","105279","0.0-6.0-2.27","62a74b5136555a52d4911cac","bdp_trlrn","Tue Mar 14 2023 12:54:19 GMT-0500 (Central Daylight Time)","909188","Trustworthy,Untrustworthy","","null","","","","ratingFB","","trustrating_stim/white_00577_940928_fa_edt.bmp","null","","","","","","","","","","",""
"image-keyboard-response","61","108527","0.0-6.0-1.28","62a74b5136555a52d4911cac","bdp_trlrn","Tue Mar 14 2023 12:54:19 GMT-0500 (Central Daylight Time)","909188","Trustworthy,Untrustworthy","","3147","","","","rating","","trustrating_stim/white_mw053.bmp","5","","","","","","","","","","",""
"image-keyboard-response","62","108739","0.0-6.0-2.28","62a74b5136555a52d4911cac","bdp_trlrn","Tue Mar 14 2023 12:54:19 GMT-0500 (Central Daylight Time)","909188","Trustworthy,Untrustworthy","","null","","","","ratingFB","","trustrating_stim/white_mw053.bmp","null","","","","","","","","","","",""
"image-keyboard-response","63","110287","0.0-6.0-1.29","62a74b5136555a52d4911cac","bdp_trlrn","Tue Mar 14 2023 12:54:19 GMT-0500 (Central Daylight Time)","909188","Trustworthy,Untrustworthy","","1446","","","","rating","","trustrating_stim/white_00299_940422_fa_edt.bmp","5","","","","","","","","","","",""
"image-keyboard-response","64","110503","0.0-6.0-2.29","62a74b5136555a52d4911cac","bdp_trlrn","Tue Mar 14 2023 12:54:19 GMT-0500 (Central Daylight Time)","909188","Trustworthy,Untrustworthy","","null","","","","ratingFB","","trustrating_stim/white_00299_940422_fa_edt.bmp","null","","","","","","","","","","",""
"image-keyboard-response","65","112193","0.0-6.0-1.30","62a74b5136555a52d4911cac","bdp_trlrn","Tue Mar 14 2023 12:54:19 GMT-0500 (Central Daylight Time)","909188","Trustworthy,Untrustworthy","","1581","","","","rating","","trustrating_stim/white_00807_941205_fb_edt.bmp","5","","","","","","","","","","",""
"image-keyboard-response","66","112398","0.0-6.0-2.30","62a74b5136555a52d4911cac","bdp_trlrn","Tue Mar 14 2023 12:54:19 GMT-0500 (Central Daylight Time)","909188","Trustworthy,Untrustworthy","","null","","","","ratingFB","","trustrating_stim/white_00807_941205_fb_edt.bmp","null","","","","","","","","","","",""
"image-keyboard-response","67","113941","0.0-6.0-1.31","62a74b5136555a52d4911cac","bdp_trlrn","Tue Mar 14 2023 12:54:19 GMT-0500 (Central Daylight Time)","909188","Trustworthy,Untrustworthy","","1442","","","","rating","","trustrating_stim/white_mw033.bmp","5","","","","","","","","","","",""
"image-keyboard-response","68","114157","0.0-6.0-2.31","62a74b5136555a52d4911cac","bdp_trlrn","Tue Mar 14 2023 12:54:19 GMT-0500 (Central Daylight Time)","909188","Trustworthy,Untrustworthy","","null","","","","ratingFB","","trustrating_stim/white_mw033.bmp","null","","","","","","","","","","",""
"image-keyboard-response","69","115897","0.0-6.0-1.32","62a74b5136555a52d4911cac","bdp_trlrn","Tue Mar 14 2023 12:54:19 GMT-0500 (Central Daylight Time)","909188","Trustworthy,Untrustworthy","","1639","","","","rating","","trustrating_stim/white_00602_940928_fb_edt.bmp","5","","","","","","","","","","",""
"image-keyboard-response","70","116110","0.0-6.0-2.32","62a74b5136555a52d4911cac","bdp_trlrn","Tue Mar 14 2023 12:54:19 GMT-0500 (Central Daylight Time)","909188","Trustworthy,Untrustworthy","","null","","","","ratingFB","","trustrating_stim/white_00602_940928_fb_edt.bmp","null","","","","","","","","","","",""
"image-keyboard-response","71","117606","0.0-6.0-1.33","62a74b5136555a52d4911cac","bdp_trlrn","Tue Mar 14 2023 12:54:19 GMT-0500 (Central Daylight Time)","909188","Trustworthy,Untrustworthy","","1386","","","","rating","","trustrating_stim/white_00299_940422_fa_edt.bmp","5","","","","","","","","","","",""
"image-keyboard-response","72","117810","0.0-6.0-2.33","62a74b5136555a52d4911cac","bdp_trlrn","Tue Mar 14 2023 12:54:19 GMT-0500 (Central Daylight Time)","909188","Trustworthy,Untrustworthy","","null","","","","ratingFB","","trustrating_stim/white_00299_940422_fa_edt.bmp","null","","","","","","","","","","",""
"image-keyboard-response","73","120087","0.0-6.0-1.34","62a74b5136555a52d4911cac","bdp_trlrn","Tue Mar 14 2023 12:54:19 GMT-0500 (Central Daylight Time)","909188","Trustworthy,Untrustworthy","","2168","","","","rating","","trustrating_stim/white_mw063.bmp","5","","","","","","","","","","",""
"image-keyboard-response","74","120290","0.0-6.0-2.34","62a74b5136555a52d4911cac","bdp_trlrn","Tue Mar 14 2023 12:54:19 GMT-0500 (Central Daylight Time)","909188","Trustworthy,Untrustworthy","","null","","","","ratingFB","","trustrating_stim/white_mw063.bmp","null","","","","","","","","","","",""
"image-keyboard-response","75","121390","0.0-6.0-1.35","62a74b5136555a52d4911cac","bdp_trlrn","Tue Mar 14 2023 12:54:19 GMT-0500 (Central Daylight Time)","909188","Trustworthy,Untrustworthy","","991","","","","rating","","trustrating_stim/white_mw056.bmp","5","","","","","","","","","","",""
"image-keyboard-response","76","121596","0.0-6.0-2.35","62a74b5136555a52d4911cac","bdp_trlrn","Tue Mar 14 2023 12:54:19 GMT-0500 (Central Daylight Time)","909188","Trustworthy,Untrustworthy","","null","","","","ratingFB","","trustrating_stim/white_mw056.bmp","null","","","","","","","","","","",""
"image-keyboard-response","77","122573","0.0-6.0-1.36","62a74b5136555a52d4911cac","bdp_trlrn","Tue Mar 14 2023 12:54:19 GMT-0500 (Central Daylight Time)","909188","Trustworthy,Untrustworthy","","867","","","","rating","","trustrating_stim/white_00120_931230_fa_edt.bmp","5","","","","","","","","","","",""
"image-keyboard-response","78","122777","0.0-6.0-2.36","62a74b5136555a52d4911cac","bdp_trlrn","Tue Mar 14 2023 12:54:19 GMT-0500 (Central Daylight Time)","909188","Trustworthy,Untrustworthy","","null","","","","ratingFB","","trustrating_stim/white_00120_931230_fa_edt.bmp","null","","","","","","","","","","",""
"image-keyboard-response","79","124785","0.0-6.0-1.37","62a74b5136555a52d4911cac","bdp_trlrn","Tue Mar 14 2023 12:54:19 GMT-0500 (Central Daylight Time)","909188","Trustworthy,Untrustworthy","","1899","","","","rating","","trustrating_stim/white_mw071.bmp","5","","","","","","","","","","",""
"image-keyboard-response","80","125000","0.0-6.0-2.37","62a74b5136555a52d4911cac","bdp_trlrn","Tue Mar 14 2023 12:54:19 GMT-0500 (Central Daylight Time)","909188","Trustworthy,Untrustworthy","","null","","","","ratingFB","","trustrating_stim/white_mw071.bmp","null","","","","","","","","","","",""
"image-keyboard-response","81","126274","0.0-6.0-1.38","62a74b5136555a52d4911cac","bdp_trlrn","Tue Mar 14 2023 12:54:19 GMT-0500 (Central Daylight Time)","909188","Trustworthy,Untrustworthy","","1164","","","","rating","","trustrating_stim/white_mw053.bmp","5","","","","","","","","","","",""
"image-keyboard-response","82","126481","0.0-6.0-2.38","62a74b5136555a52d4911cac","bdp_trlrn","Tue Mar 14 2023 12:54:19 GMT-0500 (Central Daylight Time)","909188","Trustworthy,Untrustworthy","","null","","","","ratingFB","","trustrating_stim/white_mw053.bmp","null","","","","","","","","","","",""
"image-keyboard-response","83","127442","0.0-6.0-1.39","62a74b5136555a52d4911cac","bdp_trlrn","Tue Mar 14 2023 12:54:19 GMT-0500 (Central Daylight Time)","909188","Trustworthy,Untrustworthy","","851","","","","rating","","trustrating_stim/white_00109_931230_fa_edt.bmp","5","","","","","","","","","","",""
"image-keyboard-response","84","127651","0.0-6.0-2.39","62a74b5136555a52d4911cac","bdp_trlrn","Tue Mar 14 2023 12:54:19 GMT-0500 (Central Daylight Time)","909188","Trustworthy,Untrustworthy","","null","","","","ratingFB","","trustrating_stim/white_00109_931230_fa_edt.bmp","null","","","","","","","","","","",""
"image-keyboard-response","85","130244","0.0-6.0-1.40","62a74b5136555a52d4911cac","bdp_trlrn","Tue Mar 14 2023 12:54:19 GMT-0500 (Central Daylight Time)","909188","Trustworthy,Untrustworthy","","2484","","","","rating","","trustrating_stim/white_00761_941201_fb_edt.bmp","5","","","","","","","","","","",""
"image-keyboard-response","86","130454","0.0-6.0-2.40","62a74b5136555a52d4911cac","bdp_trlrn","Tue Mar 14 2023 12:54:19 GMT-0500 (Central Daylight Time)","909188","Trustworthy,Untrustworthy","","null","","","","ratingFB","","trustrating_stim/white_00761_941201_fb_edt.bmp","null","","","","","","","","","","",""
"image-keyboard-response","87","131853","0.0-6.0-1.41","62a74b5136555a52d4911cac","bdp_trlrn","Tue Mar 14 2023 12:54:19 GMT-0500 (Central Daylight Time)","909188","Trustworthy,Untrustworthy","","1289","","","","rating","","trustrating_stim/white_mw099.bmp","5","","","","","","","","","","",""
"image-keyboard-response","88","132056","0.0-6.0-2.41","62a74b5136555a52d4911cac","bdp_trlrn","Tue Mar 14 2023 12:54:19 GMT-0500 (Central Daylight Time)","909188","Trustworthy,Untrustworthy","","null","","","","ratingFB","","trustrating_stim/white_mw099.bmp","null","","","","","","","","","","",""
"image-keyboard-response","89","133227","0.0-6.0-1.42","62a74b5136555a52d4911cac","bdp_trlrn","Tue Mar 14 2023 12:54:19 GMT-0500 (Central Daylight Time)","909188","Trustworthy,Untrustworthy","","1063","","","","rating","","trustrating_stim/white_00898_960530_fa_edt.bmp","5","","","","","","","","","","",""
"image-keyboard-response","90","133428","0.0-6.0-2.42","62a74b5136555a52d4911cac","bdp_trlrn","Tue Mar 14 2023 12:54:19 GMT-0500 (Central Daylight Time)","909188","Trustworthy,Untrustworthy","","null","","","","ratingFB","","trustrating_stim/white_00898_960530_fa_edt.bmp","null","","","","","","","","","","",""
"image-keyboard-response","91","134725","0.0-6.0-1.43","62a74b5136555a52d4911cac","bdp_trlrn","Tue Mar 14 2023 12:54:19 GMT-0500 (Central Daylight Time)","909188","Trustworthy,Untrustworthy","","1188","","","","rating","","trustrating_stim/white_mw046.bmp","5","","","","","","","","","","",""
"image-keyboard-response","92","134927","0.0-6.0-2.43","62a74b5136555a52d4911cac","bdp_trlrn","Tue Mar 14 2023 12:54:19 GMT-0500 (Central Daylight Time)","909188","Trustworthy,Untrustworthy","","null","","","","ratingFB","","trustrating_stim/white_mw046.bmp","null","","","","","","","","","","",""
"image-keyboard-response","93","135903","0.0-6.0-1.44","62a74b5136555a52d4911cac","bdp_trlrn","Tue Mar 14 2023 12:54:19 GMT-0500 (Central Daylight Time)","909188","Trustworthy,Untrustworthy","","868","","","","rating","","trustrating_stim/white_00757_941201_fa_edt.bmp","5","","","","","","","","","","",""
"image-keyboard-response","94","136112","0.0-6.0-2.44","62a74b5136555a52d4911cac","bdp_trlrn","Tue Mar 14 2023 12:54:19 GMT-0500 (Central Daylight Time)","909188","Trustworthy,Untrustworthy","","null","","","","ratingFB","","trustrating_stim/white_00757_941201_fa_edt.bmp","null","","","","","","","","","","",""
"image-keyboard-response","95","137076","0.0-6.0-1.45","62a74b5136555a52d4911cac","bdp_trlrn","Tue Mar 14 2023 12:54:19 GMT-0500 (Central Daylight Time)","909188","Trustworthy,Untrustworthy","","862","","","","rating","","trustrating_stim/white_00519_940519_fb_edt.bmp","5","","","","","","","","","","",""
"image-keyboard-response","96","137292","0.0-6.0-2.45","62a74b5136555a52d4911cac","bdp_trlrn","Tue Mar 14 2023 12:54:19 GMT-0500 (Central Daylight Time)","909188","Trustworthy,Untrustworthy","","null","","","","ratingFB","","trustrating_stim/white_00519_940519_fb_edt.bmp","null","","","","","","","","","","",""
"image-keyboard-response","97","138710","0.0-6.0-1.46","62a74b5136555a52d4911cac","bdp_trlrn","Tue Mar 14 2023 12:54:19 GMT-0500 (Central Daylight Time)","909188","Trustworthy,Untrustworthy","","1316","","","","rating","","trustrating_stim/white_mw089.bmp","5","","","","","","","","","","",""
"image-keyboard-response","98","138913","0.0-6.0-2.46","62a74b5136555a52d4911cac","bdp_trlrn","Tue Mar 14 2023 12:54:19 GMT-0500 (Central Daylight Time)","909188","Trustworthy,Untrustworthy","","null","","","","ratingFB","","trustrating_stim/white_mw089.bmp","null","","","","","","","","","","",""
"image-keyboard-response","99","140470","0.0-6.0-1.47","62a74b5136555a52d4911cac","bdp_trlrn","Tue Mar 14 2023 12:54:19 GMT-0500 (Central Daylight Time)","909188","Trustworthy,Untrustworthy","","1456","","","","rating","","trustrating_stim/white_mw048.bmp","5","","","","","","","","","","",""
"image-keyboard-response","100","140672","0.0-6.0-2.47","62a74b5136555a52d4911cac","bdp_trlrn","Tue Mar 14 2023 12:54:19 GMT-0500 (Central Daylight Time)","909188","Trustworthy,Untrustworthy","","null","","","","ratingFB","","trustrating_stim/white_mw048.bmp","null","","","","","","","","","","",""
"image-keyboard-response","101","141935","0.0-6.0-1.48","62a74b5136555a52d4911cac","bdp_trlrn","Tue Mar 14 2023 12:54:19 GMT-0500 (Central Daylight Time)","909188","Trustworthy,Untrustworthy","","1153","","","","rating","","trustrating_stim/white_mw049.bmp","5","","","","","","","","","","",""
"image-keyboard-response","102","142140","0.0-6.0-2.48","62a74b5136555a52d4911cac","bdp_trlrn","Tue Mar 14 2023 12:54:19 GMT-0500 (Central Daylight Time)","909188","Trustworthy,Untrustworthy","","null","","","","ratingFB","","trustrating_stim/white_mw049.bmp","null","","","","","","","","","","",""
"image-keyboard-response","103","143364","0.0-6.0-1.49","62a74b5136555a52d4911cac","bdp_trlrn","Tue Mar 14 2023 12:54:19 GMT-0500 (Central Daylight Time)","909188","Trustworthy,Untrustworthy","","1123","","","","rating","","trustrating_stim/white_00129_931230_fb_edt.bmp","5","","","","","","","","","","",""
"image-keyboard-response","104","143573","0.0-6.0-2.49","62a74b5136555a52d4911cac","bdp_trlrn","Tue Mar 14 2023 12:54:19 GMT-0500 (Central Daylight Time)","909188","Trustworthy,Untrustworthy","","null","","","","ratingFB","","trustrating_stim/white_00129_931230_fb_edt.bmp","null","","","","","","","","","","",""
"image-keyboard-response","105","145033","0.0-6.0-1.50","62a74b5136555a52d4911cac","bdp_trlrn","Tue Mar 14 2023 12:54:19 GMT-0500 (Central Daylight Time)","909188","Trustworthy,Untrustworthy","","1358","","","","rating","","trustrating_stim/white_mw097.bmp","5","","","","","","","","","","",""
"image-keyboard-response","106","145238","0.0-6.0-2.50","62a74b5136555a52d4911cac","bdp_trlrn","Tue Mar 14 2023 12:54:19 GMT-0500 (Central Daylight Time)","909188","Trustworthy,Untrustworthy","","null","","","","ratingFB","","trustrating_stim/white_mw097.bmp","null","","","","","","","","","","",""
"image-keyboard-response","107","147443","0.0-6.0-1.51","62a74b5136555a52d4911cac","bdp_trlrn","Tue Mar 14 2023 12:54:19 GMT-0500 (Central Daylight Time)","909188","Trustworthy,Untrustworthy","","2104","","","","rating","","trustrating_stim/white_00340_940422_fa_edt.bmp","5","","","","","","","","","","",""
"image-keyboard-response","108","147646","0.0-6.0-2.51","62a74b5136555a52d4911cac","bdp_trlrn","Tue Mar 14 2023 12:54:19 GMT-0500 (Central Daylight Time)","909188","Trustworthy,Untrustworthy","","null","","","","ratingFB","","trustrating_stim/white_00340_940422_fa_edt.bmp","null","","","","","","","","","","",""
"image-keyboard-response","109","148531","0.0-6.0-1.52","62a74b5136555a52d4911cac","bdp_trlrn","Tue Mar 14 2023 12:54:19 GMT-0500 (Central Daylight Time)","909188","Trustworthy,Untrustworthy","","776","","","","rating","","trustrating_stim/white_00223_940128_fb_edt.bmp","5","","","","","","","","","","",""
"image-keyboard-response","110","148738","0.0-6.0-2.52","62a74b5136555a52d4911cac","bdp_trlrn","Tue Mar 14 2023 12:54:19 GMT-0500 (Central Daylight Time)","909188","Trustworthy,Untrustworthy","","null","","","","ratingFB","","trustrating_stim/white_00223_940128_fb_edt.bmp","null","","","","","","","","","","",""
"image-keyboard-response","111","149739","0.0-6.0-1.53","62a74b5136555a52d4911cac","bdp_trlrn","Tue Mar 14 2023 12:54:19 GMT-0500 (Central Daylight Time)","909188","Trustworthy,Untrustworthy","","892","","","","rating","","trustrating_stim/white_mw060.bmp","5","","","","","","","","","","",""
"image-keyboard-response","112","149940","0.0-6.0-2.53","62a74b5136555a52d4911cac","bdp_trlrn","Tue Mar 14 2023 12:54:19 GMT-0500 (Central Daylight Time)","909188","Trustworthy,Untrustworthy","","null","","","","ratingFB","","trustrating_stim/white_mw060.bmp","null","","","","","","","","","","",""
"image-keyboard-response","113","150807","0.0-6.0-1.54","62a74b5136555a52d4911cac","bdp_trlrn","Tue Mar 14 2023 12:54:19 GMT-0500 (Central Daylight Time)","909188","Trustworthy,Untrustworthy","","758","","","","rating","","trustrating_stim/white_00659_941121_fa_edt.bmp","5","","","","","","","","","","",""
"image-keyboard-response","114","151017","0.0-6.0-2.54","62a74b5136555a52d4911cac","bdp_trlrn","Tue Mar 14 2023 12:54:19 GMT-0500 (Central Daylight Time)","909188","Trustworthy,Untrustworthy","","null","","","","ratingFB","","trustrating_stim/white_00659_941121_fa_edt.bmp","null","","","","","","","","","","",""
"image-keyboard-response","115","151800","0.0-6.0-1.55","62a74b5136555a52d4911cac","bdp_trlrn","Tue Mar 14 2023 12:54:19 GMT-0500 (Central Daylight Time)","909188","Trustworthy,Untrustworthy","","674","","","","rating","","trustrating_stim/white_mw066.bmp","5","","","","","","","","","","",""
"image-keyboard-response","116","152016","0.0-6.0-2.55","62a74b5136555a52d4911cac","bdp_trlrn","Tue Mar 14 2023 12:54:19 GMT-0500 (Central Daylight Time)","909188","Trustworthy,Untrustworthy","","null","","","","ratingFB","","trustrating_stim/white_mw066.bmp","null","","","","","","","","","","",""
"image-keyboard-response","117","152797","0.0-6.0-1.56","62a74b5136555a52d4911cac","bdp_trlrn","Tue Mar 14 2023 12:54:19 GMT-0500 (Central Daylight Time)","909188","Trustworthy,Untrustworthy","","671","","","","rating","","trustrating_stim/white_00785_941205_fb_edt.bmp","5","","","","","","","","","","",""
"image-keyboard-response","118","153013","0.0-6.0-2.56","62a74b5136555a52d4911cac","bdp_trlrn","Tue Mar 14 2023 12:54:19 GMT-0500 (Central Daylight Time)","909188","Trustworthy,Untrustworthy","","null","","","","ratingFB","","trustrating_stim/white_00785_941205_fb_edt.bmp","null","","","","","","","","","","",""
"image-keyboard-response","119","153690","0.0-6.0-1.57","62a74b5136555a52d4911cac","bdp_trlrn","Tue Mar 14 2023 12:54:19 GMT-0500 (Central Daylight Time)","909188","Trustworthy,Untrustworthy","","568","","","","rating","","trustrating_stim/white_mw084.bmp","5","","","","","","","","","","",""
"image-keyboard-response","120","153899","0.0-6.0-2.57","62a74b5136555a52d4911cac","bdp_trlrn","Tue Mar 14 2023 12:54:19 GMT-0500 (Central Daylight Time)","909188","Trustworthy,Untrustworthy","","null","","","","ratingFB","","trustrating_stim/white_mw084.bmp","null","","","","","","","","","","",""
"image-keyboard-response","121","154667","0.0-6.0-1.58","62a74b5136555a52d4911cac","bdp_trlrn","Tue Mar 14 2023 12:54:19 GMT-0500 (Central Daylight Time)","909188","Trustworthy,Untrustworthy","","658","","","","rating","","trustrating_stim/white_00577_940928_fa_edt.bmp","5","","","","","","","","","","",""
"image-keyboard-response","122","154884","0.0-6.0-2.58","62a74b5136555a52d4911cac","bdp_trlrn","Tue Mar 14 2023 12:54:19 GMT-0500 (Central Daylight Time)","909188","Trustworthy,Untrustworthy","","null","","","","ratingFB","","trustrating_stim/white_00577_940928_fa_edt.bmp","null","","","","","","","","","","",""
"image-keyboard-response","123","155491","0.0-6.0-1.59","62a74b5136555a52d4911cac","bdp_trlrn","Tue Mar 14 2023 12:54:19 GMT-0500 (Central Daylight Time)","909188","Trustworthy,Untrustworthy","","498","","","","rating","","trustrating_stim/white_mw035.bmp","5","","","","","","","","","","",""
"image-keyboard-response","124","155694","0.0-6.0-2.59","62a74b5136555a52d4911cac","bdp_trlrn","Tue Mar 14 2023 12:54:19 GMT-0500 (Central Daylight Time)","909188","Trustworthy,Untrustworthy","","null","","","","ratingFB","","trustrating_stim/white_mw035.bmp","null","","","","","","","","","","",""
"instructions","125","159902","0.0-7.0","62a74b5136555a52d4911cac","bdp_trlrn","Tue Mar 14 2023 12:54:19 GMT-0500 (Central Daylight Time)","909188","Trustworthy,Untrustworthy","[{""page_index"":0,""viewing_time"":4098}]","4098","","","","","","","","","","","","","","","","","",""
"instructions","126","372321","0.0-8.0","62a74b5136555a52d4911cac","bdp_trlrn","Tue Mar 14 2023 12:54:19 GMT-0500 (Central Daylight Time)","909188","Trustworthy,Untrustworthy","[{""page_index"":0,""viewing_time"":42896},{""page_index"":1,""viewing_time"":28715},{""page_index"":2,""viewing_time"":15712},{""page_index"":3,""viewing_time"":16207},{""page_index"":4,""viewing_time"":23191},{""page_index"":5,""viewing_time"":24179},{""page_index"":6,""viewing_time"":38505},{""page_index"":7,""viewing_time"":22906}]","212311","","","","","","","","","","","","","","","","","",""
"html-keyboard-response","127","382437","0.0-9.0","62a74b5136555a52d4911cac","bdp_trlrn","Tue Mar 14 2023 12:54:19 GMT-0500 (Central Daylight Time)","909188","Trustworthy,Untrustworthy","","10115","","","","","","<div class='header' style='text-align:left; position: absolute; top: 5%; left: 5%;'><small>Task 2 of 5</small></div><div class='instruxDiv'><p><strong>1) What is the minimum number of points you can choose to send to your partner?</strong></p><p>a) 0</p><p>b) 1</p><p>c) 5</p>","B","","","","","","","","","","",""
"html-keyboard-response","128","385661","0.0-10.0","62a74b5136555a52d4911cac","bdp_trlrn","Tue Mar 14 2023 12:54:19 GMT-0500 (Central Daylight Time)","909188","Trustworthy,Untrustworthy","","3123","","","","","","<div class='header' style='text-align:left; position: absolute; top: 5%; left: 5%;'><small>Task 2 of 5</small></div><div class='instruxDiv'><p><strong>1) What is the minimum number of points you can choose to send to your partner?</strong></p><p>a) 0</p><p style='color:#00FF00'>b) 1</p><p>c) 5</p><h3 style='color:#00FF00'>Correct!</h3><h3 class='center-content'>The correct response is b).</h3><h3 class='center-content'>The minimum number of points you can choose to send to your partner is 1 point.</h3><p><em>Press SPACEBAR to continue</em></p></div>"," ","","","","","","","","","","",""
"html-keyboard-response","129","389791","0.0-11.0","62a74b5136555a52d4911cac","bdp_trlrn","Tue Mar 14 2023 12:54:19 GMT-0500 (Central Daylight Time)","909188","Trustworthy,Untrustworthy","","4025","","","","","","<div class='header' style='text-align:left; position: absolute; top: 5%; left: 5%;'><small>Task 2 of 5</small></div><div class='instruxDiv'><p><strong>2) What is the maximum number of points you can choose to send to your partner?</strong></p><p>a) 8</p><p>b) 5</p><p>c) 3</p>","B","","","","","","","","","","",""
"html-keyboard-response","130","391010","0.0-12.0","62a74b5136555a52d4911cac","bdp_trlrn","Tue Mar 14 2023 12:54:19 GMT-0500 (Central Daylight Time)","909188","Trustworthy,Untrustworthy","","1117","","","","","","<div class='header' style='text-align:left; position: absolute; top: 5%; left: 5%;'><small>Task 2 of 5</small></div><div class='instruxDiv'><p><strong>2) What is the maximum number of points you can choose to send to your partner?</strong></p><p>a) 8</p><p style='color:#00FF00'>b) 5</p><p>c) 3</p><h3 style='color:#00FF00'>Correct!</h3><h3 class='center-content'>The correct response is b).</h3><h3 class='center-content'>The maximum number of points you can choose to send to your partner is 5 points.</h3><p><em>Press SPACEBAR to continue</em></p></div>"," ","","","","","","","","","","",""
"html-keyboard-response","131","396621","0.0-13.0","62a74b5136555a52d4911cac","bdp_trlrn","Tue Mar 14 2023 12:54:19 GMT-0500 (Central Daylight Time)","909188","Trustworthy,Untrustworthy","","5498","","","","","","<div class='header' style='text-align:left; position: absolute; top: 5%; left: 5%;'><small>Task 2 of 5</small></div><div class='instruxDiv'><p><strong>3) What happens to the amount of points you send to your partner?</strong></p><p>a) Nothing</p><p>b) It doubles</p><p>c) It quadruples</p>","C","","","","","","","","","","",""
"html-keyboard-response","132","399041","0.0-14.0","62a74b5136555a52d4911cac","bdp_trlrn","Tue Mar 14 2023 12:54:19 GMT-0500 (Central Daylight Time)","909188","Trustworthy,Untrustworthy","","2310","","","","","","<div class='header' style='text-align:left; position: absolute; top: 5%; left: 5%;'><small>Task 2 of 5</small></div><div class='instruxDiv'><p><strong>3) What happens to the amount of points you send to your partner?</strong></p><p>a) Nothing</p><p>b) It doubles</p><p style='color:#00FF00'>c) It quadruples</p><h3 style='color:#00FF00'>Correct!</h3><h3 class='center-content'>The correct response is c).</h3><h3 class='center-content'>The amount of points you send to your partner quadruples.</h3><p><em>Press SPACEBAR to continue</em></p></div>"," ","","","","","","","","","","",""
"html-keyboard-response","133","410862","0.0-15.0","62a74b5136555a52d4911cac","bdp_trlrn","Tue Mar 14 2023 12:54:19 GMT-0500 (Central Daylight Time)","909188","Trustworthy,Untrustworthy","","11706","","","","","","<div class='header' style='text-align:left; position: absolute; top: 5%; left: 5%;'><small>Task 2 of 5</small></div><div class='instruxDiv'><p><strong>4) If you decided to share 4 out of 5 points with your partner, and they decided to share half of the amount they received with you, how many points would you receive back from them on this round?</strong></p><p>a) 16</p><p>b) 0</p><p>c) 8</p>","C","","","","","","","","","","",""
"html-keyboard-response","134","411781","0.0-16.0","62a74b5136555a52d4911cac","bdp_trlrn","Tue Mar 14 2023 12:54:19 GMT-0500 (Central Daylight Time)","909188","Trustworthy,Untrustworthy","","807","","","","","","<div class='header' style='text-align:left; position: absolute; top: 5%; left: 5%;'><small>Task 2 of 5</small></div><div class='instruxDiv'><p><strong>4) If you decided to share 4 out of 5 points with your partner, and they decided to share half of the amount they received with you, how many points would you receive back from them on this round?</strong></p><p>a) 16</p><p>b) 0</p><p style='color:#00FF00'>c) 8</p><h3 style='color:#00FF00'>Correct!</h3><h3 class='center-content'>The correct response is c).</h3><h3 class='center-content'>If you shared 4 out of 5 points with your partner and they decided to share half of the amount they received with you, you would receive 8 points back (i.e. (4 x 4)/2 = 8).</h3><p><em>Press SPACEBAR to continue</em></p></div>"," ","","","","","","","","","","",""
"html-keyboard-response","135","416901","0.0-17.0","62a74b5136555a52d4911cac","bdp_trlrn","Tue Mar 14 2023 12:54:19 GMT-0500 (Central Daylight Time)","909188","Trustworthy,Untrustworthy","","null","","","","","","<div class='header' style='text-align:left; position: absolute; top: 5%; left: 5%;'><small>Task 2 of 5</small></div><div class='instruxDiv'><p>Thank you for completing the quiz<p>These are the actual partners you will be interacting with in the next block:<p><div class='tc' align='center'><img class='introPic' src='trustrating_stim/white_00223_940128_fb_edt.bmp'><br><strong>David</strong></div><div class='bl' align='center'><img class='introPic' src='trustrating_stim/white_mw060.bmp'><br><strong>Evan</strong></div><div class='br' align='center'><img class='introPic' src='trustrating_stim/white_00120_931230_fa_edt.bmp'><br><strong>Anthony</strong></div></div><p>Across <strong>66 rounds</strong> you will interact with each partner <strong>22 times</strong> (in random order).<p style='align:center; color:white'><font <em>Press SPACEBAR to continue</em></p>","null","","","","","","","","","","",""
"instructions","136","437393","0.0-18.0","62a74b5136555a52d4911cac","bdp_trlrn","Tue Mar 14 2023 12:54:19 GMT-0500 (Central Daylight Time)","909188","Trustworthy,Untrustworthy","[{""page_index"":0,""viewing_time"":16336},{""page_index"":1,""viewing_time"":4156}]","20492","","","","","","","","","","","","","","","","","",""
"html-keyboard-response","137","441167","0.0-19.0-1.0","62a74b5136555a52d4911cac","bdp_trlrn","Tue Mar 14 2023 12:54:19 GMT-0500 (Central Daylight Time)","909188","Trustworthy,Untrustworthy","","3665","","","","decision","","<div class='trialDiv'><img src='trustrating_stim/white_00223_940128_fb_edt.bmp'><br><font class='baseline'><strong>David</strong><p>Choose number of points to send.</font><div class='respPicDiv'><img src='img/responseButtonOffersNo0L.png' class='respPic'></div></div>","5","1","David","1","Kept","0.35,0.8","12","0.35","trustrating_stim/white_00223_940128_fb_edt.bmp","5","5","1"
"html-keyboard-response","138","441425","0.0-19.0-2.0","62a74b5136555a52d4911cac","bdp_trlrn","Tue Mar 14 2023 12:54:19 GMT-0500 (Central Daylight Time)","909188","Trustworthy,Untrustworthy","","null","","","","decisionFB","","<div class='trialDiv'><img src='trustrating_stim/white_00223_940128_fb_edt.bmp'><br><font class='baseline'><strong>David</strong><p>Choose number of points to send.</font><div class='respPicDiv'><img src='img/responseButtonOffersNo0L5.png' class='respPic'></div></div>","null","1","David","1","Kept","0.35,0.8","12","0.35","trustrating_stim/white_00223_940128_fb_edt.bmp","5","0","1"
"html-keyboard-response","139","442435","0.0-19.0-3.0","62a74b5136555a52d4911cac","bdp_trlrn","Tue Mar 14 2023 12:54:19 GMT-0500 (Central Daylight Time)","909188","Trustworthy,Untrustworthy","","null","","","","feedback","","<div class='trialDiv'><img src='trustrating_stim/white_00223_940128_fb_edt.bmp'><br><font class='baseline'><strong>David</strong><p>Received: <strong>20</strong></font> &nbsp; &nbsp; &nbsp; &nbsp; &nbsp; &nbsp;<font class='negOutcome'>Shared back: <strong>0</strong></font></font><div class='respPicDiv'><img src='img/responseButtonOffersNo0_wht.png' class='respPic'></div></div>","null","1","David","1","Kept","0.35,0.8","12","0.35","trustrating_stim/white_00223_940128_fb_edt.bmp","5","0","1"
"html-keyboard-response","140","445293","0.0-19.0-1.1","62a74b5136555a52d4911cac","bdp_trlrn","Tue Mar 14 2023 12:54:19 GMT-0500 (Central Daylight Time)","909188","Trustworthy,Untrustworthy","","2857","","","","decision","","<div class='trialDiv'><img src='trustrating_stim/white_mw060.bmp'><br><font class='baseline'><strong>Evan</strong><p>Choose number of points to send.</font><div class='respPicDiv'><img src='img/responseButtonOffersNo0L.png' class='respPic'></div></div>","5","1","Evan","5","Shared","0.65,0.2","14","0.65","trustrating_stim/white_mw060.bmp","5","5","2"
"html-keyboard-response","141","445548","0.0-19.0-2.1","62a74b5136555a52d4911cac","bdp_trlrn","Tue Mar 14 2023 12:54:19 GMT-0500 (Central Daylight Time)","909188","Trustworthy,Untrustworthy","","null","","","","decisionFB","","<div class='trialDiv'><img src='trustrating_stim/white_mw060.bmp'><br><font class='baseline'><strong>Evan</strong><p>Choose number of points to send.</font><div class='respPicDiv'><img src='img/responseButtonOffersNo0L5.png' class='respPic'></div></div>","null","1","Evan","5","Shared","0.65,0.2","14","0.65","trustrating_stim/white_mw060.bmp","5","0","2"
"html-keyboard-response","142","446561","0.0-19.0-3.1","62a74b5136555a52d4911cac","bdp_trlrn","Tue Mar 14 2023 12:54:19 GMT-0500 (Central Daylight Time)","909188","Trustworthy,Untrustworthy","","null","","","","feedback","","<div class='trialDiv'><img src='trustrating_stim/white_mw060.bmp'><br><font class='baseline'><strong>Evan</strong><p>Received: <strong>20</strong></font> &nbsp; &nbsp; &nbsp; &nbsp; &nbsp; &nbsp;<font class='posOutcome'>Shared back: <strong>10</strong></font></font><div class='respPicDiv'><img src='img/responseButtonOffersNo0_wht.png' class='respPic'></div></div>","null","1","Evan","5","Shared","0.65,0.2","14","0.65","trustrating_stim/white_mw060.bmp","5","10","2"
"html-keyboard-response","143","449614","0.0-19.0-1.2","62a74b5136555a52d4911cac","bdp_trlrn","Tue Mar 14 2023 12:54:19 GMT-0500 (Central Daylight Time)","909188","Trustworthy,Untrustworthy","","3052","","","","decision","","<div class='trialDiv'><img src='trustrating_stim/white_00120_931230_fa_edt.bmp'><br><font class='baseline'><strong>Anthony</strong><p>Choose number of points to send.</font><div class='respPicDiv'><img src='img/responseButtonOffersNo0L.png' class='respPic'></div></div>","5","1","Anthony","9","Shared","0.65,0.35","13","0.65","trustrating_stim/white_00120_931230_fa_edt.bmp","5","15","3"
"html-keyboard-response","144","449870","0.0-19.0-2.2","62a74b5136555a52d4911cac","bdp_trlrn","Tue Mar 14 2023 12:54:19 GMT-0500 (Central Daylight Time)","909188","Trustworthy,Untrustworthy","","null","","","","decisionFB","","<div class='trialDiv'><img src='trustrating_stim/white_00120_931230_fa_edt.bmp'><br><font class='baseline'><strong>Anthony</strong><p>Choose number of points to send.</font><div class='respPicDiv'><img src='img/responseButtonOffersNo0L5.png' class='respPic'></div></div>","null","1","Anthony","9","Shared","0.65,0.35","13","0.65","trustrating_stim/white_00120_931230_fa_edt.bmp","5","10","3"
"html-keyboard-response","145","450885","0.0-19.0-3.2","62a74b5136555a52d4911cac","bdp_trlrn","Tue Mar 14 2023 12:54:19 GMT-0500 (Central Daylight Time)","909188","Trustworthy,Untrustworthy","","null","","","","feedback","","<div class='trialDiv'><img src='trustrating_stim/white_00120_931230_fa_edt.bmp'><br><font class='baseline'><strong>Anthony</strong><p>Received: <strong>20</strong></font> &nbsp; &nbsp; &nbsp; &nbsp; &nbsp; &nbsp;<font class='posOutcome'>Shared back: <strong>10</strong></font></font><div class='respPicDiv'><img src='img/responseButtonOffersNo0_wht.png' class='respPic'></div></div>","null","1","Anthony","9","Shared","0.65,0.35","13","0.65","trustrating_stim/white_00120_931230_fa_edt.bmp","5","20","3"
"html-keyboard-response","146","453816","0.0-19.0-1.3","62a74b5136555a52d4911cac","bdp_trlrn","Tue Mar 14 2023 12:54:19 GMT-0500 (Central Daylight Time)","909188","Trustworthy,Untrustworthy","","2931","","","","decision","","<div class='trialDiv'><img src='trustrating_stim/white_mw060.bmp'><br><font class='baseline'><strong>Evan</strong><p>Choose number of points to send.</font><div class='respPicDiv'><img src='img/responseButtonOffersNo0L.png' class='respPic'></div></div>","5","2","Evan","5","Kept","0.65,0.2","14","0.65","trustrating_stim/white_mw060.bmp","5","25","4"
"html-keyboard-response","147","454073","0.0-19.0-2.3","62a74b5136555a52d4911cac","bdp_trlrn","Tue Mar 14 2023 12:54:19 GMT-0500 (Central Daylight Time)","909188","Trustworthy,Untrustworthy","","null","","","","decisionFB","","<div class='trialDiv'><img src='trustrating_stim/white_mw060.bmp'><br><font class='baseline'><strong>Evan</strong><p>Choose number of points to send.</font><div class='respPicDiv'><img src='img/responseButtonOffersNo0L5.png' class='respPic'></div></div>","null","2","Evan","5","Kept","0.65,0.2","14","0.65","trustrating_stim/white_mw060.bmp","5","20","4"
"html-keyboard-response","148","455088","0.0-19.0-3.3","62a74b5136555a52d4911cac","bdp_trlrn","Tue Mar 14 2023 12:54:19 GMT-0500 (Central Daylight Time)","909188","Trustworthy,Untrustworthy","","null","","","","feedback","","<div class='trialDiv'><img src='trustrating_stim/white_mw060.bmp'><br><font class='baseline'><strong>Evan</strong><p>Received: <strong>20</strong></font> &nbsp; &nbsp; &nbsp; &nbsp; &nbsp; &nbsp;<font class='negOutcome'>Shared back: <strong>0</strong></font></font><div class='respPicDiv'><img src='img/responseButtonOffersNo0_wht.png' class='respPic'></div></div>","null","2","Evan","5","Kept","0.65,0.2","14","0.65","trustrating_stim/white_mw060.bmp","5","20","4"
"html-keyboard-response","149","456758","0.0-19.0-1.4","62a74b5136555a52d4911cac","bdp_trlrn","Tue Mar 14 2023 12:54:19 GMT-0500 (Central Daylight Time)","909188","Trustworthy,Untrustworthy","","1669","","","","decision","","<div class='trialDiv'><img src='trustrating_stim/white_00120_931230_fa_edt.bmp'><br><font class='baseline'><strong>Anthony</strong><p>Choose number of points to send.</font><div class='respPicDiv'><img src='img/responseButtonOffersNo0L.png' class='respPic'></div></div>","5","2","Anthony","9","Shared","0.65,0.35","13","0.65","trustrating_stim/white_00120_931230_fa_edt.bmp","5","25","5"
"html-keyboard-response","150","457021","0.0-19.0-2.4","62a74b5136555a52d4911cac","bdp_trlrn","Tue Mar 14 2023 12:54:19 GMT-0500 (Central Daylight Time)","909188","Trustworthy,Untrustworthy","","null","","","","decisionFB","","<div class='trialDiv'><img src='trustrating_stim/white_00120_931230_fa_edt.bmp'><br><font class='baseline'><strong>Anthony</strong><p>Choose number of points to send.</font><div class='respPicDiv'><img src='img/responseButtonOffersNo0L5.png' class='respPic'></div></div>","null","2","Anthony","9","Shared","0.65,0.35","13","0.65","trustrating_stim/white_00120_931230_fa_edt.bmp","5","20","5"
"html-keyboard-response","151","458034","0.0-19.0-3.4","62a74b5136555a52d4911cac","bdp_trlrn","Tue Mar 14 2023 12:54:19 GMT-0500 (Central Daylight Time)","909188","Trustworthy,Untrustworthy","","null","","","","feedback","","<div class='trialDiv'><img src='trustrating_stim/white_00120_931230_fa_edt.bmp'><br><font class='baseline'><strong>Anthony</strong><p>Received: <strong>20</strong></font> &nbsp; &nbsp; &nbsp; &nbsp; &nbsp; &nbsp;<font class='posOutcome'>Shared back: <strong>10</strong></font></font><div class='respPicDiv'><img src='img/responseButtonOffersNo0_wht.png' class='respPic'></div></div>","null","2","Anthony","9","Shared","0.65,0.35","13","0.65","trustrating_stim/white_00120_931230_fa_edt.bmp","5","30","5"
"html-keyboard-response","152","460669","0.0-19.0-1.5","62a74b5136555a52d4911cac","bdp_trlrn","Tue Mar 14 2023 12:54:19 GMT-0500 (Central Daylight Time)","909188","Trustworthy,Untrustworthy","","2634","","","","decision","","<div class='trialDiv'><img src='trustrating_stim/white_00223_940128_fb_edt.bmp'><br><font class='baseline'><strong>David</strong><p>Choose number of points to send.</font><div class='respPicDiv'><img src='img/responseButtonOffersNo0L.png' class='respPic'></div></div>","1","2","David","1","Kept","0.35,0.8","12","0.35","trustrating_stim/white_00223_940128_fb_edt.bmp","5","35","6"
"html-keyboard-response","153","460929","0.0-19.0-2.5","62a74b5136555a52d4911cac","bdp_trlrn","Tue Mar 14 2023 12:54:19 GMT-0500 (Central Daylight Time)","909188","Trustworthy,Untrustworthy","","null","","","","decisionFB","","<div class='trialDiv'><img src='trustrating_stim/white_00223_940128_fb_edt.bmp'><br><font class='baseline'><strong>David</strong><p>Choose number of points to send.</font><div class='respPicDiv'><img src='img/responseButtonOffersNo0L1.png' class='respPic'></div></div>","null","2","David","1","Kept","0.35,0.8","12","0.35","trustrating_stim/white_00223_940128_fb_edt.bmp","5","34","6"
"html-keyboard-response","154","461943","0.0-19.0-3.5","62a74b5136555a52d4911cac","bdp_trlrn","Tue Mar 14 2023 12:54:19 GMT-0500 (Central Daylight Time)","909188","Trustworthy,Untrustworthy","","null","","","","feedback","","<div class='trialDiv'><img src='trustrating_stim/white_00223_940128_fb_edt.bmp'><br><font class='baseline'><strong>David</strong><p>Received: <strong>4</strong></font> &nbsp; &nbsp; &nbsp; &nbsp; &nbsp; &nbsp;<font class='negOutcome'>Shared back: <strong>0</strong></font></font><div class='respPicDiv'><img src='img/responseButtonOffersNo0_wht.png' class='respPic'></div></div>","null","2","David","1","Kept","0.35,0.8","12","0.35","trustrating_stim/white_00223_940128_fb_edt.bmp","5","34","6"
"html-keyboard-response","155","465827","0.0-19.0-1.6","62a74b5136555a52d4911cac","bdp_trlrn","Tue Mar 14 2023 12:54:19 GMT-0500 (Central Daylight Time)","909188","Trustworthy,Untrustworthy","","3883","","","","decision","","<div class='trialDiv'><img src='trustrating_stim/white_00120_931230_fa_edt.bmp'><br><font class='baseline'><strong>Anthony</strong><p>Choose number of points to send.</font><div class='respPicDiv'><img src='img/responseButtonOffersNo0L.png' class='respPic'></div></div>","5","3","Anthony","9","Shared","0.65,0.35","13","0.65","trustrating_stim/white_00120_931230_fa_edt.bmp","5","39","7"
"html-keyboard-response","156","466081","0.0-19.0-2.6","62a74b5136555a52d4911cac","bdp_trlrn","Tue Mar 14 2023 12:54:19 GMT-0500 (Central Daylight Time)","909188","Trustworthy,Untrustworthy","","null","","","","decisionFB","","<div class='trialDiv'><img src='trustrating_stim/white_00120_931230_fa_edt.bmp'><br><font class='baseline'><strong>Anthony</strong><p>Choose number of points to send.</font><div class='respPicDiv'><img src='img/responseButtonOffersNo0L5.png' class='respPic'></div></div>","null","3","Anthony","9","Shared","0.65,0.35","13","0.65","trustrating_stim/white_00120_931230_fa_edt.bmp","5","34","7"
"html-keyboard-response","157","467093","0.0-19.0-3.6","62a74b5136555a52d4911cac","bdp_trlrn","Tue Mar 14 2023 12:54:19 GMT-0500 (Central Daylight Time)","909188","Trustworthy,Untrustworthy","","null","","","","feedback","","<div class='trialDiv'><img src='trustrating_stim/white_00120_931230_fa_edt.bmp'><br><font class='baseline'><strong>Anthony</strong><p>Received: <strong>20</strong></font> &nbsp; &nbsp; &nbsp; &nbsp; &nbsp; &nbsp;<font class='posOutcome'>Shared back: <strong>10</strong></font></font><div class='respPicDiv'><img src='img/responseButtonOffersNo0_wht.png' class='respPic'></div></div>","null","3","Anthony","9","Shared","0.65,0.35","13","0.65","trustrating_stim/white_00120_931230_fa_edt.bmp","5","44","7"
"html-keyboard-response","158","468890","0.0-19.0-1.7","62a74b5136555a52d4911cac","bdp_trlrn","Tue Mar 14 2023 12:54:19 GMT-0500 (Central Daylight Time)","909188","Trustworthy,Untrustworthy","","1796","","","","decision","","<div class='trialDiv'><img src='trustrating_stim/white_00223_940128_fb_edt.bmp'><br><font class='baseline'><strong>David</strong><p>Choose number of points to send.</font><div class='respPicDiv'><img src='img/responseButtonOffersNo0L.png' class='respPic'></div></div>","1","3","David","1","Kept","0.35,0.8","12","0.35","trustrating_stim/white_00223_940128_fb_edt.bmp","5","49","8"
"html-keyboard-response","159","469150","0.0-19.0-2.7","62a74b5136555a52d4911cac","bdp_trlrn","Tue Mar 14 2023 12:54:19 GMT-0500 (Central Daylight Time)","909188","Trustworthy,Untrustworthy","","null","","","","decisionFB","","<div class='trialDiv'><img src='trustrating_stim/white_00223_940128_fb_edt.bmp'><br><font class='baseline'><strong>David</strong><p>Choose number of points to send.</font><div class='respPicDiv'><img src='img/responseButtonOffersNo0L1.png' class='respPic'></div></div>","null","3","David","1","Kept","0.35,0.8","12","0.35","trustrating_stim/white_00223_940128_fb_edt.bmp","5","48","8"
"html-keyboard-response","160","470165","0.0-19.0-3.7","62a74b5136555a52d4911cac","bdp_trlrn","Tue Mar 14 2023 12:54:19 GMT-0500 (Central Daylight Time)","909188","Trustworthy,Untrustworthy","","null","","","","feedback","","<div class='trialDiv'><img src='trustrating_stim/white_00223_940128_fb_edt.bmp'><br><font class='baseline'><strong>David</strong><p>Received: <strong>4</strong></font> &nbsp; &nbsp; &nbsp; &nbsp; &nbsp; &nbsp;<font class='negOutcome'>Shared back: <strong>0</strong></font></font><div class='respPicDiv'><img src='img/responseButtonOffersNo0_wht.png' class='respPic'></div></div>","null","3","David","1","Kept","0.35,0.8","12","0.35","trustrating_stim/white_00223_940128_fb_edt.bmp","5","48","8"
"html-keyboard-response","161","471674","0.0-19.0-1.8","62a74b5136555a52d4911cac","bdp_trlrn","Tue Mar 14 2023 12:54:19 GMT-0500 (Central Daylight Time)","909188","Trustworthy,Untrustworthy","","1508","","","","decision","","<div class='trialDiv'><img src='trustrating_stim/white_mw060.bmp'><br><font class='baseline'><strong>Evan</strong><p>Choose number of points to send.</font><div class='respPicDiv'><img src='img/responseButtonOffersNo0L.png' class='respPic'></div></div>","5","3","Evan","5","Shared","0.65,0.2","14","0.65","trustrating_stim/white_mw060.bmp","5","53","9"
"html-keyboard-response","162","471938","0.0-19.0-2.8","62a74b5136555a52d4911cac","bdp_trlrn","Tue Mar 14 2023 12:54:19 GMT-0500 (Central Daylight Time)","909188","Trustworthy,Untrustworthy","","null","","","","decisionFB","","<div class='trialDiv'><img src='trustrating_stim/white_mw060.bmp'><br><font class='baseline'><strong>Evan</strong><p>Choose number of points to send.</font><div class='respPicDiv'><img src='img/responseButtonOffersNo0L5.png' class='respPic'></div></div>","null","3","Evan","5","Shared","0.65,0.2","14","0.65","trustrating_stim/white_mw060.bmp","5","48","9"
"html-keyboard-response","163","472950","0.0-19.0-3.8","62a74b5136555a52d4911cac","bdp_trlrn","Tue Mar 14 2023 12:54:19 GMT-0500 (Central Daylight Time)","909188","Trustworthy,Untrustworthy","","null","","","","feedback","","<div class='trialDiv'><img src='trustrating_stim/white_mw060.bmp'><br><font class='baseline'><strong>Evan</strong><p>Received: <strong>20</strong></font> &nbsp; &nbsp; &nbsp; &nbsp; &nbsp; &nbsp;<font class='posOutcome'>Shared back: <strong>10</strong></font></font><div class='respPicDiv'><img src='img/responseButtonOffersNo0_wht.png' class='respPic'></div></div>","null","3","Evan","5","Shared","0.65,0.2","14","0.65","trustrating_stim/white_mw060.bmp","5","58","9"
"html-keyboard-response","164","475669","0.0-19.0-1.9","62a74b5136555a52d4911cac","bdp_trlrn","Tue Mar 14 2023 12:54:19 GMT-0500 (Central Daylight Time)","909188","Trustworthy,Untrustworthy","","2717","","","","decision","","<div class='trialDiv'><img src='trustrating_stim/white_00120_931230_fa_edt.bmp'><br><font class='baseline'><strong>Anthony</strong><p>Choose number of points to send.</font><div class='respPicDiv'><img src='img/responseButtonOffersNo0L.png' class='respPic'></div></div>","5","4","Anthony","9","Kept","0.65,0.35","13","0.65","trustrating_stim/white_00120_931230_fa_edt.bmp","5","63","10"
"html-keyboard-response","165","475923","0.0-19.0-2.9","62a74b5136555a52d4911cac","bdp_trlrn","Tue Mar 14 2023 12:54:19 GMT-0500 (Central Daylight Time)","909188","Trustworthy,Untrustworthy","","null","","","","decisionFB","","<div class='trialDiv'><img src='trustrating_stim/white_00120_931230_fa_edt.bmp'><br><font class='baseline'><strong>Anthony</strong><p>Choose number of points to send.</font><div class='respPicDiv'><img src='img/responseButtonOffersNo0L5.png' class='respPic'></div></div>","null","4","Anthony","9","Kept","0.65,0.35","13","0.65","trustrating_stim/white_00120_931230_fa_edt.bmp","5","58","10"
"html-keyboard-response","166","476926","0.0-19.0-3.9","62a74b5136555a52d4911cac","bdp_trlrn","Tue Mar 14 2023 12:54:19 GMT-0500 (Central Daylight Time)","909188","Trustworthy,Untrustworthy","","null","","","","feedback","","<div class='trialDiv'><img src='trustrating_stim/white_00120_931230_fa_edt.bmp'><br><font class='baseline'><strong>Anthony</strong><p>Received: <strong>20</strong></font> &nbsp; &nbsp; &nbsp; &nbsp; &nbsp; &nbsp;<font class='negOutcome'>Shared back: <strong>0</strong></font></font><div class='respPicDiv'><img src='img/responseButtonOffersNo0_wht.png' class='respPic'></div></div>","null","4","Anthony","9","Kept","0.65,0.35","13","0.65","trustrating_stim/white_00120_931230_fa_edt.bmp","5","58","10"
"html-keyboard-response","167","479323","0.0-19.0-1.10","62a74b5136555a52d4911cac","bdp_trlrn","Tue Mar 14 2023 12:54:19 GMT-0500 (Central Daylight Time)","909188","Trustworthy,Untrustworthy","","2396","","","","decision","","<div class='trialDiv'><img src='trustrating_stim/white_00223_940128_fb_edt.bmp'><br><font class='baseline'><strong>David</strong><p>Choose number of points to send.</font><div class='respPicDiv'><img src='img/responseButtonOffersNo0L.png' class='respPic'></div></div>","1","4","David","1","Shared","0.35,0.8","12","0.35","trustrating_stim/white_00223_940128_fb_edt.bmp","5","63","11"
"html-keyboard-response","168","479574","0.0-19.0-2.10","62a74b5136555a52d4911cac","bdp_trlrn","Tue Mar 14 2023 12:54:19 GMT-0500 (Central Daylight Time)","909188","Trustworthy,Untrustworthy","","null","","","","decisionFB","","<div class='trialDiv'><img src='trustrating_stim/white_00223_940128_fb_edt.bmp'><br><font class='baseline'><strong>David</strong><p>Choose number of points to send.</font><div class='respPicDiv'><img src='img/responseButtonOffersNo0L1.png' class='respPic'></div></div>","null","4","David","1","Shared","0.35,0.8","12","0.35","trustrating_stim/white_00223_940128_fb_edt.bmp","5","62","11"
"html-keyboard-response","169","480589","0.0-19.0-3.10","62a74b5136555a52d4911cac","bdp_trlrn","Tue Mar 14 2023 12:54:19 GMT-0500 (Central Daylight Time)","909188","Trustworthy,Untrustworthy","","null","","","","feedback","","<div class='trialDiv'><img src='trustrating_stim/white_00223_940128_fb_edt.bmp'><br><font class='baseline'><strong>David</strong><p>Received: <strong>4</strong></font> &nbsp; &nbsp; &nbsp; &nbsp; &nbsp; &nbsp;<font class='posOutcome'>Shared back: <strong>2</strong></font></font><div class='respPicDiv'><img src='img/responseButtonOffersNo0_wht.png' class='respPic'></div></div>","null","4","David","1","Shared","0.35,0.8","12","0.35","trustrating_stim/white_00223_940128_fb_edt.bmp","5","64","11"
"html-keyboard-response","170","485569","0.0-19.0-1.11","62a74b5136555a52d4911cac","bdp_trlrn","Tue Mar 14 2023 12:54:19 GMT-0500 (Central Daylight Time)","909188","Trustworthy,Untrustworthy","","4979","","","","decision","","<div class='trialDiv'><img src='trustrating_stim/white_mw060.bmp'><br><font class='baseline'><strong>Evan</strong><p>Choose number of points to send.</font><div class='respPicDiv'><img src='img/responseButtonOffersNo0L.png' class='respPic'></div></div>","5","4","Evan","5","Shared","0.65,0.2","14","0.65","trustrating_stim/white_mw060.bmp","5","69","12"
"html-keyboard-response","171","485822","0.0-19.0-2.11","62a74b5136555a52d4911cac","bdp_trlrn","Tue Mar 14 2023 12:54:19 GMT-0500 (Central Daylight Time)","909188","Trustworthy,Untrustworthy","","null","","","","decisionFB","","<div class='trialDiv'><img src='trustrating_stim/white_mw060.bmp'><br><font class='baseline'><strong>Evan</strong><p>Choose number of points to send.</font><div class='respPicDiv'><img src='img/responseButtonOffersNo0L5.png' class='respPic'></div></div>","null","4","Evan","5","Shared","0.65,0.2","14","0.65","trustrating_stim/white_mw060.bmp","5","64","12"
"html-keyboard-response","172","486837","0.0-19.0-3.11","62a74b5136555a52d4911cac","bdp_trlrn","Tue Mar 14 2023 12:54:19 GMT-0500 (Central Daylight Time)","909188","Trustworthy,Untrustworthy","","null","","","","feedback","","<div class='trialDiv'><img src='trustrating_stim/white_mw060.bmp'><br><font class='baseline'><strong>Evan</strong><p>Received: <strong>20</strong></font> &nbsp; &nbsp; &nbsp; &nbsp; &nbsp; &nbsp;<font class='posOutcome'>Shared back: <strong>10</strong></font></font><div class='respPicDiv'><img src='img/responseButtonOffersNo0_wht.png' class='respPic'></div></div>","null","4","Evan","5","Shared","0.65,0.2","14","0.65","trustrating_stim/white_mw060.bmp","5","74","12"
"html-keyboard-response","173","489159","0.0-19.0-1.12","62a74b5136555a52d4911cac","bdp_trlrn","Tue Mar 14 2023 12:54:19 GMT-0500 (Central Daylight Time)","909188","Trustworthy,Untrustworthy","","2322","","","","decision","","<div class='trialDiv'><img src='trustrating_stim/white_00223_940128_fb_edt.bmp'><br><font class='baseline'><strong>David</strong><p>Choose number of points to send.</font><div class='respPicDiv'><img src='img/responseButtonOffersNo0L.png' class='respPic'></div></div>","5","5","David","1","Kept","0.35,0.8","12","0.35","trustrating_stim/white_00223_940128_fb_edt.bmp","5","79","13"
"html-keyboard-response","174","489416","0.0-19.0-2.12","62a74b5136555a52d4911cac","bdp_trlrn","Tue Mar 14 2023 12:54:19 GMT-0500 (Central Daylight Time)","909188","Trustworthy,Untrustworthy","","null","","","","decisionFB","","<div class='trialDiv'><img src='trustrating_stim/white_00223_940128_fb_edt.bmp'><br><font class='baseline'><strong>David</strong><p>Choose number of points to send.</font><div class='respPicDiv'><img src='img/responseButtonOffersNo0L5.png' class='respPic'></div></div>","null","5","David","1","Kept","0.35,0.8","12","0.35","trustrating_stim/white_00223_940128_fb_edt.bmp","5","74","13"
"html-keyboard-response","175","490432","0.0-19.0-3.12","62a74b5136555a52d4911cac","bdp_trlrn","Tue Mar 14 2023 12:54:19 GMT-0500 (Central Daylight Time)","909188","Trustworthy,Untrustworthy","","null","","","","feedback","","<div class='trialDiv'><img src='trustrating_stim/white_00223_940128_fb_edt.bmp'><br><font class='baseline'><strong>David</strong><p>Received: <strong>20</strong></font> &nbsp; &nbsp; &nbsp; &nbsp; &nbsp; &nbsp;<font class='negOutcome'>Shared back: <strong>0</strong></font></font><div class='respPicDiv'><img src='img/responseButtonOffersNo0_wht.png' class='respPic'></div></div>","null","5","David","1","Kept","0.35,0.8","12","0.35","trustrating_stim/white_00223_940128_fb_edt.bmp","5","74","13"
"html-keyboard-response","176","495050","0.0-19.0-1.13","62a74b5136555a52d4911cac","bdp_trlrn","Tue Mar 14 2023 12:54:19 GMT-0500 (Central Daylight Time)","909188","Trustworthy,Untrustworthy","","4618","","","","decision","","<div class='trialDiv'><img src='trustrating_stim/white_mw060.bmp'><br><font class='baseline'><strong>Evan</strong><p>Choose number of points to send.</font><div class='respPicDiv'><img src='img/responseButtonOffersNo0L.png' class='respPic'></div></div>","5","5","Evan","5","Shared","0.65,0.2","14","0.65","trustrating_stim/white_mw060.bmp","5","79","14"
"html-keyboard-response","177","495314","0.0-19.0-2.13","62a74b5136555a52d4911cac","bdp_trlrn","Tue Mar 14 2023 12:54:19 GMT-0500 (Central Daylight Time)","909188","Trustworthy,Untrustworthy","","null","","","","decisionFB","","<div class='trialDiv'><img src='trustrating_stim/white_mw060.bmp'><br><font class='baseline'><strong>Evan</strong><p>Choose number of points to send.</font><div class='respPicDiv'><img src='img/responseButtonOffersNo0L5.png' class='respPic'></div></div>","null","5","Evan","5","Shared","0.65,0.2","14","0.65","trustrating_stim/white_mw060.bmp","5","74","14"
"html-keyboard-response","178","496328","0.0-19.0-3.13","62a74b5136555a52d4911cac","bdp_trlrn","Tue Mar 14 2023 12:54:19 GMT-0500 (Central Daylight Time)","909188","Trustworthy,Untrustworthy","","null","","","","feedback","","<div class='trialDiv'><img src='trustrating_stim/white_mw060.bmp'><br><font class='baseline'><strong>Evan</strong><p>Received: <strong>20</strong></font> &nbsp; &nbsp; &nbsp; &nbsp; &nbsp; &nbsp;<font class='posOutcome'>Shared back: <strong>10</strong></font></font><div class='respPicDiv'><img src='img/responseButtonOffersNo0_wht.png' class='respPic'></div></div>","null","5","Evan","5","Shared","0.65,0.2","14","0.65","trustrating_stim/white_mw060.bmp","5","84","14"
"html-keyboard-response","179","497246","0.0-19.0-1.14","62a74b5136555a52d4911cac","bdp_trlrn","Tue Mar 14 2023 12:54:19 GMT-0500 (Central Daylight Time)","909188","Trustworthy,Untrustworthy","","918","","","","decision","","<div class='trialDiv'><img src='trustrating_stim/white_00120_931230_fa_edt.bmp'><br><font class='baseline'><strong>Anthony</strong><p>Choose number of points to send.</font><div class='respPicDiv'><img src='img/responseButtonOffersNo0L.png' class='respPic'></div></div>","5","5","Anthony","9","Kept","0.65,0.35","13","0.65","trustrating_stim/white_00120_931230_fa_edt.bmp","5","89","15"
"html-keyboard-response","180","497499","0.0-19.0-2.14","62a74b5136555a52d4911cac","bdp_trlrn","Tue Mar 14 2023 12:54:19 GMT-0500 (Central Daylight Time)","909188","Trustworthy,Untrustworthy","","null","","","","decisionFB","","<div class='trialDiv'><img src='trustrating_stim/white_00120_931230_fa_edt.bmp'><br><font class='baseline'><strong>Anthony</strong><p>Choose number of points to send.</font><div class='respPicDiv'><img src='img/responseButtonOffersNo0L5.png' class='respPic'></div></div>","null","5","Anthony","9","Kept","0.65,0.35","13","0.65","trustrating_stim/white_00120_931230_fa_edt.bmp","5","84","15"
"html-keyboard-response","181","498509","0.0-19.0-3.14","62a74b5136555a52d4911cac","bdp_trlrn","Tue Mar 14 2023 12:54:19 GMT-0500 (Central Daylight Time)","909188","Trustworthy,Untrustworthy","","null","","","","feedback","","<div class='trialDiv'><img src='trustrating_stim/white_00120_931230_fa_edt.bmp'><br><font class='baseline'><strong>Anthony</strong><p>Received: <strong>20</strong></font> &nbsp; &nbsp; &nbsp; &nbsp; &nbsp; &nbsp;<font class='negOutcome'>Shared back: <strong>0</strong></font></font><div class='respPicDiv'><img src='img/responseButtonOffersNo0_wht.png' class='respPic'></div></div>","null","5","Anthony","9","Kept","0.65,0.35","13","0.65","trustrating_stim/white_00120_931230_fa_edt.bmp","5","84","15"
"html-keyboard-response","182","504345","0.0-19.0-1.15","62a74b5136555a52d4911cac","bdp_trlrn","Tue Mar 14 2023 12:54:19 GMT-0500 (Central Daylight Time)","909188","Trustworthy,Untrustworthy","","5836","","","","decision","","<div class='trialDiv'><img src='trustrating_stim/white_00223_940128_fb_edt.bmp'><br><font class='baseline'><strong>David</strong><p>Choose number of points to send.</font><div class='respPicDiv'><img src='img/responseButtonOffersNo0L.png' class='respPic'></div></div>","3","6","David","1","Kept","0.35,0.8","12","0.35","trustrating_stim/white_00223_940128_fb_edt.bmp","5","89","16"
"html-keyboard-response","183","504606","0.0-19.0-2.15","62a74b5136555a52d4911cac","bdp_trlrn","Tue Mar 14 2023 12:54:19 GMT-0500 (Central Daylight Time)","909188","Trustworthy,Untrustworthy","","null","","","","decisionFB","","<div class='trialDiv'><img src='trustrating_stim/white_00223_940128_fb_edt.bmp'><br><font class='baseline'><strong>David</strong><p>Choose number of points to send.</font><div class='respPicDiv'><img src='img/responseButtonOffersNo0L3.png' class='respPic'></div></div>","null","6","David","1","Kept","0.35,0.8","12","0.35","trustrating_stim/white_00223_940128_fb_edt.bmp","5","86","16"
"html-keyboard-response","184","505621","0.0-19.0-3.15","62a74b5136555a52d4911cac","bdp_trlrn","Tue Mar 14 2023 12:54:19 GMT-0500 (Central Daylight Time)","909188","Trustworthy,Untrustworthy","","null","","","","feedback","","<div class='trialDiv'><img src='trustrating_stim/white_00223_940128_fb_edt.bmp'><br><font class='baseline'><strong>David</strong><p>Received: <strong>12</strong></font> &nbsp; &nbsp; &nbsp; &nbsp; &nbsp; &nbsp;<font class='negOutcome'>Shared back: <strong>0</strong></font></font><div class='respPicDiv'><img src='img/responseButtonOffersNo0_wht.png' class='respPic'></div></div>","null","6","David","1","Kept","0.35,0.8","12","0.35","trustrating_stim/white_00223_940128_fb_edt.bmp","5","86","16"
"html-keyboard-response","185","509974","0.0-19.0-1.16","62a74b5136555a52d4911cac","bdp_trlrn","Tue Mar 14 2023 12:54:19 GMT-0500 (Central Daylight Time)","909188","Trustworthy,Untrustworthy","","4352","","","","decision","","<div class='trialDiv'><img src='trustrating_stim/white_mw060.bmp'><br><font class='baseline'><strong>Evan</strong><p>Choose number of points to send.</font><div class='respPicDiv'><img src='img/responseButtonOffersNo0L.png' class='respPic'></div></div>","5","6","Evan","5","Shared","0.65,0.2","14","0.65","trustrating_stim/white_mw060.bmp","5","91","17"
"html-keyboard-response","186","510231","0.0-19.0-2.16","62a74b5136555a52d4911cac","bdp_trlrn","Tue Mar 14 2023 12:54:19 GMT-0500 (Central Daylight Time)","909188","Trustworthy,Untrustworthy","","null","","","","decisionFB","","<div class='trialDiv'><img src='trustrating_stim/white_mw060.bmp'><br><font class='baseline'><strong>Evan</strong><p>Choose number of points to send.</font><div class='respPicDiv'><img src='img/responseButtonOffersNo0L5.png' class='respPic'></div></div>","null","6","Evan","5","Shared","0.65,0.2","14","0.65","trustrating_stim/white_mw060.bmp","5","86","17"
"html-keyboard-response","187","511240","0.0-19.0-3.16","62a74b5136555a52d4911cac","bdp_trlrn","Tue Mar 14 2023 12:54:19 GMT-0500 (Central Daylight Time)","909188","Trustworthy,Untrustworthy","","null","","","","feedback","","<div class='trialDiv'><img src='trustrating_stim/white_mw060.bmp'><br><font class='baseline'><strong>Evan</strong><p>Received: <strong>20</strong></font> &nbsp; &nbsp; &nbsp; &nbsp; &nbsp; &nbsp;<font class='posOutcome'>Shared back: <strong>10</strong></font></font><div class='respPicDiv'><img src='img/responseButtonOffersNo0_wht.png' class='respPic'></div></div>","null","6","Evan","5","Shared","0.65,0.2","14","0.65","trustrating_stim/white_mw060.bmp","5","96","17"
"html-keyboard-response","188","516666","0.0-19.0-1.17","62a74b5136555a52d4911cac","bdp_trlrn","Tue Mar 14 2023 12:54:19 GMT-0500 (Central Daylight Time)","909188","Trustworthy,Untrustworthy","","5426","","","","decision","","<div class='trialDiv'><img src='trustrating_stim/white_00120_931230_fa_edt.bmp'><br><font class='baseline'><strong>Anthony</strong><p>Choose number of points to send.</font><div class='respPicDiv'><img src='img/responseButtonOffersNo0L.png' class='respPic'></div></div>","1","6","Anthony","9","Shared","0.65,0.35","13","0.65","trustrating_stim/white_00120_931230_fa_edt.bmp","5","101","18"
"html-keyboard-response","189","516927","0.0-19.0-2.17","62a74b5136555a52d4911cac","bdp_trlrn","Tue Mar 14 2023 12:54:19 GMT-0500 (Central Daylight Time)","909188","Trustworthy,Untrustworthy","","null","","","","decisionFB","","<div class='trialDiv'><img src='trustrating_stim/white_00120_931230_fa_edt.bmp'><br><font class='baseline'><strong>Anthony</strong><p>Choose number of points to send.</font><div class='respPicDiv'><img src='img/responseButtonOffersNo0L1.png' class='respPic'></div></div>","null","6","Anthony","9","Shared","0.65,0.35","13","0.65","trustrating_stim/white_00120_931230_fa_edt.bmp","5","100","18"
"html-keyboard-response","190","517942","0.0-19.0-3.17","62a74b5136555a52d4911cac","bdp_trlrn","Tue Mar 14 2023 12:54:19 GMT-0500 (Central Daylight Time)","909188","Trustworthy,Untrustworthy","","null","","","","feedback","","<div class='trialDiv'><img src='trustrating_stim/white_00120_931230_fa_edt.bmp'><br><font class='baseline'><strong>Anthony</strong><p>Received: <strong>4</strong></font> &nbsp; &nbsp; &nbsp; &nbsp; &nbsp; &nbsp;<font class='posOutcome'>Shared back: <strong>2</strong></font></font><div class='respPicDiv'><img src='img/responseButtonOffersNo0_wht.png' class='respPic'></div></div>","null","6","Anthony","9","Shared","0.65,0.35","13","0.65","trustrating_stim/white_00120_931230_fa_edt.bmp","5","102","18"
"html-keyboard-response","191","521253","0.0-19.0-1.18","62a74b5136555a52d4911cac","bdp_trlrn","Tue Mar 14 2023 12:54:19 GMT-0500 (Central Daylight Time)","909188","Trustworthy,Untrustworthy","","3311","","","","decision","","<div class='trialDiv'><img src='trustrating_stim/white_mw060.bmp'><br><font class='baseline'><strong>Evan</strong><p>Choose number of points to send.</font><div class='respPicDiv'><img src='img/responseButtonOffersNo0L.png' class='respPic'></div></div>","5","7","Evan","5","Shared","0.65,0.2","14","0.65","trustrating_stim/white_mw060.bmp","5","107","19"
"html-keyboard-response","192","521516","0.0-19.0-2.18","62a74b5136555a52d4911cac","bdp_trlrn","Tue Mar 14 2023 12:54:19 GMT-0500 (Central Daylight Time)","909188","Trustworthy,Untrustworthy","","null","","","","decisionFB","","<div class='trialDiv'><img src='trustrating_stim/white_mw060.bmp'><br><font class='baseline'><strong>Evan</strong><p>Choose number of points to send.</font><div class='respPicDiv'><img src='img/responseButtonOffersNo0L5.png' class='respPic'></div></div>","null","7","Evan","5","Shared","0.65,0.2","14","0.65","trustrating_stim/white_mw060.bmp","5","102","19"
"html-keyboard-response","193","522522","0.0-19.0-3.18","62a74b5136555a52d4911cac","bdp_trlrn","Tue Mar 14 2023 12:54:19 GMT-0500 (Central Daylight Time)","909188","Trustworthy,Untrustworthy","","null","","","","feedback","","<div class='trialDiv'><img src='trustrating_stim/white_mw060.bmp'><br><font class='baseline'><strong>Evan</strong><p>Received: <strong>20</strong></font> &nbsp; &nbsp; &nbsp; &nbsp; &nbsp; &nbsp;<font class='posOutcome'>Shared back: <strong>10</strong></font></font><div class='respPicDiv'><img src='img/responseButtonOffersNo0_wht.png' class='respPic'></div></div>","null","7","Evan","5","Shared","0.65,0.2","14","0.65","trustrating_stim/white_mw060.bmp","5","112","19"
"html-keyboard-response","194","526577","0.0-19.0-1.19","62a74b5136555a52d4911cac","bdp_trlrn","Tue Mar 14 2023 12:54:19 GMT-0500 (Central Daylight Time)","909188","Trustworthy,Untrustworthy","","4054","","","","decision","","<div class='trialDiv'><img src='trustrating_stim/white_00223_940128_fb_edt.bmp'><br><font class='baseline'><strong>David</strong><p>Choose number of points to send.</font><div class='respPicDiv'><img src='img/responseButtonOffersNo0L.png' class='respPic'></div></div>","2","7","David","1","Shared","0.35,0.8","12","0.35","trustrating_stim/white_00223_940128_fb_edt.bmp","5","117","20"
"html-keyboard-response","195","526838","0.0-19.0-2.19","62a74b5136555a52d4911cac","bdp_trlrn","Tue Mar 14 2023 12:54:19 GMT-0500 (Central Daylight Time)","909188","Trustworthy,Untrustworthy","","null","","","","decisionFB","","<div class='trialDiv'><img src='trustrating_stim/white_00223_940128_fb_edt.bmp'><br><font class='baseline'><strong>David</strong><p>Choose number of points to send.</font><div class='respPicDiv'><img src='img/responseButtonOffersNo0L2.png' class='respPic'></div></div>","null","7","David","1","Shared","0.35,0.8","12","0.35","trustrating_stim/white_00223_940128_fb_edt.bmp","5","115","20"
"html-keyboard-response","196","527850","0.0-19.0-3.19","62a74b5136555a52d4911cac","bdp_trlrn","Tue Mar 14 2023 12:54:19 GMT-0500 (Central Daylight Time)","909188","Trustworthy,Untrustworthy","","null","","","","feedback","","<div class='trialDiv'><img src='trustrating_stim/white_00223_940128_fb_edt.bmp'><br><font class='baseline'><strong>David</strong><p>Received: <strong>8</strong></font> &nbsp; &nbsp; &nbsp; &nbsp; &nbsp; &nbsp;<font class='posOutcome'>Shared back: <strong>4</strong></font></font><div class='respPicDiv'><img src='img/responseButtonOffersNo0_wht.png' class='respPic'></div></div>","null","7","David","1","Shared","0.35,0.8","12","0.35","trustrating_stim/white_00223_940128_fb_edt.bmp","5","119","20"
"html-keyboard-response","197","530427","0.0-19.0-1.20","62a74b5136555a52d4911cac","bdp_trlrn","Tue Mar 14 2023 12:54:19 GMT-0500 (Central Daylight Time)","909188","Trustworthy,Untrustworthy","","2576","","","","decision","","<div class='trialDiv'><img src='trustrating_stim/white_00120_931230_fa_edt.bmp'><br><font class='baseline'><strong>Anthony</strong><p>Choose number of points to send.</font><div class='respPicDiv'><img src='img/responseButtonOffersNo0L.png' class='respPic'></div></div>","3","7","Anthony","9","Kept","0.65,0.35","13","0.65","trustrating_stim/white_00120_931230_fa_edt.bmp","5","124","21"
"html-keyboard-response","198","530688","0.0-19.0-2.20","62a74b5136555a52d4911cac","bdp_trlrn","Tue Mar 14 2023 12:54:19 GMT-0500 (Central Daylight Time)","909188","Trustworthy,Untrustworthy","","null","","","","decisionFB","","<div class='trialDiv'><img src='trustrating_stim/white_00120_931230_fa_edt.bmp'><br><font class='baseline'><strong>Anthony</strong><p>Choose number of points to send.</font><div class='respPicDiv'><img src='img/responseButtonOffersNo0L3.png' class='respPic'></div></div>","null","7","Anthony","9","Kept","0.65,0.35","13","0.65","trustrating_stim/white_00120_931230_fa_edt.bmp","5","121","21"
"html-keyboard-response","199","531690","0.0-19.0-3.20","62a74b5136555a52d4911cac","bdp_trlrn","Tue Mar 14 2023 12:54:19 GMT-0500 (Central Daylight Time)","909188","Trustworthy,Untrustworthy","","null","","","","feedback","","<div class='trialDiv'><img src='trustrating_stim/white_00120_931230_fa_edt.bmp'><br><font class='baseline'><strong>Anthony</strong><p>Received: <strong>12</strong></font> &nbsp; &nbsp; &nbsp; &nbsp; &nbsp; &nbsp;<font class='negOutcome'>Shared back: <strong>0</strong></font></font><div class='respPicDiv'><img src='img/responseButtonOffersNo0_wht.png' class='respPic'></div></div>","null","7","Anthony","9","Kept","0.65,0.35","13","0.65","trustrating_stim/white_00120_931230_fa_edt.bmp","5","121","21"
"html-keyboard-response","200","534895","0.0-19.0-1.21","62a74b5136555a52d4911cac","bdp_trlrn","Tue Mar 14 2023 12:54:19 GMT-0500 (Central Daylight Time)","909188","Trustworthy,Untrustworthy","","3203","","","","decision","","<div class='trialDiv'><img src='trustrating_stim/white_mw060.bmp'><br><font class='baseline'><strong>Evan</strong><p>Choose number of points to send.</font><div class='respPicDiv'><img src='img/responseButtonOffersNo0L.png' class='respPic'></div></div>","5","8","Evan","5","Kept","0.65,0.2","14","0.65","trustrating_stim/white_mw060.bmp","5","126","22"
"html-keyboard-response","201","535154","0.0-19.0-2.21","62a74b5136555a52d4911cac","bdp_trlrn","Tue Mar 14 2023 12:54:19 GMT-0500 (Central Daylight Time)","909188","Trustworthy,Untrustworthy","","null","","","","decisionFB","","<div class='trialDiv'><img src='trustrating_stim/white_mw060.bmp'><br><font class='baseline'><strong>Evan</strong><p>Choose number of points to send.</font><div class='respPicDiv'><img src='img/responseButtonOffersNo0L5.png' class='respPic'></div></div>","null","8","Evan","5","Kept","0.65,0.2","14","0.65","trustrating_stim/white_mw060.bmp","5","121","22"
"html-keyboard-response","202","536169","0.0-19.0-3.21","62a74b5136555a52d4911cac","bdp_trlrn","Tue Mar 14 2023 12:54:19 GMT-0500 (Central Daylight Time)","909188","Trustworthy,Untrustworthy","","null","","","","feedback","","<div class='trialDiv'><img src='trustrating_stim/white_mw060.bmp'><br><font class='baseline'><strong>Evan</strong><p>Received: <strong>20</strong></font> &nbsp; &nbsp; &nbsp; &nbsp; &nbsp; &nbsp;<font class='negOutcome'>Shared back: <strong>0</strong></font></font><div class='respPicDiv'><img src='img/responseButtonOffersNo0_wht.png' class='respPic'></div></div>","null","8","Evan","5","Kept","0.65,0.2","14","0.65","trustrating_stim/white_mw060.bmp","5","121","22"
"html-keyboard-response","203","544961","0.0-19.0-1.22","62a74b5136555a52d4911cac","bdp_trlrn","Tue Mar 14 2023 12:54:19 GMT-0500 (Central Daylight Time)","909188","Trustworthy,Untrustworthy","","8791","","","","decision","","<div class='trialDiv'><img src='trustrating_stim/white_00120_931230_fa_edt.bmp'><br><font class='baseline'><strong>Anthony</strong><p>Choose number of points to send.</font><div class='respPicDiv'><img src='img/responseButtonOffersNo0L.png' class='respPic'></div></div>","2","8","Anthony","9","Shared","0.65,0.35","13","0.65","trustrating_stim/white_00120_931230_fa_edt.bmp","5","126","23"
"html-keyboard-response","204","545216","0.0-19.0-2.22","62a74b5136555a52d4911cac","bdp_trlrn","Tue Mar 14 2023 12:54:19 GMT-0500 (Central Daylight Time)","909188","Trustworthy,Untrustworthy","","null","","","","decisionFB","","<div class='trialDiv'><img src='trustrating_stim/white_00120_931230_fa_edt.bmp'><br><font class='baseline'><strong>Anthony</strong><p>Choose number of points to send.</font><div class='respPicDiv'><img src='img/responseButtonOffersNo0L2.png' class='respPic'></div></div>","null","8","Anthony","9","Shared","0.65,0.35","13","0.65","trustrating_stim/white_00120_931230_fa_edt.bmp","5","124","23"
"html-keyboard-response","205","546227","0.0-19.0-3.22","62a74b5136555a52d4911cac","bdp_trlrn","Tue Mar 14 2023 12:54:19 GMT-0500 (Central Daylight Time)","909188","Trustworthy,Untrustworthy","","null","","","","feedback","","<div class='trialDiv'><img src='trustrating_stim/white_00120_931230_fa_edt.bmp'><br><font class='baseline'><strong>Anthony</strong><p>Received: <strong>8</strong></font> &nbsp; &nbsp; &nbsp; &nbsp; &nbsp; &nbsp;<font class='posOutcome'>Shared back: <strong>4</strong></font></font><div class='respPicDiv'><img src='img/responseButtonOffersNo0_wht.png' class='respPic'></div></div>","null","8","Anthony","9","Shared","0.65,0.35","13","0.65","trustrating_stim/white_00120_931230_fa_edt.bmp","5","128","23"
"html-keyboard-response","206","548129","0.0-19.0-1.23","62a74b5136555a52d4911cac","bdp_trlrn","Tue Mar 14 2023 12:54:19 GMT-0500 (Central Daylight Time)","909188","Trustworthy,Untrustworthy","","1901","","","","decision","","<div class='trialDiv'><img src='trustrating_stim/white_00223_940128_fb_edt.bmp'><br><font class='baseline'><strong>David</strong><p>Choose number of points to send.</font><div class='respPicDiv'><img src='img/responseButtonOffersNo0L.png' class='respPic'></div></div>","2","8","David","1","Kept","0.35,0.8","12","0.35","trustrating_stim/white_00223_940128_fb_edt.bmp","5","133","24"
"html-keyboard-response","207","548381","0.0-19.0-2.23","62a74b5136555a52d4911cac","bdp_trlrn","Tue Mar 14 2023 12:54:19 GMT-0500 (Central Daylight Time)","909188","Trustworthy,Untrustworthy","","null","","","","decisionFB","","<div class='trialDiv'><img src='trustrating_stim/white_00223_940128_fb_edt.bmp'><br><font class='baseline'><strong>David</strong><p>Choose number of points to send.</font><div class='respPicDiv'><img src='img/responseButtonOffersNo0L2.png' class='respPic'></div></div>","null","8","David","1","Kept","0.35,0.8","12","0.35","trustrating_stim/white_00223_940128_fb_edt.bmp","5","131","24"
"html-keyboard-response","208","549383","0.0-19.0-3.23","62a74b5136555a52d4911cac","bdp_trlrn","Tue Mar 14 2023 12:54:19 GMT-0500 (Central Daylight Time)","909188","Trustworthy,Untrustworthy","","null","","","","feedback","","<div class='trialDiv'><img src='trustrating_stim/white_00223_940128_fb_edt.bmp'><br><font class='baseline'><strong>David</strong><p>Received: <strong>8</strong></font> &nbsp; &nbsp; &nbsp; &nbsp; &nbsp; &nbsp;<font class='negOutcome'>Shared back: <strong>0</strong></font></font><div class='respPicDiv'><img src='img/responseButtonOffersNo0_wht.png' class='respPic'></div></div>","null","8","David","1","Kept","0.35,0.8","12","0.35","trustrating_stim/white_00223_940128_fb_edt.bmp","5","131","24"
"html-keyboard-response","209","552440","0.0-19.0-1.24","62a74b5136555a52d4911cac","bdp_trlrn","Tue Mar 14 2023 12:54:19 GMT-0500 (Central Daylight Time)","909188","Trustworthy,Untrustworthy","","3057","","","","decision","","<div class='trialDiv'><img src='trustrating_stim/white_00120_931230_fa_edt.bmp'><br><font class='baseline'><strong>Anthony</strong><p>Choose number of points to send.</font><div class='respPicDiv'><img src='img/responseButtonOffersNo0L.png' class='respPic'></div></div>","5","9","Anthony","9","Kept","0.65,0.35","13","0.65","trustrating_stim/white_00120_931230_fa_edt.bmp","5","136","25"
"html-keyboard-response","210","552701","0.0-19.0-2.24","62a74b5136555a52d4911cac","bdp_trlrn","Tue Mar 14 2023 12:54:19 GMT-0500 (Central Daylight Time)","909188","Trustworthy,Untrustworthy","","null","","","","decisionFB","","<div class='trialDiv'><img src='trustrating_stim/white_00120_931230_fa_edt.bmp'><br><font class='baseline'><strong>Anthony</strong><p>Choose number of points to send.</font><div class='respPicDiv'><img src='img/responseButtonOffersNo0L5.png' class='respPic'></div></div>","null","9","Anthony","9","Kept","0.65,0.35","13","0.65","trustrating_stim/white_00120_931230_fa_edt.bmp","5","131","25"
"html-keyboard-response","211","553713","0.0-19.0-3.24","62a74b5136555a52d4911cac","bdp_trlrn","Tue Mar 14 2023 12:54:19 GMT-0500 (Central Daylight Time)","909188","Trustworthy,Untrustworthy","","null","","","","feedback","","<div class='trialDiv'><img src='trustrating_stim/white_00120_931230_fa_edt.bmp'><br><font class='baseline'><strong>Anthony</strong><p>Received: <strong>20</strong></font> &nbsp; &nbsp; &nbsp; &nbsp; &nbsp; &nbsp;<font class='negOutcome'>Shared back: <strong>0</strong></font></font><div class='respPicDiv'><img src='img/responseButtonOffersNo0_wht.png' class='respPic'></div></div>","null","9","Anthony","9","Kept","0.65,0.35","13","0.65","trustrating_stim/white_00120_931230_fa_edt.bmp","5","131","25"
"html-keyboard-response","212","554798","0.0-19.0-1.25","62a74b5136555a52d4911cac","bdp_trlrn","Tue Mar 14 2023 12:54:19 GMT-0500 (Central Daylight Time)","909188","Trustworthy,Untrustworthy","","1085","","","","decision","","<div class='trialDiv'><img src='trustrating_stim/white_00223_940128_fb_edt.bmp'><br><font class='baseline'><strong>David</strong><p>Choose number of points to send.</font><div class='respPicDiv'><img src='img/responseButtonOffersNo0L.png' class='respPic'></div></div>","1","9","David","1","Kept","0.35,0.8","12","0.35","trustrating_stim/white_00223_940128_fb_edt.bmp","5","136","26"
"html-keyboard-response","213","555049","0.0-19.0-2.25","62a74b5136555a52d4911cac","bdp_trlrn","Tue Mar 14 2023 12:54:19 GMT-0500 (Central Daylight Time)","909188","Trustworthy,Untrustworthy","","null","","","","decisionFB","","<div class='trialDiv'><img src='trustrating_stim/white_00223_940128_fb_edt.bmp'><br><font class='baseline'><strong>David</strong><p>Choose number of points to send.</font><div class='respPicDiv'><img src='img/responseButtonOffersNo0L1.png' class='respPic'></div></div>","null","9","David","1","Kept","0.35,0.8","12","0.35","trustrating_stim/white_00223_940128_fb_edt.bmp","5","135","26"
"html-keyboard-response","214","556062","0.0-19.0-3.25","62a74b5136555a52d4911cac","bdp_trlrn","Tue Mar 14 2023 12:54:19 GMT-0500 (Central Daylight Time)","909188","Trustworthy,Untrustworthy","","null","","","","feedback","","<div class='trialDiv'><img src='trustrating_stim/white_00223_940128_fb_edt.bmp'><br><font class='baseline'><strong>David</strong><p>Received: <strong>4</strong></font> &nbsp; &nbsp; &nbsp; &nbsp; &nbsp; &nbsp;<font class='negOutcome'>Shared back: <strong>0</strong></font></font><div class='respPicDiv'><img src='img/responseButtonOffersNo0_wht.png' class='respPic'></div></div>","null","9","David","1","Kept","0.35,0.8","12","0.35","trustrating_stim/white_00223_940128_fb_edt.bmp","5","135","26"
"html-keyboard-response","215","559714","0.0-19.0-1.26","62a74b5136555a52d4911cac","bdp_trlrn","Tue Mar 14 2023 12:54:19 GMT-0500 (Central Daylight Time)","909188","Trustworthy,Untrustworthy","","3651","","","","decision","","<div class='trialDiv'><img src='trustrating_stim/white_mw060.bmp'><br><font class='baseline'><strong>Evan</strong><p>Choose number of points to send.</font><div class='respPicDiv'><img src='img/responseButtonOffersNo0L.png' class='respPic'></div></div>","5","9","Evan","5","Shared","0.65,0.2","14","0.65","trustrating_stim/white_mw060.bmp","5","140","27"
"html-keyboard-response","216","559981","0.0-19.0-2.26","62a74b5136555a52d4911cac","bdp_trlrn","Tue Mar 14 2023 12:54:19 GMT-0500 (Central Daylight Time)","909188","Trustworthy,Untrustworthy","","null","","","","decisionFB","","<div class='trialDiv'><img src='trustrating_stim/white_mw060.bmp'><br><font class='baseline'><strong>Evan</strong><p>Choose number of points to send.</font><div class='respPicDiv'><img src='img/responseButtonOffersNo0L5.png' class='respPic'></div></div>","null","9","Evan","5","Shared","0.65,0.2","14","0.65","trustrating_stim/white_mw060.bmp","5","135","27"
"html-keyboard-response","217","560982","0.0-19.0-3.26","62a74b5136555a52d4911cac","bdp_trlrn","Tue Mar 14 2023 12:54:19 GMT-0500 (Central Daylight Time)","909188","Trustworthy,Untrustworthy","","null","","","","feedback","","<div class='trialDiv'><img src='trustrating_stim/white_mw060.bmp'><br><font class='baseline'><strong>Evan</strong><p>Received: <strong>20</strong></font> &nbsp; &nbsp; &nbsp; &nbsp; &nbsp; &nbsp;<font class='posOutcome'>Shared back: <strong>10</strong></font></font><div class='respPicDiv'><img src='img/responseButtonOffersNo0_wht.png' class='respPic'></div></div>","null","9","Evan","5","Shared","0.65,0.2","14","0.65","trustrating_stim/white_mw060.bmp","5","145","27"
"html-keyboard-response","218","563946","0.0-19.0-1.27","62a74b5136555a52d4911cac","bdp_trlrn","Tue Mar 14 2023 12:54:19 GMT-0500 (Central Daylight Time)","909188","Trustworthy,Untrustworthy","","2964","","","","decision","","<div class='trialDiv'><img src='trustrating_stim/white_00120_931230_fa_edt.bmp'><br><font class='baseline'><strong>Anthony</strong><p>Choose number of points to send.</font><div class='respPicDiv'><img src='img/responseButtonOffersNo0L.png' class='respPic'></div></div>","1","10","Anthony","9","Shared","0.65,0.35","13","0.65","trustrating_stim/white_00120_931230_fa_edt.bmp","5","150","28"
"html-keyboard-response","219","564206","0.0-19.0-2.27","62a74b5136555a52d4911cac","bdp_trlrn","Tue Mar 14 2023 12:54:19 GMT-0500 (Central Daylight Time)","909188","Trustworthy,Untrustworthy","","null","","","","decisionFB","","<div class='trialDiv'><img src='trustrating_stim/white_00120_931230_fa_edt.bmp'><br><font class='baseline'><strong>Anthony</strong><p>Choose number of points to send.</font><div class='respPicDiv'><img src='img/responseButtonOffersNo0L1.png' class='respPic'></div></div>","null","10","Anthony","9","Shared","0.65,0.35","13","0.65","trustrating_stim/white_00120_931230_fa_edt.bmp","5","149","28"
