"trial_type","trial_index","time_elapsed","internal_node_id","subject_id","task","startTime","totalTime","labels","view_history","rt","event","trial","time","trialtype","success","stimulus","key_press","aground","name","faceID","outcome","agenttype","agentswpt","agentcurrpshare","face","avgRating","point_total","round"
"pavlovia","0","2","0.0-0.0","63ea6fc5092518554c9b8111","bdp_trlrn","Mon Mar 13 2023 11:31:44 GMT-0700 (Pacific Daylight Time)","772455","Trustworthy,Untrustworthy","","","","","","","","","","","","","","","","","","","",""
"instructions","1","10411","0.0-1.0","63ea6fc5092518554c9b8111","bdp_trlrn","Mon Mar 13 2023 11:31:44 GMT-0700 (Pacific Daylight Time)","772455","Trustworthy,Untrustworthy","[{""page_index"":0,""viewing_time"":10409}]","10409","","","","","","","","","","","","","","","","","",""
"","","","","63ea6fc5092518554c9b8111","bdp_trlrn","Mon Mar 13 2023 11:31:44 GMT-0700 (Pacific Daylight Time)","772455","Trustworthy,Untrustworthy","","","fullscreenenter","2","14171","fullscreenenter","","","","","","","","","","","","","",""
"fullscreen","2","15169","0.0-2.0","63ea6fc5092518554c9b8111","bdp_trlrn","Mon Mar 13 2023 11:31:44 GMT-0700 (Pacific Daylight Time)","772455","Trustworthy,Untrustworthy","","","","","","","true","","","","","","","","","","","","",""
"instructions","3","64707","0.0-4.0","63ea6fc5092518554c9b8111","bdp_trlrn","Mon Mar 13 2023 11:31:44 GMT-0700 (Pacific Daylight Time)","772455","Trustworthy,Untrustworthy","[{""page_index"":0,""viewing_time"":21860},{""page_index"":1,""viewing_time"":27677}]","49537","","","","","","","","","","","","","","","","","",""
"instructions","4","67773","0.0-5.0","63ea6fc5092518554c9b8111","bdp_trlrn","Mon Mar 13 2023 11:31:44 GMT-0700 (Pacific Daylight Time)","772455","Trustworthy,Untrustworthy","[{""page_index"":0,""viewing_time"":3065}]","3065","","","","","","","","","","","","","","","","","",""
"image-keyboard-response","5","72552","0.0-6.0-1.0","63ea6fc5092518554c9b8111","bdp_trlrn","Mon Mar 13 2023 11:31:44 GMT-0700 (Pacific Daylight Time)","772455","Trustworthy,Untrustworthy","","4674","","","","rating","","trustrating_stim/white_mw060.bmp","5","","","","","","","","","","",""
"image-keyboard-response","6","72761","0.0-6.0-2.0","63ea6fc5092518554c9b8111","bdp_trlrn","Mon Mar 13 2023 11:31:44 GMT-0700 (Pacific Daylight Time)","772455","Trustworthy,Untrustworthy","","null","","","","ratingFB","","trustrating_stim/white_mw060.bmp","null","","","","","","","","","","",""
"image-keyboard-response","7","76326","0.0-6.0-1.1","63ea6fc5092518554c9b8111","bdp_trlrn","Mon Mar 13 2023 11:31:44 GMT-0700 (Pacific Daylight Time)","772455","Trustworthy,Untrustworthy","","3457","","","","rating","","trustrating_stim/white_00223_940128_fb_edt.bmp","4","","","","","","","","","","",""
"image-keyboard-response","8","76537","0.0-6.0-2.1","63ea6fc5092518554c9b8111","bdp_trlrn","Mon Mar 13 2023 11:31:44 GMT-0700 (Pacific Daylight Time)","772455","Trustworthy,Untrustworthy","","null","","","","ratingFB","","trustrating_stim/white_00223_940128_fb_edt.bmp","null","","","","","","","","","","",""
"image-keyboard-response","9","81064","0.0-6.0-1.2","63ea6fc5092518554c9b8111","bdp_trlrn","Mon Mar 13 2023 11:31:44 GMT-0700 (Pacific Daylight Time)","772455","Trustworthy,Untrustworthy","","4418","","","","rating","","trustrating_stim/white_mw049.bmp","2","","","","","","","","","","",""
"image-keyboard-response","10","81273","0.0-6.0-2.2","63ea6fc5092518554c9b8111","bdp_trlrn","Mon Mar 13 2023 11:31:44 GMT-0700 (Pacific Daylight Time)","772455","Trustworthy,Untrustworthy","","null","","","","ratingFB","","trustrating_stim/white_mw049.bmp","null","","","","","","","","","","",""
"image-keyboard-response","11","84257","0.0-6.0-1.3","63ea6fc5092518554c9b8111","bdp_trlrn","Mon Mar 13 2023 11:31:44 GMT-0700 (Pacific Daylight Time)","772455","Trustworthy,Untrustworthy","","2877","","","","rating","","trustrating_stim/white_00602_940928_fb_edt.bmp","5","","","","","","","","","","",""
"image-keyboard-response","12","84462","0.0-6.0-2.3","63ea6fc5092518554c9b8111","bdp_trlrn","Mon Mar 13 2023 11:31:44 GMT-0700 (Pacific Daylight Time)","772455","Trustworthy,Untrustworthy","","null","","","","ratingFB","","trustrating_stim/white_00602_940928_fb_edt.bmp","null","","","","","","","","","","",""
"image-keyboard-response","13","86178","0.0-6.0-1.4","63ea6fc5092518554c9b8111","bdp_trlrn","Mon Mar 13 2023 11:31:44 GMT-0700 (Pacific Daylight Time)","772455","Trustworthy,Untrustworthy","","1612","","","","rating","","trustrating_stim/white_mw056.bmp","6","","","","","","","","","","",""
"image-keyboard-response","14","86381","0.0-6.0-2.4","63ea6fc5092518554c9b8111","bdp_trlrn","Mon Mar 13 2023 11:31:44 GMT-0700 (Pacific Daylight Time)","772455","Trustworthy,Untrustworthy","","null","","","","ratingFB","","trustrating_stim/white_mw056.bmp","null","","","","","","","","","","",""
"image-keyboard-response","15","88430","0.0-6.0-1.5","63ea6fc5092518554c9b8111","bdp_trlrn","Mon Mar 13 2023 11:31:44 GMT-0700 (Pacific Daylight Time)","772455","Trustworthy,Untrustworthy","","1945","","","","rating","","trustrating_stim/white_mw066.bmp","5","","","","","","","","","","",""
"image-keyboard-response","16","88636","0.0-6.0-2.5","63ea6fc5092518554c9b8111","bdp_trlrn","Mon Mar 13 2023 11:31:44 GMT-0700 (Pacific Daylight Time)","772455","Trustworthy,Untrustworthy","","null","","","","ratingFB","","trustrating_stim/white_mw066.bmp","null","","","","","","","","","","",""
"image-keyboard-response","17","91984","0.0-6.0-1.6","63ea6fc5092518554c9b8111","bdp_trlrn","Mon Mar 13 2023 11:31:44 GMT-0700 (Pacific Daylight Time)","772455","Trustworthy,Untrustworthy","","3243","","","","rating","","trustrating_stim/white_mw099.bmp","7","","","","","","","","","","",""
"image-keyboard-response","18","92189","0.0-6.0-2.6","63ea6fc5092518554c9b8111","bdp_trlrn","Mon Mar 13 2023 11:31:44 GMT-0700 (Pacific Daylight Time)","772455","Trustworthy,Untrustworthy","","null","","","","ratingFB","","trustrating_stim/white_mw099.bmp","null","","","","","","","","","","",""
"image-keyboard-response","19","94626","0.0-6.0-1.7","63ea6fc5092518554c9b8111","bdp_trlrn","Mon Mar 13 2023 11:31:44 GMT-0700 (Pacific Daylight Time)","772455","Trustworthy,Untrustworthy","","2331","","","","rating","","trustrating_stim/white_00519_940519_fb_edt.bmp","6","","","","","","","","","","",""
"image-keyboard-response","20","94828","0.0-6.0-2.7","63ea6fc5092518554c9b8111","bdp_trlrn","Mon Mar 13 2023 11:31:44 GMT-0700 (Pacific Daylight Time)","772455","Trustworthy,Untrustworthy","","null","","","","ratingFB","","trustrating_stim/white_00519_940519_fb_edt.bmp","null","","","","","","","","","","",""
"image-keyboard-response","21","98471","0.0-6.0-1.8","63ea6fc5092518554c9b8111","bdp_trlrn","Mon Mar 13 2023 11:31:44 GMT-0700 (Pacific Daylight Time)","772455","Trustworthy,Untrustworthy","","3537","","","","rating","","trustrating_stim/white_mw071.bmp","7","","","","","","","","","","",""
"image-keyboard-response","22","98676","0.0-6.0-2.8","63ea6fc5092518554c9b8111","bdp_trlrn","Mon Mar 13 2023 11:31:44 GMT-0700 (Pacific Daylight Time)","772455","Trustworthy,Untrustworthy","","null","","","","ratingFB","","trustrating_stim/white_mw071.bmp","null","","","","","","","","","","",""
"image-keyboard-response","23","100558","0.0-6.0-1.9","63ea6fc5092518554c9b8111","bdp_trlrn","Mon Mar 13 2023 11:31:44 GMT-0700 (Pacific Daylight Time)","772455","Trustworthy,Untrustworthy","","1776","","","","rating","","trustrating_stim/white_00577_940928_fa_edt.bmp","6","","","","","","","","","","",""
"image-keyboard-response","24","100764","0.0-6.0-2.9","63ea6fc5092518554c9b8111","bdp_trlrn","Mon Mar 13 2023 11:31:44 GMT-0700 (Pacific Daylight Time)","772455","Trustworthy,Untrustworthy","","null","","","","ratingFB","","trustrating_stim/white_00577_940928_fa_edt.bmp","null","","","","","","","","","","",""
"image-keyboard-response","25","102563","0.0-6.0-1.10","63ea6fc5092518554c9b8111","bdp_trlrn","Mon Mar 13 2023 11:31:44 GMT-0700 (Pacific Daylight Time)","772455","Trustworthy,Untrustworthy","","1691","","","","rating","","trustrating_stim/white_00898_960530_fa_edt.bmp","5","","","","","","","","","","",""
"image-keyboard-response","26","102768","0.0-6.0-2.10","63ea6fc5092518554c9b8111","bdp_trlrn","Mon Mar 13 2023 11:31:44 GMT-0700 (Pacific Daylight Time)","772455","Trustworthy,Untrustworthy","","null","","","","ratingFB","","trustrating_stim/white_00898_960530_fa_edt.bmp","null","","","","","","","","","","",""
"image-keyboard-response","27","104899","0.0-6.0-1.11","63ea6fc5092518554c9b8111","bdp_trlrn","Mon Mar 13 2023 11:31:44 GMT-0700 (Pacific Daylight Time)","772455","Trustworthy,Untrustworthy","","2022","","","","rating","","trustrating_stim/white_00807_941205_fb_edt.bmp","3","","","","","","","","","","",""
"image-keyboard-response","28","105109","0.0-6.0-2.11","63ea6fc5092518554c9b8111","bdp_trlrn","Mon Mar 13 2023 11:31:44 GMT-0700 (Pacific Daylight Time)","772455","Trustworthy,Untrustworthy","","null","","","","ratingFB","","trustrating_stim/white_00807_941205_fb_edt.bmp","null","","","","","","","","","","",""
"image-keyboard-response","29","107308","0.0-6.0-1.12","63ea6fc5092518554c9b8111","bdp_trlrn","Mon Mar 13 2023 11:31:44 GMT-0700 (Pacific Daylight Time)","772455","Trustworthy,Untrustworthy","","2094","","","","rating","","trustrating_stim/white_mw089.bmp","7","","","","","","","","","","",""
"image-keyboard-response","30","107520","0.0-6.0-2.12","63ea6fc5092518554c9b8111","bdp_trlrn","Mon Mar 13 2023 11:31:44 GMT-0700 (Pacific Daylight Time)","772455","Trustworthy,Untrustworthy","","null","","","","ratingFB","","trustrating_stim/white_mw089.bmp","null","","","","","","","","","","",""
"image-keyboard-response","31","109094","0.0-6.0-1.13","63ea6fc5092518554c9b8111","bdp_trlrn","Mon Mar 13 2023 11:31:44 GMT-0700 (Pacific Daylight Time)","772455","Trustworthy,Untrustworthy","","1465","","","","rating","","trustrating_stim/white_mw035.bmp","8","","","","","","","","","","",""
"image-keyboard-response","32","109300","0.0-6.0-2.13","63ea6fc5092518554c9b8111","bdp_trlrn","Mon Mar 13 2023 11:31:44 GMT-0700 (Pacific Daylight Time)","772455","Trustworthy,Untrustworthy","","null","","","","ratingFB","","trustrating_stim/white_mw035.bmp","null","","","","","","","","","","",""
"image-keyboard-response","33","110940","0.0-6.0-1.14","63ea6fc5092518554c9b8111","bdp_trlrn","Mon Mar 13 2023 11:31:44 GMT-0700 (Pacific Daylight Time)","772455","Trustworthy,Untrustworthy","","1536","","","","rating","","trustrating_stim/white_00757_941201_fa_edt.bmp","6","","","","","","","","","","",""
"image-keyboard-response","34","111148","0.0-6.0-2.14","63ea6fc5092518554c9b8111","bdp_trlrn","Mon Mar 13 2023 11:31:44 GMT-0700 (Pacific Daylight Time)","772455","Trustworthy,Untrustworthy","","null","","","","ratingFB","","trustrating_stim/white_00757_941201_fa_edt.bmp","null","","","","","","","","","","",""
"image-keyboard-response","35","113398","0.0-6.0-1.15","63ea6fc5092518554c9b8111","bdp_trlrn","Mon Mar 13 2023 11:31:44 GMT-0700 (Pacific Daylight Time)","772455","Trustworthy,Untrustworthy","","2141","","","","rating","","trustrating_stim/white_00340_940422_fa_edt.bmp","7","","","","","","","","","","",""
"image-keyboard-response","36","113604","0.0-6.0-2.15","63ea6fc5092518554c9b8111","bdp_trlrn","Mon Mar 13 2023 11:31:44 GMT-0700 (Pacific Daylight Time)","772455","Trustworthy,Untrustworthy","","null","","","","ratingFB","","trustrating_stim/white_00340_940422_fa_edt.bmp","null","","","","","","","","","","",""
"image-keyboard-response","37","115263","0.0-6.0-1.16","63ea6fc5092518554c9b8111","bdp_trlrn","Mon Mar 13 2023 11:31:44 GMT-0700 (Pacific Daylight Time)","772455","Trustworthy,Untrustworthy","","1555","","","","rating","","trustrating_stim/white_00659_941121_fa_edt.bmp","7","","","","","","","","","","",""
"image-keyboard-response","38","115469","0.0-6.0-2.16","63ea6fc5092518554c9b8111","bdp_trlrn","Mon Mar 13 2023 11:31:44 GMT-0700 (Pacific Daylight Time)","772455","Trustworthy,Untrustworthy","","null","","","","ratingFB","","trustrating_stim/white_00659_941121_fa_edt.bmp","null","","","","","","","","","","",""
"image-keyboard-response","39","117525","0.0-6.0-1.17","63ea6fc5092518554c9b8111","bdp_trlrn","Mon Mar 13 2023 11:31:44 GMT-0700 (Pacific Daylight Time)","772455","Trustworthy,Untrustworthy","","1948","","","","rating","","trustrating_stim/white_mw097.bmp","5","","","","","","","","","","",""
"image-keyboard-response","40","117732","0.0-6.0-2.17","63ea6fc5092518554c9b8111","bdp_trlrn","Mon Mar 13 2023 11:31:44 GMT-0700 (Pacific Daylight Time)","772455","Trustworthy,Untrustworthy","","null","","","","ratingFB","","trustrating_stim/white_mw097.bmp","null","","","","","","","","","","",""
"image-keyboard-response","41","120573","0.0-6.0-1.18","63ea6fc5092518554c9b8111","bdp_trlrn","Mon Mar 13 2023 11:31:44 GMT-0700 (Pacific Daylight Time)","772455","Trustworthy,Untrustworthy","","2734","","","","rating","","trustrating_stim/white_00761_941201_fb_edt.bmp","6","","","","","","","","","","",""
"image-keyboard-response","42","120780","0.0-6.0-2.18","63ea6fc5092518554c9b8111","bdp_trlrn","Mon Mar 13 2023 11:31:44 GMT-0700 (Pacific Daylight Time)","772455","Trustworthy,Untrustworthy","","null","","","","ratingFB","","trustrating_stim/white_00761_941201_fb_edt.bmp","null","","","","","","","","","","",""
"image-keyboard-response","43","122585","0.0-6.0-1.19","63ea6fc5092518554c9b8111","bdp_trlrn","Mon Mar 13 2023 11:31:44 GMT-0700 (Pacific Daylight Time)","772455","Trustworthy,Untrustworthy","","1701","","","","rating","","trustrating_stim/white_00120_931230_fa_edt.bmp","4","","","","","","","","","","",""
"image-keyboard-response","44","122787","0.0-6.0-2.19","63ea6fc5092518554c9b8111","bdp_trlrn","Mon Mar 13 2023 11:31:44 GMT-0700 (Pacific Daylight Time)","772455","Trustworthy,Untrustworthy","","null","","","","ratingFB","","trustrating_stim/white_00120_931230_fa_edt.bmp","null","","","","","","","","","","",""
"image-keyboard-response","45","124995","0.0-6.0-1.20","63ea6fc5092518554c9b8111","bdp_trlrn","Mon Mar 13 2023 11:31:44 GMT-0700 (Pacific Daylight Time)","772455","Trustworthy,Untrustworthy","","2101","","","","rating","","trustrating_stim/white_mw084.bmp","5","","","","","","","","","","",""
"image-keyboard-response","46","125204","0.0-6.0-2.20","63ea6fc5092518554c9b8111","bdp_trlrn","Mon Mar 13 2023 11:31:44 GMT-0700 (Pacific Daylight Time)","772455","Trustworthy,Untrustworthy","","null","","","","ratingFB","","trustrating_stim/white_mw084.bmp","null","","","","","","","","","","",""
"image-keyboard-response","47","126738","0.0-6.0-1.21","63ea6fc5092518554c9b8111","bdp_trlrn","Mon Mar 13 2023 11:31:44 GMT-0700 (Pacific Daylight Time)","772455","Trustworthy,Untrustworthy","","1430","","","","rating","","trustrating_stim/white_mw048.bmp","4","","","","","","","","","","",""
"image-keyboard-response","48","126940","0.0-6.0-2.21","63ea6fc5092518554c9b8111","bdp_trlrn","Mon Mar 13 2023 11:31:44 GMT-0700 (Pacific Daylight Time)","772455","Trustworthy,Untrustworthy","","null","","","","ratingFB","","trustrating_stim/white_mw048.bmp","null","","","","","","","","","","",""
"image-keyboard-response","49","128955","0.0-6.0-1.22","63ea6fc5092518554c9b8111","bdp_trlrn","Mon Mar 13 2023 11:31:44 GMT-0700 (Pacific Daylight Time)","772455","Trustworthy,Untrustworthy","","1910","","","","rating","","trustrating_stim/white_mw046.bmp","6","","","","","","","","","","",""
"image-keyboard-response","50","129168","0.0-6.0-2.22","63ea6fc5092518554c9b8111","bdp_trlrn","Mon Mar 13 2023 11:31:44 GMT-0700 (Pacific Daylight Time)","772455","Trustworthy,Untrustworthy","","null","","","","ratingFB","","trustrating_stim/white_mw046.bmp","null","","","","","","","","","","",""
"image-keyboard-response","51","130997","0.0-6.0-1.23","63ea6fc5092518554c9b8111","bdp_trlrn","Mon Mar 13 2023 11:31:44 GMT-0700 (Pacific Daylight Time)","772455","Trustworthy,Untrustworthy","","1720","","","","rating","","trustrating_stim/white_mw033.bmp","7","","","","","","","","","","",""
"image-keyboard-response","52","131203","0.0-6.0-2.23","63ea6fc5092518554c9b8111","bdp_trlrn","Mon Mar 13 2023 11:31:44 GMT-0700 (Pacific Daylight Time)","772455","Trustworthy,Untrustworthy","","null","","","","ratingFB","","trustrating_stim/white_mw033.bmp","null","","","","","","","","","","",""
"image-keyboard-response","53","132508","0.0-6.0-1.24","63ea6fc5092518554c9b8111","bdp_trlrn","Mon Mar 13 2023 11:31:44 GMT-0700 (Pacific Daylight Time)","772455","Trustworthy,Untrustworthy","","1200","","","","rating","","trustrating_stim/white_00299_940422_fa_edt.bmp","7","","","","","","","","","","",""
"image-keyboard-response","54","132715","0.0-6.0-2.24","63ea6fc5092518554c9b8111","bdp_trlrn","Mon Mar 13 2023 11:31:44 GMT-0700 (Pacific Daylight Time)","772455","Trustworthy,Untrustworthy","","null","","","","ratingFB","","trustrating_stim/white_00299_940422_fa_edt.bmp","null","","","","","","","","","","",""
"image-keyboard-response","55","134490","0.0-6.0-1.25","63ea6fc5092518554c9b8111","bdp_trlrn","Mon Mar 13 2023 11:31:44 GMT-0700 (Pacific Daylight Time)","772455","Trustworthy,Untrustworthy","","1670","","","","rating","","trustrating_stim/white_mw063.bmp","8","","","","","","","","","","",""
"image-keyboard-response","56","134691","0.0-6.0-2.25","63ea6fc5092518554c9b8111","bdp_trlrn","Mon Mar 13 2023 11:31:44 GMT-0700 (Pacific Daylight Time)","772455","Trustworthy,Untrustworthy","","null","","","","ratingFB","","trustrating_stim/white_mw063.bmp","null","","","","","","","","","","",""
"image-keyboard-response","57","136712","0.0-6.0-1.26","63ea6fc5092518554c9b8111","bdp_trlrn","Mon Mar 13 2023 11:31:44 GMT-0700 (Pacific Daylight Time)","772455","Trustworthy,Untrustworthy","","1916","","","","rating","","trustrating_stim/white_00129_931230_fb_edt.bmp","6","","","","","","","","","","",""
"image-keyboard-response","58","136920","0.0-6.0-2.26","63ea6fc5092518554c9b8111","bdp_trlrn","Mon Mar 13 2023 11:31:44 GMT-0700 (Pacific Daylight Time)","772455","Trustworthy,Untrustworthy","","null","","","","ratingFB","","trustrating_stim/white_00129_931230_fb_edt.bmp","null","","","","","","","","","","",""
"image-keyboard-response","59","139130","0.0-6.0-1.27","63ea6fc5092518554c9b8111","bdp_trlrn","Mon Mar 13 2023 11:31:44 GMT-0700 (Pacific Daylight Time)","772455","Trustworthy,Untrustworthy","","2101","","","","rating","","trustrating_stim/white_mw053.bmp","4","","","","","","","","","","",""
"image-keyboard-response","60","139331","0.0-6.0-2.27","63ea6fc5092518554c9b8111","bdp_trlrn","Mon Mar 13 2023 11:31:44 GMT-0700 (Pacific Daylight Time)","772455","Trustworthy,Untrustworthy","","null","","","","ratingFB","","trustrating_stim/white_mw053.bmp","null","","","","","","","","","","",""
"image-keyboard-response","61","141753","0.0-6.0-1.28","63ea6fc5092518554c9b8111","bdp_trlrn","Mon Mar 13 2023 11:31:44 GMT-0700 (Pacific Daylight Time)","772455","Trustworthy,Untrustworthy","","2317","","","","rating","","trustrating_stim/white_00109_931230_fa_edt.bmp","4","","","","","","","","","","",""
"image-keyboard-response","62","141956","0.0-6.0-2.28","63ea6fc5092518554c9b8111","bdp_trlrn","Mon Mar 13 2023 11:31:44 GMT-0700 (Pacific Daylight Time)","772455","Trustworthy,Untrustworthy","","null","","","","ratingFB","","trustrating_stim/white_00109_931230_fa_edt.bmp","null","","","","","","","","","","",""
"image-keyboard-response","63","143534","0.0-6.0-1.29","63ea6fc5092518554c9b8111","bdp_trlrn","Mon Mar 13 2023 11:31:44 GMT-0700 (Pacific Daylight Time)","772455","Trustworthy,Untrustworthy","","1472","","","","rating","","trustrating_stim/white_00785_941205_fb_edt.bmp","6","","","","","","","","","","",""
"image-keyboard-response","64","143739","0.0-6.0-2.29","63ea6fc5092518554c9b8111","bdp_trlrn","Mon Mar 13 2023 11:31:44 GMT-0700 (Pacific Daylight Time)","772455","Trustworthy,Untrustworthy","","null","","","","ratingFB","","trustrating_stim/white_00785_941205_fb_edt.bmp","null","","","","","","","","","","",""
"image-keyboard-response","65","146861","0.0-6.0-1.30","63ea6fc5092518554c9b8111","bdp_trlrn","Mon Mar 13 2023 11:31:44 GMT-0700 (Pacific Daylight Time)","772455","Trustworthy,Untrustworthy","","3013","","","","rating","","trustrating_stim/white_00109_931230_fa_edt.bmp","4","","","","","","","","","","",""
"image-keyboard-response","66","147072","0.0-6.0-2.30","63ea6fc5092518554c9b8111","bdp_trlrn","Mon Mar 13 2023 11:31:44 GMT-0700 (Pacific Daylight Time)","772455","Trustworthy,Untrustworthy","","null","","","","ratingFB","","trustrating_stim/white_00109_931230_fa_edt.bmp","null","","","","","","","","","","",""
"image-keyboard-response","67","149722","0.0-6.0-1.31","63ea6fc5092518554c9b8111","bdp_trlrn","Mon Mar 13 2023 11:31:44 GMT-0700 (Pacific Daylight Time)","772455","Trustworthy,Untrustworthy","","2542","","","","rating","","trustrating_stim/white_mw089.bmp","7","","","","","","","","","","",""
"image-keyboard-response","68","149924","0.0-6.0-2.31","63ea6fc5092518554c9b8111","bdp_trlrn","Mon Mar 13 2023 11:31:44 GMT-0700 (Pacific Daylight Time)","772455","Trustworthy,Untrustworthy","","null","","","","ratingFB","","trustrating_stim/white_mw089.bmp","null","","","","","","","","","","",""
"image-keyboard-response","69","151746","0.0-6.0-1.32","63ea6fc5092518554c9b8111","bdp_trlrn","Mon Mar 13 2023 11:31:44 GMT-0700 (Pacific Daylight Time)","772455","Trustworthy,Untrustworthy","","1718","","","","rating","","trustrating_stim/white_00761_941201_fb_edt.bmp","6","","","","","","","","","","",""
"image-keyboard-response","70","151960","0.0-6.0-2.32","63ea6fc5092518554c9b8111","bdp_trlrn","Mon Mar 13 2023 11:31:44 GMT-0700 (Pacific Daylight Time)","772455","Trustworthy,Untrustworthy","","null","","","","ratingFB","","trustrating_stim/white_00761_941201_fb_edt.bmp","null","","","","","","","","","","",""
"image-keyboard-response","71","155522","0.0-6.0-1.33","63ea6fc5092518554c9b8111","bdp_trlrn","Mon Mar 13 2023 11:31:44 GMT-0700 (Pacific Daylight Time)","772455","Trustworthy,Untrustworthy","","3454","","","","rating","","trustrating_stim/white_mw063.bmp","7","","","","","","","","","","",""
"image-keyboard-response","72","155725","0.0-6.0-2.33","63ea6fc5092518554c9b8111","bdp_trlrn","Mon Mar 13 2023 11:31:44 GMT-0700 (Pacific Daylight Time)","772455","Trustworthy,Untrustworthy","","null","","","","ratingFB","","trustrating_stim/white_mw063.bmp","null","","","","","","","","","","",""
"image-keyboard-response","73","158179","0.0-6.0-1.34","63ea6fc5092518554c9b8111","bdp_trlrn","Mon Mar 13 2023 11:31:44 GMT-0700 (Pacific Daylight Time)","772455","Trustworthy,Untrustworthy","","2347","","","","rating","","trustrating_stim/white_00577_940928_fa_edt.bmp","6","","","","","","","","","","",""
"image-keyboard-response","74","158387","0.0-6.0-2.34","63ea6fc5092518554c9b8111","bdp_trlrn","Mon Mar 13 2023 11:31:44 GMT-0700 (Pacific Daylight Time)","772455","Trustworthy,Untrustworthy","","null","","","","ratingFB","","trustrating_stim/white_00577_940928_fa_edt.bmp","null","","","","","","","","","","",""
"image-keyboard-response","75","160183","0.0-6.0-1.35","63ea6fc5092518554c9b8111","bdp_trlrn","Mon Mar 13 2023 11:31:44 GMT-0700 (Pacific Daylight Time)","772455","Trustworthy,Untrustworthy","","1687","","","","rating","","trustrating_stim/white_00807_941205_fb_edt.bmp","4","","","","","","","","","","",""
"image-keyboard-response","76","160387","0.0-6.0-2.35","63ea6fc5092518554c9b8111","bdp_trlrn","Mon Mar 13 2023 11:31:44 GMT-0700 (Pacific Daylight Time)","772455","Trustworthy,Untrustworthy","","null","","","","ratingFB","","trustrating_stim/white_00807_941205_fb_edt.bmp","null","","","","","","","","","","",""
"image-keyboard-response","77","162098","0.0-6.0-1.36","63ea6fc5092518554c9b8111","bdp_trlrn","Mon Mar 13 2023 11:31:44 GMT-0700 (Pacific Daylight Time)","772455","Trustworthy,Untrustworthy","","1602","","","","rating","","trustrating_stim/white_00757_941201_fa_edt.bmp","6","","","","","","","","","","",""
"image-keyboard-response","78","162309","0.0-6.0-2.36","63ea6fc5092518554c9b8111","bdp_trlrn","Mon Mar 13 2023 11:31:44 GMT-0700 (Pacific Daylight Time)","772455","Trustworthy,Untrustworthy","","null","","","","ratingFB","","trustrating_stim/white_00757_941201_fa_edt.bmp","null","","","","","","","","","","",""
"image-keyboard-response","79","164895","0.0-6.0-1.37","63ea6fc5092518554c9b8111","bdp_trlrn","Mon Mar 13 2023 11:31:44 GMT-0700 (Pacific Daylight Time)","772455","Trustworthy,Untrustworthy","","2479","","","","rating","","trustrating_stim/white_00340_940422_fa_edt.bmp","4","","","","","","","","","","",""
"image-keyboard-response","80","165099","0.0-6.0-2.37","63ea6fc5092518554c9b8111","bdp_trlrn","Mon Mar 13 2023 11:31:44 GMT-0700 (Pacific Daylight Time)","772455","Trustworthy,Untrustworthy","","null","","","","ratingFB","","trustrating_stim/white_00340_940422_fa_edt.bmp","null","","","","","","","","","","",""
"image-keyboard-response","81","167277","0.0-6.0-1.38","63ea6fc5092518554c9b8111","bdp_trlrn","Mon Mar 13 2023 11:31:44 GMT-0700 (Pacific Daylight Time)","772455","Trustworthy,Untrustworthy","","2074","","","","rating","","trustrating_stim/white_mw049.bmp","4","","","","","","","","","","",""
"image-keyboard-response","82","167484","0.0-6.0-2.38","63ea6fc5092518554c9b8111","bdp_trlrn","Mon Mar 13 2023 11:31:44 GMT-0700 (Pacific Daylight Time)","772455","Trustworthy,Untrustworthy","","null","","","","ratingFB","","trustrating_stim/white_mw049.bmp","null","","","","","","","","","","",""
"image-keyboard-response","83","169217","0.0-6.0-1.39","63ea6fc5092518554c9b8111","bdp_trlrn","Mon Mar 13 2023 11:31:44 GMT-0700 (Pacific Daylight Time)","772455","Trustworthy,Untrustworthy","","1629","","","","rating","","trustrating_stim/white_mw071.bmp","7","","","","","","","","","","",""
"image-keyboard-response","84","169419","0.0-6.0-2.39","63ea6fc5092518554c9b8111","bdp_trlrn","Mon Mar 13 2023 11:31:44 GMT-0700 (Pacific Daylight Time)","772455","Trustworthy,Untrustworthy","","null","","","","ratingFB","","trustrating_stim/white_mw071.bmp","null","","","","","","","","","","",""
"image-keyboard-response","85","171724","0.0-6.0-1.40","63ea6fc5092518554c9b8111","bdp_trlrn","Mon Mar 13 2023 11:31:44 GMT-0700 (Pacific Daylight Time)","772455","Trustworthy,Untrustworthy","","2200","","","","rating","","trustrating_stim/white_mw060.bmp","5","","","","","","","","","","",""
"image-keyboard-response","86","171932","0.0-6.0-2.40","63ea6fc5092518554c9b8111","bdp_trlrn","Mon Mar 13 2023 11:31:44 GMT-0700 (Pacific Daylight Time)","772455","Trustworthy,Untrustworthy","","null","","","","ratingFB","","trustrating_stim/white_mw060.bmp","null","","","","","","","","","","",""
"image-keyboard-response","87","173678","0.0-6.0-1.41","63ea6fc5092518554c9b8111","bdp_trlrn","Mon Mar 13 2023 11:31:44 GMT-0700 (Pacific Daylight Time)","772455","Trustworthy,Untrustworthy","","1638","","","","rating","","trustrating_stim/white_00785_941205_fb_edt.bmp","5","","","","","","","","","","",""
"image-keyboard-response","88","173883","0.0-6.0-2.41","63ea6fc5092518554c9b8111","bdp_trlrn","Mon Mar 13 2023 11:31:44 GMT-0700 (Pacific Daylight Time)","772455","Trustworthy,Untrustworthy","","null","","","","ratingFB","","trustrating_stim/white_00785_941205_fb_edt.bmp","null","","","","","","","","","","",""
"image-keyboard-response","89","175439","0.0-6.0-1.42","63ea6fc5092518554c9b8111","bdp_trlrn","Mon Mar 13 2023 11:31:44 GMT-0700 (Pacific Daylight Time)","772455","Trustworthy,Untrustworthy","","1451","","","","rating","","trustrating_stim/white_mw099.bmp","7","","","","","","","","","","",""
"image-keyboard-response","90","175643","0.0-6.0-2.42","63ea6fc5092518554c9b8111","bdp_trlrn","Mon Mar 13 2023 11:31:44 GMT-0700 (Pacific Daylight Time)","772455","Trustworthy,Untrustworthy","","null","","","","ratingFB","","trustrating_stim/white_mw099.bmp","null","","","","","","","","","","",""
"image-keyboard-response","91","177642","0.0-6.0-1.43","63ea6fc5092518554c9b8111","bdp_trlrn","Mon Mar 13 2023 11:31:44 GMT-0700 (Pacific Daylight Time)","772455","Trustworthy,Untrustworthy","","1891","","","","rating","","trustrating_stim/white_mw048.bmp","5","","","","","","","","","","",""
"image-keyboard-response","92","177848","0.0-6.0-2.43","63ea6fc5092518554c9b8111","bdp_trlrn","Mon Mar 13 2023 11:31:44 GMT-0700 (Pacific Daylight Time)","772455","Trustworthy,Untrustworthy","","null","","","","ratingFB","","trustrating_stim/white_mw048.bmp","null","","","","","","","","","","",""
"image-keyboard-response","93","179288","0.0-6.0-1.44","63ea6fc5092518554c9b8111","bdp_trlrn","Mon Mar 13 2023 11:31:44 GMT-0700 (Pacific Daylight Time)","772455","Trustworthy,Untrustworthy","","1328","","","","rating","","trustrating_stim/white_00659_941121_fa_edt.bmp","6","","","","","","","","","","",""
"image-keyboard-response","94","179491","0.0-6.0-2.44","63ea6fc5092518554c9b8111","bdp_trlrn","Mon Mar 13 2023 11:31:44 GMT-0700 (Pacific Daylight Time)","772455","Trustworthy,Untrustworthy","","null","","","","ratingFB","","trustrating_stim/white_00659_941121_fa_edt.bmp","null","","","","","","","","","","",""
"image-keyboard-response","95","181101","0.0-6.0-1.45","63ea6fc5092518554c9b8111","bdp_trlrn","Mon Mar 13 2023 11:31:44 GMT-0700 (Pacific Daylight Time)","772455","Trustworthy,Untrustworthy","","1506","","","","rating","","trustrating_stim/white_00129_931230_fb_edt.bmp","7","","","","","","","","","","",""
"image-keyboard-response","96","181312","0.0-6.0-2.45","63ea6fc5092518554c9b8111","bdp_trlrn","Mon Mar 13 2023 11:31:44 GMT-0700 (Pacific Daylight Time)","772455","Trustworthy,Untrustworthy","","null","","","","ratingFB","","trustrating_stim/white_00129_931230_fb_edt.bmp","null","","","","","","","","","","",""
"image-keyboard-response","97","182885","0.0-6.0-1.46","63ea6fc5092518554c9b8111","bdp_trlrn","Mon Mar 13 2023 11:31:44 GMT-0700 (Pacific Daylight Time)","772455","Trustworthy,Untrustworthy","","1461","","","","rating","","trustrating_stim/white_mw046.bmp","5","","","","","","","","","","",""
"image-keyboard-response","98","183092","0.0-6.0-2.46","63ea6fc5092518554c9b8111","bdp_trlrn","Mon Mar 13 2023 11:31:44 GMT-0700 (Pacific Daylight Time)","772455","Trustworthy,Untrustworthy","","null","","","","ratingFB","","trustrating_stim/white_mw046.bmp","null","","","","","","","","","","",""
"image-keyboard-response","99","185558","0.0-6.0-1.47","63ea6fc5092518554c9b8111","bdp_trlrn","Mon Mar 13 2023 11:31:44 GMT-0700 (Pacific Daylight Time)","772455","Trustworthy,Untrustworthy","","2363","","","","rating","","trustrating_stim/white_mw035.bmp","7","","","","","","","","","","",""
"image-keyboard-response","100","185763","0.0-6.0-2.47","63ea6fc5092518554c9b8111","bdp_trlrn","Mon Mar 13 2023 11:31:44 GMT-0700 (Pacific Daylight Time)","772455","Trustworthy,Untrustworthy","","null","","","","ratingFB","","trustrating_stim/white_mw035.bmp","null","","","","","","","","","","",""
"image-keyboard-response","101","187465","0.0-6.0-1.48","63ea6fc5092518554c9b8111","bdp_trlrn","Mon Mar 13 2023 11:31:44 GMT-0700 (Pacific Daylight Time)","772455","Trustworthy,Untrustworthy","","1597","","","","rating","","trustrating_stim/white_mw066.bmp","6","","","","","","","","","","",""
"image-keyboard-response","102","187668","0.0-6.0-2.48","63ea6fc5092518554c9b8111","bdp_trlrn","Mon Mar 13 2023 11:31:44 GMT-0700 (Pacific Daylight Time)","772455","Trustworthy,Untrustworthy","","null","","","","ratingFB","","trustrating_stim/white_mw066.bmp","null","","","","","","","","","","",""
"image-keyboard-response","103","189361","0.0-6.0-1.49","63ea6fc5092518554c9b8111","bdp_trlrn","Mon Mar 13 2023 11:31:44 GMT-0700 (Pacific Daylight Time)","772455","Trustworthy,Untrustworthy","","1590","","","","rating","","trustrating_stim/white_mw084.bmp","5","","","","","","","","","","",""
"image-keyboard-response","104","189564","0.0-6.0-2.49","63ea6fc5092518554c9b8111","bdp_trlrn","Mon Mar 13 2023 11:31:44 GMT-0700 (Pacific Daylight Time)","772455","Trustworthy,Untrustworthy","","null","","","","ratingFB","","trustrating_stim/white_mw084.bmp","null","","","","","","","","","","",""
"image-keyboard-response","105","191168","0.0-6.0-1.50","63ea6fc5092518554c9b8111","bdp_trlrn","Mon Mar 13 2023 11:31:44 GMT-0700 (Pacific Daylight Time)","772455","Trustworthy,Untrustworthy","","1500","","","","rating","","trustrating_stim/white_00898_960530_fa_edt.bmp","4","","","","","","","","","","",""
"image-keyboard-response","106","191376","0.0-6.0-2.50","63ea6fc5092518554c9b8111","bdp_trlrn","Mon Mar 13 2023 11:31:44 GMT-0700 (Pacific Daylight Time)","772455","Trustworthy,Untrustworthy","","null","","","","ratingFB","","trustrating_stim/white_00898_960530_fa_edt.bmp","null","","","","","","","","","","",""
"image-keyboard-response","107","192921","0.0-6.0-1.51","63ea6fc5092518554c9b8111","bdp_trlrn","Mon Mar 13 2023 11:31:44 GMT-0700 (Pacific Daylight Time)","772455","Trustworthy,Untrustworthy","","1433","","","","rating","","trustrating_stim/white_00299_940422_fa_edt.bmp","7","","","","","","","","","","",""
"image-keyboard-response","108","193128","0.0-6.0-2.51","63ea6fc5092518554c9b8111","bdp_trlrn","Mon Mar 13 2023 11:31:44 GMT-0700 (Pacific Daylight Time)","772455","Trustworthy,Untrustworthy","","null","","","","ratingFB","","trustrating_stim/white_00299_940422_fa_edt.bmp","null","","","","","","","","","","",""
"image-keyboard-response","109","194578","0.0-6.0-1.52","63ea6fc5092518554c9b8111","bdp_trlrn","Mon Mar 13 2023 11:31:44 GMT-0700 (Pacific Daylight Time)","772455","Trustworthy,Untrustworthy","","1341","","","","rating","","trustrating_stim/white_00120_931230_fa_edt.bmp","5","","","","","","","","","","",""
"image-keyboard-response","110","194784","0.0-6.0-2.52","63ea6fc5092518554c9b8111","bdp_trlrn","Mon Mar 13 2023 11:31:44 GMT-0700 (Pacific Daylight Time)","772455","Trustworthy,Untrustworthy","","null","","","","ratingFB","","trustrating_stim/white_00120_931230_fa_edt.bmp","null","","","","","","","","","","",""
"image-keyboard-response","111","196436","0.0-6.0-1.53","63ea6fc5092518554c9b8111","bdp_trlrn","Mon Mar 13 2023 11:31:44 GMT-0700 (Pacific Daylight Time)","772455","Trustworthy,Untrustworthy","","1540","","","","rating","","trustrating_stim/white_00223_940128_fb_edt.bmp","7","","","","","","","","","","",""
"image-keyboard-response","112","196648","0.0-6.0-2.53","63ea6fc5092518554c9b8111","bdp_trlrn","Mon Mar 13 2023 11:31:44 GMT-0700 (Pacific Daylight Time)","772455","Trustworthy,Untrustworthy","","null","","","","ratingFB","","trustrating_stim/white_00223_940128_fb_edt.bmp","null","","","","","","","","","","",""
"image-keyboard-response","113","198118","0.0-6.0-1.54","63ea6fc5092518554c9b8111","bdp_trlrn","Mon Mar 13 2023 11:31:44 GMT-0700 (Pacific Daylight Time)","772455","Trustworthy,Untrustworthy","","1362","","","","rating","","trustrating_stim/white_mw097.bmp","4","","","","","","","","","","",""
"image-keyboard-response","114","198326","0.0-6.0-2.54","63ea6fc5092518554c9b8111","bdp_trlrn","Mon Mar 13 2023 11:31:44 GMT-0700 (Pacific Daylight Time)","772455","Trustworthy,Untrustworthy","","null","","","","ratingFB","","trustrating_stim/white_mw097.bmp","null","","","","","","","","","","",""
"image-keyboard-response","115","199683","0.0-6.0-1.55","63ea6fc5092518554c9b8111","bdp_trlrn","Mon Mar 13 2023 11:31:44 GMT-0700 (Pacific Daylight Time)","772455","Trustworthy,Untrustworthy","","1246","","","","rating","","trustrating_stim/white_00519_940519_fb_edt.bmp","5","","","","","","","","","","",""
"image-keyboard-response","116","199891","0.0-6.0-2.55","63ea6fc5092518554c9b8111","bdp_trlrn","Mon Mar 13 2023 11:31:44 GMT-0700 (Pacific Daylight Time)","772455","Trustworthy,Untrustworthy","","null","","","","ratingFB","","trustrating_stim/white_00519_940519_fb_edt.bmp","null","","","","","","","","","","",""
"image-keyboard-response","117","201202","0.0-6.0-1.56","63ea6fc5092518554c9b8111","bdp_trlrn","Mon Mar 13 2023 11:31:44 GMT-0700 (Pacific Daylight Time)","772455","Trustworthy,Untrustworthy","","1205","","","","rating","","trustrating_stim/white_mw053.bmp","4","","","","","","","","","","",""
"image-keyboard-response","118","201411","0.0-6.0-2.56","63ea6fc5092518554c9b8111","bdp_trlrn","Mon Mar 13 2023 11:31:44 GMT-0700 (Pacific Daylight Time)","772455","Trustworthy,Untrustworthy","","null","","","","ratingFB","","trustrating_stim/white_mw053.bmp","null","","","","","","","","","","",""
"image-keyboard-response","119","202935","0.0-6.0-1.57","63ea6fc5092518554c9b8111","bdp_trlrn","Mon Mar 13 2023 11:31:44 GMT-0700 (Pacific Daylight Time)","772455","Trustworthy,Untrustworthy","","1417","","","","rating","","trustrating_stim/white_mw033.bmp","6","","","","","","","","","","",""
"image-keyboard-response","120","203140","0.0-6.0-2.57","63ea6fc5092518554c9b8111","bdp_trlrn","Mon Mar 13 2023 11:31:44 GMT-0700 (Pacific Daylight Time)","772455","Trustworthy,Untrustworthy","","null","","","","ratingFB","","trustrating_stim/white_mw033.bmp","null","","","","","","","","","","",""
"image-keyboard-response","121","204643","0.0-6.0-1.58","63ea6fc5092518554c9b8111","bdp_trlrn","Mon Mar 13 2023 11:31:44 GMT-0700 (Pacific Daylight Time)","772455","Trustworthy,Untrustworthy","","1399","","","","rating","","trustrating_stim/white_00602_940928_fb_edt.bmp","4","","","","","","","","","","",""
"image-keyboard-response","122","204852","0.0-6.0-2.58","63ea6fc5092518554c9b8111","bdp_trlrn","Mon Mar 13 2023 11:31:44 GMT-0700 (Pacific Daylight Time)","772455","Trustworthy,Untrustworthy","","null","","","","ratingFB","","trustrating_stim/white_00602_940928_fb_edt.bmp","null","","","","","","","","","","",""
"image-keyboard-response","123","206844","0.0-6.0-1.59","63ea6fc5092518554c9b8111","bdp_trlrn","Mon Mar 13 2023 11:31:44 GMT-0700 (Pacific Daylight Time)","772455","Trustworthy,Untrustworthy","","1888","","","","rating","","trustrating_stim/white_mw056.bmp","5","","","","","","","","","","",""
"image-keyboard-response","124","207056","0.0-6.0-2.59","63ea6fc5092518554c9b8111","bdp_trlrn","Mon Mar 13 2023 11:31:44 GMT-0700 (Pacific Daylight Time)","772455","Trustworthy,Untrustworthy","","null","","","","ratingFB","","trustrating_stim/white_mw056.bmp","null","","","","","","","","","","",""
"instructions","125","210368","0.0-7.0","63ea6fc5092518554c9b8111","bdp_trlrn","Mon Mar 13 2023 11:31:44 GMT-0700 (Pacific Daylight Time)","772455","Trustworthy,Untrustworthy","[{""page_index"":0,""viewing_time"":3205}]","3205","","","","","","","","","","","","","","","","","",""
"instructions","126","369986","0.0-8.0","63ea6fc5092518554c9b8111","bdp_trlrn","Mon Mar 13 2023 11:31:44 GMT-0700 (Pacific Daylight Time)","772455","Trustworthy,Untrustworthy","[{""page_index"":0,""viewing_time"":48010},{""page_index"":1,""viewing_time"":27478},{""page_index"":2,""viewing_time"":4470},{""page_index"":3,""viewing_time"":14450},{""page_index"":4,""viewing_time"":12756},{""page_index"":5,""viewing_time"":12630},{""page_index"":6,""viewing_time"":24066},{""page_index"":7,""viewing_time"":15648}]","159508","","","","","","","","","","","","","","","","","",""
"html-keyboard-response","127","376682","0.0-9.0","63ea6fc5092518554c9b8111","bdp_trlrn","Mon Mar 13 2023 11:31:44 GMT-0700 (Pacific Daylight Time)","772455","Trustworthy,Untrustworthy","","6694","","","","","","<div class='header' style='text-align:left; position: absolute; top: 5%; left: 5%;'><small>Task 2 of 5</small></div><div class='instruxDiv'><p><strong>1) What is the minimum number of points you can choose to send to your partner?</strong></p><p>a) 0</p><p>b) 1</p><p>c) 5</p>","B","","","","","","","","","","",""
"html-keyboard-response","128","387931","0.0-10.0","63ea6fc5092518554c9b8111","bdp_trlrn","Mon Mar 13 2023 11:31:44 GMT-0700 (Pacific Daylight Time)","772455","Trustworthy,Untrustworthy","","11141","","","","","","<div class='header' style='text-align:left; position: absolute; top: 5%; left: 5%;'><small>Task 2 of 5</small></div><div class='instruxDiv'><p><strong>1) What is the minimum number of points you can choose to send to your partner?</strong></p><p>a) 0</p><p style='color:#00FF00'>b) 1</p><p>c) 5</p><h3 style='color:#00FF00'>Correct!</h3><h3 class='center-content'>The correct response is b).</h3><h3 class='center-content'>The minimum number of points you can choose to send to your partner is 1 point.</h3><p><em>Press SPACEBAR to continue</em></p></div>"," ","","","","","","","","","","",""
"html-keyboard-response","129","393298","0.0-11.0","63ea6fc5092518554c9b8111","bdp_trlrn","Mon Mar 13 2023 11:31:44 GMT-0700 (Pacific Daylight Time)","772455","Trustworthy,Untrustworthy","","5261","","","","","","<div class='header' style='text-align:left; position: absolute; top: 5%; left: 5%;'><small>Task 2 of 5</small></div><div class='instruxDiv'><p><strong>2) What is the maximum number of points you can choose to send to your partner?</strong></p><p>a) 8</p><p>b) 5</p><p>c) 3</p>","B","","","","","","","","","","",""
"html-keyboard-response","130","395881","0.0-12.0","63ea6fc5092518554c9b8111","bdp_trlrn","Mon Mar 13 2023 11:31:44 GMT-0700 (Pacific Daylight Time)","772455","Trustworthy,Untrustworthy","","2478","","","","","","<div class='header' style='text-align:left; position: absolute; top: 5%; left: 5%;'><small>Task 2 of 5</small></div><div class='instruxDiv'><p><strong>2) What is the maximum number of points you can choose to send to your partner?</strong></p><p>a) 8</p><p style='color:#00FF00'>b) 5</p><p>c) 3</p><h3 style='color:#00FF00'>Correct!</h3><h3 class='center-content'>The correct response is b).</h3><h3 class='center-content'>The maximum number of points you can choose to send to your partner is 5 points.</h3><p><em>Press SPACEBAR to continue</em></p></div>"," ","","","","","","","","","","",""
"html-keyboard-response","131","401988","0.0-13.0","63ea6fc5092518554c9b8111","bdp_trlrn","Mon Mar 13 2023 11:31:44 GMT-0700 (Pacific Daylight Time)","772455","Trustworthy,Untrustworthy","","5998","","","","","","<div class='header' style='text-align:left; position: absolute; top: 5%; left: 5%;'><small>Task 2 of 5</small></div><div class='instruxDiv'><p><strong>3) What happens to the amount of points you send to your partner?</strong></p><p>a) Nothing</p><p>b) It doubles</p><p>c) It quadruples</p>","C","","","","","","","","","","",""
"html-keyboard-response","132","403109","0.0-14.0","63ea6fc5092518554c9b8111","bdp_trlrn","Mon Mar 13 2023 11:31:44 GMT-0700 (Pacific Daylight Time)","772455","Trustworthy,Untrustworthy","","1015","","","","","","<div class='header' style='text-align:left; position: absolute; top: 5%; left: 5%;'><small>Task 2 of 5</small></div><div class='instruxDiv'><p><strong>3) What happens to the amount of points you send to your partner?</strong></p><p>a) Nothing</p><p>b) It doubles</p><p style='color:#00FF00'>c) It quadruples</p><h3 style='color:#00FF00'>Correct!</h3><h3 class='center-content'>The correct response is c).</h3><h3 class='center-content'>The amount of points you send to your partner quadruples.</h3><p><em>Press SPACEBAR to continue</em></p></div>"," ","","","","","","","","","","",""
"html-keyboard-response","133","412112","0.0-15.0","63ea6fc5092518554c9b8111","bdp_trlrn","Mon Mar 13 2023 11:31:44 GMT-0700 (Pacific Daylight Time)","772455","Trustworthy,Untrustworthy","","8893","","","","","","<div class='header' style='text-align:left; position: absolute; top: 5%; left: 5%;'><small>Task 2 of 5</small></div><div class='instruxDiv'><p><strong>4) If you decided to share 4 out of 5 points with your partner, and they decided to share half of the amount they received with you, how many points would you receive back from them on this round?</strong></p><p>a) 16</p><p>b) 0</p><p>c) 8</p>","C","","","","","","","","","","",""
"html-keyboard-response","134","413544","0.0-16.0","63ea6fc5092518554c9b8111","bdp_trlrn","Mon Mar 13 2023 11:31:44 GMT-0700 (Pacific Daylight Time)","772455","Trustworthy,Untrustworthy","","1321","","","","","","<div class='header' style='text-align:left; position: absolute; top: 5%; left: 5%;'><small>Task 2 of 5</small></div><div class='instruxDiv'><p><strong>4) If you decided to share 4 out of 5 points with your partner, and they decided to share half of the amount they received with you, how many points would you receive back from them on this round?</strong></p><p>a) 16</p><p>b) 0</p><p style='color:#00FF00'>c) 8</p><h3 style='color:#00FF00'>Correct!</h3><h3 class='center-content'>The correct response is c).</h3><h3 class='center-content'>If you shared 4 out of 5 points with your partner and they decided to share half of the amount they received with you, you would receive 8 points back (i.e. (4 x 4)/2 = 8).</h3><p><em>Press SPACEBAR to continue</em></p></div>"," ","","","","","","","","","","",""
"html-keyboard-response","135","418657","0.0-17.0","63ea6fc5092518554c9b8111","bdp_trlrn","Mon Mar 13 2023 11:31:44 GMT-0700 (Pacific Daylight Time)","772455","Trustworthy,Untrustworthy","","null","","","","","","<div class='header' style='text-align:left; position: absolute; top: 5%; left: 5%;'><small>Task 2 of 5</small></div><div class='instruxDiv'><p>Thank you for completing the quiz<p>These are the actual partners you will be interacting with in the next block:<p><div class='tc' align='center'><img class='introPic' src='trustrating_stim/white_mw049.bmp'><br><strong>Ethan</strong></div><div class='bl' align='center'><img class='introPic' src='trustrating_stim/white_mw066.bmp'><br><strong>Matthew</strong></div><div class='br' align='center'><img class='introPic' src='trustrating_stim/white_mw063.bmp'><br><strong>Chris</strong></div></div><p>Across <strong>66 rounds</strong> you will interact with each partner <strong>22 times</strong> (in random order).<p style='align:center; color:white'><font <em>Press SPACEBAR to continue</em></p>","null","","","","","","","","","","",""
"instructions","136","430265","0.0-18.0","63ea6fc5092518554c9b8111","bdp_trlrn","Mon Mar 13 2023 11:31:44 GMT-0700 (Pacific Daylight Time)","772455","Trustworthy,Untrustworthy","[{""page_index"":0,""viewing_time"":5916},{""page_index"":1,""viewing_time"":5691}]","11607","","","","","","","","","","","","","","","","","",""
"html-keyboard-response","137","432368","0.0-19.0-1.0","63ea6fc5092518554c9b8111","bdp_trlrn","Mon Mar 13 2023 11:31:44 GMT-0700 (Pacific Daylight Time)","772455","Trustworthy,Untrustworthy","","1993","","","","decision","","<div class='trialDiv'><img src='trustrating_stim/white_mw049.bmp'><br><font class='baseline'><strong>Ethan</strong><p>Choose number of points to send.</font><div class='respPicDiv'><img src='img/responseButtonOffersNo0L.png' class='respPic'></div></div>","3","1","Ethan","0","Shared","0.8,0.35","8","0.8","trustrating_stim/white_mw049.bmp","3","5","1"
"html-keyboard-response","138","432629","0.0-19.0-2.0","63ea6fc5092518554c9b8111","bdp_trlrn","Mon Mar 13 2023 11:31:44 GMT-0700 (Pacific Daylight Time)","772455","Trustworthy,Untrustworthy","","null","","","","decisionFB","","<div class='trialDiv'><img src='trustrating_stim/white_mw049.bmp'><br><font class='baseline'><strong>Ethan</strong><p>Choose number of points to send.</font><div class='respPicDiv'><img src='img/responseButtonOffersNo0L3.png' class='respPic'></div></div>","null","1","Ethan","0","Shared","0.8,0.35","8","0.8","trustrating_stim/white_mw049.bmp","3","2","1"
"html-keyboard-response","139","433638","0.0-19.0-3.0","63ea6fc5092518554c9b8111","bdp_trlrn","Mon Mar 13 2023 11:31:44 GMT-0700 (Pacific Daylight Time)","772455","Trustworthy,Untrustworthy","","null","","","","feedback","","<div class='trialDiv'><img src='trustrating_stim/white_mw049.bmp'><br><font class='baseline'><strong>Ethan</strong><p>Received: <strong>12</strong></font> &nbsp; &nbsp; &nbsp; &nbsp; &nbsp; &nbsp;<font class='posOutcome'>Shared back: <strong>6</strong></font></font><div class='respPicDiv'><img src='img/responseButtonOffersNo0_wht.png' class='respPic'></div></div>","null","1","Ethan","0","Shared","0.8,0.35","8","0.8","trustrating_stim/white_mw049.bmp","3","8","1"
"html-keyboard-response","140","435386","0.0-19.0-1.1","63ea6fc5092518554c9b8111","bdp_trlrn","Mon Mar 13 2023 11:31:44 GMT-0700 (Pacific Daylight Time)","772455","Trustworthy,Untrustworthy","","1747","","","","decision","","<div class='trialDiv'><img src='trustrating_stim/white_mw063.bmp'><br><font class='baseline'><strong>Chris</strong><p>Choose number of points to send.</font><div class='respPicDiv'><img src='img/responseButtonOffersNo0L.png' class='respPic'></div></div>","4","1","Chris","10","Kept","0.35,0.65","10","0.35","trustrating_stim/white_mw063.bmp","7.5","13","2"
"html-keyboard-response","141","435642","0.0-19.0-2.1","63ea6fc5092518554c9b8111","bdp_trlrn","Mon Mar 13 2023 11:31:44 GMT-0700 (Pacific Daylight Time)","772455","Trustworthy,Untrustworthy","","null","","","","decisionFB","","<div class='trialDiv'><img src='trustrating_stim/white_mw063.bmp'><br><font class='baseline'><strong>Chris</strong><p>Choose number of points to send.</font><div class='respPicDiv'><img src='img/responseButtonOffersNo0L4.png' class='respPic'></div></div>","null","1","Chris","10","Kept","0.35,0.65","10","0.35","trustrating_stim/white_mw063.bmp","7.5","9","2"
"html-keyboard-response","142","436654","0.0-19.0-3.1","63ea6fc5092518554c9b8111","bdp_trlrn","Mon Mar 13 2023 11:31:44 GMT-0700 (Pacific Daylight Time)","772455","Trustworthy,Untrustworthy","","null","","","","feedback","","<div class='trialDiv'><img src='trustrating_stim/white_mw063.bmp'><br><font class='baseline'><strong>Chris</strong><p>Received: <strong>16</strong></font> &nbsp; &nbsp; &nbsp; &nbsp; &nbsp; &nbsp;<font class='negOutcome'>Shared back: <strong>0</strong></font></font><div class='respPicDiv'><img src='img/responseButtonOffersNo0_wht.png' class='respPic'></div></div>","null","1","Chris","10","Kept","0.35,0.65","10","0.35","trustrating_stim/white_mw063.bmp","7.5","9","2"
"html-keyboard-response","143","437801","0.0-19.0-1.2","63ea6fc5092518554c9b8111","bdp_trlrn","Mon Mar 13 2023 11:31:44 GMT-0700 (Pacific Daylight Time)","772455","Trustworthy,Untrustworthy","","1146","","","","decision","","<div class='trialDiv'><img src='trustrating_stim/white_mw066.bmp'><br><font class='baseline'><strong>Matthew</strong><p>Choose number of points to send.</font><div class='respPicDiv'><img src='img/responseButtonOffersNo0L.png' class='respPic'></div></div>","3","1","Matthew","6","Kept","0.2,0.65","8","0.2","trustrating_stim/white_mw066.bmp","5.5","14","3"
"html-keyboard-response","144","438062","0.0-19.0-2.2","63ea6fc5092518554c9b8111","bdp_trlrn","Mon Mar 13 2023 11:31:44 GMT-0700 (Pacific Daylight Time)","772455","Trustworthy,Untrustworthy","","null","","","","decisionFB","","<div class='trialDiv'><img src='trustrating_stim/white_mw066.bmp'><br><font class='baseline'><strong>Matthew</strong><p>Choose number of points to send.</font><div class='respPicDiv'><img src='img/responseButtonOffersNo0L3.png' class='respPic'></div></div>","null","1","Matthew","6","Kept","0.2,0.65","8","0.2","trustrating_stim/white_mw066.bmp","5.5","11","3"
"html-keyboard-response","145","439066","0.0-19.0-3.2","63ea6fc5092518554c9b8111","bdp_trlrn","Mon Mar 13 2023 11:31:44 GMT-0700 (Pacific Daylight Time)","772455","Trustworthy,Untrustworthy","","null","","","","feedback","","<div class='trialDiv'><img src='trustrating_stim/white_mw066.bmp'><br><font class='baseline'><strong>Matthew</strong><p>Received: <strong>12</strong></font> &nbsp; &nbsp; &nbsp; &nbsp; &nbsp; &nbsp;<font class='negOutcome'>Shared back: <strong>0</strong></font></font><div class='respPicDiv'><img src='img/responseButtonOffersNo0_wht.png' class='respPic'></div></div>","null","1","Matthew","6","Kept","0.2,0.65","8","0.2","trustrating_stim/white_mw066.bmp","5.5","11","3"
"html-keyboard-response","146","440858","0.0-19.0-1.3","63ea6fc5092518554c9b8111","bdp_trlrn","Mon Mar 13 2023 11:31:44 GMT-0700 (Pacific Daylight Time)","772455","Trustworthy,Untrustworthy","","1791","","","","decision","","<div class='trialDiv'><img src='trustrating_stim/white_mw063.bmp'><br><font class='baseline'><strong>Chris</strong><p>Choose number of points to send.</font><div class='respPicDiv'><img src='img/responseButtonOffersNo0L.png' class='respPic'></div></div>","3","2","Chris","10","Kept","0.35,0.65","10","0.35","trustrating_stim/white_mw063.bmp","7.5","16","4"
"html-keyboard-response","147","441115","0.0-19.0-2.3","63ea6fc5092518554c9b8111","bdp_trlrn","Mon Mar 13 2023 11:31:44 GMT-0700 (Pacific Daylight Time)","772455","Trustworthy,Untrustworthy","","null","","","","decisionFB","","<div class='trialDiv'><img src='trustrating_stim/white_mw063.bmp'><br><font class='baseline'><strong>Chris</strong><p>Choose number of points to send.</font><div class='respPicDiv'><img src='img/responseButtonOffersNo0L3.png' class='respPic'></div></div>","null","2","Chris","10","Kept","0.35,0.65","10","0.35","trustrating_stim/white_mw063.bmp","7.5","13","4"
"html-keyboard-response","148","442121","0.0-19.0-3.3","63ea6fc5092518554c9b8111","bdp_trlrn","Mon Mar 13 2023 11:31:44 GMT-0700 (Pacific Daylight Time)","772455","Trustworthy,Untrustworthy","","null","","","","feedback","","<div class='trialDiv'><img src='trustrating_stim/white_mw063.bmp'><br><font class='baseline'><strong>Chris</strong><p>Received: <strong>12</strong></font> &nbsp; &nbsp; &nbsp; &nbsp; &nbsp; &nbsp;<font class='negOutcome'>Shared back: <strong>0</strong></font></font><div class='respPicDiv'><img src='img/responseButtonOffersNo0_wht.png' class='respPic'></div></div>","null","2","Chris","10","Kept","0.35,0.65","10","0.35","trustrating_stim/white_mw063.bmp","7.5","13","4"
"html-keyboard-response","149","443055","0.0-19.0-1.4","63ea6fc5092518554c9b8111","bdp_trlrn","Mon Mar 13 2023 11:31:44 GMT-0700 (Pacific Daylight Time)","772455","Trustworthy,Untrustworthy","","933","","","","decision","","<div class='trialDiv'><img src='trustrating_stim/white_mw049.bmp'><br><font class='baseline'><strong>Ethan</strong><p>Choose number of points to send.</font><div class='respPicDiv'><img src='img/responseButtonOffersNo0L.png' class='respPic'></div></div>","4","2","Ethan","0","Shared","0.8,0.35","8","0.8","trustrating_stim/white_mw049.bmp","3","18","5"
"html-keyboard-response","150","443317","0.0-19.0-2.4","63ea6fc5092518554c9b8111","bdp_trlrn","Mon Mar 13 2023 11:31:44 GMT-0700 (Pacific Daylight Time)","772455","Trustworthy,Untrustworthy","","null","","","","decisionFB","","<div class='trialDiv'><img src='trustrating_stim/white_mw049.bmp'><br><font class='baseline'><strong>Ethan</strong><p>Choose number of points to send.</font><div class='respPicDiv'><img src='img/responseButtonOffersNo0L4.png' class='respPic'></div></div>","null","2","Ethan","0","Shared","0.8,0.35","8","0.8","trustrating_stim/white_mw049.bmp","3","14","5"
"html-keyboard-response","151","444322","0.0-19.0-3.4","63ea6fc5092518554c9b8111","bdp_trlrn","Mon Mar 13 2023 11:31:44 GMT-0700 (Pacific Daylight Time)","772455","Trustworthy,Untrustworthy","","null","","","","feedback","","<div class='trialDiv'><img src='trustrating_stim/white_mw049.bmp'><br><font class='baseline'><strong>Ethan</strong><p>Received: <strong>16</strong></font> &nbsp; &nbsp; &nbsp; &nbsp; &nbsp; &nbsp;<font class='posOutcome'>Shared back: <strong>8</strong></font></font><div class='respPicDiv'><img src='img/responseButtonOffersNo0_wht.png' class='respPic'></div></div>","null","2","Ethan","0","Shared","0.8,0.35","8","0.8","trustrating_stim/white_mw049.bmp","3","22","5"
"html-keyboard-response","152","445276","0.0-19.0-1.5","63ea6fc5092518554c9b8111","bdp_trlrn","Mon Mar 13 2023 11:31:44 GMT-0700 (Pacific Daylight Time)","772455","Trustworthy,Untrustworthy","","954","","","","decision","","<div class='trialDiv'><img src='trustrating_stim/white_mw066.bmp'><br><font class='baseline'><strong>Matthew</strong><p>Choose number of points to send.</font><div class='respPicDiv'><img src='img/responseButtonOffersNo0L.png' class='respPic'></div></div>","3","2","Matthew","6","Kept","0.2,0.65","8","0.2","trustrating_stim/white_mw066.bmp","5.5","27","6"
"html-keyboard-response","153","445534","0.0-19.0-2.5","63ea6fc5092518554c9b8111","bdp_trlrn","Mon Mar 13 2023 11:31:44 GMT-0700 (Pacific Daylight Time)","772455","Trustworthy,Untrustworthy","","null","","","","decisionFB","","<div class='trialDiv'><img src='trustrating_stim/white_mw066.bmp'><br><font class='baseline'><strong>Matthew</strong><p>Choose number of points to send.</font><div class='respPicDiv'><img src='img/responseButtonOffersNo0L3.png' class='respPic'></div></div>","null","2","Matthew","6","Kept","0.2,0.65","8","0.2","trustrating_stim/white_mw066.bmp","5.5","24","6"
"html-keyboard-response","154","446539","0.0-19.0-3.5","63ea6fc5092518554c9b8111","bdp_trlrn","Mon Mar 13 2023 11:31:44 GMT-0700 (Pacific Daylight Time)","772455","Trustworthy,Untrustworthy","","null","","","","feedback","","<div class='trialDiv'><img src='trustrating_stim/white_mw066.bmp'><br><font class='baseline'><strong>Matthew</strong><p>Received: <strong>12</strong></font> &nbsp; &nbsp; &nbsp; &nbsp; &nbsp; &nbsp;<font class='negOutcome'>Shared back: <strong>0</strong></font></font><div class='respPicDiv'><img src='img/responseButtonOffersNo0_wht.png' class='respPic'></div></div>","null","2","Matthew","6","Kept","0.2,0.65","8","0.2","trustrating_stim/white_mw066.bmp","5.5","24","6"
"html-keyboard-response","155","447155","0.0-19.0-1.6","63ea6fc5092518554c9b8111","bdp_trlrn","Mon Mar 13 2023 11:31:44 GMT-0700 (Pacific Daylight Time)","772455","Trustworthy,Untrustworthy","","615","","","","decision","","<div class='trialDiv'><img src='trustrating_stim/white_mw049.bmp'><br><font class='baseline'><strong>Ethan</strong><p>Choose number of points to send.</font><div class='respPicDiv'><img src='img/responseButtonOffersNo0L.png' class='respPic'></div></div>","2","3","Ethan","0","Shared","0.8,0.35","8","0.8","trustrating_stim/white_mw049.bmp","3","29","7"
"html-keyboard-response","156","447414","0.0-19.0-2.6","63ea6fc5092518554c9b8111","bdp_trlrn","Mon Mar 13 2023 11:31:44 GMT-0700 (Pacific Daylight Time)","772455","Trustworthy,Untrustworthy","","null","","","","decisionFB","","<div class='trialDiv'><img src='trustrating_stim/white_mw049.bmp'><br><font class='baseline'><strong>Ethan</strong><p>Choose number of points to send.</font><div class='respPicDiv'><img src='img/responseButtonOffersNo0L2.png' class='respPic'></div></div>","null","3","Ethan","0","Shared","0.8,0.35","8","0.8","trustrating_stim/white_mw049.bmp","3","27","7"
"html-keyboard-response","157","448420","0.0-19.0-3.6","63ea6fc5092518554c9b8111","bdp_trlrn","Mon Mar 13 2023 11:31:44 GMT-0700 (Pacific Daylight Time)","772455","Trustworthy,Untrustworthy","","null","","","","feedback","","<div class='trialDiv'><img src='trustrating_stim/white_mw049.bmp'><br><font class='baseline'><strong>Ethan</strong><p>Received: <strong>8</strong></font> &nbsp; &nbsp; &nbsp; &nbsp; &nbsp; &nbsp;<font class='posOutcome'>Shared back: <strong>4</strong></font></font><div class='respPicDiv'><img src='img/responseButtonOffersNo0_wht.png' class='respPic'></div></div>","null","3","Ethan","0","Shared","0.8,0.35","8","0.8","trustrating_stim/white_mw049.bmp","3","31","7"
"html-keyboard-response","158","449633","0.0-19.0-1.7","63ea6fc5092518554c9b8111","bdp_trlrn","Mon Mar 13 2023 11:31:44 GMT-0700 (Pacific Daylight Time)","772455","Trustworthy,Untrustworthy","","1212","","","","decision","","<div class='trialDiv'><img src='trustrating_stim/white_mw063.bmp'><br><font class='baseline'><strong>Chris</strong><p>Choose number of points to send.</font><div class='respPicDiv'><img src='img/responseButtonOffersNo0L.png' class='respPic'></div></div>","2","3","Chris","10","Shared","0.35,0.65","10","0.35","trustrating_stim/white_mw063.bmp","7.5","36","8"
"html-keyboard-response","159","449894","0.0-19.0-2.7","63ea6fc5092518554c9b8111","bdp_trlrn","Mon Mar 13 2023 11:31:44 GMT-0700 (Pacific Daylight Time)","772455","Trustworthy,Untrustworthy","","null","","","","decisionFB","","<div class='trialDiv'><img src='trustrating_stim/white_mw063.bmp'><br><font class='baseline'><strong>Chris</strong><p>Choose number of points to send.</font><div class='respPicDiv'><img src='img/responseButtonOffersNo0L2.png' class='respPic'></div></div>","null","3","Chris","10","Shared","0.35,0.65","10","0.35","trustrating_stim/white_mw063.bmp","7.5","34","8"
"html-keyboard-response","160","450902","0.0-19.0-3.7","63ea6fc5092518554c9b8111","bdp_trlrn","Mon Mar 13 2023 11:31:44 GMT-0700 (Pacific Daylight Time)","772455","Trustworthy,Untrustworthy","","null","","","","feedback","","<div class='trialDiv'><img src='trustrating_stim/white_mw063.bmp'><br><font class='baseline'><strong>Chris</strong><p>Received: <strong>8</strong></font> &nbsp; &nbsp; &nbsp; &nbsp; &nbsp; &nbsp;<font class='posOutcome'>Shared back: <strong>4</strong></font></font><div class='respPicDiv'><img src='img/responseButtonOffersNo0_wht.png' class='respPic'></div></div>","null","3","Chris","10","Shared","0.35,0.65","10","0.35","trustrating_stim/white_mw063.bmp","7.5","38","8"
"html-keyboard-response","161","452086","0.0-19.0-1.8","63ea6fc5092518554c9b8111","bdp_trlrn","Mon Mar 13 2023 11:31:44 GMT-0700 (Pacific Daylight Time)","772455","Trustworthy,Untrustworthy","","1184","","","","decision","","<div class='trialDiv'><img src='trustrating_stim/white_mw066.bmp'><br><font class='baseline'><strong>Matthew</strong><p>Choose number of points to send.</font><div class='respPicDiv'><img src='img/responseButtonOffersNo0L.png' class='respPic'></div></div>","3","3","Matthew","6","Kept","0.2,0.65","8","0.2","trustrating_stim/white_mw066.bmp","5.5","43","9"
"html-keyboard-response","162","452345","0.0-19.0-2.8","63ea6fc5092518554c9b8111","bdp_trlrn","Mon Mar 13 2023 11:31:44 GMT-0700 (Pacific Daylight Time)","772455","Trustworthy,Untrustworthy","","null","","","","decisionFB","","<div class='trialDiv'><img src='trustrating_stim/white_mw066.bmp'><br><font class='baseline'><strong>Matthew</strong><p>Choose number of points to send.</font><div class='respPicDiv'><img src='img/responseButtonOffersNo0L3.png' class='respPic'></div></div>","null","3","Matthew","6","Kept","0.2,0.65","8","0.2","trustrating_stim/white_mw066.bmp","5.5","40","9"
"html-keyboard-response","163","453355","0.0-19.0-3.8","63ea6fc5092518554c9b8111","bdp_trlrn","Mon Mar 13 2023 11:31:44 GMT-0700 (Pacific Daylight Time)","772455","Trustworthy,Untrustworthy","","null","","","","feedback","","<div class='trialDiv'><img src='trustrating_stim/white_mw066.bmp'><br><font class='baseline'><strong>Matthew</strong><p>Received: <strong>12</strong></font> &nbsp; &nbsp; &nbsp; &nbsp; &nbsp; &nbsp;<font class='negOutcome'>Shared back: <strong>0</strong></font></font><div class='respPicDiv'><img src='img/responseButtonOffersNo0_wht.png' class='respPic'></div></div>","null","3","Matthew","6","Kept","0.2,0.65","8","0.2","trustrating_stim/white_mw066.bmp","5.5","40","9"
"html-keyboard-response","164","454067","0.0-19.0-1.9","63ea6fc5092518554c9b8111","bdp_trlrn","Mon Mar 13 2023 11:31:44 GMT-0700 (Pacific Daylight Time)","772455","Trustworthy,Untrustworthy","","711","","","","decision","","<div class='trialDiv'><img src='trustrating_stim/white_mw049.bmp'><br><font class='baseline'><strong>Ethan</strong><p>Choose number of points to send.</font><div class='respPicDiv'><img src='img/responseButtonOffersNo0L.png' class='respPic'></div></div>","4","4","Ethan","0","Shared","0.8,0.35","8","0.8","trustrating_stim/white_mw049.bmp","3","45","10"
"html-keyboard-response","165","454326","0.0-19.0-2.9","63ea6fc5092518554c9b8111","bdp_trlrn","Mon Mar 13 2023 11:31:44 GMT-0700 (Pacific Daylight Time)","772455","Trustworthy,Untrustworthy","","null","","","","decisionFB","","<div class='trialDiv'><img src='trustrating_stim/white_mw049.bmp'><br><font class='baseline'><strong>Ethan</strong><p>Choose number of points to send.</font><div class='respPicDiv'><img src='img/responseButtonOffersNo0L4.png' class='respPic'></div></div>","null","4","Ethan","0","Shared","0.8,0.35","8","0.8","trustrating_stim/white_mw049.bmp","3","41","10"
"html-keyboard-response","166","455330","0.0-19.0-3.9","63ea6fc5092518554c9b8111","bdp_trlrn","Mon Mar 13 2023 11:31:44 GMT-0700 (Pacific Daylight Time)","772455","Trustworthy,Untrustworthy","","null","","","","feedback","","<div class='trialDiv'><img src='trustrating_stim/white_mw049.bmp'><br><font class='baseline'><strong>Ethan</strong><p>Received: <strong>16</strong></font> &nbsp; &nbsp; &nbsp; &nbsp; &nbsp; &nbsp;<font class='posOutcome'>Shared back: <strong>8</strong></font></font><div class='respPicDiv'><img src='img/responseButtonOffersNo0_wht.png' class='respPic'></div></div>","null","4","Ethan","0","Shared","0.8,0.35","8","0.8","trustrating_stim/white_mw049.bmp","3","49","10"
"html-keyboard-response","167","455967","0.0-19.0-1.10","63ea6fc5092518554c9b8111","bdp_trlrn","Mon Mar 13 2023 11:31:44 GMT-0700 (Pacific Daylight Time)","772455","Trustworthy,Untrustworthy","","636","","","","decision","","<div class='trialDiv'><img src='trustrating_stim/white_mw066.bmp'><br><font class='baseline'><strong>Matthew</strong><p>Choose number of points to send.</font><div class='respPicDiv'><img src='img/responseButtonOffersNo0L.png' class='respPic'></div></div>","2","4","Matthew","6","Kept","0.2,0.65","8","0.2","trustrating_stim/white_mw066.bmp","5.5","54","11"
"html-keyboard-response","168","456226","0.0-19.0-2.10","63ea6fc5092518554c9b8111","bdp_trlrn","Mon Mar 13 2023 11:31:44 GMT-0700 (Pacific Daylight Time)","772455","Trustworthy,Untrustworthy","","null","","","","decisionFB","","<div class='trialDiv'><img src='trustrating_stim/white_mw066.bmp'><br><font class='baseline'><strong>Matthew</strong><p>Choose number of points to send.</font><div class='respPicDiv'><img src='img/responseButtonOffersNo0L2.png' class='respPic'></div></div>","null","4","Matthew","6","Kept","0.2,0.65","8","0.2","trustrating_stim/white_mw066.bmp","5.5","52","11"
"html-keyboard-response","169","457233","0.0-19.0-3.10","63ea6fc5092518554c9b8111","bdp_trlrn","Mon Mar 13 2023 11:31:44 GMT-0700 (Pacific Daylight Time)","772455","Trustworthy,Untrustworthy","","null","","","","feedback","","<div class='trialDiv'><img src='trustrating_stim/white_mw066.bmp'><br><font class='baseline'><strong>Matthew</strong><p>Received: <strong>8</strong></font> &nbsp; &nbsp; &nbsp; &nbsp; &nbsp; &nbsp;<font class='negOutcome'>Shared back: <strong>0</strong></font></font><div class='respPicDiv'><img src='img/responseButtonOffersNo0_wht.png' class='respPic'></div></div>","null","4","Matthew","6","Kept","0.2,0.65","8","0.2","trustrating_stim/white_mw066.bmp","5.5","52","11"
"html-keyboard-response","170","457901","0.0-19.0-1.11","63ea6fc5092518554c9b8111","bdp_trlrn","Mon Mar 13 2023 11:31:44 GMT-0700 (Pacific Daylight Time)","772455","Trustworthy,Untrustworthy","","668","","","","decision","","<div class='trialDiv'><img src='trustrating_stim/white_mw063.bmp'><br><font class='baseline'><strong>Chris</strong><p>Choose number of points to send.</font><div class='respPicDiv'><img src='img/responseButtonOffersNo0L.png' class='respPic'></div></div>","2","4","Chris","10","Shared","0.35,0.65","10","0.35","trustrating_stim/white_mw063.bmp","7.5","57","12"
"html-keyboard-response","171","458157","0.0-19.0-2.11","63ea6fc5092518554c9b8111","bdp_trlrn","Mon Mar 13 2023 11:31:44 GMT-0700 (Pacific Daylight Time)","772455","Trustworthy,Untrustworthy","","null","","","","decisionFB","","<div class='trialDiv'><img src='trustrating_stim/white_mw063.bmp'><br><font class='baseline'><strong>Chris</strong><p>Choose number of points to send.</font><div class='respPicDiv'><img src='img/responseButtonOffersNo0L2.png' class='respPic'></div></div>","null","4","Chris","10","Shared","0.35,0.65","10","0.35","trustrating_stim/white_mw063.bmp","7.5","55","12"
"html-keyboard-response","172","459163","0.0-19.0-3.11","63ea6fc5092518554c9b8111","bdp_trlrn","Mon Mar 13 2023 11:31:44 GMT-0700 (Pacific Daylight Time)","772455","Trustworthy,Untrustworthy","","null","","","","feedback","","<div class='trialDiv'><img src='trustrating_stim/white_mw063.bmp'><br><font class='baseline'><strong>Chris</strong><p>Received: <strong>8</strong></font> &nbsp; &nbsp; &nbsp; &nbsp; &nbsp; &nbsp;<font class='posOutcome'>Shared back: <strong>4</strong></font></font><div class='respPicDiv'><img src='img/responseButtonOffersNo0_wht.png' class='respPic'></div></div>","null","4","Chris","10","Shared","0.35,0.65","10","0.35","trustrating_stim/white_mw063.bmp","7.5","59","12"
"html-keyboard-response","173","460341","0.0-19.0-1.12","63ea6fc5092518554c9b8111","bdp_trlrn","Mon Mar 13 2023 11:31:44 GMT-0700 (Pacific Daylight Time)","772455","Trustworthy,Untrustworthy","","1177","","","","decision","","<div class='trialDiv'><img src='trustrating_stim/white_mw066.bmp'><br><font class='baseline'><strong>Matthew</strong><p>Choose number of points to send.</font><div class='respPicDiv'><img src='img/responseButtonOffersNo0L.png' class='respPic'></div></div>","4","5","Matthew","6","Kept","0.2,0.65","8","0.2","trustrating_stim/white_mw066.bmp","5.5","64","13"
"html-keyboard-response","174","460593","0.0-19.0-2.12","63ea6fc5092518554c9b8111","bdp_trlrn","Mon Mar 13 2023 11:31:44 GMT-0700 (Pacific Daylight Time)","772455","Trustworthy,Untrustworthy","","null","","","","decisionFB","","<div class='trialDiv'><img src='trustrating_stim/white_mw066.bmp'><br><font class='baseline'><strong>Matthew</strong><p>Choose number of points to send.</font><div class='respPicDiv'><img src='img/responseButtonOffersNo0L4.png' class='respPic'></div></div>","null","5","Matthew","6","Kept","0.2,0.65","8","0.2","trustrating_stim/white_mw066.bmp","5.5","60","13"
"html-keyboard-response","175","461605","0.0-19.0-3.12","63ea6fc5092518554c9b8111","bdp_trlrn","Mon Mar 13 2023 11:31:44 GMT-0700 (Pacific Daylight Time)","772455","Trustworthy,Untrustworthy","","null","","","","feedback","","<div class='trialDiv'><img src='trustrating_stim/white_mw066.bmp'><br><font class='baseline'><strong>Matthew</strong><p>Received: <strong>16</strong></font> &nbsp; &nbsp; &nbsp; &nbsp; &nbsp; &nbsp;<font class='negOutcome'>Shared back: <strong>0</strong></font></font><div class='respPicDiv'><img src='img/responseButtonOffersNo0_wht.png' class='respPic'></div></div>","null","5","Matthew","6","Kept","0.2,0.65","8","0.2","trustrating_stim/white_mw066.bmp","5.5","60","13"
"html-keyboard-response","176","462287","0.0-19.0-1.13","63ea6fc5092518554c9b8111","bdp_trlrn","Mon Mar 13 2023 11:31:44 GMT-0700 (Pacific Daylight Time)","772455","Trustworthy,Untrustworthy","","681","","","","decision","","<div class='trialDiv'><img src='trustrating_stim/white_mw049.bmp'><br><font class='baseline'><strong>Ethan</strong><p>Choose number of points to send.</font><div class='respPicDiv'><img src='img/responseButtonOffersNo0L.png' class='respPic'></div></div>","3","5","Ethan","0","Shared","0.8,0.35","8","0.8","trustrating_stim/white_mw049.bmp","3","65","14"
"html-keyboard-response","177","462549","0.0-19.0-2.13","63ea6fc5092518554c9b8111","bdp_trlrn","Mon Mar 13 2023 11:31:44 GMT-0700 (Pacific Daylight Time)","772455","Trustworthy,Untrustworthy","","null","","","","decisionFB","","<div class='trialDiv'><img src='trustrating_stim/white_mw049.bmp'><br><font class='baseline'><strong>Ethan</strong><p>Choose number of points to send.</font><div class='respPicDiv'><img src='img/responseButtonOffersNo0L3.png' class='respPic'></div></div>","null","5","Ethan","0","Shared","0.8,0.35","8","0.8","trustrating_stim/white_mw049.bmp","3","62","14"
"html-keyboard-response","178","463556","0.0-19.0-3.13","63ea6fc5092518554c9b8111","bdp_trlrn","Mon Mar 13 2023 11:31:44 GMT-0700 (Pacific Daylight Time)","772455","Trustworthy,Untrustworthy","","null","","","","feedback","","<div class='trialDiv'><img src='trustrating_stim/white_mw049.bmp'><br><font class='baseline'><strong>Ethan</strong><p>Received: <strong>12</strong></font> &nbsp; &nbsp; &nbsp; &nbsp; &nbsp; &nbsp;<font class='posOutcome'>Shared back: <strong>6</strong></font></font><div class='respPicDiv'><img src='img/responseButtonOffersNo0_wht.png' class='respPic'></div></div>","null","5","Ethan","0","Shared","0.8,0.35","8","0.8","trustrating_stim/white_mw049.bmp","3","68","14"
"html-keyboard-response","179","464746","0.0-19.0-1.14","63ea6fc5092518554c9b8111","bdp_trlrn","Mon Mar 13 2023 11:31:44 GMT-0700 (Pacific Daylight Time)","772455","Trustworthy,Untrustworthy","","1189","","","","decision","","<div class='trialDiv'><img src='trustrating_stim/white_mw063.bmp'><br><font class='baseline'><strong>Chris</strong><p>Choose number of points to send.</font><div class='respPicDiv'><img src='img/responseButtonOffersNo0L.png' class='respPic'></div></div>","2","5","Chris","10","Kept","0.35,0.65","10","0.35","trustrating_stim/white_mw063.bmp","7.5","73","15"
"html-keyboard-response","180","465001","0.0-19.0-2.14","63ea6fc5092518554c9b8111","bdp_trlrn","Mon Mar 13 2023 11:31:44 GMT-0700 (Pacific Daylight Time)","772455","Trustworthy,Untrustworthy","","null","","","","decisionFB","","<div class='trialDiv'><img src='trustrating_stim/white_mw063.bmp'><br><font class='baseline'><strong>Chris</strong><p>Choose number of points to send.</font><div class='respPicDiv'><img src='img/responseButtonOffersNo0L2.png' class='respPic'></div></div>","null","5","Chris","10","Kept","0.35,0.65","10","0.35","trustrating_stim/white_mw063.bmp","7.5","71","15"
"html-keyboard-response","181","466013","0.0-19.0-3.14","63ea6fc5092518554c9b8111","bdp_trlrn","Mon Mar 13 2023 11:31:44 GMT-0700 (Pacific Daylight Time)","772455","Trustworthy,Untrustworthy","","null","","","","feedback","","<div class='trialDiv'><img src='trustrating_stim/white_mw063.bmp'><br><font class='baseline'><strong>Chris</strong><p>Received: <strong>8</strong></font> &nbsp; &nbsp; &nbsp; &nbsp; &nbsp; &nbsp;<font class='negOutcome'>Shared back: <strong>0</strong></font></font><div class='respPicDiv'><img src='img/responseButtonOffersNo0_wht.png' class='respPic'></div></div>","null","5","Chris","10","Kept","0.35,0.65","10","0.35","trustrating_stim/white_mw063.bmp","7.5","71","15"
"html-keyboard-response","182","466710","0.0-19.0-1.15","63ea6fc5092518554c9b8111","bdp_trlrn","Mon Mar 13 2023 11:31:44 GMT-0700 (Pacific Daylight Time)","772455","Trustworthy,Untrustworthy","","696","","","","decision","","<div class='trialDiv'><img src='trustrating_stim/white_mw066.bmp'><br><font class='baseline'><strong>Matthew</strong><p>Choose number of points to send.</font><div class='respPicDiv'><img src='img/responseButtonOffersNo0L.png' class='respPic'></div></div>","3","6","Matthew","6","Kept","0.2,0.65","8","0.2","trustrating_stim/white_mw066.bmp","5.5","76","16"
"html-keyboard-response","183","466973","0.0-19.0-2.15","63ea6fc5092518554c9b8111","bdp_trlrn","Mon Mar 13 2023 11:31:44 GMT-0700 (Pacific Daylight Time)","772455","Trustworthy,Untrustworthy","","null","","","","decisionFB","","<div class='trialDiv'><img src='trustrating_stim/white_mw066.bmp'><br><font class='baseline'><strong>Matthew</strong><p>Choose number of points to send.</font><div class='respPicDiv'><img src='img/responseButtonOffersNo0L3.png' class='respPic'></div></div>","null","6","Matthew","6","Kept","0.2,0.65","8","0.2","trustrating_stim/white_mw066.bmp","5.5","73","16"
"html-keyboard-response","184","467978","0.0-19.0-3.15","63ea6fc5092518554c9b8111","bdp_trlrn","Mon Mar 13 2023 11:31:44 GMT-0700 (Pacific Daylight Time)","772455","Trustworthy,Untrustworthy","","null","","","","feedback","","<div class='trialDiv'><img src='trustrating_stim/white_mw066.bmp'><br><font class='baseline'><strong>Matthew</strong><p>Received: <strong>12</strong></font> &nbsp; &nbsp; &nbsp; &nbsp; &nbsp; &nbsp;<font class='negOutcome'>Shared back: <strong>0</strong></font></font><div class='respPicDiv'><img src='img/responseButtonOffersNo0_wht.png' class='respPic'></div></div>","null","6","Matthew","6","Kept","0.2,0.65","8","0.2","trustrating_stim/white_mw066.bmp","5.5","73","16"
"html-keyboard-response","185","468976","0.0-19.0-1.16","63ea6fc5092518554c9b8111","bdp_trlrn","Mon Mar 13 2023 11:31:44 GMT-0700 (Pacific Daylight Time)","772455","Trustworthy,Untrustworthy","","997","","","","decision","","<div class='trialDiv'><img src='trustrating_stim/white_mw063.bmp'><br><font class='baseline'><strong>Chris</strong><p>Choose number of points to send.</font><div class='respPicDiv'><img src='img/responseButtonOffersNo0L.png' class='respPic'></div></div>","2","6","Chris","10","Kept","0.35,0.65","10","0.35","trustrating_stim/white_mw063.bmp","7.5","78","17"
"html-keyboard-response","186","469233","0.0-19.0-2.16","63ea6fc5092518554c9b8111","bdp_trlrn","Mon Mar 13 2023 11:31:44 GMT-0700 (Pacific Daylight Time)","772455","Trustworthy,Untrustworthy","","null","","","","decisionFB","","<div class='trialDiv'><img src='trustrating_stim/white_mw063.bmp'><br><font class='baseline'><strong>Chris</strong><p>Choose number of points to send.</font><div class='respPicDiv'><img src='img/responseButtonOffersNo0L2.png' class='respPic'></div></div>","null","6","Chris","10","Kept","0.35,0.65","10","0.35","trustrating_stim/white_mw063.bmp","7.5","76","17"
"html-keyboard-response","187","470242","0.0-19.0-3.16","63ea6fc5092518554c9b8111","bdp_trlrn","Mon Mar 13 2023 11:31:44 GMT-0700 (Pacific Daylight Time)","772455","Trustworthy,Untrustworthy","","null","","","","feedback","","<div class='trialDiv'><img src='trustrating_stim/white_mw063.bmp'><br><font class='baseline'><strong>Chris</strong><p>Received: <strong>8</strong></font> &nbsp; &nbsp; &nbsp; &nbsp; &nbsp; &nbsp;<font class='negOutcome'>Shared back: <strong>0</strong></font></font><div class='respPicDiv'><img src='img/responseButtonOffersNo0_wht.png' class='respPic'></div></div>","null","6","Chris","10","Kept","0.35,0.65","10","0.35","trustrating_stim/white_mw063.bmp","7.5","76","17"
"html-keyboard-response","188","471495","0.0-19.0-1.17","63ea6fc5092518554c9b8111","bdp_trlrn","Mon Mar 13 2023 11:31:44 GMT-0700 (Pacific Daylight Time)","772455","Trustworthy,Untrustworthy","","1251","","","","decision","","<div class='trialDiv'><img src='trustrating_stim/white_mw049.bmp'><br><font class='baseline'><strong>Ethan</strong><p>Choose number of points to send.</font><div class='respPicDiv'><img src='img/responseButtonOffersNo0L.png' class='respPic'></div></div>","3","6","Ethan","0","Shared","0.8,0.35","8","0.8","trustrating_stim/white_mw049.bmp","3","81","18"
"html-keyboard-response","189","471757","0.0-19.0-2.17","63ea6fc5092518554c9b8111","bdp_trlrn","Mon Mar 13 2023 11:31:44 GMT-0700 (Pacific Daylight Time)","772455","Trustworthy,Untrustworthy","","null","","","","decisionFB","","<div class='trialDiv'><img src='trustrating_stim/white_mw049.bmp'><br><font class='baseline'><strong>Ethan</strong><p>Choose number of points to send.</font><div class='respPicDiv'><img src='img/responseButtonOffersNo0L3.png' class='respPic'></div></div>","null","6","Ethan","0","Shared","0.8,0.35","8","0.8","trustrating_stim/white_mw049.bmp","3","78","18"
"html-keyboard-response","190","472765","0.0-19.0-3.17","63ea6fc5092518554c9b8111","bdp_trlrn","Mon Mar 13 2023 11:31:44 GMT-0700 (Pacific Daylight Time)","772455","Trustworthy,Untrustworthy","","null","","","","feedback","","<div class='trialDiv'><img src='trustrating_stim/white_mw049.bmp'><br><font class='baseline'><strong>Ethan</strong><p>Received: <strong>12</strong></font> &nbsp; &nbsp; &nbsp; &nbsp; &nbsp; &nbsp;<font class='posOutcome'>Shared back: <strong>6</strong></font></font><div class='respPicDiv'><img src='img/responseButtonOffersNo0_wht.png' class='respPic'></div></div>","null","6","Ethan","0","Shared","0.8,0.35","8","0.8","trustrating_stim/white_mw049.bmp","3","84","18"
"html-keyboard-response","191","473725","0.0-19.0-1.18","63ea6fc5092518554c9b8111","bdp_trlrn","Mon Mar 13 2023 11:31:44 GMT-0700 (Pacific Daylight Time)","772455","Trustworthy,Untrustworthy","","959","","","","decision","","<div class='trialDiv'><img src='trustrating_stim/white_mw066.bmp'><br><font class='baseline'><strong>Matthew</strong><p>Choose number of points to send.</font><div class='respPicDiv'><img src='img/responseButtonOffersNo0L.png' class='respPic'></div></div>","2","7","Matthew","6","Kept","0.2,0.65","8","0.2","trustrating_stim/white_mw066.bmp","5.5","89","19"
"html-keyboard-response","192","473976","0.0-19.0-2.18","63ea6fc5092518554c9b8111","bdp_trlrn","Mon Mar 13 2023 11:31:44 GMT-0700 (Pacific Daylight Time)","772455","Trustworthy,Untrustworthy","","null","","","","decisionFB","","<div class='trialDiv'><img src='trustrating_stim/white_mw066.bmp'><br><font class='baseline'><strong>Matthew</strong><p>Choose number of points to send.</font><div class='respPicDiv'><img src='img/responseButtonOffersNo0L2.png' class='respPic'></div></div>","null","7","Matthew","6","Kept","0.2,0.65","8","0.2","trustrating_stim/white_mw066.bmp","5.5","87","19"
"html-keyboard-response","193","474984","0.0-19.0-3.18","63ea6fc5092518554c9b8111","bdp_trlrn","Mon Mar 13 2023 11:31:44 GMT-0700 (Pacific Daylight Time)","772455","Trustworthy,Untrustworthy","","null","","","","feedback","","<div class='trialDiv'><img src='trustrating_stim/white_mw066.bmp'><br><font class='baseline'><strong>Matthew</strong><p>Received: <strong>8</strong></font> &nbsp; &nbsp; &nbsp; &nbsp; &nbsp; &nbsp;<font class='negOutcome'>Shared back: <strong>0</strong></font></font><div class='respPicDiv'><img src='img/responseButtonOffersNo0_wht.png' class='respPic'></div></div>","null","7","Matthew","6","Kept","0.2,0.65","8","0.2","trustrating_stim/white_mw066.bmp","5.5","87","19"
"html-keyboard-response","194","476123","0.0-19.0-1.19","63ea6fc5092518554c9b8111","bdp_trlrn","Mon Mar 13 2023 11:31:44 GMT-0700 (Pacific Daylight Time)","772455","Trustworthy,Untrustworthy","","1138","","","","decision","","<div class='trialDiv'><img src='trustrating_stim/white_mw049.bmp'><br><font class='baseline'><strong>Ethan</strong><p>Choose number of points to send.</font><div class='respPicDiv'><img src='img/responseButtonOffersNo0L.png' class='respPic'></div></div>","4","7","Ethan","0","Shared","0.8,0.35","8","0.8","trustrating_stim/white_mw049.bmp","3","92","20"
"html-keyboard-response","195","476378","0.0-19.0-2.19","63ea6fc5092518554c9b8111","bdp_trlrn","Mon Mar 13 2023 11:31:44 GMT-0700 (Pacific Daylight Time)","772455","Trustworthy,Untrustworthy","","null","","","","decisionFB","","<div class='trialDiv'><img src='trustrating_stim/white_mw049.bmp'><br><font class='baseline'><strong>Ethan</strong><p>Choose number of points to send.</font><div class='respPicDiv'><img src='img/responseButtonOffersNo0L4.png' class='respPic'></div></div>","null","7","Ethan","0","Shared","0.8,0.35","8","0.8","trustrating_stim/white_mw049.bmp","3","88","20"
"html-keyboard-response","196","477389","0.0-19.0-3.19","63ea6fc5092518554c9b8111","bdp_trlrn","Mon Mar 13 2023 11:31:44 GMT-0700 (Pacific Daylight Time)","772455","Trustworthy,Untrustworthy","","null","","","","feedback","","<div class='trialDiv'><img src='trustrating_stim/white_mw049.bmp'><br><font class='baseline'><strong>Ethan</strong><p>Received: <strong>16</strong></font> &nbsp; &nbsp; &nbsp; &nbsp; &nbsp; &nbsp;<font class='posOutcome'>Shared back: <strong>8</strong></font></font><div class='respPicDiv'><img src='img/responseButtonOffersNo0_wht.png' class='respPic'></div></div>","null","7","Ethan","0","Shared","0.8,0.35","8","0.8","trustrating_stim/white_mw049.bmp","3","96","20"
"html-keyboard-response","197","478258","0.0-19.0-1.20","63ea6fc5092518554c9b8111","bdp_trlrn","Mon Mar 13 2023 11:31:44 GMT-0700 (Pacific Daylight Time)","772455","Trustworthy,Untrustworthy","","868","","","","decision","","<div class='trialDiv'><img src='trustrating_stim/white_mw063.bmp'><br><font class='baseline'><strong>Chris</strong><p>Choose number of points to send.</font><div class='respPicDiv'><img src='img/responseButtonOffersNo0L.png' class='respPic'></div></div>","2","7","Chris","10","Kept","0.35,0.65","10","0.35","trustrating_stim/white_mw063.bmp","7.5","101","21"
"html-keyboard-response","198","478517","0.0-19.0-2.20","63ea6fc5092518554c9b8111","bdp_trlrn","Mon Mar 13 2023 11:31:44 GMT-0700 (Pacific Daylight Time)","772455","Trustworthy,Untrustworthy","","null","","","","decisionFB","","<div class='trialDiv'><img src='trustrating_stim/white_mw063.bmp'><br><font class='baseline'><strong>Chris</strong><p>Choose number of points to send.</font><div class='respPicDiv'><img src='img/responseButtonOffersNo0L2.png' class='respPic'></div></div>","null","7","Chris","10","Kept","0.35,0.65","10","0.35","trustrating_stim/white_mw063.bmp","7.5","99","21"
"html-keyboard-response","199","479523","0.0-19.0-3.20","63ea6fc5092518554c9b8111","bdp_trlrn","Mon Mar 13 2023 11:31:44 GMT-0700 (Pacific Daylight Time)","772455","Trustworthy,Untrustworthy","","null","","","","feedback","","<div class='trialDiv'><img src='trustrating_stim/white_mw063.bmp'><br><font class='baseline'><strong>Chris</strong><p>Received: <strong>8</strong></font> &nbsp; &nbsp; &nbsp; &nbsp; &nbsp; &nbsp;<font class='negOutcome'>Shared back: <strong>0</strong></font></font><div class='respPicDiv'><img src='img/responseButtonOffersNo0_wht.png' class='respPic'></div></div>","null","7","Chris","10","Kept","0.35,0.65","10","0.35","trustrating_stim/white_mw063.bmp","7.5","99","21"
"html-keyboard-response","200","480876","0.0-19.0-1.21","63ea6fc5092518554c9b8111","bdp_trlrn","Mon Mar 13 2023 11:31:44 GMT-0700 (Pacific Daylight Time)","772455","Trustworthy,Untrustworthy","","1352","","","","decision","","<div class='trialDiv'><img src='trustrating_stim/white_mw049.bmp'><br><font class='baseline'><strong>Ethan</strong><p>Choose number of points to send.</font><div class='respPicDiv'><img src='img/responseButtonOffersNo0L.png' class='respPic'></div></div>","4","8","Ethan","0","Kept","0.8,0.35","8","0.8","trustrating_stim/white_mw049.bmp","3","104","22"
"html-keyboard-response","201","481129","0.0-19.0-2.21","63ea6fc5092518554c9b8111","bdp_trlrn","Mon Mar 13 2023 11:31:44 GMT-0700 (Pacific Daylight Time)","772455","Trustworthy,Untrustworthy","","null","","","","decisionFB","","<div class='trialDiv'><img src='trustrating_stim/white_mw049.bmp'><br><font class='baseline'><strong>Ethan</strong><p>Choose number of points to send.</font><div class='respPicDiv'><img src='img/responseButtonOffersNo0L4.png' class='respPic'></div></div>","null","8","Ethan","0","Kept","0.8,0.35","8","0.8","trustrating_stim/white_mw049.bmp","3","100","22"
"html-keyboard-response","202","482141","0.0-19.0-3.21","63ea6fc5092518554c9b8111","bdp_trlrn","Mon Mar 13 2023 11:31:44 GMT-0700 (Pacific Daylight Time)","772455","Trustworthy,Untrustworthy","","null","","","","feedback","","<div class='trialDiv'><img src='trustrating_stim/white_mw049.bmp'><br><font class='baseline'><strong>Ethan</strong><p>Received: <strong>16</strong></font> &nbsp; &nbsp; &nbsp; &nbsp; &nbsp; &nbsp;<font class='negOutcome'>Shared back: <strong>0</strong></font></font><div class='respPicDiv'><img src='img/responseButtonOffersNo0_wht.png' class='respPic'></div></div>","null","8","Ethan","0","Kept","0.8,0.35","8","0.8","trustrating_stim/white_mw049.bmp","3","100","22"
"html-keyboard-response","203","482710","0.0-19.0-1.22","63ea6fc5092518554c9b8111","bdp_trlrn","Mon Mar 13 2023 11:31:44 GMT-0700 (Pacific Daylight Time)","772455","Trustworthy,Untrustworthy","","568","","","","decision","","<div class='trialDiv'><img src='trustrating_stim/white_mw063.bmp'><br><font class='baseline'><strong>Chris</strong><p>Choose number of points to send.</font><div class='respPicDiv'><img src='img/responseButtonOffersNo0L.png' class='respPic'></div></div>","2","8","Chris","10","Kept","0.35,0.65","10","0.35","trustrating_stim/white_mw063.bmp","7.5","105","23"
"html-keyboard-response","204","482973","0.0-19.0-2.22","63ea6fc5092518554c9b8111","bdp_trlrn","Mon Mar 13 2023 11:31:44 GMT-0700 (Pacific Daylight Time)","772455","Trustworthy,Untrustworthy","","null","","","","decisionFB","","<div class='trialDiv'><img src='trustrating_stim/white_mw063.bmp'><br><font class='baseline'><strong>Chris</strong><p>Choose number of points to send.</font><div class='respPicDiv'><img src='img/responseButtonOffersNo0L2.png' class='respPic'></div></div>","null","8","Chris","10","Kept","0.35,0.65","10","0.35","trustrating_stim/white_mw063.bmp","7.5","103","23"
"html-keyboard-response","205","483977","0.0-19.0-3.22","63ea6fc5092518554c9b8111","bdp_trlrn","Mon Mar 13 2023 11:31:44 GMT-0700 (Pacific Daylight Time)","772455","Trustworthy,Untrustworthy","","null","","","","feedback","","<div class='trialDiv'><img src='trustrating_stim/white_mw063.bmp'><br><font class='baseline'><strong>Chris</strong><p>Received: <strong>8</strong></font> &nbsp; &nbsp; &nbsp; &nbsp; &nbsp; &nbsp;<font class='negOutcome'>Shared back: <strong>0</strong></font></font><div class='respPicDiv'><img src='img/responseButtonOffersNo0_wht.png' class='respPic'></div></div>","null","8","Chris","10","Kept","0.35,0.65","10","0.35","trustrating_stim/white_mw063.bmp","7.5","103","23"
"html-keyboard-response","206","484832","0.0-19.0-1.23","63ea6fc5092518554c9b8111","bdp_trlrn","Mon Mar 13 2023 11:31:44 GMT-0700 (Pacific Daylight Time)","772455","Trustworthy,Untrustworthy","","854","","","","decision","","<div class='trialDiv'><img src='trustrating_stim/white_mw066.bmp'><br><font class='baseline'><strong>Matthew</strong><p>Choose number of points to send.</font><div class='respPicDiv'><img src='img/responseButtonOffersNo0L.png' class='respPic'></div></div>","3","8","Matthew","6","Shared","0.2,0.65","8","0.2","trustrating_stim/white_mw066.bmp","5.5","108","24"
"html-keyboard-response","207","485091","0.0-19.0-2.23","63ea6fc5092518554c9b8111","bdp_trlrn","Mon Mar 13 2023 11:31:44 GMT-0700 (Pacific Daylight Time)","772455","Trustworthy,Untrustworthy","","null","","","","decisionFB","","<div class='trialDiv'><img src='trustrating_stim/white_mw066.bmp'><br><font class='baseline'><strong>Matthew</strong><p>Choose number of points to send.</font><div class='respPicDiv'><img src='img/responseButtonOffersNo0L3.png' class='respPic'></div></div>","null","8","Matthew","6","Shared","0.2,0.65","8","0.2","trustrating_stim/white_mw066.bmp","5.5","105","24"
"html-keyboard-response","208","486097","0.0-19.0-3.23","63ea6fc5092518554c9b8111","bdp_trlrn","Mon Mar 13 2023 11:31:44 GMT-0700 (Pacific Daylight Time)","772455","Trustworthy,Untrustworthy","","null","","","","feedback","","<div class='trialDiv'><img src='trustrating_stim/white_mw066.bmp'><br><font class='baseline'><strong>Matthew</strong><p>Received: <strong>12</strong></font> &nbsp; &nbsp; &nbsp; &nbsp; &nbsp; &nbsp;<font class='posOutcome'>Shared back: <strong>6</strong></font></font><div class='respPicDiv'><img src='img/responseButtonOffersNo0_wht.png' class='respPic'></div></div>","null","8","Matthew","6","Shared","0.2,0.65","8","0.2","trustrating_stim/white_mw066.bmp","5.5","111","24"
"html-keyboard-response","209","487655","0.0-19.0-1.24","63ea6fc5092518554c9b8111","bdp_trlrn","Mon Mar 13 2023 11:31:44 GMT-0700 (Pacific Daylight Time)","772455","Trustworthy,Untrustworthy","","1557","","","","decision","","<div class='trialDiv'><img src='trustrating_stim/white_mw049.bmp'><br><font class='baseline'><strong>Ethan</strong><p>Choose number of points to send.</font><div class='respPicDiv'><img src='img/responseButtonOffersNo0L.png' class='respPic'></div></div>","2","9","Ethan","0","Kept","0.8,0.35","8","0.8","trustrating_stim/white_mw049.bmp","3","116","25"
"html-keyboard-response","210","487913","0.0-19.0-2.24","63ea6fc5092518554c9b8111","bdp_trlrn","Mon Mar 13 2023 11:31:44 GMT-0700 (Pacific Daylight Time)","772455","Trustworthy,Untrustworthy","","null","","","","decisionFB","","<div class='trialDiv'><img src='trustrating_stim/white_mw049.bmp'><br><font class='baseline'><strong>Ethan</strong><p>Choose number of points to send.</font><div class='respPicDiv'><img src='img/responseButtonOffersNo0L2.png' class='respPic'></div></div>","null","9","Ethan","0","Kept","0.8,0.35","8","0.8","trustrating_stim/white_mw049.bmp","3","114","25"
"html-keyboard-response","211","488925","0.0-19.0-3.24","63ea6fc5092518554c9b8111","bdp_trlrn","Mon Mar 13 2023 11:31:44 GMT-0700 (Pacific Daylight Time)","772455","Trustworthy,Untrustworthy","","null","","","","feedback","","<div class='trialDiv'><img src='trustrating_stim/white_mw049.bmp'><br><font class='baseline'><strong>Ethan</strong><p>Received: <strong>8</strong></font> &nbsp; &nbsp; &nbsp; &nbsp; &nbsp; &nbsp;<font class='negOutcome'>Shared back: <strong>0</strong></font></font><div class='respPicDiv'><img src='img/responseButtonOffersNo0_wht.png' class='respPic'></div></div>","null","9","Ethan","0","Kept","0.8,0.35","8","0.8","trustrating_stim/white_mw049.bmp","3","114","25"
"html-keyboard-response","212","489866","0.0-19.0-1.25","63ea6fc5092518554c9b8111","bdp_trlrn","Mon Mar 13 2023 11:31:44 GMT-0700 (Pacific Daylight Time)","772455","Trustworthy,Untrustworthy","","940","","","","decision","","<div class='trialDiv'><img src='trustrating_stim/white_mw066.bmp'><br><font class='baseline'><strong>Matthew</strong><p>Choose number of points to send.</font><div class='respPicDiv'><img src='img/responseButtonOffersNo0L.png' class='respPic'></div></div>","3","9","Matthew","6","Kept","0.2,0.65","8","0.2","trustrating_stim/white_mw066.bmp","5.5","119","26"
"html-keyboard-response","213","490125","0.0-19.0-2.25","63ea6fc5092518554c9b8111","bdp_trlrn","Mon Mar 13 2023 11:31:44 GMT-0700 (Pacific Daylight Time)","772455","Trustworthy,Untrustworthy","","null","","","","decisionFB","","<div class='trialDiv'><img src='trustrating_stim/white_mw066.bmp'><br><font class='baseline'><strong>Matthew</strong><p>Choose number of points to send.</font><div class='respPicDiv'><img src='img/responseButtonOffersNo0L3.png' class='respPic'></div></div>","null","9","Matthew","6","Kept","0.2,0.65","8","0.2","trustrating_stim/white_mw066.bmp","5.5","116","26"
"html-keyboard-response","214","491132","0.0-19.0-3.25","63ea6fc5092518554c9b8111","bdp_trlrn","Mon Mar 13 2023 11:31:44 GMT-0700 (Pacific Daylight Time)","772455","Trustworthy,Untrustworthy","","null","","","","feedback","","<div class='trialDiv'><img src='trustrating_stim/white_mw066.bmp'><br><font class='baseline'><strong>Matthew</strong><p>Received: <strong>12</strong></font> &nbsp; &nbsp; &nbsp; &nbsp; &nbsp; &nbsp;<font class='negOutcome'>Shared back: <strong>0</strong></font></font><div class='respPicDiv'><img src='img/responseButtonOffersNo0_wht.png' class='respPic'></div></div>","null","9","Matthew","6","Kept","0.2,0.65","8","0.2","trustrating_stim/white_mw066.bmp","5.5","116","26"
"html-keyboard-response","215","492136","0.0-19.0-1.26","63ea6fc5092518554c9b8111","bdp_trlrn","Mon Mar 13 2023 11:31:44 GMT-0700 (Pacific Daylight Time)","772455","Trustworthy,Untrustworthy","","1003","","","","decision","","<div class='trialDiv'><img src='trustrating_stim/white_mw063.bmp'><br><font class='baseline'><strong>Chris</strong><p>Choose number of points to send.</font><div class='respPicDiv'><img src='img/responseButtonOffersNo0L.png' class='respPic'></div></div>","4","9","Chris","10","Kept","0.35,0.65","10","0.35","trustrating_stim/white_mw063.bmp","7.5","121","27"
"html-keyboard-response","216","492392","0.0-19.0-2.26","63ea6fc5092518554c9b8111","bdp_trlrn","Mon Mar 13 2023 11:31:44 GMT-0700 (Pacific Daylight Time)","772455","Trustworthy,Untrustworthy","","null","","","","decisionFB","","<div class='trialDiv'><img src='trustrating_stim/white_mw063.bmp'><br><font class='baseline'><strong>Chris</strong><p>Choose number of points to send.</font><div class='respPicDiv'><img src='img/responseButtonOffersNo0L4.png' class='respPic'></div></div>","null","9","Chris","10","Kept","0.35,0.65","10","0.35","trustrating_stim/white_mw063.bmp","7.5","117","27"
"html-keyboard-response","217","493401","0.0-19.0-3.26","63ea6fc5092518554c9b8111","bdp_trlrn","Mon Mar 13 2023 11:31:44 GMT-0700 (Pacific Daylight Time)","772455","Trustworthy,Untrustworthy","","null","","","","feedback","","<div class='trialDiv'><img src='trustrating_stim/white_mw063.bmp'><br><font class='baseline'><strong>Chris</strong><p>Received: <strong>16</strong></font> &nbsp; &nbsp; &nbsp; &nbsp; &nbsp; &nbsp;<font class='negOutcome'>Shared back: <strong>0</strong></font></font><div class='respPicDiv'><img src='img/responseButtonOffersNo0_wht.png' class='respPic'></div></div>","null","9","Chris","10","Kept","0.35,0.65","10","0.35","trustrating_stim/white_mw063.bmp","7.5","117","27"
"html-keyboard-response","218","494572","0.0-19.0-1.27","63ea6fc5092518554c9b8111","bdp_trlrn","Mon Mar 13 2023 11:31:44 GMT-0700 (Pacific Daylight Time)","772455","Trustworthy,Untrustworthy","","1170","","","","decision","","<div class='trialDiv'><img src='trustrating_stim/white_mw049.bmp'><br><font class='baseline'><strong>Ethan</strong><p>Choose number of points to send.</font><div class='respPicDiv'><img src='img/responseButtonOffersNo0L.png' class='respPic'></div></div>","2","10","Ethan","0","Kept","0.8,0.35","8","0.8","trustrating_stim/white_mw049.bmp","3","122","28"
"html-keyboard-response","219","494825","0.0-19.0-2.27","63ea6fc5092518554c9b8111","bdp_trlrn","Mon Mar 13 2023 11:31:44 GMT-0700 (Pacific Daylight Time)","772455","Trustworthy,Untrustworthy","","null","","","","decisionFB","","<div class='trialDiv'><img src='trustrating_stim/white_mw049.bmp'><br><font class='baseline'><strong>Ethan</strong><p>Choose number of points to send.</font><div class='respPicDiv'><img src='img/responseButtonOffersNo0L2.png' class='respPic'></div></div>","null","10","Ethan","0","Kept","0.8,0.35","8","0.8","trustrating_stim/white_mw049.bmp","3","120","28"
"html-keyboard-response","220","495837","0.0-19.0-3.27","63ea6fc5092518554c9b8111","bdp_trlrn","Mon Mar 13 2023 11:31:44 GMT-0700 (Pacific Daylight Time)","772455","Trustworthy,Untrustworthy","","null","","","","feedback","","<div class='trialDiv'><img src='trustrating_stim/white_mw049.bmp'><br><font class='baseline'><strong>Ethan</strong><p>Received: <strong>8</strong></font> &nbsp; &nbsp; &nbsp; &nbsp; &nbsp; &nbsp;<font class='negOutcome'>Shared back: <strong>0</strong></font></font><div class='respPicDiv'><img src='img/responseButtonOffersNo0_wht.png' class='respPic'></div></div>","null","10","Ethan","0","Kept","0.8,0.35","8","0.8","trustrating_stim/white_mw049.bmp","3","120","28"
"html-keyboard-response","221","496727","0.0-19.0-1.28","63ea6fc5092518554c9b8111","bdp_trlrn","Mon Mar 13 2023 11:31:44 GMT-0700 (Pacific Daylight Time)","772455","Trustworthy,Untrustworthy","","888","","","","decision","","<div class='trialDiv'><img src='trustrating_stim/white_mw066.bmp'><br><font class='baseline'><strong>Matthew</strong><p>Choose number of points to send.</font><div class='respPicDiv'><img src='img/responseButtonOffersNo0L.png' class='respPic'></div></div>","3","10","Matthew","6","Shared","0.2,0.65","8","0.2","trustrating_stim/white_mw066.bmp","5.5","125","29"
"html-keyboard-response","222","496984","0.0-19.0-2.28","63ea6fc5092518554c9b8111","bdp_trlrn","Mon Mar 13 2023 11:31:44 GMT-0700 (Pacific Daylight Time)","772455","Trustworthy,Untrustworthy","","null","","","","decisionFB","","<div class='trialDiv'><img src='trustrating_stim/white_mw066.bmp'><br><font class='baseline'><strong>Matthew</strong><p>Choose number of points to send.</font><div class='respPicDiv'><img src='img/responseButtonOffersNo0L3.png' class='respPic'></div></div>","null","10","Matthew","6","Shared","0.2,0.65","8","0.2","trustrating_stim/white_mw066.bmp","5.5","122","29"
