"event","trial","time","trialtype","subject_id","task","startTime","totalTime","labels","numBlurs","trial_type","trial_index","time_elapsed","internal_node_id","view_history","rt","success","stimulus","key_press","aground","name","faceID","outcome","agenttype","agentswpt","agentcurrpshare","face","avgRating","point_total","round"
"focus","0","0","focusevent","5d9303bbc400a90018821b13","bdp_trlrn","Mon Mar 13 2023 00:02:02 GMT-0400 (Eastern Daylight Time)","453709","Untrustworthy,Trustworthy","","","","","","","","","","","","","","","","","","","","",""
"blur","0","0","blurevent","5d9303bbc400a90018821b13","bdp_trlrn","Mon Mar 13 2023 00:02:02 GMT-0400 (Eastern Daylight Time)","453709","Untrustworthy,Trustworthy","1","","","","","","","","","","","","","","","","","","","",""
"","","","","5d9303bbc400a90018821b13","bdp_trlrn","Mon Mar 13 2023 00:02:02 GMT-0400 (Eastern Daylight Time)","453709","Untrustworthy,Trustworthy","","pavlovia","0","1","0.0-0.0","","","","","","","","","","","","","","","",""
"focus","1","624","focusevent","5d9303bbc400a90018821b13","bdp_trlrn","Mon Mar 13 2023 00:02:02 GMT-0400 (Eastern Daylight Time)","453709","Untrustworthy,Trustworthy","","","","","","","","","","","","","","","","","","","","",""
"","","","","5d9303bbc400a90018821b13","bdp_trlrn","Mon Mar 13 2023 00:02:02 GMT-0400 (Eastern Daylight Time)","453709","Untrustworthy,Trustworthy","","instructions","1","2647","0.0-1.0","[{""page_index"":0,""viewing_time"":2646}]","2646","","","","","","","","","","","","","",""
"fullscreenexit","2","3783","fullscreenexit","5d9303bbc400a90018821b13","bdp_trlrn","Mon Mar 13 2023 00:02:02 GMT-0400 (Eastern Daylight Time)","453709","Untrustworthy,Trustworthy","","","","","","","","","","","","","","","","","","","","",""
"","","","","5d9303bbc400a90018821b13","bdp_trlrn","Mon Mar 13 2023 00:02:02 GMT-0400 (Eastern Daylight Time)","453709","Untrustworthy,Trustworthy","","fullscreen","2","4569","0.0-2.0","","","true","","","","","","","","","","","","",""
"","","","fullscreenfail","5d9303bbc400a90018821b13","bdp_trlrn","Mon Mar 13 2023 00:02:02 GMT-0400 (Eastern Daylight Time)","453709","Untrustworthy,Trustworthy","","image-keyboard-response","3","5978","0.0-3.0-0.0","","1407","","","32","","","","","","","","","","",""
"","","","","5d9303bbc400a90018821b13","bdp_trlrn","Mon Mar 13 2023 00:02:02 GMT-0400 (Eastern Daylight Time)","453709","Untrustworthy,Trustworthy","","instructions","4","11577","0.0-4.0","[{""page_index"":0,""viewing_time"":3955},{""page_index"":1,""viewing_time"":1388}]","5343","","","","","","","","","","","","","",""
"","","","","5d9303bbc400a90018821b13","bdp_trlrn","Mon Mar 13 2023 00:02:02 GMT-0400 (Eastern Daylight Time)","453709","Untrustworthy,Trustworthy","","instructions","5","12090","0.0-5.0","[{""page_index"":0,""viewing_time"":512}]","512","","","","","","","","","","","","","",""
"","","","rating","5d9303bbc400a90018821b13","bdp_trlrn","Mon Mar 13 2023 00:02:02 GMT-0400 (Eastern Daylight Time)","453709","Untrustworthy,Trustworthy","","image-keyboard-response","6","14183","0.0-6.0-1.0","","1992","","trustrating_stim/white_00807_941205_fb_edt.bmp","4","","","","","","","","","","",""
"","","","ratingFB","5d9303bbc400a90018821b13","bdp_trlrn","Mon Mar 13 2023 00:02:02 GMT-0400 (Eastern Daylight Time)","453709","Untrustworthy,Trustworthy","","image-keyboard-response","7","14394","0.0-6.0-2.0","","null","","trustrating_stim/white_00807_941205_fb_edt.bmp","null","","","","","","","","","","",""
"","","","rating","5d9303bbc400a90018821b13","bdp_trlrn","Mon Mar 13 2023 00:02:02 GMT-0400 (Eastern Daylight Time)","453709","Untrustworthy,Trustworthy","","image-keyboard-response","8","15447","0.0-6.0-1.1","","943","","trustrating_stim/white_00340_940422_fa_edt.bmp","1","","","","","","","","","","",""
"","","","ratingFB","5d9303bbc400a90018821b13","bdp_trlrn","Mon Mar 13 2023 00:02:02 GMT-0400 (Eastern Daylight Time)","453709","Untrustworthy,Trustworthy","","image-keyboard-response","9","15656","0.0-6.0-2.1","","null","","trustrating_stim/white_00340_940422_fa_edt.bmp","null","","","","","","","","","","",""
"","","","rating","5d9303bbc400a90018821b13","bdp_trlrn","Mon Mar 13 2023 00:02:02 GMT-0400 (Eastern Daylight Time)","453709","Untrustworthy,Trustworthy","","image-keyboard-response","10","17027","0.0-6.0-1.2","","1262","","trustrating_stim/white_00120_931230_fa_edt.bmp","8","","","","","","","","","","",""
"","","","ratingFB","5d9303bbc400a90018821b13","bdp_trlrn","Mon Mar 13 2023 00:02:02 GMT-0400 (Eastern Daylight Time)","453709","Untrustworthy,Trustworthy","","image-keyboard-response","11","17227","0.0-6.0-2.2","","null","","trustrating_stim/white_00120_931230_fa_edt.bmp","null","","","","","","","","","","",""
"","","","rating","5d9303bbc400a90018821b13","bdp_trlrn","Mon Mar 13 2023 00:02:02 GMT-0400 (Eastern Daylight Time)","453709","Untrustworthy,Trustworthy","","image-keyboard-response","12","18670","0.0-6.0-1.3","","1333","","trustrating_stim/white_mw056.bmp","7","","","","","","","","","","",""
"","","","ratingFB","5d9303bbc400a90018821b13","bdp_trlrn","Mon Mar 13 2023 00:02:02 GMT-0400 (Eastern Daylight Time)","453709","Untrustworthy,Trustworthy","","image-keyboard-response","13","18878","0.0-6.0-2.3","","null","","trustrating_stim/white_mw056.bmp","null","","","","","","","","","","",""
"","","","rating","5d9303bbc400a90018821b13","bdp_trlrn","Mon Mar 13 2023 00:02:02 GMT-0400 (Eastern Daylight Time)","453709","Untrustworthy,Trustworthy","","image-keyboard-response","14","20362","0.0-6.0-1.4","","1374","","trustrating_stim/white_00761_941201_fb_edt.bmp","5","","","","","","","","","","",""
"","","","ratingFB","5d9303bbc400a90018821b13","bdp_trlrn","Mon Mar 13 2023 00:02:02 GMT-0400 (Eastern Daylight Time)","453709","Untrustworthy,Trustworthy","","image-keyboard-response","15","20577","0.0-6.0-2.4","","null","","trustrating_stim/white_00761_941201_fb_edt.bmp","null","","","","","","","","","","",""
"","","","rating","5d9303bbc400a90018821b13","bdp_trlrn","Mon Mar 13 2023 00:02:02 GMT-0400 (Eastern Daylight Time)","453709","Untrustworthy,Trustworthy","","image-keyboard-response","16","21805","0.0-6.0-1.5","","1119","","trustrating_stim/white_mw099.bmp","3","","","","","","","","","","",""
"","","","ratingFB","5d9303bbc400a90018821b13","bdp_trlrn","Mon Mar 13 2023 00:02:02 GMT-0400 (Eastern Daylight Time)","453709","Untrustworthy,Trustworthy","","image-keyboard-response","17","22019","0.0-6.0-2.5","","null","","trustrating_stim/white_mw099.bmp","null","","","","","","","","","","",""
"","","","rating","5d9303bbc400a90018821b13","bdp_trlrn","Mon Mar 13 2023 00:02:02 GMT-0400 (Eastern Daylight Time)","453709","Untrustworthy,Trustworthy","","image-keyboard-response","18","23670","0.0-6.0-1.6","","1541","","trustrating_stim/white_mw053.bmp","9","","","","","","","","","","",""
"","","","ratingFB","5d9303bbc400a90018821b13","bdp_trlrn","Mon Mar 13 2023 00:02:02 GMT-0400 (Eastern Daylight Time)","453709","Untrustworthy,Trustworthy","","image-keyboard-response","19","23873","0.0-6.0-2.6","","null","","trustrating_stim/white_mw053.bmp","null","","","","","","","","","","",""
"","","","rating","5d9303bbc400a90018821b13","bdp_trlrn","Mon Mar 13 2023 00:02:02 GMT-0400 (Eastern Daylight Time)","453709","Untrustworthy,Trustworthy","","image-keyboard-response","20","25211","0.0-6.0-1.7","","1229","","trustrating_stim/white_mw033.bmp","6","","","","","","","","","","",""
"","","","ratingFB","5d9303bbc400a90018821b13","bdp_trlrn","Mon Mar 13 2023 00:02:02 GMT-0400 (Eastern Daylight Time)","453709","Untrustworthy,Trustworthy","","image-keyboard-response","21","25416","0.0-6.0-2.7","","null","","trustrating_stim/white_mw033.bmp","null","","","","","","","","","","",""
"","","","rating","5d9303bbc400a90018821b13","bdp_trlrn","Mon Mar 13 2023 00:02:02 GMT-0400 (Eastern Daylight Time)","453709","Untrustworthy,Trustworthy","","image-keyboard-response","22","26316","0.0-6.0-1.8","","792","","trustrating_stim/white_mw049.bmp","8","","","","","","","","","","",""
"","","","ratingFB","5d9303bbc400a90018821b13","bdp_trlrn","Mon Mar 13 2023 00:02:02 GMT-0400 (Eastern Daylight Time)","453709","Untrustworthy,Trustworthy","","image-keyboard-response","23","26519","0.0-6.0-2.8","","null","","trustrating_stim/white_mw049.bmp","null","","","","","","","","","","",""
"","","","rating","5d9303bbc400a90018821b13","bdp_trlrn","Mon Mar 13 2023 00:02:02 GMT-0400 (Eastern Daylight Time)","453709","Untrustworthy,Trustworthy","","image-keyboard-response","24","28174","0.0-6.0-1.9","","1544","","trustrating_stim/white_mw097.bmp","2","","","","","","","","","","",""
"","","","ratingFB","5d9303bbc400a90018821b13","bdp_trlrn","Mon Mar 13 2023 00:02:02 GMT-0400 (Eastern Daylight Time)","453709","Untrustworthy,Trustworthy","","image-keyboard-response","25","28385","0.0-6.0-2.9","","null","","trustrating_stim/white_mw097.bmp","null","","","","","","","","","","",""
"","","","rating","5d9303bbc400a90018821b13","bdp_trlrn","Mon Mar 13 2023 00:02:02 GMT-0400 (Eastern Daylight Time)","453709","Untrustworthy,Trustworthy","","image-keyboard-response","26","30229","0.0-6.0-1.10","","1736","","trustrating_stim/white_00785_941205_fb_edt.bmp","5","","","","","","","","","","",""
"","","","ratingFB","5d9303bbc400a90018821b13","bdp_trlrn","Mon Mar 13 2023 00:02:02 GMT-0400 (Eastern Daylight Time)","453709","Untrustworthy,Trustworthy","","image-keyboard-response","27","30435","0.0-6.0-2.10","","null","","trustrating_stim/white_00785_941205_fb_edt.bmp","null","","","","","","","","","","",""
"","","","rating","5d9303bbc400a90018821b13","bdp_trlrn","Mon Mar 13 2023 00:02:02 GMT-0400 (Eastern Daylight Time)","453709","Untrustworthy,Trustworthy","","image-keyboard-response","28","31847","0.0-6.0-1.11","","1305","","trustrating_stim/white_00519_940519_fb_edt.bmp","5","","","","","","","","","","",""
"","","","ratingFB","5d9303bbc400a90018821b13","bdp_trlrn","Mon Mar 13 2023 00:02:02 GMT-0400 (Eastern Daylight Time)","453709","Untrustworthy,Trustworthy","","image-keyboard-response","29","32049","0.0-6.0-2.11","","null","","trustrating_stim/white_00519_940519_fb_edt.bmp","null","","","","","","","","","","",""
"","","","rating","5d9303bbc400a90018821b13","bdp_trlrn","Mon Mar 13 2023 00:02:02 GMT-0400 (Eastern Daylight Time)","453709","Untrustworthy,Trustworthy","","image-keyboard-response","30","33153","0.0-6.0-1.12","","994","","trustrating_stim/white_mw066.bmp","7","","","","","","","","","","",""
"","","","ratingFB","5d9303bbc400a90018821b13","bdp_trlrn","Mon Mar 13 2023 00:02:02 GMT-0400 (Eastern Daylight Time)","453709","Untrustworthy,Trustworthy","","image-keyboard-response","31","33355","0.0-6.0-2.12","","null","","trustrating_stim/white_mw066.bmp","null","","","","","","","","","","",""
"","","","rating","5d9303bbc400a90018821b13","bdp_trlrn","Mon Mar 13 2023 00:02:02 GMT-0400 (Eastern Daylight Time)","453709","Untrustworthy,Trustworthy","","image-keyboard-response","32","34784","0.0-6.0-1.13","","1321","","trustrating_stim/white_mw071.bmp","6","","","","","","","","","","",""
"","","","ratingFB","5d9303bbc400a90018821b13","bdp_trlrn","Mon Mar 13 2023 00:02:02 GMT-0400 (Eastern Daylight Time)","453709","Untrustworthy,Trustworthy","","image-keyboard-response","33","34988","0.0-6.0-2.13","","null","","trustrating_stim/white_mw071.bmp","null","","","","","","","","","","",""
"","","","rating","5d9303bbc400a90018821b13","bdp_trlrn","Mon Mar 13 2023 00:02:02 GMT-0400 (Eastern Daylight Time)","453709","Untrustworthy,Trustworthy","","image-keyboard-response","34","35778","0.0-6.0-1.14","","682","","trustrating_stim/white_00129_931230_fb_edt.bmp","7","","","","","","","","","","",""
"","","","ratingFB","5d9303bbc400a90018821b13","bdp_trlrn","Mon Mar 13 2023 00:02:02 GMT-0400 (Eastern Daylight Time)","453709","Untrustworthy,Trustworthy","","image-keyboard-response","35","35992","0.0-6.0-2.14","","null","","trustrating_stim/white_00129_931230_fb_edt.bmp","null","","","","","","","","","","",""
"","","","rating","5d9303bbc400a90018821b13","bdp_trlrn","Mon Mar 13 2023 00:02:02 GMT-0400 (Eastern Daylight Time)","453709","Untrustworthy,Trustworthy","","image-keyboard-response","36","36908","0.0-6.0-1.15","","807","","trustrating_stim/white_mw060.bmp","2","","","","","","","","","","",""
"","","","ratingFB","5d9303bbc400a90018821b13","bdp_trlrn","Mon Mar 13 2023 00:02:02 GMT-0400 (Eastern Daylight Time)","453709","Untrustworthy,Trustworthy","","image-keyboard-response","37","37114","0.0-6.0-2.15","","null","","trustrating_stim/white_mw060.bmp","null","","","","","","","","","","",""
"","","","rating","5d9303bbc400a90018821b13","bdp_trlrn","Mon Mar 13 2023 00:02:02 GMT-0400 (Eastern Daylight Time)","453709","Untrustworthy,Trustworthy","","image-keyboard-response","38","38205","0.0-6.0-1.16","","982","","trustrating_stim/white_mw084.bmp","4","","","","","","","","","","",""
"","","","ratingFB","5d9303bbc400a90018821b13","bdp_trlrn","Mon Mar 13 2023 00:02:02 GMT-0400 (Eastern Daylight Time)","453709","Untrustworthy,Trustworthy","","image-keyboard-response","39","38418","0.0-6.0-2.16","","null","","trustrating_stim/white_mw084.bmp","null","","","","","","","","","","",""
"","","","rating","5d9303bbc400a90018821b13","bdp_trlrn","Mon Mar 13 2023 00:02:02 GMT-0400 (Eastern Daylight Time)","453709","Untrustworthy,Trustworthy","","image-keyboard-response","40","39284","0.0-6.0-1.17","","756","","trustrating_stim/white_mw035.bmp","7","","","","","","","","","","",""
"","","","ratingFB","5d9303bbc400a90018821b13","bdp_trlrn","Mon Mar 13 2023 00:02:02 GMT-0400 (Eastern Daylight Time)","453709","Untrustworthy,Trustworthy","","image-keyboard-response","41","39496","0.0-6.0-2.17","","null","","trustrating_stim/white_mw035.bmp","null","","","","","","","","","","",""
"","","","rating","5d9303bbc400a90018821b13","bdp_trlrn","Mon Mar 13 2023 00:02:02 GMT-0400 (Eastern Daylight Time)","453709","Untrustworthy,Trustworthy","","image-keyboard-response","42","40158","0.0-6.0-1.18","","552","","trustrating_stim/white_mw089.bmp","5","","","","","","","","","","",""
"","","","ratingFB","5d9303bbc400a90018821b13","bdp_trlrn","Mon Mar 13 2023 00:02:02 GMT-0400 (Eastern Daylight Time)","453709","Untrustworthy,Trustworthy","","image-keyboard-response","43","40370","0.0-6.0-2.18","","null","","trustrating_stim/white_mw089.bmp","null","","","","","","","","","","",""
"","","","rating","5d9303bbc400a90018821b13","bdp_trlrn","Mon Mar 13 2023 00:02:02 GMT-0400 (Eastern Daylight Time)","453709","Untrustworthy,Trustworthy","","image-keyboard-response","44","41804","0.0-6.0-1.19","","1326","","trustrating_stim/white_00223_940128_fb_edt.bmp","8","","","","","","","","","","",""
"","","","ratingFB","5d9303bbc400a90018821b13","bdp_trlrn","Mon Mar 13 2023 00:02:02 GMT-0400 (Eastern Daylight Time)","453709","Untrustworthy,Trustworthy","","image-keyboard-response","45","42017","0.0-6.0-2.19","","null","","trustrating_stim/white_00223_940128_fb_edt.bmp","null","","","","","","","","","","",""
"","","","rating","5d9303bbc400a90018821b13","bdp_trlrn","Mon Mar 13 2023 00:02:02 GMT-0400 (Eastern Daylight Time)","453709","Untrustworthy,Trustworthy","","image-keyboard-response","46","43131","0.0-6.0-1.20","","1003","","trustrating_stim/white_mw048.bmp","1","","","","","","","","","","",""
"","","","ratingFB","5d9303bbc400a90018821b13","bdp_trlrn","Mon Mar 13 2023 00:02:02 GMT-0400 (Eastern Daylight Time)","453709","Untrustworthy,Trustworthy","","image-keyboard-response","47","43344","0.0-6.0-2.20","","null","","trustrating_stim/white_mw048.bmp","null","","","","","","","","","","",""
"","","","rating","5d9303bbc400a90018821b13","bdp_trlrn","Mon Mar 13 2023 00:02:02 GMT-0400 (Eastern Daylight Time)","453709","Untrustworthy,Trustworthy","","image-keyboard-response","48","44199","0.0-6.0-1.21","","747","","trustrating_stim/white_00109_931230_fa_edt.bmp","7","","","","","","","","","","",""
"","","","ratingFB","5d9303bbc400a90018821b13","bdp_trlrn","Mon Mar 13 2023 00:02:02 GMT-0400 (Eastern Daylight Time)","453709","Untrustworthy,Trustworthy","","image-keyboard-response","49","44401","0.0-6.0-2.21","","null","","trustrating_stim/white_00109_931230_fa_edt.bmp","null","","","","","","","","","","",""
"","","","rating","5d9303bbc400a90018821b13","bdp_trlrn","Mon Mar 13 2023 00:02:02 GMT-0400 (Eastern Daylight Time)","453709","Untrustworthy,Trustworthy","","image-keyboard-response","50","46081","0.0-6.0-1.22","","1572","","trustrating_stim/white_mw063.bmp","4","","","","","","","","","","",""
"","","","ratingFB","5d9303bbc400a90018821b13","bdp_trlrn","Mon Mar 13 2023 00:02:02 GMT-0400 (Eastern Daylight Time)","453709","Untrustworthy,Trustworthy","","image-keyboard-response","51","46285","0.0-6.0-2.22","","null","","trustrating_stim/white_mw063.bmp","null","","","","","","","","","","",""
"","","","rating","5d9303bbc400a90018821b13","bdp_trlrn","Mon Mar 13 2023 00:02:02 GMT-0400 (Eastern Daylight Time)","453709","Untrustworthy,Trustworthy","","image-keyboard-response","52","47314","0.0-6.0-1.23","","922","","trustrating_stim/white_00898_960530_fa_edt.bmp","9","","","","","","","","","","",""
"","","","ratingFB","5d9303bbc400a90018821b13","bdp_trlrn","Mon Mar 13 2023 00:02:02 GMT-0400 (Eastern Daylight Time)","453709","Untrustworthy,Trustworthy","","image-keyboard-response","53","47515","0.0-6.0-2.23","","null","","trustrating_stim/white_00898_960530_fa_edt.bmp","null","","","","","","","","","","",""
"","","","rating","5d9303bbc400a90018821b13","bdp_trlrn","Mon Mar 13 2023 00:02:02 GMT-0400 (Eastern Daylight Time)","453709","Untrustworthy,Trustworthy","","image-keyboard-response","54","48791","0.0-6.0-1.24","","1167","","trustrating_stim/white_00577_940928_fa_edt.bmp","3","","","","","","","","","","",""
"","","","ratingFB","5d9303bbc400a90018821b13","bdp_trlrn","Mon Mar 13 2023 00:02:02 GMT-0400 (Eastern Daylight Time)","453709","Untrustworthy,Trustworthy","","image-keyboard-response","55","48993","0.0-6.0-2.24","","null","","trustrating_stim/white_00577_940928_fa_edt.bmp","null","","","","","","","","","","",""
"","","","rating","5d9303bbc400a90018821b13","bdp_trlrn","Mon Mar 13 2023 00:02:02 GMT-0400 (Eastern Daylight Time)","453709","Untrustworthy,Trustworthy","","image-keyboard-response","56","50052","0.0-6.0-1.25","","951","","trustrating_stim/white_00659_941121_fa_edt.bmp","1","","","","","","","","","","",""
"","","","ratingFB","5d9303bbc400a90018821b13","bdp_trlrn","Mon Mar 13 2023 00:02:02 GMT-0400 (Eastern Daylight Time)","453709","Untrustworthy,Trustworthy","","image-keyboard-response","57","50257","0.0-6.0-2.25","","null","","trustrating_stim/white_00659_941121_fa_edt.bmp","null","","","","","","","","","","",""
"","","","rating","5d9303bbc400a90018821b13","bdp_trlrn","Mon Mar 13 2023 00:02:02 GMT-0400 (Eastern Daylight Time)","453709","Untrustworthy,Trustworthy","","image-keyboard-response","58","51111","0.0-6.0-1.26","","745","","trustrating_stim/white_mw046.bmp","7","","","","","","","","","","",""
"","","","ratingFB","5d9303bbc400a90018821b13","bdp_trlrn","Mon Mar 13 2023 00:02:02 GMT-0400 (Eastern Daylight Time)","453709","Untrustworthy,Trustworthy","","image-keyboard-response","59","51313","0.0-6.0-2.26","","null","","trustrating_stim/white_mw046.bmp","null","","","","","","","","","","",""
"","","","rating","5d9303bbc400a90018821b13","bdp_trlrn","Mon Mar 13 2023 00:02:02 GMT-0400 (Eastern Daylight Time)","453709","Untrustworthy,Trustworthy","","image-keyboard-response","60","52562","0.0-6.0-1.27","","1140","","trustrating_stim/white_00602_940928_fb_edt.bmp","9","","","","","","","","","","",""
"","","","ratingFB","5d9303bbc400a90018821b13","bdp_trlrn","Mon Mar 13 2023 00:02:02 GMT-0400 (Eastern Daylight Time)","453709","Untrustworthy,Trustworthy","","image-keyboard-response","61","52774","0.0-6.0-2.27","","null","","trustrating_stim/white_00602_940928_fb_edt.bmp","null","","","","","","","","","","",""
"","","","rating","5d9303bbc400a90018821b13","bdp_trlrn","Mon Mar 13 2023 00:02:02 GMT-0400 (Eastern Daylight Time)","453709","Untrustworthy,Trustworthy","","image-keyboard-response","62","54746","0.0-6.0-1.28","","1860","","trustrating_stim/white_00757_941201_fa_edt.bmp","5","","","","","","","","","","",""
"","","","ratingFB","5d9303bbc400a90018821b13","bdp_trlrn","Mon Mar 13 2023 00:02:02 GMT-0400 (Eastern Daylight Time)","453709","Untrustworthy,Trustworthy","","image-keyboard-response","63","54957","0.0-6.0-2.28","","null","","trustrating_stim/white_00757_941201_fa_edt.bmp","null","","","","","","","","","","",""
"","","","rating","5d9303bbc400a90018821b13","bdp_trlrn","Mon Mar 13 2023 00:02:02 GMT-0400 (Eastern Daylight Time)","453709","Untrustworthy,Trustworthy","","image-keyboard-response","64","56614","0.0-6.0-1.29","","1548","","trustrating_stim/white_00299_940422_fa_edt.bmp","5","","","","","","","","","","",""
"","","","ratingFB","5d9303bbc400a90018821b13","bdp_trlrn","Mon Mar 13 2023 00:02:02 GMT-0400 (Eastern Daylight Time)","453709","Untrustworthy,Trustworthy","","image-keyboard-response","65","56820","0.0-6.0-2.29","","null","","trustrating_stim/white_00299_940422_fa_edt.bmp","null","","","","","","","","","","",""
"","","","rating","5d9303bbc400a90018821b13","bdp_trlrn","Mon Mar 13 2023 00:02:02 GMT-0400 (Eastern Daylight Time)","453709","Untrustworthy,Trustworthy","","image-keyboard-response","66","57806","0.0-6.0-1.30","","876","","trustrating_stim/white_mw046.bmp","3","","","","","","","","","","",""
"","","","ratingFB","5d9303bbc400a90018821b13","bdp_trlrn","Mon Mar 13 2023 00:02:02 GMT-0400 (Eastern Daylight Time)","453709","Untrustworthy,Trustworthy","","image-keyboard-response","67","58008","0.0-6.0-2.30","","null","","trustrating_stim/white_mw046.bmp","null","","","","","","","","","","",""
"","","","rating","5d9303bbc400a90018821b13","bdp_trlrn","Mon Mar 13 2023 00:02:02 GMT-0400 (Eastern Daylight Time)","453709","Untrustworthy,Trustworthy","","image-keyboard-response","68","59045","0.0-6.0-1.31","","929","","trustrating_stim/white_00659_941121_fa_edt.bmp","1","","","","","","","","","","",""
"","","","ratingFB","5d9303bbc400a90018821b13","bdp_trlrn","Mon Mar 13 2023 00:02:02 GMT-0400 (Eastern Daylight Time)","453709","Untrustworthy,Trustworthy","","image-keyboard-response","69","59253","0.0-6.0-2.31","","null","","trustrating_stim/white_00659_941121_fa_edt.bmp","null","","","","","","","","","","",""
"","","","rating","5d9303bbc400a90018821b13","bdp_trlrn","Mon Mar 13 2023 00:02:02 GMT-0400 (Eastern Daylight Time)","453709","Untrustworthy,Trustworthy","","image-keyboard-response","70","61435","0.0-6.0-1.32","","2073","","trustrating_stim/white_00785_941205_fb_edt.bmp","7","","","","","","","","","","",""
"","","","ratingFB","5d9303bbc400a90018821b13","bdp_trlrn","Mon Mar 13 2023 00:02:02 GMT-0400 (Eastern Daylight Time)","453709","Untrustworthy,Trustworthy","","image-keyboard-response","71","61648","0.0-6.0-2.32","","null","","trustrating_stim/white_00785_941205_fb_edt.bmp","null","","","","","","","","","","",""
"","","","rating","5d9303bbc400a90018821b13","bdp_trlrn","Mon Mar 13 2023 00:02:02 GMT-0400 (Eastern Daylight Time)","453709","Untrustworthy,Trustworthy","","image-keyboard-response","72","63422","0.0-6.0-1.33","","1664","","trustrating_stim/white_00109_931230_fa_edt.bmp","8","","","","","","","","","","",""
"","","","ratingFB","5d9303bbc400a90018821b13","bdp_trlrn","Mon Mar 13 2023 00:02:02 GMT-0400 (Eastern Daylight Time)","453709","Untrustworthy,Trustworthy","","image-keyboard-response","73","63635","0.0-6.0-2.33","","null","","trustrating_stim/white_00109_931230_fa_edt.bmp","null","","","","","","","","","","",""
"","","","rating","5d9303bbc400a90018821b13","bdp_trlrn","Mon Mar 13 2023 00:02:02 GMT-0400 (Eastern Daylight Time)","453709","Untrustworthy,Trustworthy","","image-keyboard-response","74","64634","0.0-6.0-1.34","","891","","trustrating_stim/white_mw097.bmp","1","","","","","","","","","","",""
"","","","ratingFB","5d9303bbc400a90018821b13","bdp_trlrn","Mon Mar 13 2023 00:02:02 GMT-0400 (Eastern Daylight Time)","453709","Untrustworthy,Trustworthy","","image-keyboard-response","75","64840","0.0-6.0-2.34","","null","","trustrating_stim/white_mw097.bmp","null","","","","","","","","","","",""
"","","","rating","5d9303bbc400a90018821b13","bdp_trlrn","Mon Mar 13 2023 00:02:02 GMT-0400 (Eastern Daylight Time)","453709","Untrustworthy,Trustworthy","","image-keyboard-response","76","67299","0.0-6.0-1.35","","2349","","trustrating_stim/white_00519_940519_fb_edt.bmp","8","","","","","","","","","","",""
"","","","ratingFB","5d9303bbc400a90018821b13","bdp_trlrn","Mon Mar 13 2023 00:02:02 GMT-0400 (Eastern Daylight Time)","453709","Untrustworthy,Trustworthy","","image-keyboard-response","77","67502","0.0-6.0-2.35","","null","","trustrating_stim/white_00519_940519_fb_edt.bmp","null","","","","","","","","","","",""
"","","","rating","5d9303bbc400a90018821b13","bdp_trlrn","Mon Mar 13 2023 00:02:02 GMT-0400 (Eastern Daylight Time)","453709","Untrustworthy,Trustworthy","","image-keyboard-response","78","69594","0.0-6.0-1.36","","1983","","trustrating_stim/white_00299_940422_fa_edt.bmp","6","","","","","","","","","","",""
"","","","ratingFB","5d9303bbc400a90018821b13","bdp_trlrn","Mon Mar 13 2023 00:02:02 GMT-0400 (Eastern Daylight Time)","453709","Untrustworthy,Trustworthy","","image-keyboard-response","79","69799","0.0-6.0-2.36","","null","","trustrating_stim/white_00299_940422_fa_edt.bmp","null","","","","","","","","","","",""
"","","","rating","5d9303bbc400a90018821b13","bdp_trlrn","Mon Mar 13 2023 00:02:02 GMT-0400 (Eastern Daylight Time)","453709","Untrustworthy,Trustworthy","","image-keyboard-response","80","71005","0.0-6.0-1.37","","1097","","trustrating_stim/white_mw084.bmp","5","","","","","","","","","","",""
"","","","ratingFB","5d9303bbc400a90018821b13","bdp_trlrn","Mon Mar 13 2023 00:02:02 GMT-0400 (Eastern Daylight Time)","453709","Untrustworthy,Trustworthy","","image-keyboard-response","81","71216","0.0-6.0-2.37","","null","","trustrating_stim/white_mw084.bmp","null","","","","","","","","","","",""
"","","","rating","5d9303bbc400a90018821b13","bdp_trlrn","Mon Mar 13 2023 00:02:02 GMT-0400 (Eastern Daylight Time)","453709","Untrustworthy,Trustworthy","","image-keyboard-response","82","72920","0.0-6.0-1.38","","1597","","trustrating_stim/white_00898_960530_fa_edt.bmp","8","","","","","","","","","","",""
"","","","ratingFB","5d9303bbc400a90018821b13","bdp_trlrn","Mon Mar 13 2023 00:02:02 GMT-0400 (Eastern Daylight Time)","453709","Untrustworthy,Trustworthy","","image-keyboard-response","83","73128","0.0-6.0-2.38","","null","","trustrating_stim/white_00898_960530_fa_edt.bmp","null","","","","","","","","","","",""
"","","","rating","5d9303bbc400a90018821b13","bdp_trlrn","Mon Mar 13 2023 00:02:02 GMT-0400 (Eastern Daylight Time)","453709","Untrustworthy,Trustworthy","","image-keyboard-response","84","74714","0.0-6.0-1.39","","1478","","trustrating_stim/white_00223_940128_fb_edt.bmp","4","","","","","","","","","","",""
"","","","ratingFB","5d9303bbc400a90018821b13","bdp_trlrn","Mon Mar 13 2023 00:02:02 GMT-0400 (Eastern Daylight Time)","453709","Untrustworthy,Trustworthy","","image-keyboard-response","85","74916","0.0-6.0-2.39","","null","","trustrating_stim/white_00223_940128_fb_edt.bmp","null","","","","","","","","","","",""
"","","","rating","5d9303bbc400a90018821b13","bdp_trlrn","Mon Mar 13 2023 00:02:02 GMT-0400 (Eastern Daylight Time)","453709","Untrustworthy,Trustworthy","","image-keyboard-response","86","76075","0.0-6.0-1.40","","1050","","trustrating_stim/white_mw071.bmp","5","","","","","","","","","","",""
"","","","ratingFB","5d9303bbc400a90018821b13","bdp_trlrn","Mon Mar 13 2023 00:02:02 GMT-0400 (Eastern Daylight Time)","453709","Untrustworthy,Trustworthy","","image-keyboard-response","87","76281","0.0-6.0-2.40","","null","","trustrating_stim/white_mw071.bmp","null","","","","","","","","","","",""
"","","","rating","5d9303bbc400a90018821b13","bdp_trlrn","Mon Mar 13 2023 00:02:02 GMT-0400 (Eastern Daylight Time)","453709","Untrustworthy,Trustworthy","","image-keyboard-response","88","77209","0.0-6.0-1.41","","819","","trustrating_stim/white_00120_931230_fa_edt.bmp","7","","","","","","","","","","",""
"","","","ratingFB","5d9303bbc400a90018821b13","bdp_trlrn","Mon Mar 13 2023 00:02:02 GMT-0400 (Eastern Daylight Time)","453709","Untrustworthy,Trustworthy","","image-keyboard-response","89","77417","0.0-6.0-2.41","","null","","trustrating_stim/white_00120_931230_fa_edt.bmp","null","","","","","","","","","","",""
"","","","rating","5d9303bbc400a90018821b13","bdp_trlrn","Mon Mar 13 2023 00:02:02 GMT-0400 (Eastern Daylight Time)","453709","Untrustworthy,Trustworthy","","image-keyboard-response","90","78206","0.0-6.0-1.42","","679","","trustrating_stim/white_mw048.bmp","3","","","","","","","","","","",""
"","","","ratingFB","5d9303bbc400a90018821b13","bdp_trlrn","Mon Mar 13 2023 00:02:02 GMT-0400 (Eastern Daylight Time)","453709","Untrustworthy,Trustworthy","","image-keyboard-response","91","78410","0.0-6.0-2.42","","null","","trustrating_stim/white_mw048.bmp","null","","","","","","","","","","",""
"","","","rating","5d9303bbc400a90018821b13","bdp_trlrn","Mon Mar 13 2023 00:02:02 GMT-0400 (Eastern Daylight Time)","453709","Untrustworthy,Trustworthy","","image-keyboard-response","92","81992","0.0-6.0-1.43","","3472","","trustrating_stim/white_00129_931230_fb_edt.bmp","6","","","","","","","","","","",""
"","","","ratingFB","5d9303bbc400a90018821b13","bdp_trlrn","Mon Mar 13 2023 00:02:02 GMT-0400 (Eastern Daylight Time)","453709","Untrustworthy,Trustworthy","","image-keyboard-response","93","82200","0.0-6.0-2.43","","null","","trustrating_stim/white_00129_931230_fb_edt.bmp","null","","","","","","","","","","",""
"","","","rating","5d9303bbc400a90018821b13","bdp_trlrn","Mon Mar 13 2023 00:02:02 GMT-0400 (Eastern Daylight Time)","453709","Untrustworthy,Trustworthy","","image-keyboard-response","94","83721","0.0-6.0-1.44","","1412","","trustrating_stim/white_00577_940928_fa_edt.bmp","5","","","","","","","","","","",""
"","","","ratingFB","5d9303bbc400a90018821b13","bdp_trlrn","Mon Mar 13 2023 00:02:02 GMT-0400 (Eastern Daylight Time)","453709","Untrustworthy,Trustworthy","","image-keyboard-response","95","83936","0.0-6.0-2.44","","null","","trustrating_stim/white_00577_940928_fa_edt.bmp","null","","","","","","","","","","",""
"","","","rating","5d9303bbc400a90018821b13","bdp_trlrn","Mon Mar 13 2023 00:02:02 GMT-0400 (Eastern Daylight Time)","453709","Untrustworthy,Trustworthy","","image-keyboard-response","96","85241","0.0-6.0-1.45","","1197","","trustrating_stim/white_mw066.bmp","4","","","","","","","","","","",""
"","","","ratingFB","5d9303bbc400a90018821b13","bdp_trlrn","Mon Mar 13 2023 00:02:02 GMT-0400 (Eastern Daylight Time)","453709","Untrustworthy,Trustworthy","","image-keyboard-response","97","85456","0.0-6.0-2.45","","null","","trustrating_stim/white_mw066.bmp","null","","","","","","","","","","",""
"","","","rating","5d9303bbc400a90018821b13","bdp_trlrn","Mon Mar 13 2023 00:02:02 GMT-0400 (Eastern Daylight Time)","453709","Untrustworthy,Trustworthy","","image-keyboard-response","98","87089","0.0-6.0-1.46","","1523","","trustrating_stim/white_00761_941201_fb_edt.bmp","5","","","","","","","","","","",""
"","","","ratingFB","5d9303bbc400a90018821b13","bdp_trlrn","Mon Mar 13 2023 00:02:02 GMT-0400 (Eastern Daylight Time)","453709","Untrustworthy,Trustworthy","","image-keyboard-response","99","87291","0.0-6.0-2.46","","null","","trustrating_stim/white_00761_941201_fb_edt.bmp","null","","","","","","","","","","",""
"","","","rating","5d9303bbc400a90018821b13","bdp_trlrn","Mon Mar 13 2023 00:02:02 GMT-0400 (Eastern Daylight Time)","453709","Untrustworthy,Trustworthy","","image-keyboard-response","100","88859","0.0-6.0-1.47","","1458","","trustrating_stim/white_00807_941205_fb_edt.bmp","5","","","","","","","","","","",""
"","","","ratingFB","5d9303bbc400a90018821b13","bdp_trlrn","Mon Mar 13 2023 00:02:02 GMT-0400 (Eastern Daylight Time)","453709","Untrustworthy,Trustworthy","","image-keyboard-response","101","89075","0.0-6.0-2.47","","null","","trustrating_stim/white_00807_941205_fb_edt.bmp","null","","","","","","","","","","",""
"","","","rating","5d9303bbc400a90018821b13","bdp_trlrn","Mon Mar 13 2023 00:02:02 GMT-0400 (Eastern Daylight Time)","453709","Untrustworthy,Trustworthy","","image-keyboard-response","102","89829","0.0-6.0-1.48","","645","","trustrating_stim/white_mw063.bmp","4","","","","","","","","","","",""
"","","","ratingFB","5d9303bbc400a90018821b13","bdp_trlrn","Mon Mar 13 2023 00:02:02 GMT-0400 (Eastern Daylight Time)","453709","Untrustworthy,Trustworthy","","image-keyboard-response","103","90038","0.0-6.0-2.48","","null","","trustrating_stim/white_mw063.bmp","null","","","","","","","","","","",""
"","","","rating","5d9303bbc400a90018821b13","bdp_trlrn","Mon Mar 13 2023 00:02:02 GMT-0400 (Eastern Daylight Time)","453709","Untrustworthy,Trustworthy","","image-keyboard-response","104","90709","0.0-6.0-1.49","","562","","trustrating_stim/white_mw049.bmp","7","","","","","","","","","","",""
"","","","ratingFB","5d9303bbc400a90018821b13","bdp_trlrn","Mon Mar 13 2023 00:02:02 GMT-0400 (Eastern Daylight Time)","453709","Untrustworthy,Trustworthy","","image-keyboard-response","105","90922","0.0-6.0-2.49","","null","","trustrating_stim/white_mw049.bmp","null","","","","","","","","","","",""
"","","","rating","5d9303bbc400a90018821b13","bdp_trlrn","Mon Mar 13 2023 00:02:02 GMT-0400 (Eastern Daylight Time)","453709","Untrustworthy,Trustworthy","","image-keyboard-response","106","91839","0.0-6.0-1.50","","808","","trustrating_stim/white_mw060.bmp","2","","","","","","","","","","",""
"","","","ratingFB","5d9303bbc400a90018821b13","bdp_trlrn","Mon Mar 13 2023 00:02:02 GMT-0400 (Eastern Daylight Time)","453709","Untrustworthy,Trustworthy","","image-keyboard-response","107","92041","0.0-6.0-2.50","","null","","trustrating_stim/white_mw060.bmp","null","","","","","","","","","","",""
"","","","rating","5d9303bbc400a90018821b13","bdp_trlrn","Mon Mar 13 2023 00:02:02 GMT-0400 (Eastern Daylight Time)","453709","Untrustworthy,Trustworthy","","image-keyboard-response","108","93046","0.0-6.0-1.51","","894","","trustrating_stim/white_mw099.bmp","7","","","","","","","","","","",""
"","","","ratingFB","5d9303bbc400a90018821b13","bdp_trlrn","Mon Mar 13 2023 00:02:02 GMT-0400 (Eastern Daylight Time)","453709","Untrustworthy,Trustworthy","","image-keyboard-response","109","93255","0.0-6.0-2.51","","null","","trustrating_stim/white_mw099.bmp","null","","","","","","","","","","",""
"","","","rating","5d9303bbc400a90018821b13","bdp_trlrn","Mon Mar 13 2023 00:02:02 GMT-0400 (Eastern Daylight Time)","453709","Untrustworthy,Trustworthy","","image-keyboard-response","110","94862","0.0-6.0-1.52","","1497","","trustrating_stim/white_mw035.bmp","5","","","","","","","","","","",""
"","","","ratingFB","5d9303bbc400a90018821b13","bdp_trlrn","Mon Mar 13 2023 00:02:02 GMT-0400 (Eastern Daylight Time)","453709","Untrustworthy,Trustworthy","","image-keyboard-response","111","95073","0.0-6.0-2.52","","null","","trustrating_stim/white_mw035.bmp","null","","","","","","","","","","",""
"","","","rating","5d9303bbc400a90018821b13","bdp_trlrn","Mon Mar 13 2023 00:02:02 GMT-0400 (Eastern Daylight Time)","453709","Untrustworthy,Trustworthy","","image-keyboard-response","112","96144","0.0-6.0-1.53","","962","","trustrating_stim/white_mw053.bmp","8","","","","","","","","","","",""
"","","","ratingFB","5d9303bbc400a90018821b13","bdp_trlrn","Mon Mar 13 2023 00:02:02 GMT-0400 (Eastern Daylight Time)","453709","Untrustworthy,Trustworthy","","image-keyboard-response","113","96349","0.0-6.0-2.53","","null","","trustrating_stim/white_mw053.bmp","null","","","","","","","","","","",""
"","","","rating","5d9303bbc400a90018821b13","bdp_trlrn","Mon Mar 13 2023 00:02:02 GMT-0400 (Eastern Daylight Time)","453709","Untrustworthy,Trustworthy","","image-keyboard-response","114","97417","0.0-6.0-1.54","","960","","trustrating_stim/white_00757_941201_fa_edt.bmp","4","","","","","","","","","","",""
"","","","ratingFB","5d9303bbc400a90018821b13","bdp_trlrn","Mon Mar 13 2023 00:02:02 GMT-0400 (Eastern Daylight Time)","453709","Untrustworthy,Trustworthy","","image-keyboard-response","115","97622","0.0-6.0-2.54","","null","","trustrating_stim/white_00757_941201_fa_edt.bmp","null","","","","","","","","","","",""
"","","","rating","5d9303bbc400a90018821b13","bdp_trlrn","Mon Mar 13 2023 00:02:02 GMT-0400 (Eastern Daylight Time)","453709","Untrustworthy,Trustworthy","","image-keyboard-response","116","98778","0.0-6.0-1.55","","1048","","trustrating_stim/white_00602_940928_fb_edt.bmp","8","","","","","","","","","","",""
"","","","ratingFB","5d9303bbc400a90018821b13","bdp_trlrn","Mon Mar 13 2023 00:02:02 GMT-0400 (Eastern Daylight Time)","453709","Untrustworthy,Trustworthy","","image-keyboard-response","117","98985","0.0-6.0-2.55","","null","","trustrating_stim/white_00602_940928_fb_edt.bmp","null","","","","","","","","","","",""
"","","","rating","5d9303bbc400a90018821b13","bdp_trlrn","Mon Mar 13 2023 00:02:02 GMT-0400 (Eastern Daylight Time)","453709","Untrustworthy,Trustworthy","","image-keyboard-response","118","101113","0.0-6.0-1.56","","2022","","trustrating_stim/white_mw033.bmp","5","","","","","","","","","","",""
"","","","ratingFB","5d9303bbc400a90018821b13","bdp_trlrn","Mon Mar 13 2023 00:02:02 GMT-0400 (Eastern Daylight Time)","453709","Untrustworthy,Trustworthy","","image-keyboard-response","119","101328","0.0-6.0-2.56","","null","","trustrating_stim/white_mw033.bmp","null","","","","","","","","","","",""
"","","","rating","5d9303bbc400a90018821b13","bdp_trlrn","Mon Mar 13 2023 00:02:02 GMT-0400 (Eastern Daylight Time)","453709","Untrustworthy,Trustworthy","","image-keyboard-response","120","102467","0.0-6.0-1.57","","1030","","trustrating_stim/white_mw089.bmp","4","","","","","","","","","","",""
"","","","ratingFB","5d9303bbc400a90018821b13","bdp_trlrn","Mon Mar 13 2023 00:02:02 GMT-0400 (Eastern Daylight Time)","453709","Untrustworthy,Trustworthy","","image-keyboard-response","121","102681","0.0-6.0-2.57","","null","","trustrating_stim/white_mw089.bmp","null","","","","","","","","","","",""
"","","","rating","5d9303bbc400a90018821b13","bdp_trlrn","Mon Mar 13 2023 00:02:02 GMT-0400 (Eastern Daylight Time)","453709","Untrustworthy,Trustworthy","","image-keyboard-response","122","103973","0.0-6.0-1.58","","1183","","trustrating_stim/white_00340_940422_fa_edt.bmp","1","","","","","","","","","","",""
"","","","ratingFB","5d9303bbc400a90018821b13","bdp_trlrn","Mon Mar 13 2023 00:02:02 GMT-0400 (Eastern Daylight Time)","453709","Untrustworthy,Trustworthy","","image-keyboard-response","123","104187","0.0-6.0-2.58","","null","","trustrating_stim/white_00340_940422_fa_edt.bmp","null","","","","","","","","","","",""
"","","","rating","5d9303bbc400a90018821b13","bdp_trlrn","Mon Mar 13 2023 00:02:02 GMT-0400 (Eastern Daylight Time)","453709","Untrustworthy,Trustworthy","","image-keyboard-response","124","105465","0.0-6.0-1.59","","1168","","trustrating_stim/white_mw056.bmp","4","","","","","","","","","","",""
"","","","ratingFB","5d9303bbc400a90018821b13","bdp_trlrn","Mon Mar 13 2023 00:02:02 GMT-0400 (Eastern Daylight Time)","453709","Untrustworthy,Trustworthy","","image-keyboard-response","125","105667","0.0-6.0-2.59","","null","","trustrating_stim/white_mw056.bmp","null","","","","","","","","","","",""
"","","","","5d9303bbc400a90018821b13","bdp_trlrn","Mon Mar 13 2023 00:02:02 GMT-0400 (Eastern Daylight Time)","453709","Untrustworthy,Trustworthy","","instructions","126","106461","0.0-7.0","[{""page_index"":0,""viewing_time"":686}]","686","","","","","","","","","","","","","",""
"","","","","5d9303bbc400a90018821b13","bdp_trlrn","Mon Mar 13 2023 00:02:02 GMT-0400 (Eastern Daylight Time)","453709","Untrustworthy,Trustworthy","","instructions","127","160350","0.0-8.0","[{""page_index"":0,""viewing_time"":15094},{""page_index"":1,""viewing_time"":14899},{""page_index"":2,""viewing_time"":3738},{""page_index"":3,""viewing_time"":4123},{""page_index"":4,""viewing_time"":2046},{""page_index"":5,""viewing_time"":4025},{""page_index"":6,""viewing_time"":8842},{""page_index"":7,""viewing_time"":1013}]","53780","","","","","","","","","","","","","",""
"","","","","5d9303bbc400a90018821b13","bdp_trlrn","Mon Mar 13 2023 00:02:02 GMT-0400 (Eastern Daylight Time)","453709","Untrustworthy,Trustworthy","","html-keyboard-response","128","162972","0.0-9.0","","2622","","<div class='header' style='text-align:left; position: absolute; top: 5%; left: 5%;'><small>Task 3 of 5</small></div><div class='instruxDiv'><p><strong>1) What is the minimum number of points you can choose to send to your partner?</strong></p><p>a) 0</p><p>b) 1</p><p>c) 5</p>","C","","","","","","","","","","",""
"","","","","5d9303bbc400a90018821b13","bdp_trlrn","Mon Mar 13 2023 00:02:02 GMT-0400 (Eastern Daylight Time)","453709","Untrustworthy,Trustworthy","","html-keyboard-response","129","165866","0.0-10.0","","2783","","<div class='header' style='text-align:left; position: absolute; top: 5%; left: 5%;'><small>Task 3 of 5</small></div><div class='instruxDiv'><p><strong>1) What is the minimum number of points you can choose to send to your partner?</strong></p><p>a) 1</p><p>b) 1</p><p style='color:#FF0000'>c) 5</p><h3 style='color:#FF0000'>Incorrect!</h3><h3 class='center-content'>The correct response is b).</h3><h3 class='center-content'>The minimum number of points you can choose to send to your partner is 1 point.</h3><p><em>Press SPACEBAR to continue</em></p></div>"," ","","","","","","","","","","",""
"","","","","5d9303bbc400a90018821b13","bdp_trlrn","Mon Mar 13 2023 00:02:02 GMT-0400 (Eastern Daylight Time)","453709","Untrustworthy,Trustworthy","","html-keyboard-response","130","167884","0.0-11.0","","1907","","<div class='header' style='text-align:left; position: absolute; top: 5%; left: 5%;'><small>Task 3 of 5</small></div><div class='instruxDiv'><p><strong>2) What is the maximum number of points you can choose to send to your partner?</strong></p><p>a) 8</p><p>b) 5</p><p>c) 3</p>","B","","","","","","","","","","",""
"","","","","5d9303bbc400a90018821b13","bdp_trlrn","Mon Mar 13 2023 00:02:02 GMT-0400 (Eastern Daylight Time)","453709","Untrustworthy,Trustworthy","","html-keyboard-response","131","168575","0.0-12.0","","583","","<div class='header' style='text-align:left; position: absolute; top: 5%; left: 5%;'><small>Task 3 of 5</small></div><div class='instruxDiv'><p><strong>2) What is the maximum number of points you can choose to send to your partner?</strong></p><p>a) 8</p><p style='color:#00FF00'>b) 5</p><p>c) 3</p><h3 style='color:#00FF00'>Correct!</h3><h3 class='center-content'>The correct response is b).</h3><h3 class='center-content'>The maximum number of points you can choose to send to your partner is 5 points.</h3><p><em>Press SPACEBAR to continue</em></p></div>"," ","","","","","","","","","","",""
"","","","","5d9303bbc400a90018821b13","bdp_trlrn","Mon Mar 13 2023 00:02:02 GMT-0400 (Eastern Daylight Time)","453709","Untrustworthy,Trustworthy","","html-keyboard-response","132","170737","0.0-13.0","","2060","","<div class='header' style='text-align:left; position: absolute; top: 5%; left: 5%;'><small>Task 3 of 5</small></div><div class='instruxDiv'><p><strong>3) What happens to the amount of points you send to your partner?</strong></p><p>a) Nothing</p><p>b) It doubles</p><p>c) It quadruples</p>","C","","","","","","","","","","",""
"","","","","5d9303bbc400a90018821b13","bdp_trlrn","Mon Mar 13 2023 00:02:02 GMT-0400 (Eastern Daylight Time)","453709","Untrustworthy,Trustworthy","","html-keyboard-response","133","171322","0.0-14.0","","480","","<div class='header' style='text-align:left; position: absolute; top: 5%; left: 5%;'><small>Task 3 of 5</small></div><div class='instruxDiv'><p><strong>3) What happens to the amount of points you send to your partner?</strong></p><p>a) Nothing</p><p>b) It doubles</p><p style='color:#00FF00'>c) It quadruples</p><h3 style='color:#00FF00'>Correct!</h3><h3 class='center-content'>The correct response is c).</h3><h3 class='center-content'>The amount of points you send to your partner quadruples.</h3><p><em>Press SPACEBAR to continue</em></p></div>"," ","","","","","","","","","","",""
"","","","","5d9303bbc400a90018821b13","bdp_trlrn","Mon Mar 13 2023 00:02:02 GMT-0400 (Eastern Daylight Time)","453709","Untrustworthy,Trustworthy","","html-keyboard-response","134","180927","0.0-15.0","","9498","","<div class='header' style='text-align:left; position: absolute; top: 5%; left: 5%;'><small>Task 3 of 5</small></div><div class='instruxDiv'><p><strong>4) If you decided to share 4 out of 5 points with your partner, and they decided to share half of the amount they received with you, how many points would you receive back from them on this round?</strong></p><p>a) 16</p><p>b) 0</p><p>c) 8</p>","C","","","","","","","","","","",""
"","","","","5d9303bbc400a90018821b13","bdp_trlrn","Mon Mar 13 2023 00:02:02 GMT-0400 (Eastern Daylight Time)","453709","Untrustworthy,Trustworthy","","html-keyboard-response","135","181940","0.0-16.0","","912","","<div class='header' style='text-align:left; position: absolute; top: 5%; left: 5%;'><small>Task 3 of 5</small></div><div class='instruxDiv'><p><strong>4) If you decided to share 4 out of 5 points with your partner, and they decided to share half of the amount they received with you, how many points would you receive back from them on this round?</strong></p><p>a) 16</p><p>b) 0</p><p style='color:#00FF00'>c) 8</p><h3 style='color:#00FF00'>Correct!</h3><h3 class='center-content'>The correct response is c).</h3><h3 class='center-content'>If you shared 4 out of 5 points with your partner and they decided to share half of the amount they received with you, you would receive 8 points back (i.e. (4 x 4)/2 = 8).</h3><p><em>Press SPACEBAR to continue</em></p></div>"," ","","","","","","","","","","",""
"","","","","5d9303bbc400a90018821b13","bdp_trlrn","Mon Mar 13 2023 00:02:02 GMT-0400 (Eastern Daylight Time)","453709","Untrustworthy,Trustworthy","","html-keyboard-response","136","187059","0.0-17.0","","null","","<div class='header' style='text-align:left; position: absolute; top: 5%; left: 5%;'><small>Task 3 of 5</small></div><div class='instruxDiv'><p>Thank you for completing the quiz<p>These are the actual partners you will be interacting with in the next block:<p><div class='tc' align='center'><img class='introPic' src='trustrating_stim/white_mw097.bmp'><br><strong>Michael</strong></div><div class='bl' align='center'><img class='introPic' src='trustrating_stim/white_mw033.bmp'><br><strong>Sean</strong></div><div class='br' align='center'><img class='introPic' src='trustrating_stim/white_mw053.bmp'><br><strong>Ethan</strong></div></div><p>Across <strong>66 rounds</strong> you will interact with each partner <strong>22 times</strong> (in random order).<p style='align:center; color:white'><font <em>Press SPACEBAR to continue</em></p>","null","","","","","","","","","","",""
"","","","","5d9303bbc400a90018821b13","bdp_trlrn","Mon Mar 13 2023 00:02:02 GMT-0400 (Eastern Daylight Time)","453709","Untrustworthy,Trustworthy","","instructions","137","188843","0.0-18.0","[{""page_index"":0,""viewing_time"":790},{""page_index"":1,""viewing_time"":994}]","1784","","","","","","","","","","","","","",""
"","","","decision","5d9303bbc400a90018821b13","bdp_trlrn","Mon Mar 13 2023 00:02:02 GMT-0400 (Eastern Daylight Time)","453709","Untrustworthy,Trustworthy","","html-keyboard-response","138","190659","0.0-19.0-1.0","","1703","","<div class='trialDiv'><img src='trustrating_stim/white_mw033.bmp'><br><font class='baseline'><strong>Sean</strong><p>Choose number of points to send.</font><div class='respPicDiv'><img src='img/responseButtonOffersNo0L.png' class='respPic'></div></div>","3","1","Sean","6","Shared","0.35,0.8","9","0.35","trustrating_stim/white_mw033.bmp","5.5","5","1"
"","","","decisionFB","5d9303bbc400a90018821b13","bdp_trlrn","Mon Mar 13 2023 00:02:02 GMT-0400 (Eastern Daylight Time)","453709","Untrustworthy,Trustworthy","","html-keyboard-response","139","190916","0.0-19.0-2.0","","null","","<div class='trialDiv'><img src='trustrating_stim/white_mw033.bmp'><br><font class='baseline'><strong>Sean</strong><p>Choose number of points to send.</font><div class='respPicDiv'><img src='img/responseButtonOffersNo0L3.png' class='respPic'></div></div>","null","1","Sean","6","Shared","0.35,0.8","9","0.35","trustrating_stim/white_mw033.bmp","5.5","2","1"
"","","","feedback","5d9303bbc400a90018821b13","bdp_trlrn","Mon Mar 13 2023 00:02:02 GMT-0400 (Eastern Daylight Time)","453709","Untrustworthy,Trustworthy","","html-keyboard-response","140","191926","0.0-19.0-3.0","","null","","<div class='trialDiv'><img src='trustrating_stim/white_mw033.bmp'><br><font class='baseline'><strong>Sean</strong><p>Received: <strong>12</strong></font> &nbsp; &nbsp; &nbsp; &nbsp; &nbsp; &nbsp;<font class='posOutcome'>Shared back: <strong>6</strong></font></font><div class='respPicDiv'><img src='img/responseButtonOffersNo0_wht.png' class='respPic'></div></div>","null","1","Sean","6","Shared","0.35,0.8","9","0.35","trustrating_stim/white_mw033.bmp","5.5","8","1"
"","","","decision","5d9303bbc400a90018821b13","bdp_trlrn","Mon Mar 13 2023 00:02:02 GMT-0400 (Eastern Daylight Time)","453709","Untrustworthy,Trustworthy","","html-keyboard-response","141","193349","0.0-19.0-1.1","","1422","","<div class='trialDiv'><img src='trustrating_stim/white_mw053.bmp'><br><font class='baseline'><strong>Ethan</strong><p>Choose number of points to send.</font><div class='respPicDiv'><img src='img/responseButtonOffersNo0L.png' class='respPic'></div></div>","5","1","Ethan","9","Shared","0.8,0.35","11","0.8","trustrating_stim/white_mw053.bmp","8.5","13","2"
"","","","decisionFB","5d9303bbc400a90018821b13","bdp_trlrn","Mon Mar 13 2023 00:02:02 GMT-0400 (Eastern Daylight Time)","453709","Untrustworthy,Trustworthy","","html-keyboard-response","142","193608","0.0-19.0-2.1","","null","","<div class='trialDiv'><img src='trustrating_stim/white_mw053.bmp'><br><font class='baseline'><strong>Ethan</strong><p>Choose number of points to send.</font><div class='respPicDiv'><img src='img/responseButtonOffersNo0L5.png' class='respPic'></div></div>","null","1","Ethan","9","Shared","0.8,0.35","11","0.8","trustrating_stim/white_mw053.bmp","8.5","8","2"
"","","","feedback","5d9303bbc400a90018821b13","bdp_trlrn","Mon Mar 13 2023 00:02:02 GMT-0400 (Eastern Daylight Time)","453709","Untrustworthy,Trustworthy","","html-keyboard-response","143","194617","0.0-19.0-3.1","","null","","<div class='trialDiv'><img src='trustrating_stim/white_mw053.bmp'><br><font class='baseline'><strong>Ethan</strong><p>Received: <strong>20</strong></font> &nbsp; &nbsp; &nbsp; &nbsp; &nbsp; &nbsp;<font class='posOutcome'>Shared back: <strong>10</strong></font></font><div class='respPicDiv'><img src='img/responseButtonOffersNo0_wht.png' class='respPic'></div></div>","null","1","Ethan","9","Shared","0.8,0.35","11","0.8","trustrating_stim/white_mw053.bmp","8.5","18","2"
"","","","decision","5d9303bbc400a90018821b13","bdp_trlrn","Mon Mar 13 2023 00:02:02 GMT-0400 (Eastern Daylight Time)","453709","Untrustworthy,Trustworthy","","html-keyboard-response","144","195307","0.0-19.0-1.2","","689","","<div class='trialDiv'><img src='trustrating_stim/white_mw097.bmp'><br><font class='baseline'><strong>Michael</strong><p>Choose number of points to send.</font><div class='respPicDiv'><img src='img/responseButtonOffersNo0L.png' class='respPic'></div></div>","1","1","Michael","2","Kept","0.35,0.65","13","0.35","trustrating_stim/white_mw097.bmp","1.5","23","3"
"","","","decisionFB","5d9303bbc400a90018821b13","bdp_trlrn","Mon Mar 13 2023 00:02:02 GMT-0400 (Eastern Daylight Time)","453709","Untrustworthy,Trustworthy","","html-keyboard-response","145","195567","0.0-19.0-2.2","","null","","<div class='trialDiv'><img src='trustrating_stim/white_mw097.bmp'><br><font class='baseline'><strong>Michael</strong><p>Choose number of points to send.</font><div class='respPicDiv'><img src='img/responseButtonOffersNo0L1.png' class='respPic'></div></div>","null","1","Michael","2","Kept","0.35,0.65","13","0.35","trustrating_stim/white_mw097.bmp","1.5","22","3"
"","","","feedback","5d9303bbc400a90018821b13","bdp_trlrn","Mon Mar 13 2023 00:02:02 GMT-0400 (Eastern Daylight Time)","453709","Untrustworthy,Trustworthy","","html-keyboard-response","146","196573","0.0-19.0-3.2","","null","","<div class='trialDiv'><img src='trustrating_stim/white_mw097.bmp'><br><font class='baseline'><strong>Michael</strong><p>Received: <strong>4</strong></font> &nbsp; &nbsp; &nbsp; &nbsp; &nbsp; &nbsp;<font class='negOutcome'>Shared back: <strong>0</strong></font></font><div class='respPicDiv'><img src='img/responseButtonOffersNo0_wht.png' class='respPic'></div></div>","null","1","Michael","2","Kept","0.35,0.65","13","0.35","trustrating_stim/white_mw097.bmp","1.5","22","3"
"","","","decision","5d9303bbc400a90018821b13","bdp_trlrn","Mon Mar 13 2023 00:02:02 GMT-0400 (Eastern Daylight Time)","453709","Untrustworthy,Trustworthy","","html-keyboard-response","147","197418","0.0-19.0-1.3","","844","","<div class='trialDiv'><img src='trustrating_stim/white_mw053.bmp'><br><font class='baseline'><strong>Ethan</strong><p>Choose number of points to send.</font><div class='respPicDiv'><img src='img/responseButtonOffersNo0L.png' class='respPic'></div></div>","5","2","Ethan","9","Shared","0.8,0.35","11","0.8","trustrating_stim/white_mw053.bmp","8.5","27","4"
"","","","decisionFB","5d9303bbc400a90018821b13","bdp_trlrn","Mon Mar 13 2023 00:02:02 GMT-0400 (Eastern Daylight Time)","453709","Untrustworthy,Trustworthy","","html-keyboard-response","148","197677","0.0-19.0-2.3","","null","","<div class='trialDiv'><img src='trustrating_stim/white_mw053.bmp'><br><font class='baseline'><strong>Ethan</strong><p>Choose number of points to send.</font><div class='respPicDiv'><img src='img/responseButtonOffersNo0L5.png' class='respPic'></div></div>","null","2","Ethan","9","Shared","0.8,0.35","11","0.8","trustrating_stim/white_mw053.bmp","8.5","22","4"
"","","","feedback","5d9303bbc400a90018821b13","bdp_trlrn","Mon Mar 13 2023 00:02:02 GMT-0400 (Eastern Daylight Time)","453709","Untrustworthy,Trustworthy","","html-keyboard-response","149","198692","0.0-19.0-3.3","","null","","<div class='trialDiv'><img src='trustrating_stim/white_mw053.bmp'><br><font class='baseline'><strong>Ethan</strong><p>Received: <strong>20</strong></font> &nbsp; &nbsp; &nbsp; &nbsp; &nbsp; &nbsp;<font class='posOutcome'>Shared back: <strong>10</strong></font></font><div class='respPicDiv'><img src='img/responseButtonOffersNo0_wht.png' class='respPic'></div></div>","null","2","Ethan","9","Shared","0.8,0.35","11","0.8","trustrating_stim/white_mw053.bmp","8.5","32","4"
"","","","decision","5d9303bbc400a90018821b13","bdp_trlrn","Mon Mar 13 2023 00:02:02 GMT-0400 (Eastern Daylight Time)","453709","Untrustworthy,Trustworthy","","html-keyboard-response","150","199422","0.0-19.0-1.4","","729","","<div class='trialDiv'><img src='trustrating_stim/white_mw033.bmp'><br><font class='baseline'><strong>Sean</strong><p>Choose number of points to send.</font><div class='respPicDiv'><img src='img/responseButtonOffersNo0L.png' class='respPic'></div></div>","3","2","Sean","6","Kept","0.35,0.8","9","0.35","trustrating_stim/white_mw033.bmp","5.5","37","5"
"","","","decisionFB","5d9303bbc400a90018821b13","bdp_trlrn","Mon Mar 13 2023 00:02:02 GMT-0400 (Eastern Daylight Time)","453709","Untrustworthy,Trustworthy","","html-keyboard-response","151","199686","0.0-19.0-2.4","","null","","<div class='trialDiv'><img src='trustrating_stim/white_mw033.bmp'><br><font class='baseline'><strong>Sean</strong><p>Choose number of points to send.</font><div class='respPicDiv'><img src='img/responseButtonOffersNo0L3.png' class='respPic'></div></div>","null","2","Sean","6","Kept","0.35,0.8","9","0.35","trustrating_stim/white_mw033.bmp","5.5","34","5"
"","","","feedback","5d9303bbc400a90018821b13","bdp_trlrn","Mon Mar 13 2023 00:02:02 GMT-0400 (Eastern Daylight Time)","453709","Untrustworthy,Trustworthy","","html-keyboard-response","152","200693","0.0-19.0-3.4","","null","","<div class='trialDiv'><img src='trustrating_stim/white_mw033.bmp'><br><font class='baseline'><strong>Sean</strong><p>Received: <strong>12</strong></font> &nbsp; &nbsp; &nbsp; &nbsp; &nbsp; &nbsp;<font class='negOutcome'>Shared back: <strong>0</strong></font></font><div class='respPicDiv'><img src='img/responseButtonOffersNo0_wht.png' class='respPic'></div></div>","null","2","Sean","6","Kept","0.35,0.8","9","0.35","trustrating_stim/white_mw033.bmp","5.5","34","5"
"","","","decision","5d9303bbc400a90018821b13","bdp_trlrn","Mon Mar 13 2023 00:02:02 GMT-0400 (Eastern Daylight Time)","453709","Untrustworthy,Trustworthy","","html-keyboard-response","153","201414","0.0-19.0-1.5","","721","","<div class='trialDiv'><img src='trustrating_stim/white_mw097.bmp'><br><font class='baseline'><strong>Michael</strong><p>Choose number of points to send.</font><div class='respPicDiv'><img src='img/responseButtonOffersNo0L.png' class='respPic'></div></div>","1","2","Michael","2","Shared","0.35,0.65","13","0.35","trustrating_stim/white_mw097.bmp","1.5","39","6"
"","","","decisionFB","5d9303bbc400a90018821b13","bdp_trlrn","Mon Mar 13 2023 00:02:02 GMT-0400 (Eastern Daylight Time)","453709","Untrustworthy,Trustworthy","","html-keyboard-response","154","201670","0.0-19.0-2.5","","null","","<div class='trialDiv'><img src='trustrating_stim/white_mw097.bmp'><br><font class='baseline'><strong>Michael</strong><p>Choose number of points to send.</font><div class='respPicDiv'><img src='img/responseButtonOffersNo0L1.png' class='respPic'></div></div>","null","2","Michael","2","Shared","0.35,0.65","13","0.35","trustrating_stim/white_mw097.bmp","1.5","38","6"
"","","","feedback","5d9303bbc400a90018821b13","bdp_trlrn","Mon Mar 13 2023 00:02:02 GMT-0400 (Eastern Daylight Time)","453709","Untrustworthy,Trustworthy","","html-keyboard-response","155","202678","0.0-19.0-3.5","","null","","<div class='trialDiv'><img src='trustrating_stim/white_mw097.bmp'><br><font class='baseline'><strong>Michael</strong><p>Received: <strong>4</strong></font> &nbsp; &nbsp; &nbsp; &nbsp; &nbsp; &nbsp;<font class='posOutcome'>Shared back: <strong>2</strong></font></font><div class='respPicDiv'><img src='img/responseButtonOffersNo0_wht.png' class='respPic'></div></div>","null","2","Michael","2","Shared","0.35,0.65","13","0.35","trustrating_stim/white_mw097.bmp","1.5","40","6"
"","","","decision","5d9303bbc400a90018821b13","bdp_trlrn","Mon Mar 13 2023 00:02:02 GMT-0400 (Eastern Daylight Time)","453709","Untrustworthy,Trustworthy","","html-keyboard-response","156","203451","0.0-19.0-1.6","","773","","<div class='trialDiv'><img src='trustrating_stim/white_mw033.bmp'><br><font class='baseline'><strong>Sean</strong><p>Choose number of points to send.</font><div class='respPicDiv'><img src='img/responseButtonOffersNo0L.png' class='respPic'></div></div>","3","3","Sean","6","Kept","0.35,0.8","9","0.35","trustrating_stim/white_mw033.bmp","5.5","45","7"
"","","","decisionFB","5d9303bbc400a90018821b13","bdp_trlrn","Mon Mar 13 2023 00:02:02 GMT-0400 (Eastern Daylight Time)","453709","Untrustworthy,Trustworthy","","html-keyboard-response","157","203710","0.0-19.0-2.6","","null","","<div class='trialDiv'><img src='trustrating_stim/white_mw033.bmp'><br><font class='baseline'><strong>Sean</strong><p>Choose number of points to send.</font><div class='respPicDiv'><img src='img/responseButtonOffersNo0L3.png' class='respPic'></div></div>","null","3","Sean","6","Kept","0.35,0.8","9","0.35","trustrating_stim/white_mw033.bmp","5.5","42","7"
"","","","feedback","5d9303bbc400a90018821b13","bdp_trlrn","Mon Mar 13 2023 00:02:02 GMT-0400 (Eastern Daylight Time)","453709","Untrustworthy,Trustworthy","","html-keyboard-response","158","204721","0.0-19.0-3.6","","null","","<div class='trialDiv'><img src='trustrating_stim/white_mw033.bmp'><br><font class='baseline'><strong>Sean</strong><p>Received: <strong>12</strong></font> &nbsp; &nbsp; &nbsp; &nbsp; &nbsp; &nbsp;<font class='negOutcome'>Shared back: <strong>0</strong></font></font><div class='respPicDiv'><img src='img/responseButtonOffersNo0_wht.png' class='respPic'></div></div>","null","3","Sean","6","Kept","0.35,0.8","9","0.35","trustrating_stim/white_mw033.bmp","5.5","42","7"
"","","","decision","5d9303bbc400a90018821b13","bdp_trlrn","Mon Mar 13 2023 00:02:02 GMT-0400 (Eastern Daylight Time)","453709","Untrustworthy,Trustworthy","","html-keyboard-response","159","205114","0.0-19.0-1.7","","392","","<div class='trialDiv'><img src='trustrating_stim/white_mw053.bmp'><br><font class='baseline'><strong>Ethan</strong><p>Choose number of points to send.</font><div class='respPicDiv'><img src='img/responseButtonOffersNo0L.png' class='respPic'></div></div>","5","3","Ethan","9","Shared","0.8,0.35","11","0.8","trustrating_stim/white_mw053.bmp","8.5","47","8"
"","","","decisionFB","5d9303bbc400a90018821b13","bdp_trlrn","Mon Mar 13 2023 00:02:02 GMT-0400 (Eastern Daylight Time)","453709","Untrustworthy,Trustworthy","","html-keyboard-response","160","205377","0.0-19.0-2.7","","null","","<div class='trialDiv'><img src='trustrating_stim/white_mw053.bmp'><br><font class='baseline'><strong>Ethan</strong><p>Choose number of points to send.</font><div class='respPicDiv'><img src='img/responseButtonOffersNo0L5.png' class='respPic'></div></div>","null","3","Ethan","9","Shared","0.8,0.35","11","0.8","trustrating_stim/white_mw053.bmp","8.5","42","8"
"","","","feedback","5d9303bbc400a90018821b13","bdp_trlrn","Mon Mar 13 2023 00:02:02 GMT-0400 (Eastern Daylight Time)","453709","Untrustworthy,Trustworthy","","html-keyboard-response","161","206380","0.0-19.0-3.7","","null","","<div class='trialDiv'><img src='trustrating_stim/white_mw053.bmp'><br><font class='baseline'><strong>Ethan</strong><p>Received: <strong>20</strong></font> &nbsp; &nbsp; &nbsp; &nbsp; &nbsp; &nbsp;<font class='posOutcome'>Shared back: <strong>10</strong></font></font><div class='respPicDiv'><img src='img/responseButtonOffersNo0_wht.png' class='respPic'></div></div>","null","3","Ethan","9","Shared","0.8,0.35","11","0.8","trustrating_stim/white_mw053.bmp","8.5","52","8"
"","","","decision","5d9303bbc400a90018821b13","bdp_trlrn","Mon Mar 13 2023 00:02:02 GMT-0400 (Eastern Daylight Time)","453709","Untrustworthy,Trustworthy","","html-keyboard-response","162","206969","0.0-19.0-1.8","","589","","<div class='trialDiv'><img src='trustrating_stim/white_mw097.bmp'><br><font class='baseline'><strong>Michael</strong><p>Choose number of points to send.</font><div class='respPicDiv'><img src='img/responseButtonOffersNo0L.png' class='respPic'></div></div>","1","3","Michael","2","Kept","0.35,0.65","13","0.35","trustrating_stim/white_mw097.bmp","1.5","57","9"
"","","","decisionFB","5d9303bbc400a90018821b13","bdp_trlrn","Mon Mar 13 2023 00:02:02 GMT-0400 (Eastern Daylight Time)","453709","Untrustworthy,Trustworthy","","html-keyboard-response","163","207233","0.0-19.0-2.8","","null","","<div class='trialDiv'><img src='trustrating_stim/white_mw097.bmp'><br><font class='baseline'><strong>Michael</strong><p>Choose number of points to send.</font><div class='respPicDiv'><img src='img/responseButtonOffersNo0L1.png' class='respPic'></div></div>","null","3","Michael","2","Kept","0.35,0.65","13","0.35","trustrating_stim/white_mw097.bmp","1.5","56","9"
"","","","feedback","5d9303bbc400a90018821b13","bdp_trlrn","Mon Mar 13 2023 00:02:02 GMT-0400 (Eastern Daylight Time)","453709","Untrustworthy,Trustworthy","","html-keyboard-response","164","208242","0.0-19.0-3.8","","null","","<div class='trialDiv'><img src='trustrating_stim/white_mw097.bmp'><br><font class='baseline'><strong>Michael</strong><p>Received: <strong>4</strong></font> &nbsp; &nbsp; &nbsp; &nbsp; &nbsp; &nbsp;<font class='negOutcome'>Shared back: <strong>0</strong></font></font><div class='respPicDiv'><img src='img/responseButtonOffersNo0_wht.png' class='respPic'></div></div>","null","3","Michael","2","Kept","0.35,0.65","13","0.35","trustrating_stim/white_mw097.bmp","1.5","56","9"
"","","","decision","5d9303bbc400a90018821b13","bdp_trlrn","Mon Mar 13 2023 00:02:02 GMT-0400 (Eastern Daylight Time)","453709","Untrustworthy,Trustworthy","","html-keyboard-response","165","208724","0.0-19.0-1.9","","482","","<div class='trialDiv'><img src='trustrating_stim/white_mw033.bmp'><br><font class='baseline'><strong>Sean</strong><p>Choose number of points to send.</font><div class='respPicDiv'><img src='img/responseButtonOffersNo0L.png' class='respPic'></div></div>","3","4","Sean","6","Shared","0.35,0.8","9","0.35","trustrating_stim/white_mw033.bmp","5.5","61","10"
"","","","decisionFB","5d9303bbc400a90018821b13","bdp_trlrn","Mon Mar 13 2023 00:02:02 GMT-0400 (Eastern Daylight Time)","453709","Untrustworthy,Trustworthy","","html-keyboard-response","166","208987","0.0-19.0-2.9","","null","","<div class='trialDiv'><img src='trustrating_stim/white_mw033.bmp'><br><font class='baseline'><strong>Sean</strong><p>Choose number of points to send.</font><div class='respPicDiv'><img src='img/responseButtonOffersNo0L3.png' class='respPic'></div></div>","null","4","Sean","6","Shared","0.35,0.8","9","0.35","trustrating_stim/white_mw033.bmp","5.5","58","10"
"","","","feedback","5d9303bbc400a90018821b13","bdp_trlrn","Mon Mar 13 2023 00:02:02 GMT-0400 (Eastern Daylight Time)","453709","Untrustworthy,Trustworthy","","html-keyboard-response","167","209998","0.0-19.0-3.9","","null","","<div class='trialDiv'><img src='trustrating_stim/white_mw033.bmp'><br><font class='baseline'><strong>Sean</strong><p>Received: <strong>12</strong></font> &nbsp; &nbsp; &nbsp; &nbsp; &nbsp; &nbsp;<font class='posOutcome'>Shared back: <strong>6</strong></font></font><div class='respPicDiv'><img src='img/responseButtonOffersNo0_wht.png' class='respPic'></div></div>","null","4","Sean","6","Shared","0.35,0.8","9","0.35","trustrating_stim/white_mw033.bmp","5.5","64","10"
"","","","decision","5d9303bbc400a90018821b13","bdp_trlrn","Mon Mar 13 2023 00:02:02 GMT-0400 (Eastern Daylight Time)","453709","Untrustworthy,Trustworthy","","html-keyboard-response","168","210324","0.0-19.0-1.10","","325","","<div class='trialDiv'><img src='trustrating_stim/white_mw053.bmp'><br><font class='baseline'><strong>Ethan</strong><p>Choose number of points to send.</font><div class='respPicDiv'><img src='img/responseButtonOffersNo0L.png' class='respPic'></div></div>","5","4","Ethan","9","Shared","0.8,0.35","11","0.8","trustrating_stim/white_mw053.bmp","8.5","69","11"
"","","","decisionFB","5d9303bbc400a90018821b13","bdp_trlrn","Mon Mar 13 2023 00:02:02 GMT-0400 (Eastern Daylight Time)","453709","Untrustworthy,Trustworthy","","html-keyboard-response","169","210587","0.0-19.0-2.10","","null","","<div class='trialDiv'><img src='trustrating_stim/white_mw053.bmp'><br><font class='baseline'><strong>Ethan</strong><p>Choose number of points to send.</font><div class='respPicDiv'><img src='img/responseButtonOffersNo0L5.png' class='respPic'></div></div>","null","4","Ethan","9","Shared","0.8,0.35","11","0.8","trustrating_stim/white_mw053.bmp","8.5","64","11"
"","","","feedback","5d9303bbc400a90018821b13","bdp_trlrn","Mon Mar 13 2023 00:02:02 GMT-0400 (Eastern Daylight Time)","453709","Untrustworthy,Trustworthy","","html-keyboard-response","170","211598","0.0-19.0-3.10","","null","","<div class='trialDiv'><img src='trustrating_stim/white_mw053.bmp'><br><font class='baseline'><strong>Ethan</strong><p>Received: <strong>20</strong></font> &nbsp; &nbsp; &nbsp; &nbsp; &nbsp; &nbsp;<font class='posOutcome'>Shared back: <strong>10</strong></font></font><div class='respPicDiv'><img src='img/responseButtonOffersNo0_wht.png' class='respPic'></div></div>","null","4","Ethan","9","Shared","0.8,0.35","11","0.8","trustrating_stim/white_mw053.bmp","8.5","74","11"
"","","","decision","5d9303bbc400a90018821b13","bdp_trlrn","Mon Mar 13 2023 00:02:02 GMT-0400 (Eastern Daylight Time)","453709","Untrustworthy,Trustworthy","","html-keyboard-response","171","212166","0.0-19.0-1.11","","567","","<div class='trialDiv'><img src='trustrating_stim/white_mw097.bmp'><br><font class='baseline'><strong>Michael</strong><p>Choose number of points to send.</font><div class='respPicDiv'><img src='img/responseButtonOffersNo0L.png' class='respPic'></div></div>","1","4","Michael","2","Shared","0.35,0.65","13","0.35","trustrating_stim/white_mw097.bmp","1.5","79","12"
"","","","decisionFB","5d9303bbc400a90018821b13","bdp_trlrn","Mon Mar 13 2023 00:02:02 GMT-0400 (Eastern Daylight Time)","453709","Untrustworthy,Trustworthy","","html-keyboard-response","172","212418","0.0-19.0-2.11","","null","","<div class='trialDiv'><img src='trustrating_stim/white_mw097.bmp'><br><font class='baseline'><strong>Michael</strong><p>Choose number of points to send.</font><div class='respPicDiv'><img src='img/responseButtonOffersNo0L1.png' class='respPic'></div></div>","null","4","Michael","2","Shared","0.35,0.65","13","0.35","trustrating_stim/white_mw097.bmp","1.5","78","12"
"","","","feedback","5d9303bbc400a90018821b13","bdp_trlrn","Mon Mar 13 2023 00:02:02 GMT-0400 (Eastern Daylight Time)","453709","Untrustworthy,Trustworthy","","html-keyboard-response","173","213429","0.0-19.0-3.11","","null","","<div class='trialDiv'><img src='trustrating_stim/white_mw097.bmp'><br><font class='baseline'><strong>Michael</strong><p>Received: <strong>4</strong></font> &nbsp; &nbsp; &nbsp; &nbsp; &nbsp; &nbsp;<font class='posOutcome'>Shared back: <strong>2</strong></font></font><div class='respPicDiv'><img src='img/responseButtonOffersNo0_wht.png' class='respPic'></div></div>","null","4","Michael","2","Shared","0.35,0.65","13","0.35","trustrating_stim/white_mw097.bmp","1.5","80","12"
"","","","decision","5d9303bbc400a90018821b13","bdp_trlrn","Mon Mar 13 2023 00:02:02 GMT-0400 (Eastern Daylight Time)","453709","Untrustworthy,Trustworthy","","html-keyboard-response","174","213913","0.0-19.0-1.12","","484","","<div class='trialDiv'><img src='trustrating_stim/white_mw033.bmp'><br><font class='baseline'><strong>Sean</strong><p>Choose number of points to send.</font><div class='respPicDiv'><img src='img/responseButtonOffersNo0L.png' class='respPic'></div></div>","3","5","Sean","6","Kept","0.35,0.8","9","0.35","trustrating_stim/white_mw033.bmp","5.5","85","13"
"","","","decisionFB","5d9303bbc400a90018821b13","bdp_trlrn","Mon Mar 13 2023 00:02:02 GMT-0400 (Eastern Daylight Time)","453709","Untrustworthy,Trustworthy","","html-keyboard-response","175","214173","0.0-19.0-2.12","","null","","<div class='trialDiv'><img src='trustrating_stim/white_mw033.bmp'><br><font class='baseline'><strong>Sean</strong><p>Choose number of points to send.</font><div class='respPicDiv'><img src='img/responseButtonOffersNo0L3.png' class='respPic'></div></div>","null","5","Sean","6","Kept","0.35,0.8","9","0.35","trustrating_stim/white_mw033.bmp","5.5","82","13"
"","","","feedback","5d9303bbc400a90018821b13","bdp_trlrn","Mon Mar 13 2023 00:02:02 GMT-0400 (Eastern Daylight Time)","453709","Untrustworthy,Trustworthy","","html-keyboard-response","176","215184","0.0-19.0-3.12","","null","","<div class='trialDiv'><img src='trustrating_stim/white_mw033.bmp'><br><font class='baseline'><strong>Sean</strong><p>Received: <strong>12</strong></font> &nbsp; &nbsp; &nbsp; &nbsp; &nbsp; &nbsp;<font class='negOutcome'>Shared back: <strong>0</strong></font></font><div class='respPicDiv'><img src='img/responseButtonOffersNo0_wht.png' class='respPic'></div></div>","null","5","Sean","6","Kept","0.35,0.8","9","0.35","trustrating_stim/white_mw033.bmp","5.5","82","13"
"","","","decision","5d9303bbc400a90018821b13","bdp_trlrn","Mon Mar 13 2023 00:02:02 GMT-0400 (Eastern Daylight Time)","453709","Untrustworthy,Trustworthy","","html-keyboard-response","177","216166","0.0-19.0-1.13","","982","","<div class='trialDiv'><img src='trustrating_stim/white_mw097.bmp'><br><font class='baseline'><strong>Michael</strong><p>Choose number of points to send.</font><div class='respPicDiv'><img src='img/responseButtonOffersNo0L.png' class='respPic'></div></div>","1","5","Michael","2","Kept","0.35,0.65","13","0.35","trustrating_stim/white_mw097.bmp","1.5","87","14"
"","","","decisionFB","5d9303bbc400a90018821b13","bdp_trlrn","Mon Mar 13 2023 00:02:02 GMT-0400 (Eastern Daylight Time)","453709","Untrustworthy,Trustworthy","","html-keyboard-response","178","216431","0.0-19.0-2.13","","null","","<div class='trialDiv'><img src='trustrating_stim/white_mw097.bmp'><br><font class='baseline'><strong>Michael</strong><p>Choose number of points to send.</font><div class='respPicDiv'><img src='img/responseButtonOffersNo0L1.png' class='respPic'></div></div>","null","5","Michael","2","Kept","0.35,0.65","13","0.35","trustrating_stim/white_mw097.bmp","1.5","86","14"
"","","","feedback","5d9303bbc400a90018821b13","bdp_trlrn","Mon Mar 13 2023 00:02:02 GMT-0400 (Eastern Daylight Time)","453709","Untrustworthy,Trustworthy","","html-keyboard-response","179","217442","0.0-19.0-3.13","","null","","<div class='trialDiv'><img src='trustrating_stim/white_mw097.bmp'><br><font class='baseline'><strong>Michael</strong><p>Received: <strong>4</strong></font> &nbsp; &nbsp; &nbsp; &nbsp; &nbsp; &nbsp;<font class='negOutcome'>Shared back: <strong>0</strong></font></font><div class='respPicDiv'><img src='img/responseButtonOffersNo0_wht.png' class='respPic'></div></div>","null","5","Michael","2","Kept","0.35,0.65","13","0.35","trustrating_stim/white_mw097.bmp","1.5","86","14"
"","","","decision","5d9303bbc400a90018821b13","bdp_trlrn","Mon Mar 13 2023 00:02:02 GMT-0400 (Eastern Daylight Time)","453709","Untrustworthy,Trustworthy","","html-keyboard-response","180","218015","0.0-19.0-1.14","","572","","<div class='trialDiv'><img src='trustrating_stim/white_mw053.bmp'><br><font class='baseline'><strong>Ethan</strong><p>Choose number of points to send.</font><div class='respPicDiv'><img src='img/responseButtonOffersNo0L.png' class='respPic'></div></div>","5","5","Ethan","9","Shared","0.8,0.35","11","0.8","trustrating_stim/white_mw053.bmp","8.5","91","15"
"","","","decisionFB","5d9303bbc400a90018821b13","bdp_trlrn","Mon Mar 13 2023 00:02:02 GMT-0400 (Eastern Daylight Time)","453709","Untrustworthy,Trustworthy","","html-keyboard-response","181","218269","0.0-19.0-2.14","","null","","<div class='trialDiv'><img src='trustrating_stim/white_mw053.bmp'><br><font class='baseline'><strong>Ethan</strong><p>Choose number of points to send.</font><div class='respPicDiv'><img src='img/responseButtonOffersNo0L5.png' class='respPic'></div></div>","null","5","Ethan","9","Shared","0.8,0.35","11","0.8","trustrating_stim/white_mw053.bmp","8.5","86","15"
"","","","feedback","5d9303bbc400a90018821b13","bdp_trlrn","Mon Mar 13 2023 00:02:02 GMT-0400 (Eastern Daylight Time)","453709","Untrustworthy,Trustworthy","","html-keyboard-response","182","219281","0.0-19.0-3.14","","null","","<div class='trialDiv'><img src='trustrating_stim/white_mw053.bmp'><br><font class='baseline'><strong>Ethan</strong><p>Received: <strong>20</strong></font> &nbsp; &nbsp; &nbsp; &nbsp; &nbsp; &nbsp;<font class='posOutcome'>Shared back: <strong>10</strong></font></font><div class='respPicDiv'><img src='img/responseButtonOffersNo0_wht.png' class='respPic'></div></div>","null","5","Ethan","9","Shared","0.8,0.35","11","0.8","trustrating_stim/white_mw053.bmp","8.5","96","15"
"","","","decision","5d9303bbc400a90018821b13","bdp_trlrn","Mon Mar 13 2023 00:02:02 GMT-0400 (Eastern Daylight Time)","453709","Untrustworthy,Trustworthy","","html-keyboard-response","183","219812","0.0-19.0-1.15","","531","","<div class='trialDiv'><img src='trustrating_stim/white_mw097.bmp'><br><font class='baseline'><strong>Michael</strong><p>Choose number of points to send.</font><div class='respPicDiv'><img src='img/responseButtonOffersNo0L.png' class='respPic'></div></div>","1","6","Michael","2","Shared","0.35,0.65","13","0.35","trustrating_stim/white_mw097.bmp","1.5","101","16"
"","","","decisionFB","5d9303bbc400a90018821b13","bdp_trlrn","Mon Mar 13 2023 00:02:02 GMT-0400 (Eastern Daylight Time)","453709","Untrustworthy,Trustworthy","","html-keyboard-response","184","220073","0.0-19.0-2.15","","null","","<div class='trialDiv'><img src='trustrating_stim/white_mw097.bmp'><br><font class='baseline'><strong>Michael</strong><p>Choose number of points to send.</font><div class='respPicDiv'><img src='img/responseButtonOffersNo0L1.png' class='respPic'></div></div>","null","6","Michael","2","Shared","0.35,0.65","13","0.35","trustrating_stim/white_mw097.bmp","1.5","100","16"
"","","","feedback","5d9303bbc400a90018821b13","bdp_trlrn","Mon Mar 13 2023 00:02:02 GMT-0400 (Eastern Daylight Time)","453709","Untrustworthy,Trustworthy","","html-keyboard-response","185","221087","0.0-19.0-3.15","","null","","<div class='trialDiv'><img src='trustrating_stim/white_mw097.bmp'><br><font class='baseline'><strong>Michael</strong><p>Received: <strong>4</strong></font> &nbsp; &nbsp; &nbsp; &nbsp; &nbsp; &nbsp;<font class='posOutcome'>Shared back: <strong>2</strong></font></font><div class='respPicDiv'><img src='img/responseButtonOffersNo0_wht.png' class='respPic'></div></div>","null","6","Michael","2","Shared","0.35,0.65","13","0.35","trustrating_stim/white_mw097.bmp","1.5","102","16"
"","","","decision","5d9303bbc400a90018821b13","bdp_trlrn","Mon Mar 13 2023 00:02:02 GMT-0400 (Eastern Daylight Time)","453709","Untrustworthy,Trustworthy","","html-keyboard-response","186","221496","0.0-19.0-1.16","","408","","<div class='trialDiv'><img src='trustrating_stim/white_mw053.bmp'><br><font class='baseline'><strong>Ethan</strong><p>Choose number of points to send.</font><div class='respPicDiv'><img src='img/responseButtonOffersNo0L.png' class='respPic'></div></div>","3","6","Ethan","9","Shared","0.8,0.35","11","0.8","trustrating_stim/white_mw053.bmp","8.5","107","17"
"","","","decisionFB","5d9303bbc400a90018821b13","bdp_trlrn","Mon Mar 13 2023 00:02:02 GMT-0400 (Eastern Daylight Time)","453709","Untrustworthy,Trustworthy","","html-keyboard-response","187","221756","0.0-19.0-2.16","","null","","<div class='trialDiv'><img src='trustrating_stim/white_mw053.bmp'><br><font class='baseline'><strong>Ethan</strong><p>Choose number of points to send.</font><div class='respPicDiv'><img src='img/responseButtonOffersNo0L3.png' class='respPic'></div></div>","null","6","Ethan","9","Shared","0.8,0.35","11","0.8","trustrating_stim/white_mw053.bmp","8.5","104","17"
"","","","feedback","5d9303bbc400a90018821b13","bdp_trlrn","Mon Mar 13 2023 00:02:02 GMT-0400 (Eastern Daylight Time)","453709","Untrustworthy,Trustworthy","","html-keyboard-response","188","222769","0.0-19.0-3.16","","null","","<div class='trialDiv'><img src='trustrating_stim/white_mw053.bmp'><br><font class='baseline'><strong>Ethan</strong><p>Received: <strong>12</strong></font> &nbsp; &nbsp; &nbsp; &nbsp; &nbsp; &nbsp;<font class='posOutcome'>Shared back: <strong>6</strong></font></font><div class='respPicDiv'><img src='img/responseButtonOffersNo0_wht.png' class='respPic'></div></div>","null","6","Ethan","9","Shared","0.8,0.35","11","0.8","trustrating_stim/white_mw053.bmp","8.5","110","17"
"","","","decision","5d9303bbc400a90018821b13","bdp_trlrn","Mon Mar 13 2023 00:02:02 GMT-0400 (Eastern Daylight Time)","453709","Untrustworthy,Trustworthy","","html-keyboard-response","189","222977","0.0-19.0-1.17","","207","","<div class='trialDiv'><img src='trustrating_stim/white_mw033.bmp'><br><font class='baseline'><strong>Sean</strong><p>Choose number of points to send.</font><div class='respPicDiv'><img src='img/responseButtonOffersNo0L.png' class='respPic'></div></div>","3","6","Sean","6","Kept","0.35,0.8","9","0.35","trustrating_stim/white_mw033.bmp","5.5","115","18"
"","","","decisionFB","5d9303bbc400a90018821b13","bdp_trlrn","Mon Mar 13 2023 00:02:02 GMT-0400 (Eastern Daylight Time)","453709","Untrustworthy,Trustworthy","","html-keyboard-response","190","223234","0.0-19.0-2.17","","null","","<div class='trialDiv'><img src='trustrating_stim/white_mw033.bmp'><br><font class='baseline'><strong>Sean</strong><p>Choose number of points to send.</font><div class='respPicDiv'><img src='img/responseButtonOffersNo0L3.png' class='respPic'></div></div>","null","6","Sean","6","Kept","0.35,0.8","9","0.35","trustrating_stim/white_mw033.bmp","5.5","112","18"
"","","","feedback","5d9303bbc400a90018821b13","bdp_trlrn","Mon Mar 13 2023 00:02:02 GMT-0400 (Eastern Daylight Time)","453709","Untrustworthy,Trustworthy","","html-keyboard-response","191","224247","0.0-19.0-3.17","","null","","<div class='trialDiv'><img src='trustrating_stim/white_mw033.bmp'><br><font class='baseline'><strong>Sean</strong><p>Received: <strong>12</strong></font> &nbsp; &nbsp; &nbsp; &nbsp; &nbsp; &nbsp;<font class='negOutcome'>Shared back: <strong>0</strong></font></font><div class='respPicDiv'><img src='img/responseButtonOffersNo0_wht.png' class='respPic'></div></div>","null","6","Sean","6","Kept","0.35,0.8","9","0.35","trustrating_stim/white_mw033.bmp","5.5","112","18"
"","","","decision","5d9303bbc400a90018821b13","bdp_trlrn","Mon Mar 13 2023 00:02:02 GMT-0400 (Eastern Daylight Time)","453709","Untrustworthy,Trustworthy","","html-keyboard-response","192","224950","0.0-19.0-1.18","","703","","<div class='trialDiv'><img src='trustrating_stim/white_mw053.bmp'><br><font class='baseline'><strong>Ethan</strong><p>Choose number of points to send.</font><div class='respPicDiv'><img src='img/responseButtonOffersNo0L.png' class='respPic'></div></div>","5","7","Ethan","9","Shared","0.8,0.35","11","0.8","trustrating_stim/white_mw053.bmp","8.5","117","19"
"","","","decisionFB","5d9303bbc400a90018821b13","bdp_trlrn","Mon Mar 13 2023 00:02:02 GMT-0400 (Eastern Daylight Time)","453709","Untrustworthy,Trustworthy","","html-keyboard-response","193","225213","0.0-19.0-2.18","","null","","<div class='trialDiv'><img src='trustrating_stim/white_mw053.bmp'><br><font class='baseline'><strong>Ethan</strong><p>Choose number of points to send.</font><div class='respPicDiv'><img src='img/responseButtonOffersNo0L5.png' class='respPic'></div></div>","null","7","Ethan","9","Shared","0.8,0.35","11","0.8","trustrating_stim/white_mw053.bmp","8.5","112","19"
"","","","feedback","5d9303bbc400a90018821b13","bdp_trlrn","Mon Mar 13 2023 00:02:02 GMT-0400 (Eastern Daylight Time)","453709","Untrustworthy,Trustworthy","","html-keyboard-response","194","226226","0.0-19.0-3.18","","null","","<div class='trialDiv'><img src='trustrating_stim/white_mw053.bmp'><br><font class='baseline'><strong>Ethan</strong><p>Received: <strong>20</strong></font> &nbsp; &nbsp; &nbsp; &nbsp; &nbsp; &nbsp;<font class='posOutcome'>Shared back: <strong>10</strong></font></font><div class='respPicDiv'><img src='img/responseButtonOffersNo0_wht.png' class='respPic'></div></div>","null","7","Ethan","9","Shared","0.8,0.35","11","0.8","trustrating_stim/white_mw053.bmp","8.5","122","19"
"","","","decision","5d9303bbc400a90018821b13","bdp_trlrn","Mon Mar 13 2023 00:02:02 GMT-0400 (Eastern Daylight Time)","453709","Untrustworthy,Trustworthy","","html-keyboard-response","195","227197","0.0-19.0-1.19","","970","","<div class='trialDiv'><img src='trustrating_stim/white_mw033.bmp'><br><font class='baseline'><strong>Sean</strong><p>Choose number of points to send.</font><div class='respPicDiv'><img src='img/responseButtonOffersNo0L.png' class='respPic'></div></div>","1","7","Sean","6","Kept","0.35,0.8","9","0.35","trustrating_stim/white_mw033.bmp","5.5","127","20"
"","","","decisionFB","5d9303bbc400a90018821b13","bdp_trlrn","Mon Mar 13 2023 00:02:02 GMT-0400 (Eastern Daylight Time)","453709","Untrustworthy,Trustworthy","","html-keyboard-response","196","227453","0.0-19.0-2.19","","null","","<div class='trialDiv'><img src='trustrating_stim/white_mw033.bmp'><br><font class='baseline'><strong>Sean</strong><p>Choose number of points to send.</font><div class='respPicDiv'><img src='img/responseButtonOffersNo0L1.png' class='respPic'></div></div>","null","7","Sean","6","Kept","0.35,0.8","9","0.35","trustrating_stim/white_mw033.bmp","5.5","126","20"
"","","","feedback","5d9303bbc400a90018821b13","bdp_trlrn","Mon Mar 13 2023 00:02:02 GMT-0400 (Eastern Daylight Time)","453709","Untrustworthy,Trustworthy","","html-keyboard-response","197","228463","0.0-19.0-3.19","","null","","<div class='trialDiv'><img src='trustrating_stim/white_mw033.bmp'><br><font class='baseline'><strong>Sean</strong><p>Received: <strong>4</strong></font> &nbsp; &nbsp; &nbsp; &nbsp; &nbsp; &nbsp;<font class='negOutcome'>Shared back: <strong>0</strong></font></font><div class='respPicDiv'><img src='img/responseButtonOffersNo0_wht.png' class='respPic'></div></div>","null","7","Sean","6","Kept","0.35,0.8","9","0.35","trustrating_stim/white_mw033.bmp","5.5","126","20"
"","","","decision","5d9303bbc400a90018821b13","bdp_trlrn","Mon Mar 13 2023 00:02:02 GMT-0400 (Eastern Daylight Time)","453709","Untrustworthy,Trustworthy","","html-keyboard-response","198","228857","0.0-19.0-1.20","","394","","<div class='trialDiv'><img src='trustrating_stim/white_mw097.bmp'><br><font class='baseline'><strong>Michael</strong><p>Choose number of points to send.</font><div class='respPicDiv'><img src='img/responseButtonOffersNo0L.png' class='respPic'></div></div>","3","7","Michael","2","Shared","0.35,0.65","13","0.35","trustrating_stim/white_mw097.bmp","1.5","131","21"
"","","","decisionFB","5d9303bbc400a90018821b13","bdp_trlrn","Mon Mar 13 2023 00:02:02 GMT-0400 (Eastern Daylight Time)","453709","Untrustworthy,Trustworthy","","html-keyboard-response","199","229117","0.0-19.0-2.20","","null","","<div class='trialDiv'><img src='trustrating_stim/white_mw097.bmp'><br><font class='baseline'><strong>Michael</strong><p>Choose number of points to send.</font><div class='respPicDiv'><img src='img/responseButtonOffersNo0L3.png' class='respPic'></div></div>","null","7","Michael","2","Shared","0.35,0.65","13","0.35","trustrating_stim/white_mw097.bmp","1.5","128","21"
"","","","feedback","5d9303bbc400a90018821b13","bdp_trlrn","Mon Mar 13 2023 00:02:02 GMT-0400 (Eastern Daylight Time)","453709","Untrustworthy,Trustworthy","","html-keyboard-response","200","230125","0.0-19.0-3.20","","null","","<div class='trialDiv'><img src='trustrating_stim/white_mw097.bmp'><br><font class='baseline'><strong>Michael</strong><p>Received: <strong>12</strong></font> &nbsp; &nbsp; &nbsp; &nbsp; &nbsp; &nbsp;<font class='posOutcome'>Shared back: <strong>6</strong></font></font><div class='respPicDiv'><img src='img/responseButtonOffersNo0_wht.png' class='respPic'></div></div>","null","7","Michael","2","Shared","0.35,0.65","13","0.35","trustrating_stim/white_mw097.bmp","1.5","134","21"
"","","","decision","5d9303bbc400a90018821b13","bdp_trlrn","Mon Mar 13 2023 00:02:02 GMT-0400 (Eastern Daylight Time)","453709","Untrustworthy,Trustworthy","","html-keyboard-response","201","230664","0.0-19.0-1.21","","538","","<div class='trialDiv'><img src='trustrating_stim/white_mw033.bmp'><br><font class='baseline'><strong>Sean</strong><p>Choose number of points to send.</font><div class='respPicDiv'><img src='img/responseButtonOffersNo0L.png' class='respPic'></div></div>","1","8","Sean","6","Kept","0.35,0.8","9","0.35","trustrating_stim/white_mw033.bmp","5.5","139","22"
"","","","decisionFB","5d9303bbc400a90018821b13","bdp_trlrn","Mon Mar 13 2023 00:02:02 GMT-0400 (Eastern Daylight Time)","453709","Untrustworthy,Trustworthy","","html-keyboard-response","202","230916","0.0-19.0-2.21","","null","","<div class='trialDiv'><img src='trustrating_stim/white_mw033.bmp'><br><font class='baseline'><strong>Sean</strong><p>Choose number of points to send.</font><div class='respPicDiv'><img src='img/responseButtonOffersNo0L1.png' class='respPic'></div></div>","null","8","Sean","6","Kept","0.35,0.8","9","0.35","trustrating_stim/white_mw033.bmp","5.5","138","22"
"","","","feedback","5d9303bbc400a90018821b13","bdp_trlrn","Mon Mar 13 2023 00:02:02 GMT-0400 (Eastern Daylight Time)","453709","Untrustworthy,Trustworthy","","html-keyboard-response","203","231926","0.0-19.0-3.21","","null","","<div class='trialDiv'><img src='trustrating_stim/white_mw033.bmp'><br><font class='baseline'><strong>Sean</strong><p>Received: <strong>4</strong></font> &nbsp; &nbsp; &nbsp; &nbsp; &nbsp; &nbsp;<font class='negOutcome'>Shared back: <strong>0</strong></font></font><div class='respPicDiv'><img src='img/responseButtonOffersNo0_wht.png' class='respPic'></div></div>","null","8","Sean","6","Kept","0.35,0.8","9","0.35","trustrating_stim/white_mw033.bmp","5.5","138","22"
"","","","decision","5d9303bbc400a90018821b13","bdp_trlrn","Mon Mar 13 2023 00:02:02 GMT-0400 (Eastern Daylight Time)","453709","Untrustworthy,Trustworthy","","html-keyboard-response","204","232407","0.0-19.0-1.22","","481","","<div class='trialDiv'><img src='trustrating_stim/white_mw097.bmp'><br><font class='baseline'><strong>Michael</strong><p>Choose number of points to send.</font><div class='respPicDiv'><img src='img/responseButtonOffersNo0L.png' class='respPic'></div></div>","1","8","Michael","2","Kept","0.35,0.65","13","0.35","trustrating_stim/white_mw097.bmp","1.5","143","23"
"","","","decisionFB","5d9303bbc400a90018821b13","bdp_trlrn","Mon Mar 13 2023 00:02:02 GMT-0400 (Eastern Daylight Time)","453709","Untrustworthy,Trustworthy","","html-keyboard-response","205","232672","0.0-19.0-2.22","","null","","<div class='trialDiv'><img src='trustrating_stim/white_mw097.bmp'><br><font class='baseline'><strong>Michael</strong><p>Choose number of points to send.</font><div class='respPicDiv'><img src='img/responseButtonOffersNo0L1.png' class='respPic'></div></div>","null","8","Michael","2","Kept","0.35,0.65","13","0.35","trustrating_stim/white_mw097.bmp","1.5","142","23"
"","","","feedback","5d9303bbc400a90018821b13","bdp_trlrn","Mon Mar 13 2023 00:02:02 GMT-0400 (Eastern Daylight Time)","453709","Untrustworthy,Trustworthy","","html-keyboard-response","206","233683","0.0-19.0-3.22","","null","","<div class='trialDiv'><img src='trustrating_stim/white_mw097.bmp'><br><font class='baseline'><strong>Michael</strong><p>Received: <strong>4</strong></font> &nbsp; &nbsp; &nbsp; &nbsp; &nbsp; &nbsp;<font class='negOutcome'>Shared back: <strong>0</strong></font></font><div class='respPicDiv'><img src='img/responseButtonOffersNo0_wht.png' class='respPic'></div></div>","null","8","Michael","2","Kept","0.35,0.65","13","0.35","trustrating_stim/white_mw097.bmp","1.5","142","23"
"","","","decision","5d9303bbc400a90018821b13","bdp_trlrn","Mon Mar 13 2023 00:02:02 GMT-0400 (Eastern Daylight Time)","453709","Untrustworthy,Trustworthy","","html-keyboard-response","207","234241","0.0-19.0-1.23","","558","","<div class='trialDiv'><img src='trustrating_stim/white_mw053.bmp'><br><font class='baseline'><strong>Ethan</strong><p>Choose number of points to send.</font><div class='respPicDiv'><img src='img/responseButtonOffersNo0L.png' class='respPic'></div></div>","5","8","Ethan","9","Shared","0.8,0.35","11","0.8","trustrating_stim/white_mw053.bmp","8.5","147","24"
"","","","decisionFB","5d9303bbc400a90018821b13","bdp_trlrn","Mon Mar 13 2023 00:02:02 GMT-0400 (Eastern Daylight Time)","453709","Untrustworthy,Trustworthy","","html-keyboard-response","208","234505","0.0-19.0-2.23","","null","","<div class='trialDiv'><img src='trustrating_stim/white_mw053.bmp'><br><font class='baseline'><strong>Ethan</strong><p>Choose number of points to send.</font><div class='respPicDiv'><img src='img/responseButtonOffersNo0L5.png' class='respPic'></div></div>","null","8","Ethan","9","Shared","0.8,0.35","11","0.8","trustrating_stim/white_mw053.bmp","8.5","142","24"
"","","","feedback","5d9303bbc400a90018821b13","bdp_trlrn","Mon Mar 13 2023 00:02:02 GMT-0400 (Eastern Daylight Time)","453709","Untrustworthy,Trustworthy","","html-keyboard-response","209","235508","0.0-19.0-3.23","","null","","<div class='trialDiv'><img src='trustrating_stim/white_mw053.bmp'><br><font class='baseline'><strong>Ethan</strong><p>Received: <strong>20</strong></font> &nbsp; &nbsp; &nbsp; &nbsp; &nbsp; &nbsp;<font class='posOutcome'>Shared back: <strong>10</strong></font></font><div class='respPicDiv'><img src='img/responseButtonOffersNo0_wht.png' class='respPic'></div></div>","null","8","Ethan","9","Shared","0.8,0.35","11","0.8","trustrating_stim/white_mw053.bmp","8.5","152","24"
"","","","decision","5d9303bbc400a90018821b13","bdp_trlrn","Mon Mar 13 2023 00:02:02 GMT-0400 (Eastern Daylight Time)","453709","Untrustworthy,Trustworthy","","html-keyboard-response","210","236047","0.0-19.0-1.24","","538","","<div class='trialDiv'><img src='trustrating_stim/white_mw097.bmp'><br><font class='baseline'><strong>Michael</strong><p>Choose number of points to send.</font><div class='respPicDiv'><img src='img/responseButtonOffersNo0L.png' class='respPic'></div></div>","1","9","Michael","2","Shared","0.35,0.65","13","0.35","trustrating_stim/white_mw097.bmp","1.5","157","25"
"","","","decisionFB","5d9303bbc400a90018821b13","bdp_trlrn","Mon Mar 13 2023 00:02:02 GMT-0400 (Eastern Daylight Time)","453709","Untrustworthy,Trustworthy","","html-keyboard-response","211","236298","0.0-19.0-2.24","","null","","<div class='trialDiv'><img src='trustrating_stim/white_mw097.bmp'><br><font class='baseline'><strong>Michael</strong><p>Choose number of points to send.</font><div class='respPicDiv'><img src='img/responseButtonOffersNo0L1.png' class='respPic'></div></div>","null","9","Michael","2","Shared","0.35,0.65","13","0.35","trustrating_stim/white_mw097.bmp","1.5","156","25"
"","","","feedback","5d9303bbc400a90018821b13","bdp_trlrn","Mon Mar 13 2023 00:02:02 GMT-0400 (Eastern Daylight Time)","453709","Untrustworthy,Trustworthy","","html-keyboard-response","212","237314","0.0-19.0-3.24","","null","","<div class='trialDiv'><img src='trustrating_stim/white_mw097.bmp'><br><font class='baseline'><strong>Michael</strong><p>Received: <strong>4</strong></font> &nbsp; &nbsp; &nbsp; &nbsp; &nbsp; &nbsp;<font class='posOutcome'>Shared back: <strong>2</strong></font></font><div class='respPicDiv'><img src='img/responseButtonOffersNo0_wht.png' class='respPic'></div></div>","null","9","Michael","2","Shared","0.35,0.65","13","0.35","trustrating_stim/white_mw097.bmp","1.5","158","25"
"","","","decision","5d9303bbc400a90018821b13","bdp_trlrn","Mon Mar 13 2023 00:02:02 GMT-0400 (Eastern Daylight Time)","453709","Untrustworthy,Trustworthy","","html-keyboard-response","213","237660","0.0-19.0-1.25","","346","","<div class='trialDiv'><img src='trustrating_stim/white_mw053.bmp'><br><font class='baseline'><strong>Ethan</strong><p>Choose number of points to send.</font><div class='respPicDiv'><img src='img/responseButtonOffersNo0L.png' class='respPic'></div></div>","1","9","Ethan","9","Shared","0.8,0.35","11","0.8","trustrating_stim/white_mw053.bmp","8.5","163","26"
"","","","decisionFB","5d9303bbc400a90018821b13","bdp_trlrn","Mon Mar 13 2023 00:02:02 GMT-0400 (Eastern Daylight Time)","453709","Untrustworthy,Trustworthy","","html-keyboard-response","214","237916","0.0-19.0-2.25","","null","","<div class='trialDiv'><img src='trustrating_stim/white_mw053.bmp'><br><font class='baseline'><strong>Ethan</strong><p>Choose number of points to send.</font><div class='respPicDiv'><img src='img/responseButtonOffersNo0L1.png' class='respPic'></div></div>","null","9","Ethan","9","Shared","0.8,0.35","11","0.8","trustrating_stim/white_mw053.bmp","8.5","162","26"
"","","","feedback","5d9303bbc400a90018821b13","bdp_trlrn","Mon Mar 13 2023 00:02:02 GMT-0400 (Eastern Daylight Time)","453709","Untrustworthy,Trustworthy","","html-keyboard-response","215","238927","0.0-19.0-3.25","","null","","<div class='trialDiv'><img src='trustrating_stim/white_mw053.bmp'><br><font class='baseline'><strong>Ethan</strong><p>Received: <strong>4</strong></font> &nbsp; &nbsp; &nbsp; &nbsp; &nbsp; &nbsp;<font class='posOutcome'>Shared back: <strong>2</strong></font></font><div class='respPicDiv'><img src='img/responseButtonOffersNo0_wht.png' class='respPic'></div></div>","null","9","Ethan","9","Shared","0.8,0.35","11","0.8","trustrating_stim/white_mw053.bmp","8.5","164","26"
"","","","decision","5d9303bbc400a90018821b13","bdp_trlrn","Mon Mar 13 2023 00:02:02 GMT-0400 (Eastern Daylight Time)","453709","Untrustworthy,Trustworthy","","html-keyboard-response","216","239072","0.0-19.0-1.26","","144","","<div class='trialDiv'><img src='trustrating_stim/white_mw033.bmp'><br><font class='baseline'><strong>Sean</strong><p>Choose number of points to send.</font><div class='respPicDiv'><img src='img/responseButtonOffersNo0L.png' class='respPic'></div></div>","1","9","Sean","6","Shared","0.35,0.8","9","0.35","trustrating_stim/white_mw033.bmp","5.5","169","27"
"","","","decisionFB","5d9303bbc400a90018821b13","bdp_trlrn","Mon Mar 13 2023 00:02:02 GMT-0400 (Eastern Daylight Time)","453709","Untrustworthy,Trustworthy","","html-keyboard-response","217","239333","0.0-19.0-2.26","","null","","<div class='trialDiv'><img src='trustrating_stim/white_mw033.bmp'><br><font class='baseline'><strong>Sean</strong><p>Choose number of points to send.</font><div class='respPicDiv'><img src='img/responseButtonOffersNo0L1.png' class='respPic'></div></div>","null","9","Sean","6","Shared","0.35,0.8","9","0.35","trustrating_stim/white_mw033.bmp","5.5","168","27"
"","","","feedback","5d9303bbc400a90018821b13","bdp_trlrn","Mon Mar 13 2023 00:02:02 GMT-0400 (Eastern Daylight Time)","453709","Untrustworthy,Trustworthy","","html-keyboard-response","218","240345","0.0-19.0-3.26","","null","","<div class='trialDiv'><img src='trustrating_stim/white_mw033.bmp'><br><font class='baseline'><strong>Sean</strong><p>Received: <strong>4</strong></font> &nbsp; &nbsp; &nbsp; &nbsp; &nbsp; &nbsp;<font class='posOutcome'>Shared back: <strong>2</strong></font></font><div class='respPicDiv'><img src='img/responseButtonOffersNo0_wht.png' class='respPic'></div></div>","null","9","Sean","6","Shared","0.35,0.8","9","0.35","trustrating_stim/white_mw033.bmp","5.5","170","27"
"","","","decision","5d9303bbc400a90018821b13","bdp_trlrn","Mon Mar 13 2023 00:02:02 GMT-0400 (Eastern Daylight Time)","453709","Untrustworthy,Trustworthy","","html-keyboard-response","219","240706","0.0-19.0-1.27","","361","","<div class='trialDiv'><img src='trustrating_stim/white_mw097.bmp'><br><font class='baseline'><strong>Michael</strong><p>Choose number of points to send.</font><div class='respPicDiv'><img src='img/responseButtonOffersNo0L.png' class='respPic'></div></div>","5","10","Michael","2","Kept","0.35,0.65","13","0.35","trustrating_stim/white_mw097.bmp","1.5","175","28"
"","","","decisionFB","5d9303bbc400a90018821b13","bdp_trlrn","Mon Mar 13 2023 00:02:02 GMT-0400 (Eastern Daylight Time)","453709","Untrustworthy,Trustworthy","","html-keyboard-response","220","240969","0.0-19.0-2.27","","null","","<div class='trialDiv'><img src='trustrating_stim/white_mw097.bmp'><br><font class='baseline'><strong>Michael</strong><p>Choose number of points to send.</font><div class='respPicDiv'><img src='img/responseButtonOffersNo0L5.png' class='respPic'></div></div>","null","10","Michael","2","Kept","0.35,0.65","13","0.35","trustrating_stim/white_mw097.bmp","1.5","170","28"
