"trial_type","trial_index","time_elapsed","internal_node_id","subject_id","task","startTime","totalTime","labels","view_history","rt","event","trial","time","trialtype","success","stimulus","key_press","aground","name","faceID","outcome","agenttype","agentswpt","agentcurrpshare","face","avgRating","point_total","round"
"pavlovia","0","2","0.0-0.0","60599946259dc97d30e2001f","bdp_trlrn","Mon Mar 13 2023 19:50:32 GMT-0700 (Pacific Daylight Time)","533092","Untrustworthy,Trustworthy","","","","","","","","","","","","","","","","","","","",""
"instructions","1","1858","0.0-1.0","60599946259dc97d30e2001f","bdp_trlrn","Mon Mar 13 2023 19:50:32 GMT-0700 (Pacific Daylight Time)","533092","Untrustworthy,Trustworthy","[{""page_index"":0,""viewing_time"":1855}]","1856","","","","","","","","","","","","","","","","","",""
"","","","","60599946259dc97d30e2001f","bdp_trlrn","Mon Mar 13 2023 19:50:32 GMT-0700 (Pacific Daylight Time)","533092","Untrustworthy,Trustworthy","","","fullscreenenter","2","4897","fullscreenenter","","","","","","","","","","","","","",""
"fullscreen","2","5891","0.0-2.0","60599946259dc97d30e2001f","bdp_trlrn","Mon Mar 13 2023 19:50:32 GMT-0700 (Pacific Daylight Time)","533092","Untrustworthy,Trustworthy","","","","","","","true","","","","","","","","","","","","",""
"instructions","3","9609","0.0-4.0","60599946259dc97d30e2001f","bdp_trlrn","Mon Mar 13 2023 19:50:32 GMT-0700 (Pacific Daylight Time)","533092","Untrustworthy,Trustworthy","[{""page_index"":0,""viewing_time"":2830},{""page_index"":1,""viewing_time"":887}]","3717","","","","","","","","","","","","","","","","","",""
"instructions","4","10473","0.0-5.0","60599946259dc97d30e2001f","bdp_trlrn","Mon Mar 13 2023 19:50:32 GMT-0700 (Pacific Daylight Time)","533092","Untrustworthy,Trustworthy","[{""page_index"":0,""viewing_time"":863}]","863","","","","","","","","","","","","","","","","","",""
"image-keyboard-response","5","13009","0.0-6.0-1.0","60599946259dc97d30e2001f","bdp_trlrn","Mon Mar 13 2023 19:50:32 GMT-0700 (Pacific Daylight Time)","533092","Untrustworthy,Trustworthy","","2435","","","","rating","","trustrating_stim/white_00129_931230_fb_edt.bmp","7","","","","","","","","","","",""
"image-keyboard-response","6","13214","0.0-6.0-2.0","60599946259dc97d30e2001f","bdp_trlrn","Mon Mar 13 2023 19:50:32 GMT-0700 (Pacific Daylight Time)","533092","Untrustworthy,Trustworthy","","null","","","","ratingFB","","trustrating_stim/white_00129_931230_fb_edt.bmp","null","","","","","","","","","","",""
"image-keyboard-response","7","14793","0.0-6.0-1.1","60599946259dc97d30e2001f","bdp_trlrn","Mon Mar 13 2023 19:50:32 GMT-0700 (Pacific Daylight Time)","533092","Untrustworthy,Trustworthy","","1467","","","","rating","","trustrating_stim/white_mw035.bmp","7","","","","","","","","","","",""
"image-keyboard-response","8","15001","0.0-6.0-2.1","60599946259dc97d30e2001f","bdp_trlrn","Mon Mar 13 2023 19:50:32 GMT-0700 (Pacific Daylight Time)","533092","Untrustworthy,Trustworthy","","null","","","","ratingFB","","trustrating_stim/white_mw035.bmp","null","","","","","","","","","","",""
"image-keyboard-response","9","16225","0.0-6.0-1.2","60599946259dc97d30e2001f","bdp_trlrn","Mon Mar 13 2023 19:50:32 GMT-0700 (Pacific Daylight Time)","533092","Untrustworthy,Trustworthy","","1117","","","","rating","","trustrating_stim/white_00120_931230_fa_edt.bmp","8","","","","","","","","","","",""
"image-keyboard-response","10","16439","0.0-6.0-2.2","60599946259dc97d30e2001f","bdp_trlrn","Mon Mar 13 2023 19:50:32 GMT-0700 (Pacific Daylight Time)","533092","Untrustworthy,Trustworthy","","null","","","","ratingFB","","trustrating_stim/white_00120_931230_fa_edt.bmp","null","","","","","","","","","","",""
"image-keyboard-response","11","18121","0.0-6.0-1.3","60599946259dc97d30e2001f","bdp_trlrn","Mon Mar 13 2023 19:50:32 GMT-0700 (Pacific Daylight Time)","533092","Untrustworthy,Trustworthy","","1572","","","","rating","","trustrating_stim/white_mw089.bmp","5","","","","","","","","","","",""
"image-keyboard-response","12","18323","0.0-6.0-2.3","60599946259dc97d30e2001f","bdp_trlrn","Mon Mar 13 2023 19:50:32 GMT-0700 (Pacific Daylight Time)","533092","Untrustworthy,Trustworthy","","null","","","","ratingFB","","trustrating_stim/white_mw089.bmp","null","","","","","","","","","","",""
"image-keyboard-response","13","20034","0.0-6.0-1.4","60599946259dc97d30e2001f","bdp_trlrn","Mon Mar 13 2023 19:50:32 GMT-0700 (Pacific Daylight Time)","533092","Untrustworthy,Trustworthy","","1600","","","","rating","","trustrating_stim/white_mw097.bmp","4","","","","","","","","","","",""
"image-keyboard-response","14","20238","0.0-6.0-2.4","60599946259dc97d30e2001f","bdp_trlrn","Mon Mar 13 2023 19:50:32 GMT-0700 (Pacific Daylight Time)","533092","Untrustworthy,Trustworthy","","null","","","","ratingFB","","trustrating_stim/white_mw097.bmp","null","","","","","","","","","","",""
"image-keyboard-response","15","21857","0.0-6.0-1.5","60599946259dc97d30e2001f","bdp_trlrn","Mon Mar 13 2023 19:50:32 GMT-0700 (Pacific Daylight Time)","533092","Untrustworthy,Trustworthy","","1507","","","","rating","","trustrating_stim/white_mw071.bmp","7","","","","","","","","","","",""
"image-keyboard-response","16","22070","0.0-6.0-2.5","60599946259dc97d30e2001f","bdp_trlrn","Mon Mar 13 2023 19:50:32 GMT-0700 (Pacific Daylight Time)","533092","Untrustworthy,Trustworthy","","null","","","","ratingFB","","trustrating_stim/white_mw071.bmp","null","","","","","","","","","","",""
"image-keyboard-response","17","24105","0.0-6.0-1.6","60599946259dc97d30e2001f","bdp_trlrn","Mon Mar 13 2023 19:50:32 GMT-0700 (Pacific Daylight Time)","533092","Untrustworthy,Trustworthy","","1923","","","","rating","","trustrating_stim/white_mw063.bmp","6","","","","","","","","","","",""
"image-keyboard-response","18","24307","0.0-6.0-2.6","60599946259dc97d30e2001f","bdp_trlrn","Mon Mar 13 2023 19:50:32 GMT-0700 (Pacific Daylight Time)","533092","Untrustworthy,Trustworthy","","null","","","","ratingFB","","trustrating_stim/white_mw063.bmp","null","","","","","","","","","","",""
"image-keyboard-response","19","26377","0.0-6.0-1.7","60599946259dc97d30e2001f","bdp_trlrn","Mon Mar 13 2023 19:50:32 GMT-0700 (Pacific Daylight Time)","533092","Untrustworthy,Trustworthy","","1960","","","","rating","","trustrating_stim/white_mw084.bmp","8","","","","","","","","","","",""
"image-keyboard-response","20","26582","0.0-6.0-2.7","60599946259dc97d30e2001f","bdp_trlrn","Mon Mar 13 2023 19:50:32 GMT-0700 (Pacific Daylight Time)","533092","Untrustworthy,Trustworthy","","null","","","","ratingFB","","trustrating_stim/white_mw084.bmp","null","","","","","","","","","","",""
"image-keyboard-response","21","27817","0.0-6.0-1.8","60599946259dc97d30e2001f","bdp_trlrn","Mon Mar 13 2023 19:50:32 GMT-0700 (Pacific Daylight Time)","533092","Untrustworthy,Trustworthy","","1134","","","","rating","","trustrating_stim/white_mw066.bmp","7","","","","","","","","","","",""
"image-keyboard-response","22","28027","0.0-6.0-2.8","60599946259dc97d30e2001f","bdp_trlrn","Mon Mar 13 2023 19:50:32 GMT-0700 (Pacific Daylight Time)","533092","Untrustworthy,Trustworthy","","null","","","","ratingFB","","trustrating_stim/white_mw066.bmp","null","","","","","","","","","","",""
"image-keyboard-response","23","31322","0.0-6.0-1.9","60599946259dc97d30e2001f","bdp_trlrn","Mon Mar 13 2023 19:50:32 GMT-0700 (Pacific Daylight Time)","533092","Untrustworthy,Trustworthy","","3185","","","","rating","","trustrating_stim/white_mw099.bmp","6","","","","","","","","","","",""
"image-keyboard-response","24","31523","0.0-6.0-2.9","60599946259dc97d30e2001f","bdp_trlrn","Mon Mar 13 2023 19:50:32 GMT-0700 (Pacific Daylight Time)","533092","Untrustworthy,Trustworthy","","null","","","","ratingFB","","trustrating_stim/white_mw099.bmp","null","","","","","","","","","","",""
"image-keyboard-response","25","33257","0.0-6.0-1.10","60599946259dc97d30e2001f","bdp_trlrn","Mon Mar 13 2023 19:50:32 GMT-0700 (Pacific Daylight Time)","533092","Untrustworthy,Trustworthy","","1632","","","","rating","","trustrating_stim/white_mw060.bmp","3","","","","","","","","","","",""
"image-keyboard-response","26","33458","0.0-6.0-2.10","60599946259dc97d30e2001f","bdp_trlrn","Mon Mar 13 2023 19:50:32 GMT-0700 (Pacific Daylight Time)","533092","Untrustworthy,Trustworthy","","null","","","","ratingFB","","trustrating_stim/white_mw060.bmp","null","","","","","","","","","","",""
"image-keyboard-response","27","34641","0.0-6.0-1.11","60599946259dc97d30e2001f","bdp_trlrn","Mon Mar 13 2023 19:50:32 GMT-0700 (Pacific Daylight Time)","533092","Untrustworthy,Trustworthy","","1082","","","","rating","","trustrating_stim/white_00761_941201_fb_edt.bmp","2","","","","","","","","","","",""
"image-keyboard-response","28","34842","0.0-6.0-2.11","60599946259dc97d30e2001f","bdp_trlrn","Mon Mar 13 2023 19:50:32 GMT-0700 (Pacific Daylight Time)","533092","Untrustworthy,Trustworthy","","null","","","","ratingFB","","trustrating_stim/white_00761_941201_fb_edt.bmp","null","","","","","","","","","","",""
"image-keyboard-response","29","35961","0.0-6.0-1.12","60599946259dc97d30e2001f","bdp_trlrn","Mon Mar 13 2023 19:50:32 GMT-0700 (Pacific Daylight Time)","533092","Untrustworthy,Trustworthy","","1018","","","","rating","","trustrating_stim/white_00807_941205_fb_edt.bmp","1","","","","","","","","","","",""
"image-keyboard-response","30","36162","0.0-6.0-2.12","60599946259dc97d30e2001f","bdp_trlrn","Mon Mar 13 2023 19:50:32 GMT-0700 (Pacific Daylight Time)","533092","Untrustworthy,Trustworthy","","null","","","","ratingFB","","trustrating_stim/white_00807_941205_fb_edt.bmp","null","","","","","","","","","","",""
"image-keyboard-response","31","37977","0.0-6.0-1.13","60599946259dc97d30e2001f","bdp_trlrn","Mon Mar 13 2023 19:50:32 GMT-0700 (Pacific Daylight Time)","533092","Untrustworthy,Trustworthy","","1713","","","","rating","","trustrating_stim/white_mw049.bmp","7","","","","","","","","","","",""
"image-keyboard-response","32","38178","0.0-6.0-2.13","60599946259dc97d30e2001f","bdp_trlrn","Mon Mar 13 2023 19:50:32 GMT-0700 (Pacific Daylight Time)","533092","Untrustworthy,Trustworthy","","null","","","","ratingFB","","trustrating_stim/white_mw049.bmp","null","","","","","","","","","","",""
"image-keyboard-response","33","39985","0.0-6.0-1.14","60599946259dc97d30e2001f","bdp_trlrn","Mon Mar 13 2023 19:50:32 GMT-0700 (Pacific Daylight Time)","533092","Untrustworthy,Trustworthy","","1706","","","","rating","","trustrating_stim/white_00223_940128_fb_edt.bmp","4","","","","","","","","","","",""
"image-keyboard-response","34","40185","0.0-6.0-2.14","60599946259dc97d30e2001f","bdp_trlrn","Mon Mar 13 2023 19:50:32 GMT-0700 (Pacific Daylight Time)","533092","Untrustworthy,Trustworthy","","null","","","","ratingFB","","trustrating_stim/white_00223_940128_fb_edt.bmp","null","","","","","","","","","","",""
"image-keyboard-response","35","42466","0.0-6.0-1.15","60599946259dc97d30e2001f","bdp_trlrn","Mon Mar 13 2023 19:50:32 GMT-0700 (Pacific Daylight Time)","533092","Untrustworthy,Trustworthy","","2178","","","","rating","","trustrating_stim/white_mw056.bmp","6","","","","","","","","","","",""
"image-keyboard-response","36","42668","0.0-6.0-2.15","60599946259dc97d30e2001f","bdp_trlrn","Mon Mar 13 2023 19:50:32 GMT-0700 (Pacific Daylight Time)","533092","Untrustworthy,Trustworthy","","null","","","","ratingFB","","trustrating_stim/white_mw056.bmp","null","","","","","","","","","","",""
"image-keyboard-response","37","44153","0.0-6.0-1.16","60599946259dc97d30e2001f","bdp_trlrn","Mon Mar 13 2023 19:50:32 GMT-0700 (Pacific Daylight Time)","533092","Untrustworthy,Trustworthy","","1384","","","","rating","","trustrating_stim/white_mw053.bmp","7","","","","","","","","","","",""
"image-keyboard-response","38","44354","0.0-6.0-2.16","60599946259dc97d30e2001f","bdp_trlrn","Mon Mar 13 2023 19:50:32 GMT-0700 (Pacific Daylight Time)","533092","Untrustworthy,Trustworthy","","null","","","","ratingFB","","trustrating_stim/white_mw053.bmp","null","","","","","","","","","","",""
"image-keyboard-response","39","45537","0.0-6.0-1.17","60599946259dc97d30e2001f","bdp_trlrn","Mon Mar 13 2023 19:50:32 GMT-0700 (Pacific Daylight Time)","533092","Untrustworthy,Trustworthy","","1081","","","","rating","","trustrating_stim/white_00785_941205_fb_edt.bmp","3","","","","","","","","","","",""
"image-keyboard-response","40","45737","0.0-6.0-2.17","60599946259dc97d30e2001f","bdp_trlrn","Mon Mar 13 2023 19:50:32 GMT-0700 (Pacific Daylight Time)","533092","Untrustworthy,Trustworthy","","null","","","","ratingFB","","trustrating_stim/white_00785_941205_fb_edt.bmp","null","","","","","","","","","","",""
"image-keyboard-response","41","47489","0.0-6.0-1.18","60599946259dc97d30e2001f","bdp_trlrn","Mon Mar 13 2023 19:50:32 GMT-0700 (Pacific Daylight Time)","533092","Untrustworthy,Trustworthy","","1651","","","","rating","","trustrating_stim/white_00602_940928_fb_edt.bmp","8","","","","","","","","","","",""
"image-keyboard-response","42","47689","0.0-6.0-2.18","60599946259dc97d30e2001f","bdp_trlrn","Mon Mar 13 2023 19:50:32 GMT-0700 (Pacific Daylight Time)","533092","Untrustworthy,Trustworthy","","null","","","","ratingFB","","trustrating_stim/white_00602_940928_fb_edt.bmp","null","","","","","","","","","","",""
"image-keyboard-response","43","49057","0.0-6.0-1.19","60599946259dc97d30e2001f","bdp_trlrn","Mon Mar 13 2023 19:50:32 GMT-0700 (Pacific Daylight Time)","533092","Untrustworthy,Trustworthy","","1266","","","","rating","","trustrating_stim/white_00659_941121_fa_edt.bmp","1","","","","","","","","","","",""
"image-keyboard-response","44","49259","0.0-6.0-2.19","60599946259dc97d30e2001f","bdp_trlrn","Mon Mar 13 2023 19:50:32 GMT-0700 (Pacific Daylight Time)","533092","Untrustworthy,Trustworthy","","null","","","","ratingFB","","trustrating_stim/white_00659_941121_fa_edt.bmp","null","","","","","","","","","","",""
"image-keyboard-response","45","51129","0.0-6.0-1.20","60599946259dc97d30e2001f","bdp_trlrn","Mon Mar 13 2023 19:50:32 GMT-0700 (Pacific Daylight Time)","533092","Untrustworthy,Trustworthy","","1769","","","","rating","","trustrating_stim/white_00519_940519_fb_edt.bmp","4","","","","","","","","","","",""
"image-keyboard-response","46","51330","0.0-6.0-2.20","60599946259dc97d30e2001f","bdp_trlrn","Mon Mar 13 2023 19:50:32 GMT-0700 (Pacific Daylight Time)","533092","Untrustworthy,Trustworthy","","null","","","","ratingFB","","trustrating_stim/white_00519_940519_fb_edt.bmp","null","","","","","","","","","","",""
"image-keyboard-response","47","53761","0.0-6.0-1.21","60599946259dc97d30e2001f","bdp_trlrn","Mon Mar 13 2023 19:50:32 GMT-0700 (Pacific Daylight Time)","533092","Untrustworthy,Trustworthy","","2330","","","","rating","","trustrating_stim/white_00109_931230_fa_edt.bmp","9","","","","","","","","","","",""
"image-keyboard-response","48","53962","0.0-6.0-2.21","60599946259dc97d30e2001f","bdp_trlrn","Mon Mar 13 2023 19:50:32 GMT-0700 (Pacific Daylight Time)","533092","Untrustworthy,Trustworthy","","null","","","","ratingFB","","trustrating_stim/white_00109_931230_fa_edt.bmp","null","","","","","","","","","","",""
"image-keyboard-response","49","55049","0.0-6.0-1.22","60599946259dc97d30e2001f","bdp_trlrn","Mon Mar 13 2023 19:50:32 GMT-0700 (Pacific Daylight Time)","533092","Untrustworthy,Trustworthy","","985","","","","rating","","trustrating_stim/white_00340_940422_fa_edt.bmp","3","","","","","","","","","","",""
"image-keyboard-response","50","55251","0.0-6.0-2.22","60599946259dc97d30e2001f","bdp_trlrn","Mon Mar 13 2023 19:50:32 GMT-0700 (Pacific Daylight Time)","533092","Untrustworthy,Trustworthy","","null","","","","ratingFB","","trustrating_stim/white_00340_940422_fa_edt.bmp","null","","","","","","","","","","",""
"image-keyboard-response","51","56201","0.0-6.0-1.23","60599946259dc97d30e2001f","bdp_trlrn","Mon Mar 13 2023 19:50:32 GMT-0700 (Pacific Daylight Time)","533092","Untrustworthy,Trustworthy","","849","","","","rating","","trustrating_stim/white_00577_940928_fa_edt.bmp","2","","","","","","","","","","",""
"image-keyboard-response","52","56402","0.0-6.0-2.23","60599946259dc97d30e2001f","bdp_trlrn","Mon Mar 13 2023 19:50:32 GMT-0700 (Pacific Daylight Time)","533092","Untrustworthy,Trustworthy","","null","","","","ratingFB","","trustrating_stim/white_00577_940928_fa_edt.bmp","null","","","","","","","","","","",""
"image-keyboard-response","53","58353","0.0-6.0-1.24","60599946259dc97d30e2001f","bdp_trlrn","Mon Mar 13 2023 19:50:32 GMT-0700 (Pacific Daylight Time)","533092","Untrustworthy,Trustworthy","","1849","","","","rating","","trustrating_stim/white_mw048.bmp","1","","","","","","","","","","",""
"image-keyboard-response","54","58554","0.0-6.0-2.24","60599946259dc97d30e2001f","bdp_trlrn","Mon Mar 13 2023 19:50:32 GMT-0700 (Pacific Daylight Time)","533092","Untrustworthy,Trustworthy","","null","","","","ratingFB","","trustrating_stim/white_mw048.bmp","null","","","","","","","","","","",""
"image-keyboard-response","55","60025","0.0-6.0-1.25","60599946259dc97d30e2001f","bdp_trlrn","Mon Mar 13 2023 19:50:32 GMT-0700 (Pacific Daylight Time)","533092","Untrustworthy,Trustworthy","","1370","","","","rating","","trustrating_stim/white_00299_940422_fa_edt.bmp","7","","","","","","","","","","",""
"image-keyboard-response","56","60225","0.0-6.0-2.25","60599946259dc97d30e2001f","bdp_trlrn","Mon Mar 13 2023 19:50:32 GMT-0700 (Pacific Daylight Time)","533092","Untrustworthy,Trustworthy","","null","","","","ratingFB","","trustrating_stim/white_00299_940422_fa_edt.bmp","null","","","","","","","","","","",""
"image-keyboard-response","57","61697","0.0-6.0-1.26","60599946259dc97d30e2001f","bdp_trlrn","Mon Mar 13 2023 19:50:32 GMT-0700 (Pacific Daylight Time)","533092","Untrustworthy,Trustworthy","","1370","","","","rating","","trustrating_stim/white_mw033.bmp","4","","","","","","","","","","",""
"image-keyboard-response","58","61898","0.0-6.0-2.26","60599946259dc97d30e2001f","bdp_trlrn","Mon Mar 13 2023 19:50:32 GMT-0700 (Pacific Daylight Time)","533092","Untrustworthy,Trustworthy","","null","","","","ratingFB","","trustrating_stim/white_mw033.bmp","null","","","","","","","","","","",""
"image-keyboard-response","59","63729","0.0-6.0-1.27","60599946259dc97d30e2001f","bdp_trlrn","Mon Mar 13 2023 19:50:32 GMT-0700 (Pacific Daylight Time)","533092","Untrustworthy,Trustworthy","","1730","","","","rating","","trustrating_stim/white_00898_960530_fa_edt.bmp","6","","","","","","","","","","",""
"image-keyboard-response","60","63934","0.0-6.0-2.27","60599946259dc97d30e2001f","bdp_trlrn","Mon Mar 13 2023 19:50:32 GMT-0700 (Pacific Daylight Time)","533092","Untrustworthy,Trustworthy","","null","","","","ratingFB","","trustrating_stim/white_00898_960530_fa_edt.bmp","null","","","","","","","","","","",""
"image-keyboard-response","61","64985","0.0-6.0-1.28","60599946259dc97d30e2001f","bdp_trlrn","Mon Mar 13 2023 19:50:32 GMT-0700 (Pacific Daylight Time)","533092","Untrustworthy,Trustworthy","","950","","","","rating","","trustrating_stim/white_mw046.bmp","1","","","","","","","","","","",""
"image-keyboard-response","62","65187","0.0-6.0-2.28","60599946259dc97d30e2001f","bdp_trlrn","Mon Mar 13 2023 19:50:32 GMT-0700 (Pacific Daylight Time)","533092","Untrustworthy,Trustworthy","","null","","","","ratingFB","","trustrating_stim/white_mw046.bmp","null","","","","","","","","","","",""
"image-keyboard-response","63","66569","0.0-6.0-1.29","60599946259dc97d30e2001f","bdp_trlrn","Mon Mar 13 2023 19:50:32 GMT-0700 (Pacific Daylight Time)","533092","Untrustworthy,Trustworthy","","1281","","","","rating","","trustrating_stim/white_00757_941201_fa_edt.bmp","1","","","","","","","","","","",""
"image-keyboard-response","64","66775","0.0-6.0-2.29","60599946259dc97d30e2001f","bdp_trlrn","Mon Mar 13 2023 19:50:32 GMT-0700 (Pacific Daylight Time)","533092","Untrustworthy,Trustworthy","","null","","","","ratingFB","","trustrating_stim/white_00757_941201_fa_edt.bmp","null","","","","","","","","","","",""
"image-keyboard-response","65","67641","0.0-6.0-1.30","60599946259dc97d30e2001f","bdp_trlrn","Mon Mar 13 2023 19:50:32 GMT-0700 (Pacific Daylight Time)","533092","Untrustworthy,Trustworthy","","765","","","","rating","","trustrating_stim/white_mw063.bmp","1","","","","","","","","","","",""
"image-keyboard-response","66","67842","0.0-6.0-2.30","60599946259dc97d30e2001f","bdp_trlrn","Mon Mar 13 2023 19:50:32 GMT-0700 (Pacific Daylight Time)","533092","Untrustworthy,Trustworthy","","null","","","","ratingFB","","trustrating_stim/white_mw063.bmp","null","","","","","","","","","","",""
"image-keyboard-response","67","69273","0.0-6.0-1.31","60599946259dc97d30e2001f","bdp_trlrn","Mon Mar 13 2023 19:50:32 GMT-0700 (Pacific Daylight Time)","533092","Untrustworthy,Trustworthy","","1330","","","","rating","","trustrating_stim/white_mw033.bmp","4","","","","","","","","","","",""
"image-keyboard-response","68","69475","0.0-6.0-2.31","60599946259dc97d30e2001f","bdp_trlrn","Mon Mar 13 2023 19:50:32 GMT-0700 (Pacific Daylight Time)","533092","Untrustworthy,Trustworthy","","null","","","","ratingFB","","trustrating_stim/white_mw033.bmp","null","","","","","","","","","","",""
"image-keyboard-response","69","71713","0.0-6.0-1.32","60599946259dc97d30e2001f","bdp_trlrn","Mon Mar 13 2023 19:50:32 GMT-0700 (Pacific Daylight Time)","533092","Untrustworthy,Trustworthy","","2136","","","","rating","","trustrating_stim/white_mw060.bmp","3","","","","","","","","","","",""
"image-keyboard-response","70","71915","0.0-6.0-2.32","60599946259dc97d30e2001f","bdp_trlrn","Mon Mar 13 2023 19:50:32 GMT-0700 (Pacific Daylight Time)","533092","Untrustworthy,Trustworthy","","null","","","","ratingFB","","trustrating_stim/white_mw060.bmp","null","","","","","","","","","","",""
"image-keyboard-response","71","73953","0.0-6.0-1.33","60599946259dc97d30e2001f","bdp_trlrn","Mon Mar 13 2023 19:50:32 GMT-0700 (Pacific Daylight Time)","533092","Untrustworthy,Trustworthy","","1935","","","","rating","","trustrating_stim/white_mw053.bmp","6","","","","","","","","","","",""
"image-keyboard-response","72","74153","0.0-6.0-2.33","60599946259dc97d30e2001f","bdp_trlrn","Mon Mar 13 2023 19:50:32 GMT-0700 (Pacific Daylight Time)","533092","Untrustworthy,Trustworthy","","null","","","","ratingFB","","trustrating_stim/white_mw053.bmp","null","","","","","","","","","","",""
"image-keyboard-response","73","77745","0.0-6.0-1.34","60599946259dc97d30e2001f","bdp_trlrn","Mon Mar 13 2023 19:50:32 GMT-0700 (Pacific Daylight Time)","533092","Untrustworthy,Trustworthy","","3490","","","","rating","","trustrating_stim/white_00109_931230_fa_edt.bmp","4","","","","","","","","","","",""
"image-keyboard-response","74","77947","0.0-6.0-2.34","60599946259dc97d30e2001f","bdp_trlrn","Mon Mar 13 2023 19:50:32 GMT-0700 (Pacific Daylight Time)","533092","Untrustworthy,Trustworthy","","null","","","","ratingFB","","trustrating_stim/white_00109_931230_fa_edt.bmp","null","","","","","","","","","","",""
"image-keyboard-response","75","80081","0.0-6.0-1.35","60599946259dc97d30e2001f","bdp_trlrn","Mon Mar 13 2023 19:50:32 GMT-0700 (Pacific Daylight Time)","533092","Untrustworthy,Trustworthy","","2032","","","","rating","","trustrating_stim/white_00223_940128_fb_edt.bmp","4","","","","","","","","","","",""
"image-keyboard-response","76","80282","0.0-6.0-2.35","60599946259dc97d30e2001f","bdp_trlrn","Mon Mar 13 2023 19:50:32 GMT-0700 (Pacific Daylight Time)","533092","Untrustworthy,Trustworthy","","null","","","","ratingFB","","trustrating_stim/white_00223_940128_fb_edt.bmp","null","","","","","","","","","","",""
"image-keyboard-response","77","81272","0.0-6.0-1.36","60599946259dc97d30e2001f","bdp_trlrn","Mon Mar 13 2023 19:50:32 GMT-0700 (Pacific Daylight Time)","533092","Untrustworthy,Trustworthy","","887","","","","rating","","trustrating_stim/white_00340_940422_fa_edt.bmp","3","","","","","","","","","","",""
"image-keyboard-response","78","81473","0.0-6.0-2.36","60599946259dc97d30e2001f","bdp_trlrn","Mon Mar 13 2023 19:50:32 GMT-0700 (Pacific Daylight Time)","533092","Untrustworthy,Trustworthy","","null","","","","ratingFB","","trustrating_stim/white_00340_940422_fa_edt.bmp","null","","","","","","","","","","",""
"image-keyboard-response","79","82441","0.0-6.0-1.37","60599946259dc97d30e2001f","bdp_trlrn","Mon Mar 13 2023 19:50:32 GMT-0700 (Pacific Daylight Time)","533092","Untrustworthy,Trustworthy","","867","","","","rating","","trustrating_stim/white_00757_941201_fa_edt.bmp","2","","","","","","","","","","",""
"image-keyboard-response","80","82642","0.0-6.0-2.37","60599946259dc97d30e2001f","bdp_trlrn","Mon Mar 13 2023 19:50:32 GMT-0700 (Pacific Daylight Time)","533092","Untrustworthy,Trustworthy","","null","","","","ratingFB","","trustrating_stim/white_00757_941201_fa_edt.bmp","null","","","","","","","","","","",""
"image-keyboard-response","81","84232","0.0-6.0-1.38","60599946259dc97d30e2001f","bdp_trlrn","Mon Mar 13 2023 19:50:32 GMT-0700 (Pacific Daylight Time)","533092","Untrustworthy,Trustworthy","","1488","","","","rating","","trustrating_stim/white_00659_941121_fa_edt.bmp","3","","","","","","","","","","",""
"image-keyboard-response","82","84434","0.0-6.0-2.38","60599946259dc97d30e2001f","bdp_trlrn","Mon Mar 13 2023 19:50:32 GMT-0700 (Pacific Daylight Time)","533092","Untrustworthy,Trustworthy","","null","","","","ratingFB","","trustrating_stim/white_00659_941121_fa_edt.bmp","null","","","","","","","","","","",""
"image-keyboard-response","83","86216","0.0-6.0-1.39","60599946259dc97d30e2001f","bdp_trlrn","Mon Mar 13 2023 19:50:32 GMT-0700 (Pacific Daylight Time)","533092","Untrustworthy,Trustworthy","","1681","","","","rating","","trustrating_stim/white_00577_940928_fa_edt.bmp","5","","","","","","","","","","",""
"image-keyboard-response","84","86417","0.0-6.0-2.39","60599946259dc97d30e2001f","bdp_trlrn","Mon Mar 13 2023 19:50:32 GMT-0700 (Pacific Daylight Time)","533092","Untrustworthy,Trustworthy","","null","","","","ratingFB","","trustrating_stim/white_00577_940928_fa_edt.bmp","null","","","","","","","","","","",""
"image-keyboard-response","85","88145","0.0-6.0-1.40","60599946259dc97d30e2001f","bdp_trlrn","Mon Mar 13 2023 19:50:32 GMT-0700 (Pacific Daylight Time)","533092","Untrustworthy,Trustworthy","","1626","","","","rating","","trustrating_stim/white_mw099.bmp","5","","","","","","","","","","",""
"image-keyboard-response","86","88345","0.0-6.0-2.40","60599946259dc97d30e2001f","bdp_trlrn","Mon Mar 13 2023 19:50:32 GMT-0700 (Pacific Daylight Time)","533092","Untrustworthy,Trustworthy","","null","","","","ratingFB","","trustrating_stim/white_mw099.bmp","null","","","","","","","","","","",""
"image-keyboard-response","87","89488","0.0-6.0-1.41","60599946259dc97d30e2001f","bdp_trlrn","Mon Mar 13 2023 19:50:32 GMT-0700 (Pacific Daylight Time)","533092","Untrustworthy,Trustworthy","","1041","","","","rating","","trustrating_stim/white_00519_940519_fb_edt.bmp","3","","","","","","","","","","",""
"image-keyboard-response","88","89689","0.0-6.0-2.41","60599946259dc97d30e2001f","bdp_trlrn","Mon Mar 13 2023 19:50:32 GMT-0700 (Pacific Daylight Time)","533092","Untrustworthy,Trustworthy","","null","","","","ratingFB","","trustrating_stim/white_00519_940519_fb_edt.bmp","null","","","","","","","","","","",""
"image-keyboard-response","89","92649","0.0-6.0-1.42","60599946259dc97d30e2001f","bdp_trlrn","Mon Mar 13 2023 19:50:32 GMT-0700 (Pacific Daylight Time)","533092","Untrustworthy,Trustworthy","","2858","","","","rating","","trustrating_stim/white_mw048.bmp","1","","","","","","","","","","",""
"image-keyboard-response","90","92850","0.0-6.0-2.42","60599946259dc97d30e2001f","bdp_trlrn","Mon Mar 13 2023 19:50:32 GMT-0700 (Pacific Daylight Time)","533092","Untrustworthy,Trustworthy","","null","","","","ratingFB","","trustrating_stim/white_mw048.bmp","null","","","","","","","","","","",""
"image-keyboard-response","91","94376","0.0-6.0-1.43","60599946259dc97d30e2001f","bdp_trlrn","Mon Mar 13 2023 19:50:32 GMT-0700 (Pacific Daylight Time)","533092","Untrustworthy,Trustworthy","","1425","","","","rating","","trustrating_stim/white_00761_941201_fb_edt.bmp","2","","","","","","","","","","",""
"image-keyboard-response","92","94577","0.0-6.0-2.43","60599946259dc97d30e2001f","bdp_trlrn","Mon Mar 13 2023 19:50:32 GMT-0700 (Pacific Daylight Time)","533092","Untrustworthy,Trustworthy","","null","","","","ratingFB","","trustrating_stim/white_00761_941201_fb_edt.bmp","null","","","","","","","","","","",""
"image-keyboard-response","93","96200","0.0-6.0-1.44","60599946259dc97d30e2001f","bdp_trlrn","Mon Mar 13 2023 19:50:32 GMT-0700 (Pacific Daylight Time)","533092","Untrustworthy,Trustworthy","","1516","","","","rating","","trustrating_stim/white_00129_931230_fb_edt.bmp","7","","","","","","","","","","",""
"image-keyboard-response","94","96402","0.0-6.0-2.44","60599946259dc97d30e2001f","bdp_trlrn","Mon Mar 13 2023 19:50:32 GMT-0700 (Pacific Daylight Time)","533092","Untrustworthy,Trustworthy","","null","","","","ratingFB","","trustrating_stim/white_00129_931230_fb_edt.bmp","null","","","","","","","","","","",""
"image-keyboard-response","95","100409","0.0-6.0-1.45","60599946259dc97d30e2001f","bdp_trlrn","Mon Mar 13 2023 19:50:32 GMT-0700 (Pacific Daylight Time)","533092","Untrustworthy,Trustworthy","","3906","","","","rating","","trustrating_stim/white_00299_940422_fa_edt.bmp","4","","","","","","","","","","",""
"image-keyboard-response","96","100610","0.0-6.0-2.45","60599946259dc97d30e2001f","bdp_trlrn","Mon Mar 13 2023 19:50:32 GMT-0700 (Pacific Daylight Time)","533092","Untrustworthy,Trustworthy","","null","","","","ratingFB","","trustrating_stim/white_00299_940422_fa_edt.bmp","null","","","","","","","","","","",""
"image-keyboard-response","97","102344","0.0-6.0-1.46","60599946259dc97d30e2001f","bdp_trlrn","Mon Mar 13 2023 19:50:32 GMT-0700 (Pacific Daylight Time)","533092","Untrustworthy,Trustworthy","","1633","","","","rating","","trustrating_stim/white_mw097.bmp","5","","","","","","","","","","",""
"image-keyboard-response","98","102546","0.0-6.0-2.46","60599946259dc97d30e2001f","bdp_trlrn","Mon Mar 13 2023 19:50:32 GMT-0700 (Pacific Daylight Time)","533092","Untrustworthy,Trustworthy","","null","","","","ratingFB","","trustrating_stim/white_mw097.bmp","null","","","","","","","","","","",""
"image-keyboard-response","99","104568","0.0-6.0-1.47","60599946259dc97d30e2001f","bdp_trlrn","Mon Mar 13 2023 19:50:32 GMT-0700 (Pacific Daylight Time)","533092","Untrustworthy,Trustworthy","","1920","","","","rating","","trustrating_stim/white_mw046.bmp","2","","","","","","","","","","",""
"image-keyboard-response","100","104769","0.0-6.0-2.47","60599946259dc97d30e2001f","bdp_trlrn","Mon Mar 13 2023 19:50:32 GMT-0700 (Pacific Daylight Time)","533092","Untrustworthy,Trustworthy","","null","","","","ratingFB","","trustrating_stim/white_mw046.bmp","null","","","","","","","","","","",""
"image-keyboard-response","101","106968","0.0-6.0-1.48","60599946259dc97d30e2001f","bdp_trlrn","Mon Mar 13 2023 19:50:32 GMT-0700 (Pacific Daylight Time)","533092","Untrustworthy,Trustworthy","","2098","","","","rating","","trustrating_stim/white_mw035.bmp","6","","","","","","","","","","",""
"image-keyboard-response","102","107178","0.0-6.0-2.48","60599946259dc97d30e2001f","bdp_trlrn","Mon Mar 13 2023 19:50:32 GMT-0700 (Pacific Daylight Time)","533092","Untrustworthy,Trustworthy","","null","","","","ratingFB","","trustrating_stim/white_mw035.bmp","null","","","","","","","","","","",""
"image-keyboard-response","103","108320","0.0-6.0-1.49","60599946259dc97d30e2001f","bdp_trlrn","Mon Mar 13 2023 19:50:32 GMT-0700 (Pacific Daylight Time)","533092","Untrustworthy,Trustworthy","","1041","","","","rating","","trustrating_stim/white_00785_941205_fb_edt.bmp","3","","","","","","","","","","",""
"image-keyboard-response","104","108521","0.0-6.0-2.49","60599946259dc97d30e2001f","bdp_trlrn","Mon Mar 13 2023 19:50:32 GMT-0700 (Pacific Daylight Time)","533092","Untrustworthy,Trustworthy","","null","","","","ratingFB","","trustrating_stim/white_00785_941205_fb_edt.bmp","null","","","","","","","","","","",""
"image-keyboard-response","105","109680","0.0-6.0-1.50","60599946259dc97d30e2001f","bdp_trlrn","Mon Mar 13 2023 19:50:32 GMT-0700 (Pacific Daylight Time)","533092","Untrustworthy,Trustworthy","","1057","","","","rating","","trustrating_stim/white_00602_940928_fb_edt.bmp","9","","","","","","","","","","",""
"image-keyboard-response","106","109882","0.0-6.0-2.50","60599946259dc97d30e2001f","bdp_trlrn","Mon Mar 13 2023 19:50:32 GMT-0700 (Pacific Daylight Time)","533092","Untrustworthy,Trustworthy","","null","","","","ratingFB","","trustrating_stim/white_00602_940928_fb_edt.bmp","null","","","","","","","","","","",""
"image-keyboard-response","107","111761","0.0-6.0-1.51","60599946259dc97d30e2001f","bdp_trlrn","Mon Mar 13 2023 19:50:32 GMT-0700 (Pacific Daylight Time)","533092","Untrustworthy,Trustworthy","","1777","","","","rating","","trustrating_stim/white_mw049.bmp","7","","","","","","","","","","",""
"image-keyboard-response","108","111962","0.0-6.0-2.51","60599946259dc97d30e2001f","bdp_trlrn","Mon Mar 13 2023 19:50:32 GMT-0700 (Pacific Daylight Time)","533092","Untrustworthy,Trustworthy","","null","","","","ratingFB","","trustrating_stim/white_mw049.bmp","null","","","","","","","","","","",""
"image-keyboard-response","109","113720","0.0-6.0-1.52","60599946259dc97d30e2001f","bdp_trlrn","Mon Mar 13 2023 19:50:32 GMT-0700 (Pacific Daylight Time)","533092","Untrustworthy,Trustworthy","","1656","","","","rating","","trustrating_stim/white_00807_941205_fb_edt.bmp","4","","","","","","","","","","",""
"image-keyboard-response","110","113921","0.0-6.0-2.52","60599946259dc97d30e2001f","bdp_trlrn","Mon Mar 13 2023 19:50:32 GMT-0700 (Pacific Daylight Time)","533092","Untrustworthy,Trustworthy","","null","","","","ratingFB","","trustrating_stim/white_00807_941205_fb_edt.bmp","null","","","","","","","","","","",""
"image-keyboard-response","111","115128","0.0-6.0-1.53","60599946259dc97d30e2001f","bdp_trlrn","Mon Mar 13 2023 19:50:32 GMT-0700 (Pacific Daylight Time)","533092","Untrustworthy,Trustworthy","","1105","","","","rating","","trustrating_stim/white_mw066.bmp","8","","","","","","","","","","",""
"image-keyboard-response","112","115330","0.0-6.0-2.53","60599946259dc97d30e2001f","bdp_trlrn","Mon Mar 13 2023 19:50:32 GMT-0700 (Pacific Daylight Time)","533092","Untrustworthy,Trustworthy","","null","","","","ratingFB","","trustrating_stim/white_mw066.bmp","null","","","","","","","","","","",""
"image-keyboard-response","113","116392","0.0-6.0-1.54","60599946259dc97d30e2001f","bdp_trlrn","Mon Mar 13 2023 19:50:32 GMT-0700 (Pacific Daylight Time)","533092","Untrustworthy,Trustworthy","","960","","","","rating","","trustrating_stim/white_00898_960530_fa_edt.bmp","3","","","","","","","","","","",""
"image-keyboard-response","114","116594","0.0-6.0-2.54","60599946259dc97d30e2001f","bdp_trlrn","Mon Mar 13 2023 19:50:32 GMT-0700 (Pacific Daylight Time)","533092","Untrustworthy,Trustworthy","","null","","","","ratingFB","","trustrating_stim/white_00898_960530_fa_edt.bmp","null","","","","","","","","","","",""
"image-keyboard-response","115","119120","0.0-6.0-1.55","60599946259dc97d30e2001f","bdp_trlrn","Mon Mar 13 2023 19:50:32 GMT-0700 (Pacific Daylight Time)","533092","Untrustworthy,Trustworthy","","2425","","","","rating","","trustrating_stim/white_00120_931230_fa_edt.bmp","9","","","","","","","","","","",""
"image-keyboard-response","116","119321","0.0-6.0-2.55","60599946259dc97d30e2001f","bdp_trlrn","Mon Mar 13 2023 19:50:32 GMT-0700 (Pacific Daylight Time)","533092","Untrustworthy,Trustworthy","","null","","","","ratingFB","","trustrating_stim/white_00120_931230_fa_edt.bmp","null","","","","","","","","","","",""
"image-keyboard-response","117","121128","0.0-6.0-1.56","60599946259dc97d30e2001f","bdp_trlrn","Mon Mar 13 2023 19:50:32 GMT-0700 (Pacific Daylight Time)","533092","Untrustworthy,Trustworthy","","1705","","","","rating","","trustrating_stim/white_mw089.bmp","2","","","","","","","","","","",""
"image-keyboard-response","118","121330","0.0-6.0-2.56","60599946259dc97d30e2001f","bdp_trlrn","Mon Mar 13 2023 19:50:32 GMT-0700 (Pacific Daylight Time)","533092","Untrustworthy,Trustworthy","","null","","","","ratingFB","","trustrating_stim/white_mw089.bmp","null","","","","","","","","","","",""
"image-keyboard-response","119","124473","0.0-6.0-1.57","60599946259dc97d30e2001f","bdp_trlrn","Mon Mar 13 2023 19:50:32 GMT-0700 (Pacific Daylight Time)","533092","Untrustworthy,Trustworthy","","3042","","","","rating","","trustrating_stim/white_mw084.bmp","4","","","","","","","","","","",""
"image-keyboard-response","120","124674","0.0-6.0-2.57","60599946259dc97d30e2001f","bdp_trlrn","Mon Mar 13 2023 19:50:32 GMT-0700 (Pacific Daylight Time)","533092","Untrustworthy,Trustworthy","","null","","","","ratingFB","","trustrating_stim/white_mw084.bmp","null","","","","","","","","","","",""
"image-keyboard-response","121","125936","0.0-6.0-1.58","60599946259dc97d30e2001f","bdp_trlrn","Mon Mar 13 2023 19:50:32 GMT-0700 (Pacific Daylight Time)","533092","Untrustworthy,Trustworthy","","1161","","","","rating","","trustrating_stim/white_mw071.bmp","3","","","","","","","","","","",""
"image-keyboard-response","122","126138","0.0-6.0-2.58","60599946259dc97d30e2001f","bdp_trlrn","Mon Mar 13 2023 19:50:32 GMT-0700 (Pacific Daylight Time)","533092","Untrustworthy,Trustworthy","","null","","","","ratingFB","","trustrating_stim/white_mw071.bmp","null","","","","","","","","","","",""
"image-keyboard-response","123","127784","0.0-6.0-1.59","60599946259dc97d30e2001f","bdp_trlrn","Mon Mar 13 2023 19:50:32 GMT-0700 (Pacific Daylight Time)","533092","Untrustworthy,Trustworthy","","1544","","","","rating","","trustrating_stim/white_mw056.bmp","4","","","","","","","","","","",""
"image-keyboard-response","124","127986","0.0-6.0-2.59","60599946259dc97d30e2001f","bdp_trlrn","Mon Mar 13 2023 19:50:32 GMT-0700 (Pacific Daylight Time)","533092","Untrustworthy,Trustworthy","","null","","","","ratingFB","","trustrating_stim/white_mw056.bmp","null","","","","","","","","","","",""
"instructions","125","129064","0.0-7.0","60599946259dc97d30e2001f","bdp_trlrn","Mon Mar 13 2023 19:50:32 GMT-0700 (Pacific Daylight Time)","533092","Untrustworthy,Trustworthy","[{""page_index"":0,""viewing_time"":977}]","977","","","","","","","","","","","","","","","","","",""
"instructions","126","173600","0.0-8.0","60599946259dc97d30e2001f","bdp_trlrn","Mon Mar 13 2023 19:50:32 GMT-0700 (Pacific Daylight Time)","533092","Untrustworthy,Trustworthy","[{""page_index"":0,""viewing_time"":11756},{""page_index"":1,""viewing_time"":7375},{""page_index"":2,""viewing_time"":5833},{""page_index"":3,""viewing_time"":6055},{""page_index"":4,""viewing_time"":2064},{""page_index"":5,""viewing_time"":4433},{""page_index"":6,""viewing_time"":2783},{""page_index"":7,""viewing_time"":4136}]","44435","","","","","","","","","","","","","","","","","",""
"html-keyboard-response","127","177649","0.0-9.0","60599946259dc97d30e2001f","bdp_trlrn","Mon Mar 13 2023 19:50:32 GMT-0700 (Pacific Daylight Time)","533092","Untrustworthy,Trustworthy","","4049","","","","","","<div class='header' style='text-align:left; position: absolute; top: 5%; left: 5%;'><small>Task 3 of 5</small></div><div class='instruxDiv'><p><strong>1) What is the minimum number of points you can choose to send to your partner?</strong></p><p>a) 0</p><p>b) 1</p><p>c) 5</p>","B","","","","","","","","","","",""
"html-keyboard-response","128","178648","0.0-10.0","60599946259dc97d30e2001f","bdp_trlrn","Mon Mar 13 2023 19:50:32 GMT-0700 (Pacific Daylight Time)","533092","Untrustworthy,Trustworthy","","897","","","","","","<div class='header' style='text-align:left; position: absolute; top: 5%; left: 5%;'><small>Task 3 of 5</small></div><div class='instruxDiv'><p><strong>1) What is the minimum number of points you can choose to send to your partner?</strong></p><p>a) 0</p><p style='color:#00FF00'>b) 1</p><p>c) 5</p><h3 style='color:#00FF00'>Correct!</h3><h3 class='center-content'>The correct response is b).</h3><h3 class='center-content'>The minimum number of points you can choose to send to your partner is 1 point.</h3><p><em>Press SPACEBAR to continue</em></p></div>"," ","","","","","","","","","","",""
"html-keyboard-response","129","181216","0.0-11.0","60599946259dc97d30e2001f","bdp_trlrn","Mon Mar 13 2023 19:50:32 GMT-0700 (Pacific Daylight Time)","533092","Untrustworthy,Trustworthy","","2467","","","","","","<div class='header' style='text-align:left; position: absolute; top: 5%; left: 5%;'><small>Task 3 of 5</small></div><div class='instruxDiv'><p><strong>2) What is the maximum number of points you can choose to send to your partner?</strong></p><p>a) 8</p><p>b) 5</p><p>c) 3</p>","B","","","","","","","","","","",""
"html-keyboard-response","130","181752","0.0-12.0","60599946259dc97d30e2001f","bdp_trlrn","Mon Mar 13 2023 19:50:32 GMT-0700 (Pacific Daylight Time)","533092","Untrustworthy,Trustworthy","","435","","","","","","<div class='header' style='text-align:left; position: absolute; top: 5%; left: 5%;'><small>Task 3 of 5</small></div><div class='instruxDiv'><p><strong>2) What is the maximum number of points you can choose to send to your partner?</strong></p><p>a) 8</p><p style='color:#00FF00'>b) 5</p><p>c) 3</p><h3 style='color:#00FF00'>Correct!</h3><h3 class='center-content'>The correct response is b).</h3><h3 class='center-content'>The maximum number of points you can choose to send to your partner is 5 points.</h3><p><em>Press SPACEBAR to continue</em></p></div>"," ","","","","","","","","","","",""
"html-keyboard-response","131","183240","0.0-13.0","60599946259dc97d30e2001f","bdp_trlrn","Mon Mar 13 2023 19:50:32 GMT-0700 (Pacific Daylight Time)","533092","Untrustworthy,Trustworthy","","1388","","","","","","<div class='header' style='text-align:left; position: absolute; top: 5%; left: 5%;'><small>Task 3 of 5</small></div><div class='instruxDiv'><p><strong>3) What happens to the amount of points you send to your partner?</strong></p><p>a) Nothing</p><p>b) It doubles</p><p>c) It quadruples</p>","C","","","","","","","","","","",""
"html-keyboard-response","132","184120","0.0-14.0","60599946259dc97d30e2001f","bdp_trlrn","Mon Mar 13 2023 19:50:32 GMT-0700 (Pacific Daylight Time)","533092","Untrustworthy,Trustworthy","","779","","","","","","<div class='header' style='text-align:left; position: absolute; top: 5%; left: 5%;'><small>Task 3 of 5</small></div><div class='instruxDiv'><p><strong>3) What happens to the amount of points you send to your partner?</strong></p><p>a) Nothing</p><p>b) It doubles</p><p style='color:#00FF00'>c) It quadruples</p><h3 style='color:#00FF00'>Correct!</h3><h3 class='center-content'>The correct response is c).</h3><h3 class='center-content'>The amount of points you send to your partner quadruples.</h3><p><em>Press SPACEBAR to continue</em></p></div>"," ","","","","","","","","","","",""
"html-keyboard-response","133","191648","0.0-15.0","60599946259dc97d30e2001f","bdp_trlrn","Mon Mar 13 2023 19:50:32 GMT-0700 (Pacific Daylight Time)","533092","Untrustworthy,Trustworthy","","7426","","","","","","<div class='header' style='text-align:left; position: absolute; top: 5%; left: 5%;'><small>Task 3 of 5</small></div><div class='instruxDiv'><p><strong>4) If you decided to share 4 out of 5 points with your partner, and they decided to share half of the amount they received with you, how many points would you receive back from them on this round?</strong></p><p>a) 16</p><p>b) 0</p><p>c) 8</p>","C","","","","","","","","","","",""
"html-keyboard-response","134","192352","0.0-16.0","60599946259dc97d30e2001f","bdp_trlrn","Mon Mar 13 2023 19:50:32 GMT-0700 (Pacific Daylight Time)","533092","Untrustworthy,Trustworthy","","601","","","","","","<div class='header' style='text-align:left; position: absolute; top: 5%; left: 5%;'><small>Task 3 of 5</small></div><div class='instruxDiv'><p><strong>4) If you decided to share 4 out of 5 points with your partner, and they decided to share half of the amount they received with you, how many points would you receive back from them on this round?</strong></p><p>a) 16</p><p>b) 0</p><p style='color:#00FF00'>c) 8</p><h3 style='color:#00FF00'>Correct!</h3><h3 class='center-content'>The correct response is c).</h3><h3 class='center-content'>If you shared 4 out of 5 points with your partner and they decided to share half of the amount they received with you, you would receive 8 points back (i.e. (4 x 4)/2 = 8).</h3><p><em>Press SPACEBAR to continue</em></p></div>"," ","","","","","","","","","","",""
"html-keyboard-response","135","197453","0.0-17.0","60599946259dc97d30e2001f","bdp_trlrn","Mon Mar 13 2023 19:50:32 GMT-0700 (Pacific Daylight Time)","533092","Untrustworthy,Trustworthy","","null","","","","","","<div class='header' style='text-align:left; position: absolute; top: 5%; left: 5%;'><small>Task 3 of 5</small></div><div class='instruxDiv'><p>Thank you for completing the quiz<p>These are the actual partners you will be interacting with in the next block:<p><div class='tc' align='center'><img class='introPic' src='trustrating_stim/white_00761_941201_fb_edt.bmp'><br><strong>Brian</strong></div><div class='bl' align='center'><img class='introPic' src='trustrating_stim/white_mw097.bmp'><br><strong>Richard</strong></div><div class='br' align='center'><img class='introPic' src='trustrating_stim/white_00129_931230_fb_edt.bmp'><br><strong>Aaron</strong></div></div><p>Across <strong>66 rounds</strong> you will interact with each partner <strong>22 times</strong> (in random order).<p style='align:center; color:white'><font <em>Press SPACEBAR to continue</em></p>","null","","","","","","","","","","",""
"instructions","136","199056","0.0-18.0","60599946259dc97d30e2001f","bdp_trlrn","Mon Mar 13 2023 19:50:32 GMT-0700 (Pacific Daylight Time)","533092","Untrustworthy,Trustworthy","[{""page_index"":0,""viewing_time"":610},{""page_index"":1,""viewing_time"":992}]","1602","","","","","","","","","","","","","","","","","",""
"html-keyboard-response","137","200984","0.0-19.0-1.0","60599946259dc97d30e2001f","bdp_trlrn","Mon Mar 13 2023 19:50:32 GMT-0700 (Pacific Daylight Time)","533092","Untrustworthy,Trustworthy","","1827","","","","decision","","<div class='trialDiv'><img src='trustrating_stim/white_mw097.bmp'><br><font class='baseline'><strong>Richard</strong><p>Choose number of points to send.</font><div class='respPicDiv'><img src='img/responseButtonOffersNo0L.png' class='respPic'></div></div>","4","1","Richard","6","Shared","0.8,0.2","9","0.8","trustrating_stim/white_mw097.bmp","4.5","5","1"
"html-keyboard-response","138","201235","0.0-19.0-2.0","60599946259dc97d30e2001f","bdp_trlrn","Mon Mar 13 2023 19:50:32 GMT-0700 (Pacific Daylight Time)","533092","Untrustworthy,Trustworthy","","null","","","","decisionFB","","<div class='trialDiv'><img src='trustrating_stim/white_mw097.bmp'><br><font class='baseline'><strong>Richard</strong><p>Choose number of points to send.</font><div class='respPicDiv'><img src='img/responseButtonOffersNo0L4.png' class='respPic'></div></div>","null","1","Richard","6","Shared","0.8,0.2","9","0.8","trustrating_stim/white_mw097.bmp","4.5","1","1"
"html-keyboard-response","139","202237","0.0-19.0-3.0","60599946259dc97d30e2001f","bdp_trlrn","Mon Mar 13 2023 19:50:32 GMT-0700 (Pacific Daylight Time)","533092","Untrustworthy,Trustworthy","","null","","","","feedback","","<div class='trialDiv'><img src='trustrating_stim/white_mw097.bmp'><br><font class='baseline'><strong>Richard</strong><p>Received: <strong>16</strong></font> &nbsp; &nbsp; &nbsp; &nbsp; &nbsp; &nbsp;<font class='posOutcome'>Shared back: <strong>8</strong></font></font><div class='respPicDiv'><img src='img/responseButtonOffersNo0_wht.png' class='respPic'></div></div>","null","1","Richard","6","Shared","0.8,0.2","9","0.8","trustrating_stim/white_mw097.bmp","4.5","9","1"
"html-keyboard-response","140","203552","0.0-19.0-1.1","60599946259dc97d30e2001f","bdp_trlrn","Mon Mar 13 2023 19:50:32 GMT-0700 (Pacific Daylight Time)","533092","Untrustworthy,Trustworthy","","1315","","","","decision","","<div class='trialDiv'><img src='trustrating_stim/white_00761_941201_fb_edt.bmp'><br><font class='baseline'><strong>Brian</strong><p>Choose number of points to send.</font><div class='respPicDiv'><img src='img/responseButtonOffersNo0L.png' class='respPic'></div></div>","2","1","Brian","3","Shared","0.35,0.8","14","0.35","trustrating_stim/white_00761_941201_fb_edt.bmp","2","14","2"
"html-keyboard-response","141","203804","0.0-19.0-2.1","60599946259dc97d30e2001f","bdp_trlrn","Mon Mar 13 2023 19:50:32 GMT-0700 (Pacific Daylight Time)","533092","Untrustworthy,Trustworthy","","null","","","","decisionFB","","<div class='trialDiv'><img src='trustrating_stim/white_00761_941201_fb_edt.bmp'><br><font class='baseline'><strong>Brian</strong><p>Choose number of points to send.</font><div class='respPicDiv'><img src='img/responseButtonOffersNo0L2.png' class='respPic'></div></div>","null","1","Brian","3","Shared","0.35,0.8","14","0.35","trustrating_stim/white_00761_941201_fb_edt.bmp","2","12","2"
"html-keyboard-response","142","204805","0.0-19.0-3.1","60599946259dc97d30e2001f","bdp_trlrn","Mon Mar 13 2023 19:50:32 GMT-0700 (Pacific Daylight Time)","533092","Untrustworthy,Trustworthy","","null","","","","feedback","","<div class='trialDiv'><img src='trustrating_stim/white_00761_941201_fb_edt.bmp'><br><font class='baseline'><strong>Brian</strong><p>Received: <strong>8</strong></font> &nbsp; &nbsp; &nbsp; &nbsp; &nbsp; &nbsp;<font class='posOutcome'>Shared back: <strong>4</strong></font></font><div class='respPicDiv'><img src='img/responseButtonOffersNo0_wht.png' class='respPic'></div></div>","null","1","Brian","3","Shared","0.35,0.8","14","0.35","trustrating_stim/white_00761_941201_fb_edt.bmp","2","16","2"
"html-keyboard-response","143","205336","0.0-19.0-1.2","60599946259dc97d30e2001f","bdp_trlrn","Mon Mar 13 2023 19:50:32 GMT-0700 (Pacific Daylight Time)","533092","Untrustworthy,Trustworthy","","530","","","","decision","","<div class='trialDiv'><img src='trustrating_stim/white_00129_931230_fb_edt.bmp'><br><font class='baseline'><strong>Aaron</strong><p>Choose number of points to send.</font><div class='respPicDiv'><img src='img/responseButtonOffersNo0L.png' class='respPic'></div></div>","1","1","Aaron","8","Shared","0.8,0.35","8","0.8","trustrating_stim/white_00129_931230_fb_edt.bmp","7","21","3"
"html-keyboard-response","144","205587","0.0-19.0-2.2","60599946259dc97d30e2001f","bdp_trlrn","Mon Mar 13 2023 19:50:32 GMT-0700 (Pacific Daylight Time)","533092","Untrustworthy,Trustworthy","","null","","","","decisionFB","","<div class='trialDiv'><img src='trustrating_stim/white_00129_931230_fb_edt.bmp'><br><font class='baseline'><strong>Aaron</strong><p>Choose number of points to send.</font><div class='respPicDiv'><img src='img/responseButtonOffersNo0L1.png' class='respPic'></div></div>","null","1","Aaron","8","Shared","0.8,0.35","8","0.8","trustrating_stim/white_00129_931230_fb_edt.bmp","7","20","3"
"html-keyboard-response","145","206589","0.0-19.0-3.2","60599946259dc97d30e2001f","bdp_trlrn","Mon Mar 13 2023 19:50:32 GMT-0700 (Pacific Daylight Time)","533092","Untrustworthy,Trustworthy","","null","","","","feedback","","<div class='trialDiv'><img src='trustrating_stim/white_00129_931230_fb_edt.bmp'><br><font class='baseline'><strong>Aaron</strong><p>Received: <strong>4</strong></font> &nbsp; &nbsp; &nbsp; &nbsp; &nbsp; &nbsp;<font class='posOutcome'>Shared back: <strong>2</strong></font></font><div class='respPicDiv'><img src='img/responseButtonOffersNo0_wht.png' class='respPic'></div></div>","null","1","Aaron","8","Shared","0.8,0.35","8","0.8","trustrating_stim/white_00129_931230_fb_edt.bmp","7","22","3"
"html-keyboard-response","146","207592","0.0-19.0-1.3","60599946259dc97d30e2001f","bdp_trlrn","Mon Mar 13 2023 19:50:32 GMT-0700 (Pacific Daylight Time)","533092","Untrustworthy,Trustworthy","","1003","","","","decision","","<div class='trialDiv'><img src='trustrating_stim/white_mw097.bmp'><br><font class='baseline'><strong>Richard</strong><p>Choose number of points to send.</font><div class='respPicDiv'><img src='img/responseButtonOffersNo0L.png' class='respPic'></div></div>","3","2","Richard","6","Kept","0.8,0.2","9","0.8","trustrating_stim/white_mw097.bmp","4.5","27","4"
"html-keyboard-response","147","207843","0.0-19.0-2.3","60599946259dc97d30e2001f","bdp_trlrn","Mon Mar 13 2023 19:50:32 GMT-0700 (Pacific Daylight Time)","533092","Untrustworthy,Trustworthy","","null","","","","decisionFB","","<div class='trialDiv'><img src='trustrating_stim/white_mw097.bmp'><br><font class='baseline'><strong>Richard</strong><p>Choose number of points to send.</font><div class='respPicDiv'><img src='img/responseButtonOffersNo0L3.png' class='respPic'></div></div>","null","2","Richard","6","Kept","0.8,0.2","9","0.8","trustrating_stim/white_mw097.bmp","4.5","24","4"
"html-keyboard-response","148","208845","0.0-19.0-3.3","60599946259dc97d30e2001f","bdp_trlrn","Mon Mar 13 2023 19:50:32 GMT-0700 (Pacific Daylight Time)","533092","Untrustworthy,Trustworthy","","null","","","","feedback","","<div class='trialDiv'><img src='trustrating_stim/white_mw097.bmp'><br><font class='baseline'><strong>Richard</strong><p>Received: <strong>12</strong></font> &nbsp; &nbsp; &nbsp; &nbsp; &nbsp; &nbsp;<font class='negOutcome'>Shared back: <strong>0</strong></font></font><div class='respPicDiv'><img src='img/responseButtonOffersNo0_wht.png' class='respPic'></div></div>","null","2","Richard","6","Kept","0.8,0.2","9","0.8","trustrating_stim/white_mw097.bmp","4.5","24","4"
"html-keyboard-response","149","211200","0.0-19.0-1.4","60599946259dc97d30e2001f","bdp_trlrn","Mon Mar 13 2023 19:50:32 GMT-0700 (Pacific Daylight Time)","533092","Untrustworthy,Trustworthy","","2355","","","","decision","","<div class='trialDiv'><img src='trustrating_stim/white_00129_931230_fb_edt.bmp'><br><font class='baseline'><strong>Aaron</strong><p>Choose number of points to send.</font><div class='respPicDiv'><img src='img/responseButtonOffersNo0L.png' class='respPic'></div></div>","3","2","Aaron","8","Kept","0.8,0.35","8","0.8","trustrating_stim/white_00129_931230_fb_edt.bmp","7","29","5"
"html-keyboard-response","150","211451","0.0-19.0-2.4","60599946259dc97d30e2001f","bdp_trlrn","Mon Mar 13 2023 19:50:32 GMT-0700 (Pacific Daylight Time)","533092","Untrustworthy,Trustworthy","","null","","","","decisionFB","","<div class='trialDiv'><img src='trustrating_stim/white_00129_931230_fb_edt.bmp'><br><font class='baseline'><strong>Aaron</strong><p>Choose number of points to send.</font><div class='respPicDiv'><img src='img/responseButtonOffersNo0L3.png' class='respPic'></div></div>","null","2","Aaron","8","Kept","0.8,0.35","8","0.8","trustrating_stim/white_00129_931230_fb_edt.bmp","7","26","5"
"html-keyboard-response","151","212452","0.0-19.0-3.4","60599946259dc97d30e2001f","bdp_trlrn","Mon Mar 13 2023 19:50:32 GMT-0700 (Pacific Daylight Time)","533092","Untrustworthy,Trustworthy","","null","","","","feedback","","<div class='trialDiv'><img src='trustrating_stim/white_00129_931230_fb_edt.bmp'><br><font class='baseline'><strong>Aaron</strong><p>Received: <strong>12</strong></font> &nbsp; &nbsp; &nbsp; &nbsp; &nbsp; &nbsp;<font class='negOutcome'>Shared back: <strong>0</strong></font></font><div class='respPicDiv'><img src='img/responseButtonOffersNo0_wht.png' class='respPic'></div></div>","null","2","Aaron","8","Kept","0.8,0.35","8","0.8","trustrating_stim/white_00129_931230_fb_edt.bmp","7","26","5"
"html-keyboard-response","152","213856","0.0-19.0-1.5","60599946259dc97d30e2001f","bdp_trlrn","Mon Mar 13 2023 19:50:32 GMT-0700 (Pacific Daylight Time)","533092","Untrustworthy,Trustworthy","","1404","","","","decision","","<div class='trialDiv'><img src='trustrating_stim/white_00761_941201_fb_edt.bmp'><br><font class='baseline'><strong>Brian</strong><p>Choose number of points to send.</font><div class='respPicDiv'><img src='img/responseButtonOffersNo0L.png' class='respPic'></div></div>","4","2","Brian","3","Shared","0.35,0.8","14","0.35","trustrating_stim/white_00761_941201_fb_edt.bmp","2","31","6"
"html-keyboard-response","153","214107","0.0-19.0-2.5","60599946259dc97d30e2001f","bdp_trlrn","Mon Mar 13 2023 19:50:32 GMT-0700 (Pacific Daylight Time)","533092","Untrustworthy,Trustworthy","","null","","","","decisionFB","","<div class='trialDiv'><img src='trustrating_stim/white_00761_941201_fb_edt.bmp'><br><font class='baseline'><strong>Brian</strong><p>Choose number of points to send.</font><div class='respPicDiv'><img src='img/responseButtonOffersNo0L4.png' class='respPic'></div></div>","null","2","Brian","3","Shared","0.35,0.8","14","0.35","trustrating_stim/white_00761_941201_fb_edt.bmp","2","27","6"
"html-keyboard-response","154","215108","0.0-19.0-3.5","60599946259dc97d30e2001f","bdp_trlrn","Mon Mar 13 2023 19:50:32 GMT-0700 (Pacific Daylight Time)","533092","Untrustworthy,Trustworthy","","null","","","","feedback","","<div class='trialDiv'><img src='trustrating_stim/white_00761_941201_fb_edt.bmp'><br><font class='baseline'><strong>Brian</strong><p>Received: <strong>16</strong></font> &nbsp; &nbsp; &nbsp; &nbsp; &nbsp; &nbsp;<font class='posOutcome'>Shared back: <strong>8</strong></font></font><div class='respPicDiv'><img src='img/responseButtonOffersNo0_wht.png' class='respPic'></div></div>","null","2","Brian","3","Shared","0.35,0.8","14","0.35","trustrating_stim/white_00761_941201_fb_edt.bmp","2","35","6"
"html-keyboard-response","155","216424","0.0-19.0-1.6","60599946259dc97d30e2001f","bdp_trlrn","Mon Mar 13 2023 19:50:32 GMT-0700 (Pacific Daylight Time)","533092","Untrustworthy,Trustworthy","","1315","","","","decision","","<div class='trialDiv'><img src='trustrating_stim/white_00129_931230_fb_edt.bmp'><br><font class='baseline'><strong>Aaron</strong><p>Choose number of points to send.</font><div class='respPicDiv'><img src='img/responseButtonOffersNo0L.png' class='respPic'></div></div>","2","3","Aaron","8","Shared","0.8,0.35","8","0.8","trustrating_stim/white_00129_931230_fb_edt.bmp","7","40","7"
"html-keyboard-response","156","216675","0.0-19.0-2.6","60599946259dc97d30e2001f","bdp_trlrn","Mon Mar 13 2023 19:50:32 GMT-0700 (Pacific Daylight Time)","533092","Untrustworthy,Trustworthy","","null","","","","decisionFB","","<div class='trialDiv'><img src='trustrating_stim/white_00129_931230_fb_edt.bmp'><br><font class='baseline'><strong>Aaron</strong><p>Choose number of points to send.</font><div class='respPicDiv'><img src='img/responseButtonOffersNo0L2.png' class='respPic'></div></div>","null","3","Aaron","8","Shared","0.8,0.35","8","0.8","trustrating_stim/white_00129_931230_fb_edt.bmp","7","38","7"
"html-keyboard-response","157","217676","0.0-19.0-3.6","60599946259dc97d30e2001f","bdp_trlrn","Mon Mar 13 2023 19:50:32 GMT-0700 (Pacific Daylight Time)","533092","Untrustworthy,Trustworthy","","null","","","","feedback","","<div class='trialDiv'><img src='trustrating_stim/white_00129_931230_fb_edt.bmp'><br><font class='baseline'><strong>Aaron</strong><p>Received: <strong>8</strong></font> &nbsp; &nbsp; &nbsp; &nbsp; &nbsp; &nbsp;<font class='posOutcome'>Shared back: <strong>4</strong></font></font><div class='respPicDiv'><img src='img/responseButtonOffersNo0_wht.png' class='respPic'></div></div>","null","3","Aaron","8","Shared","0.8,0.35","8","0.8","trustrating_stim/white_00129_931230_fb_edt.bmp","7","42","7"
"html-keyboard-response","158","219224","0.0-19.0-1.7","60599946259dc97d30e2001f","bdp_trlrn","Mon Mar 13 2023 19:50:32 GMT-0700 (Pacific Daylight Time)","533092","Untrustworthy,Trustworthy","","1547","","","","decision","","<div class='trialDiv'><img src='trustrating_stim/white_mw097.bmp'><br><font class='baseline'><strong>Richard</strong><p>Choose number of points to send.</font><div class='respPicDiv'><img src='img/responseButtonOffersNo0L.png' class='respPic'></div></div>","4","3","Richard","6","Shared","0.8,0.2","9","0.8","trustrating_stim/white_mw097.bmp","4.5","47","8"
"html-keyboard-response","159","219475","0.0-19.0-2.7","60599946259dc97d30e2001f","bdp_trlrn","Mon Mar 13 2023 19:50:32 GMT-0700 (Pacific Daylight Time)","533092","Untrustworthy,Trustworthy","","null","","","","decisionFB","","<div class='trialDiv'><img src='trustrating_stim/white_mw097.bmp'><br><font class='baseline'><strong>Richard</strong><p>Choose number of points to send.</font><div class='respPicDiv'><img src='img/responseButtonOffersNo0L4.png' class='respPic'></div></div>","null","3","Richard","6","Shared","0.8,0.2","9","0.8","trustrating_stim/white_mw097.bmp","4.5","43","8"
"html-keyboard-response","160","220476","0.0-19.0-3.7","60599946259dc97d30e2001f","bdp_trlrn","Mon Mar 13 2023 19:50:32 GMT-0700 (Pacific Daylight Time)","533092","Untrustworthy,Trustworthy","","null","","","","feedback","","<div class='trialDiv'><img src='trustrating_stim/white_mw097.bmp'><br><font class='baseline'><strong>Richard</strong><p>Received: <strong>16</strong></font> &nbsp; &nbsp; &nbsp; &nbsp; &nbsp; &nbsp;<font class='posOutcome'>Shared back: <strong>8</strong></font></font><div class='respPicDiv'><img src='img/responseButtonOffersNo0_wht.png' class='respPic'></div></div>","null","3","Richard","6","Shared","0.8,0.2","9","0.8","trustrating_stim/white_mw097.bmp","4.5","51","8"
"html-keyboard-response","161","221968","0.0-19.0-1.8","60599946259dc97d30e2001f","bdp_trlrn","Mon Mar 13 2023 19:50:32 GMT-0700 (Pacific Daylight Time)","533092","Untrustworthy,Trustworthy","","1491","","","","decision","","<div class='trialDiv'><img src='trustrating_stim/white_00761_941201_fb_edt.bmp'><br><font class='baseline'><strong>Brian</strong><p>Choose number of points to send.</font><div class='respPicDiv'><img src='img/responseButtonOffersNo0L.png' class='respPic'></div></div>","2","3","Brian","3","Kept","0.35,0.8","14","0.35","trustrating_stim/white_00761_941201_fb_edt.bmp","2","56","9"
"html-keyboard-response","162","222218","0.0-19.0-2.8","60599946259dc97d30e2001f","bdp_trlrn","Mon Mar 13 2023 19:50:32 GMT-0700 (Pacific Daylight Time)","533092","Untrustworthy,Trustworthy","","null","","","","decisionFB","","<div class='trialDiv'><img src='trustrating_stim/white_00761_941201_fb_edt.bmp'><br><font class='baseline'><strong>Brian</strong><p>Choose number of points to send.</font><div class='respPicDiv'><img src='img/responseButtonOffersNo0L2.png' class='respPic'></div></div>","null","3","Brian","3","Kept","0.35,0.8","14","0.35","trustrating_stim/white_00761_941201_fb_edt.bmp","2","54","9"
"html-keyboard-response","163","223226","0.0-19.0-3.8","60599946259dc97d30e2001f","bdp_trlrn","Mon Mar 13 2023 19:50:32 GMT-0700 (Pacific Daylight Time)","533092","Untrustworthy,Trustworthy","","null","","","","feedback","","<div class='trialDiv'><img src='trustrating_stim/white_00761_941201_fb_edt.bmp'><br><font class='baseline'><strong>Brian</strong><p>Received: <strong>8</strong></font> &nbsp; &nbsp; &nbsp; &nbsp; &nbsp; &nbsp;<font class='negOutcome'>Shared back: <strong>0</strong></font></font><div class='respPicDiv'><img src='img/responseButtonOffersNo0_wht.png' class='respPic'></div></div>","null","3","Brian","3","Kept","0.35,0.8","14","0.35","trustrating_stim/white_00761_941201_fb_edt.bmp","2","54","9"
"html-keyboard-response","164","224008","0.0-19.0-1.9","60599946259dc97d30e2001f","bdp_trlrn","Mon Mar 13 2023 19:50:32 GMT-0700 (Pacific Daylight Time)","533092","Untrustworthy,Trustworthy","","782","","","","decision","","<div class='trialDiv'><img src='trustrating_stim/white_mw097.bmp'><br><font class='baseline'><strong>Richard</strong><p>Choose number of points to send.</font><div class='respPicDiv'><img src='img/responseButtonOffersNo0L.png' class='respPic'></div></div>","5","4","Richard","6","Shared","0.8,0.2","9","0.8","trustrating_stim/white_mw097.bmp","4.5","59","10"
"html-keyboard-response","165","224259","0.0-19.0-2.9","60599946259dc97d30e2001f","bdp_trlrn","Mon Mar 13 2023 19:50:32 GMT-0700 (Pacific Daylight Time)","533092","Untrustworthy,Trustworthy","","null","","","","decisionFB","","<div class='trialDiv'><img src='trustrating_stim/white_mw097.bmp'><br><font class='baseline'><strong>Richard</strong><p>Choose number of points to send.</font><div class='respPicDiv'><img src='img/responseButtonOffersNo0L5.png' class='respPic'></div></div>","null","4","Richard","6","Shared","0.8,0.2","9","0.8","trustrating_stim/white_mw097.bmp","4.5","54","10"
"html-keyboard-response","166","225275","0.0-19.0-3.9","60599946259dc97d30e2001f","bdp_trlrn","Mon Mar 13 2023 19:50:32 GMT-0700 (Pacific Daylight Time)","533092","Untrustworthy,Trustworthy","","null","","","","feedback","","<div class='trialDiv'><img src='trustrating_stim/white_mw097.bmp'><br><font class='baseline'><strong>Richard</strong><p>Received: <strong>20</strong></font> &nbsp; &nbsp; &nbsp; &nbsp; &nbsp; &nbsp;<font class='posOutcome'>Shared back: <strong>10</strong></font></font><div class='respPicDiv'><img src='img/responseButtonOffersNo0_wht.png' class='respPic'></div></div>","null","4","Richard","6","Shared","0.8,0.2","9","0.8","trustrating_stim/white_mw097.bmp","4.5","64","10"
"html-keyboard-response","167","227520","0.0-19.0-1.10","60599946259dc97d30e2001f","bdp_trlrn","Mon Mar 13 2023 19:50:32 GMT-0700 (Pacific Daylight Time)","533092","Untrustworthy,Trustworthy","","2245","","","","decision","","<div class='trialDiv'><img src='trustrating_stim/white_00129_931230_fb_edt.bmp'><br><font class='baseline'><strong>Aaron</strong><p>Choose number of points to send.</font><div class='respPicDiv'><img src='img/responseButtonOffersNo0L.png' class='respPic'></div></div>","2","4","Aaron","8","Shared","0.8,0.35","8","0.8","trustrating_stim/white_00129_931230_fb_edt.bmp","7","69","11"
"html-keyboard-response","168","227772","0.0-19.0-2.10","60599946259dc97d30e2001f","bdp_trlrn","Mon Mar 13 2023 19:50:32 GMT-0700 (Pacific Daylight Time)","533092","Untrustworthy,Trustworthy","","null","","","","decisionFB","","<div class='trialDiv'><img src='trustrating_stim/white_00129_931230_fb_edt.bmp'><br><font class='baseline'><strong>Aaron</strong><p>Choose number of points to send.</font><div class='respPicDiv'><img src='img/responseButtonOffersNo0L2.png' class='respPic'></div></div>","null","4","Aaron","8","Shared","0.8,0.35","8","0.8","trustrating_stim/white_00129_931230_fb_edt.bmp","7","67","11"
"html-keyboard-response","169","228773","0.0-19.0-3.10","60599946259dc97d30e2001f","bdp_trlrn","Mon Mar 13 2023 19:50:32 GMT-0700 (Pacific Daylight Time)","533092","Untrustworthy,Trustworthy","","null","","","","feedback","","<div class='trialDiv'><img src='trustrating_stim/white_00129_931230_fb_edt.bmp'><br><font class='baseline'><strong>Aaron</strong><p>Received: <strong>8</strong></font> &nbsp; &nbsp; &nbsp; &nbsp; &nbsp; &nbsp;<font class='posOutcome'>Shared back: <strong>4</strong></font></font><div class='respPicDiv'><img src='img/responseButtonOffersNo0_wht.png' class='respPic'></div></div>","null","4","Aaron","8","Shared","0.8,0.35","8","0.8","trustrating_stim/white_00129_931230_fb_edt.bmp","7","71","11"
"html-keyboard-response","170","230135","0.0-19.0-1.11","60599946259dc97d30e2001f","bdp_trlrn","Mon Mar 13 2023 19:50:32 GMT-0700 (Pacific Daylight Time)","533092","Untrustworthy,Trustworthy","","1362","","","","decision","","<div class='trialDiv'><img src='trustrating_stim/white_00761_941201_fb_edt.bmp'><br><font class='baseline'><strong>Brian</strong><p>Choose number of points to send.</font><div class='respPicDiv'><img src='img/responseButtonOffersNo0L.png' class='respPic'></div></div>","2","4","Brian","3","Kept","0.35,0.8","14","0.35","trustrating_stim/white_00761_941201_fb_edt.bmp","2","76","12"
"html-keyboard-response","171","230387","0.0-19.0-2.11","60599946259dc97d30e2001f","bdp_trlrn","Mon Mar 13 2023 19:50:32 GMT-0700 (Pacific Daylight Time)","533092","Untrustworthy,Trustworthy","","null","","","","decisionFB","","<div class='trialDiv'><img src='trustrating_stim/white_00761_941201_fb_edt.bmp'><br><font class='baseline'><strong>Brian</strong><p>Choose number of points to send.</font><div class='respPicDiv'><img src='img/responseButtonOffersNo0L2.png' class='respPic'></div></div>","null","4","Brian","3","Kept","0.35,0.8","14","0.35","trustrating_stim/white_00761_941201_fb_edt.bmp","2","74","12"
"html-keyboard-response","172","231388","0.0-19.0-3.11","60599946259dc97d30e2001f","bdp_trlrn","Mon Mar 13 2023 19:50:32 GMT-0700 (Pacific Daylight Time)","533092","Untrustworthy,Trustworthy","","null","","","","feedback","","<div class='trialDiv'><img src='trustrating_stim/white_00761_941201_fb_edt.bmp'><br><font class='baseline'><strong>Brian</strong><p>Received: <strong>8</strong></font> &nbsp; &nbsp; &nbsp; &nbsp; &nbsp; &nbsp;<font class='negOutcome'>Shared back: <strong>0</strong></font></font><div class='respPicDiv'><img src='img/responseButtonOffersNo0_wht.png' class='respPic'></div></div>","null","4","Brian","3","Kept","0.35,0.8","14","0.35","trustrating_stim/white_00761_941201_fb_edt.bmp","2","74","12"
"html-keyboard-response","173","232104","0.0-19.0-1.12","60599946259dc97d30e2001f","bdp_trlrn","Mon Mar 13 2023 19:50:32 GMT-0700 (Pacific Daylight Time)","533092","Untrustworthy,Trustworthy","","715","","","","decision","","<div class='trialDiv'><img src='trustrating_stim/white_mw097.bmp'><br><font class='baseline'><strong>Richard</strong><p>Choose number of points to send.</font><div class='respPicDiv'><img src='img/responseButtonOffersNo0L.png' class='respPic'></div></div>","5","5","Richard","6","Shared","0.8,0.2","9","0.8","trustrating_stim/white_mw097.bmp","4.5","79","13"
"html-keyboard-response","174","232355","0.0-19.0-2.12","60599946259dc97d30e2001f","bdp_trlrn","Mon Mar 13 2023 19:50:32 GMT-0700 (Pacific Daylight Time)","533092","Untrustworthy,Trustworthy","","null","","","","decisionFB","","<div class='trialDiv'><img src='trustrating_stim/white_mw097.bmp'><br><font class='baseline'><strong>Richard</strong><p>Choose number of points to send.</font><div class='respPicDiv'><img src='img/responseButtonOffersNo0L5.png' class='respPic'></div></div>","null","5","Richard","6","Shared","0.8,0.2","9","0.8","trustrating_stim/white_mw097.bmp","4.5","74","13"
"html-keyboard-response","175","233356","0.0-19.0-3.12","60599946259dc97d30e2001f","bdp_trlrn","Mon Mar 13 2023 19:50:32 GMT-0700 (Pacific Daylight Time)","533092","Untrustworthy,Trustworthy","","null","","","","feedback","","<div class='trialDiv'><img src='trustrating_stim/white_mw097.bmp'><br><font class='baseline'><strong>Richard</strong><p>Received: <strong>20</strong></font> &nbsp; &nbsp; &nbsp; &nbsp; &nbsp; &nbsp;<font class='posOutcome'>Shared back: <strong>10</strong></font></font><div class='respPicDiv'><img src='img/responseButtonOffersNo0_wht.png' class='respPic'></div></div>","null","5","Richard","6","Shared","0.8,0.2","9","0.8","trustrating_stim/white_mw097.bmp","4.5","84","13"
"html-keyboard-response","176","234424","0.0-19.0-1.13","60599946259dc97d30e2001f","bdp_trlrn","Mon Mar 13 2023 19:50:32 GMT-0700 (Pacific Daylight Time)","533092","Untrustworthy,Trustworthy","","1068","","","","decision","","<div class='trialDiv'><img src='trustrating_stim/white_00129_931230_fb_edt.bmp'><br><font class='baseline'><strong>Aaron</strong><p>Choose number of points to send.</font><div class='respPicDiv'><img src='img/responseButtonOffersNo0L.png' class='respPic'></div></div>","4","5","Aaron","8","Shared","0.8,0.35","8","0.8","trustrating_stim/white_00129_931230_fb_edt.bmp","7","89","14"
"html-keyboard-response","177","234675","0.0-19.0-2.13","60599946259dc97d30e2001f","bdp_trlrn","Mon Mar 13 2023 19:50:32 GMT-0700 (Pacific Daylight Time)","533092","Untrustworthy,Trustworthy","","null","","","","decisionFB","","<div class='trialDiv'><img src='trustrating_stim/white_00129_931230_fb_edt.bmp'><br><font class='baseline'><strong>Aaron</strong><p>Choose number of points to send.</font><div class='respPicDiv'><img src='img/responseButtonOffersNo0L4.png' class='respPic'></div></div>","null","5","Aaron","8","Shared","0.8,0.35","8","0.8","trustrating_stim/white_00129_931230_fb_edt.bmp","7","85","14"
"html-keyboard-response","178","235677","0.0-19.0-3.13","60599946259dc97d30e2001f","bdp_trlrn","Mon Mar 13 2023 19:50:32 GMT-0700 (Pacific Daylight Time)","533092","Untrustworthy,Trustworthy","","null","","","","feedback","","<div class='trialDiv'><img src='trustrating_stim/white_00129_931230_fb_edt.bmp'><br><font class='baseline'><strong>Aaron</strong><p>Received: <strong>16</strong></font> &nbsp; &nbsp; &nbsp; &nbsp; &nbsp; &nbsp;<font class='posOutcome'>Shared back: <strong>8</strong></font></font><div class='respPicDiv'><img src='img/responseButtonOffersNo0_wht.png' class='respPic'></div></div>","null","5","Aaron","8","Shared","0.8,0.35","8","0.8","trustrating_stim/white_00129_931230_fb_edt.bmp","7","93","14"
"html-keyboard-response","179","236504","0.0-19.0-1.14","60599946259dc97d30e2001f","bdp_trlrn","Mon Mar 13 2023 19:50:32 GMT-0700 (Pacific Daylight Time)","533092","Untrustworthy,Trustworthy","","826","","","","decision","","<div class='trialDiv'><img src='trustrating_stim/white_00761_941201_fb_edt.bmp'><br><font class='baseline'><strong>Brian</strong><p>Choose number of points to send.</font><div class='respPicDiv'><img src='img/responseButtonOffersNo0L.png' class='respPic'></div></div>","1","5","Brian","3","Kept","0.35,0.8","14","0.35","trustrating_stim/white_00761_941201_fb_edt.bmp","2","98","15"
"html-keyboard-response","180","236756","0.0-19.0-2.14","60599946259dc97d30e2001f","bdp_trlrn","Mon Mar 13 2023 19:50:32 GMT-0700 (Pacific Daylight Time)","533092","Untrustworthy,Trustworthy","","null","","","","decisionFB","","<div class='trialDiv'><img src='trustrating_stim/white_00761_941201_fb_edt.bmp'><br><font class='baseline'><strong>Brian</strong><p>Choose number of points to send.</font><div class='respPicDiv'><img src='img/responseButtonOffersNo0L1.png' class='respPic'></div></div>","null","5","Brian","3","Kept","0.35,0.8","14","0.35","trustrating_stim/white_00761_941201_fb_edt.bmp","2","97","15"
"html-keyboard-response","181","237757","0.0-19.0-3.14","60599946259dc97d30e2001f","bdp_trlrn","Mon Mar 13 2023 19:50:32 GMT-0700 (Pacific Daylight Time)","533092","Untrustworthy,Trustworthy","","null","","","","feedback","","<div class='trialDiv'><img src='trustrating_stim/white_00761_941201_fb_edt.bmp'><br><font class='baseline'><strong>Brian</strong><p>Received: <strong>4</strong></font> &nbsp; &nbsp; &nbsp; &nbsp; &nbsp; &nbsp;<font class='negOutcome'>Shared back: <strong>0</strong></font></font><div class='respPicDiv'><img src='img/responseButtonOffersNo0_wht.png' class='respPic'></div></div>","null","5","Brian","3","Kept","0.35,0.8","14","0.35","trustrating_stim/white_00761_941201_fb_edt.bmp","2","97","15"
"html-keyboard-response","182","238911","0.0-19.0-1.15","60599946259dc97d30e2001f","bdp_trlrn","Mon Mar 13 2023 19:50:32 GMT-0700 (Pacific Daylight Time)","533092","Untrustworthy,Trustworthy","","1154","","","","decision","","<div class='trialDiv'><img src='trustrating_stim/white_00129_931230_fb_edt.bmp'><br><font class='baseline'><strong>Aaron</strong><p>Choose number of points to send.</font><div class='respPicDiv'><img src='img/responseButtonOffersNo0L.png' class='respPic'></div></div>","3","6","Aaron","8","Shared","0.8,0.35","8","0.8","trustrating_stim/white_00129_931230_fb_edt.bmp","7","102","16"
"html-keyboard-response","183","239163","0.0-19.0-2.15","60599946259dc97d30e2001f","bdp_trlrn","Mon Mar 13 2023 19:50:32 GMT-0700 (Pacific Daylight Time)","533092","Untrustworthy,Trustworthy","","null","","","","decisionFB","","<div class='trialDiv'><img src='trustrating_stim/white_00129_931230_fb_edt.bmp'><br><font class='baseline'><strong>Aaron</strong><p>Choose number of points to send.</font><div class='respPicDiv'><img src='img/responseButtonOffersNo0L3.png' class='respPic'></div></div>","null","6","Aaron","8","Shared","0.8,0.35","8","0.8","trustrating_stim/white_00129_931230_fb_edt.bmp","7","99","16"
"html-keyboard-response","184","240164","0.0-19.0-3.15","60599946259dc97d30e2001f","bdp_trlrn","Mon Mar 13 2023 19:50:32 GMT-0700 (Pacific Daylight Time)","533092","Untrustworthy,Trustworthy","","null","","","","feedback","","<div class='trialDiv'><img src='trustrating_stim/white_00129_931230_fb_edt.bmp'><br><font class='baseline'><strong>Aaron</strong><p>Received: <strong>12</strong></font> &nbsp; &nbsp; &nbsp; &nbsp; &nbsp; &nbsp;<font class='posOutcome'>Shared back: <strong>6</strong></font></font><div class='respPicDiv'><img src='img/responseButtonOffersNo0_wht.png' class='respPic'></div></div>","null","6","Aaron","8","Shared","0.8,0.35","8","0.8","trustrating_stim/white_00129_931230_fb_edt.bmp","7","105","16"
"html-keyboard-response","185","241152","0.0-19.0-1.16","60599946259dc97d30e2001f","bdp_trlrn","Mon Mar 13 2023 19:50:32 GMT-0700 (Pacific Daylight Time)","533092","Untrustworthy,Trustworthy","","987","","","","decision","","<div class='trialDiv'><img src='trustrating_stim/white_00761_941201_fb_edt.bmp'><br><font class='baseline'><strong>Brian</strong><p>Choose number of points to send.</font><div class='respPicDiv'><img src='img/responseButtonOffersNo0L.png' class='respPic'></div></div>","2","6","Brian","3","Kept","0.35,0.8","14","0.35","trustrating_stim/white_00761_941201_fb_edt.bmp","2","110","17"
"html-keyboard-response","186","241403","0.0-19.0-2.16","60599946259dc97d30e2001f","bdp_trlrn","Mon Mar 13 2023 19:50:32 GMT-0700 (Pacific Daylight Time)","533092","Untrustworthy,Trustworthy","","null","","","","decisionFB","","<div class='trialDiv'><img src='trustrating_stim/white_00761_941201_fb_edt.bmp'><br><font class='baseline'><strong>Brian</strong><p>Choose number of points to send.</font><div class='respPicDiv'><img src='img/responseButtonOffersNo0L2.png' class='respPic'></div></div>","null","6","Brian","3","Kept","0.35,0.8","14","0.35","trustrating_stim/white_00761_941201_fb_edt.bmp","2","108","17"
"html-keyboard-response","187","242404","0.0-19.0-3.16","60599946259dc97d30e2001f","bdp_trlrn","Mon Mar 13 2023 19:50:32 GMT-0700 (Pacific Daylight Time)","533092","Untrustworthy,Trustworthy","","null","","","","feedback","","<div class='trialDiv'><img src='trustrating_stim/white_00761_941201_fb_edt.bmp'><br><font class='baseline'><strong>Brian</strong><p>Received: <strong>8</strong></font> &nbsp; &nbsp; &nbsp; &nbsp; &nbsp; &nbsp;<font class='negOutcome'>Shared back: <strong>0</strong></font></font><div class='respPicDiv'><img src='img/responseButtonOffersNo0_wht.png' class='respPic'></div></div>","null","6","Brian","3","Kept","0.35,0.8","14","0.35","trustrating_stim/white_00761_941201_fb_edt.bmp","2","108","17"
"html-keyboard-response","188","243808","0.0-19.0-1.17","60599946259dc97d30e2001f","bdp_trlrn","Mon Mar 13 2023 19:50:32 GMT-0700 (Pacific Daylight Time)","533092","Untrustworthy,Trustworthy","","1403","","","","decision","","<div class='trialDiv'><img src='trustrating_stim/white_mw097.bmp'><br><font class='baseline'><strong>Richard</strong><p>Choose number of points to send.</font><div class='respPicDiv'><img src='img/responseButtonOffersNo0L.png' class='respPic'></div></div>","4","6","Richard","6","Kept","0.8,0.2","9","0.8","trustrating_stim/white_mw097.bmp","4.5","113","18"
"html-keyboard-response","189","244059","0.0-19.0-2.17","60599946259dc97d30e2001f","bdp_trlrn","Mon Mar 13 2023 19:50:32 GMT-0700 (Pacific Daylight Time)","533092","Untrustworthy,Trustworthy","","null","","","","decisionFB","","<div class='trialDiv'><img src='trustrating_stim/white_mw097.bmp'><br><font class='baseline'><strong>Richard</strong><p>Choose number of points to send.</font><div class='respPicDiv'><img src='img/responseButtonOffersNo0L4.png' class='respPic'></div></div>","null","6","Richard","6","Kept","0.8,0.2","9","0.8","trustrating_stim/white_mw097.bmp","4.5","109","18"
"html-keyboard-response","190","245061","0.0-19.0-3.17","60599946259dc97d30e2001f","bdp_trlrn","Mon Mar 13 2023 19:50:32 GMT-0700 (Pacific Daylight Time)","533092","Untrustworthy,Trustworthy","","null","","","","feedback","","<div class='trialDiv'><img src='trustrating_stim/white_mw097.bmp'><br><font class='baseline'><strong>Richard</strong><p>Received: <strong>16</strong></font> &nbsp; &nbsp; &nbsp; &nbsp; &nbsp; &nbsp;<font class='negOutcome'>Shared back: <strong>0</strong></font></font><div class='respPicDiv'><img src='img/responseButtonOffersNo0_wht.png' class='respPic'></div></div>","null","6","Richard","6","Kept","0.8,0.2","9","0.8","trustrating_stim/white_mw097.bmp","4.5","109","18"
"html-keyboard-response","191","246416","0.0-19.0-1.18","60599946259dc97d30e2001f","bdp_trlrn","Mon Mar 13 2023 19:50:32 GMT-0700 (Pacific Daylight Time)","533092","Untrustworthy,Trustworthy","","1355","","","","decision","","<div class='trialDiv'><img src='trustrating_stim/white_00761_941201_fb_edt.bmp'><br><font class='baseline'><strong>Brian</strong><p>Choose number of points to send.</font><div class='respPicDiv'><img src='img/responseButtonOffersNo0L.png' class='respPic'></div></div>","2","7","Brian","3","Kept","0.35,0.8","14","0.35","trustrating_stim/white_00761_941201_fb_edt.bmp","2","114","19"
"html-keyboard-response","192","246667","0.0-19.0-2.18","60599946259dc97d30e2001f","bdp_trlrn","Mon Mar 13 2023 19:50:32 GMT-0700 (Pacific Daylight Time)","533092","Untrustworthy,Trustworthy","","null","","","","decisionFB","","<div class='trialDiv'><img src='trustrating_stim/white_00761_941201_fb_edt.bmp'><br><font class='baseline'><strong>Brian</strong><p>Choose number of points to send.</font><div class='respPicDiv'><img src='img/responseButtonOffersNo0L2.png' class='respPic'></div></div>","null","7","Brian","3","Kept","0.35,0.8","14","0.35","trustrating_stim/white_00761_941201_fb_edt.bmp","2","112","19"
"html-keyboard-response","193","247669","0.0-19.0-3.18","60599946259dc97d30e2001f","bdp_trlrn","Mon Mar 13 2023 19:50:32 GMT-0700 (Pacific Daylight Time)","533092","Untrustworthy,Trustworthy","","null","","","","feedback","","<div class='trialDiv'><img src='trustrating_stim/white_00761_941201_fb_edt.bmp'><br><font class='baseline'><strong>Brian</strong><p>Received: <strong>8</strong></font> &nbsp; &nbsp; &nbsp; &nbsp; &nbsp; &nbsp;<font class='negOutcome'>Shared back: <strong>0</strong></font></font><div class='respPicDiv'><img src='img/responseButtonOffersNo0_wht.png' class='respPic'></div></div>","null","7","Brian","3","Kept","0.35,0.8","14","0.35","trustrating_stim/white_00761_941201_fb_edt.bmp","2","112","19"
"html-keyboard-response","194","249192","0.0-19.0-1.19","60599946259dc97d30e2001f","bdp_trlrn","Mon Mar 13 2023 19:50:32 GMT-0700 (Pacific Daylight Time)","533092","Untrustworthy,Trustworthy","","1523","","","","decision","","<div class='trialDiv'><img src='trustrating_stim/white_mw097.bmp'><br><font class='baseline'><strong>Richard</strong><p>Choose number of points to send.</font><div class='respPicDiv'><img src='img/responseButtonOffersNo0L.png' class='respPic'></div></div>","3","7","Richard","6","Shared","0.8,0.2","9","0.8","trustrating_stim/white_mw097.bmp","4.5","117","20"
"html-keyboard-response","195","249443","0.0-19.0-2.19","60599946259dc97d30e2001f","bdp_trlrn","Mon Mar 13 2023 19:50:32 GMT-0700 (Pacific Daylight Time)","533092","Untrustworthy,Trustworthy","","null","","","","decisionFB","","<div class='trialDiv'><img src='trustrating_stim/white_mw097.bmp'><br><font class='baseline'><strong>Richard</strong><p>Choose number of points to send.</font><div class='respPicDiv'><img src='img/responseButtonOffersNo0L3.png' class='respPic'></div></div>","null","7","Richard","6","Shared","0.8,0.2","9","0.8","trustrating_stim/white_mw097.bmp","4.5","114","20"
"html-keyboard-response","196","250444","0.0-19.0-3.19","60599946259dc97d30e2001f","bdp_trlrn","Mon Mar 13 2023 19:50:32 GMT-0700 (Pacific Daylight Time)","533092","Untrustworthy,Trustworthy","","null","","","","feedback","","<div class='trialDiv'><img src='trustrating_stim/white_mw097.bmp'><br><font class='baseline'><strong>Richard</strong><p>Received: <strong>12</strong></font> &nbsp; &nbsp; &nbsp; &nbsp; &nbsp; &nbsp;<font class='posOutcome'>Shared back: <strong>6</strong></font></font><div class='respPicDiv'><img src='img/responseButtonOffersNo0_wht.png' class='respPic'></div></div>","null","7","Richard","6","Shared","0.8,0.2","9","0.8","trustrating_stim/white_mw097.bmp","4.5","120","20"
"html-keyboard-response","197","251559","0.0-19.0-1.20","60599946259dc97d30e2001f","bdp_trlrn","Mon Mar 13 2023 19:50:32 GMT-0700 (Pacific Daylight Time)","533092","Untrustworthy,Trustworthy","","1115","","","","decision","","<div class='trialDiv'><img src='trustrating_stim/white_00129_931230_fb_edt.bmp'><br><font class='baseline'><strong>Aaron</strong><p>Choose number of points to send.</font><div class='respPicDiv'><img src='img/responseButtonOffersNo0L.png' class='respPic'></div></div>","3","7","Aaron","8","Kept","0.8,0.35","8","0.8","trustrating_stim/white_00129_931230_fb_edt.bmp","7","125","21"
"html-keyboard-response","198","251820","0.0-19.0-2.20","60599946259dc97d30e2001f","bdp_trlrn","Mon Mar 13 2023 19:50:32 GMT-0700 (Pacific Daylight Time)","533092","Untrustworthy,Trustworthy","","null","","","","decisionFB","","<div class='trialDiv'><img src='trustrating_stim/white_00129_931230_fb_edt.bmp'><br><font class='baseline'><strong>Aaron</strong><p>Choose number of points to send.</font><div class='respPicDiv'><img src='img/responseButtonOffersNo0L3.png' class='respPic'></div></div>","null","7","Aaron","8","Kept","0.8,0.35","8","0.8","trustrating_stim/white_00129_931230_fb_edt.bmp","7","122","21"
"html-keyboard-response","199","252821","0.0-19.0-3.20","60599946259dc97d30e2001f","bdp_trlrn","Mon Mar 13 2023 19:50:32 GMT-0700 (Pacific Daylight Time)","533092","Untrustworthy,Trustworthy","","null","","","","feedback","","<div class='trialDiv'><img src='trustrating_stim/white_00129_931230_fb_edt.bmp'><br><font class='baseline'><strong>Aaron</strong><p>Received: <strong>12</strong></font> &nbsp; &nbsp; &nbsp; &nbsp; &nbsp; &nbsp;<font class='negOutcome'>Shared back: <strong>0</strong></font></font><div class='respPicDiv'><img src='img/responseButtonOffersNo0_wht.png' class='respPic'></div></div>","null","7","Aaron","8","Kept","0.8,0.35","8","0.8","trustrating_stim/white_00129_931230_fb_edt.bmp","7","122","21"
"html-keyboard-response","200","253815","0.0-19.0-1.21","60599946259dc97d30e2001f","bdp_trlrn","Mon Mar 13 2023 19:50:32 GMT-0700 (Pacific Daylight Time)","533092","Untrustworthy,Trustworthy","","994","","","","decision","","<div class='trialDiv'><img src='trustrating_stim/white_mw097.bmp'><br><font class='baseline'><strong>Richard</strong><p>Choose number of points to send.</font><div class='respPicDiv'><img src='img/responseButtonOffersNo0L.png' class='respPic'></div></div>","4","8","Richard","6","Shared","0.8,0.2","9","0.8","trustrating_stim/white_mw097.bmp","4.5","127","22"
"html-keyboard-response","201","254066","0.0-19.0-2.21","60599946259dc97d30e2001f","bdp_trlrn","Mon Mar 13 2023 19:50:32 GMT-0700 (Pacific Daylight Time)","533092","Untrustworthy,Trustworthy","","null","","","","decisionFB","","<div class='trialDiv'><img src='trustrating_stim/white_mw097.bmp'><br><font class='baseline'><strong>Richard</strong><p>Choose number of points to send.</font><div class='respPicDiv'><img src='img/responseButtonOffersNo0L4.png' class='respPic'></div></div>","null","8","Richard","6","Shared","0.8,0.2","9","0.8","trustrating_stim/white_mw097.bmp","4.5","123","22"
"html-keyboard-response","202","255068","0.0-19.0-3.21","60599946259dc97d30e2001f","bdp_trlrn","Mon Mar 13 2023 19:50:32 GMT-0700 (Pacific Daylight Time)","533092","Untrustworthy,Trustworthy","","null","","","","feedback","","<div class='trialDiv'><img src='trustrating_stim/white_mw097.bmp'><br><font class='baseline'><strong>Richard</strong><p>Received: <strong>16</strong></font> &nbsp; &nbsp; &nbsp; &nbsp; &nbsp; &nbsp;<font class='posOutcome'>Shared back: <strong>8</strong></font></font><div class='respPicDiv'><img src='img/responseButtonOffersNo0_wht.png' class='respPic'></div></div>","null","8","Richard","6","Shared","0.8,0.2","9","0.8","trustrating_stim/white_mw097.bmp","4.5","131","22"
"html-keyboard-response","203","255975","0.0-19.0-1.22","60599946259dc97d30e2001f","bdp_trlrn","Mon Mar 13 2023 19:50:32 GMT-0700 (Pacific Daylight Time)","533092","Untrustworthy,Trustworthy","","907","","","","decision","","<div class='trialDiv'><img src='trustrating_stim/white_00761_941201_fb_edt.bmp'><br><font class='baseline'><strong>Brian</strong><p>Choose number of points to send.</font><div class='respPicDiv'><img src='img/responseButtonOffersNo0L.png' class='respPic'></div></div>","1","8","Brian","3","Shared","0.35,0.8","14","0.35","trustrating_stim/white_00761_941201_fb_edt.bmp","2","136","23"
"html-keyboard-response","204","256227","0.0-19.0-2.22","60599946259dc97d30e2001f","bdp_trlrn","Mon Mar 13 2023 19:50:32 GMT-0700 (Pacific Daylight Time)","533092","Untrustworthy,Trustworthy","","null","","","","decisionFB","","<div class='trialDiv'><img src='trustrating_stim/white_00761_941201_fb_edt.bmp'><br><font class='baseline'><strong>Brian</strong><p>Choose number of points to send.</font><div class='respPicDiv'><img src='img/responseButtonOffersNo0L1.png' class='respPic'></div></div>","null","8","Brian","3","Shared","0.35,0.8","14","0.35","trustrating_stim/white_00761_941201_fb_edt.bmp","2","135","23"
"html-keyboard-response","205","257228","0.0-19.0-3.22","60599946259dc97d30e2001f","bdp_trlrn","Mon Mar 13 2023 19:50:32 GMT-0700 (Pacific Daylight Time)","533092","Untrustworthy,Trustworthy","","null","","","","feedback","","<div class='trialDiv'><img src='trustrating_stim/white_00761_941201_fb_edt.bmp'><br><font class='baseline'><strong>Brian</strong><p>Received: <strong>4</strong></font> &nbsp; &nbsp; &nbsp; &nbsp; &nbsp; &nbsp;<font class='posOutcome'>Shared back: <strong>2</strong></font></font><div class='respPicDiv'><img src='img/responseButtonOffersNo0_wht.png' class='respPic'></div></div>","null","8","Brian","3","Shared","0.35,0.8","14","0.35","trustrating_stim/white_00761_941201_fb_edt.bmp","2","137","23"
"html-keyboard-response","206","258136","0.0-19.0-1.23","60599946259dc97d30e2001f","bdp_trlrn","Mon Mar 13 2023 19:50:32 GMT-0700 (Pacific Daylight Time)","533092","Untrustworthy,Trustworthy","","908","","","","decision","","<div class='trialDiv'><img src='trustrating_stim/white_00129_931230_fb_edt.bmp'><br><font class='baseline'><strong>Aaron</strong><p>Choose number of points to send.</font><div class='respPicDiv'><img src='img/responseButtonOffersNo0L.png' class='respPic'></div></div>","1","8","Aaron","8","Kept","0.8,0.35","8","0.8","trustrating_stim/white_00129_931230_fb_edt.bmp","7","142","24"
"html-keyboard-response","207","258388","0.0-19.0-2.23","60599946259dc97d30e2001f","bdp_trlrn","Mon Mar 13 2023 19:50:32 GMT-0700 (Pacific Daylight Time)","533092","Untrustworthy,Trustworthy","","null","","","","decisionFB","","<div class='trialDiv'><img src='trustrating_stim/white_00129_931230_fb_edt.bmp'><br><font class='baseline'><strong>Aaron</strong><p>Choose number of points to send.</font><div class='respPicDiv'><img src='img/responseButtonOffersNo0L1.png' class='respPic'></div></div>","null","8","Aaron","8","Kept","0.8,0.35","8","0.8","trustrating_stim/white_00129_931230_fb_edt.bmp","7","141","24"
"html-keyboard-response","208","259389","0.0-19.0-3.23","60599946259dc97d30e2001f","bdp_trlrn","Mon Mar 13 2023 19:50:32 GMT-0700 (Pacific Daylight Time)","533092","Untrustworthy,Trustworthy","","null","","","","feedback","","<div class='trialDiv'><img src='trustrating_stim/white_00129_931230_fb_edt.bmp'><br><font class='baseline'><strong>Aaron</strong><p>Received: <strong>4</strong></font> &nbsp; &nbsp; &nbsp; &nbsp; &nbsp; &nbsp;<font class='negOutcome'>Shared back: <strong>0</strong></font></font><div class='respPicDiv'><img src='img/responseButtonOffersNo0_wht.png' class='respPic'></div></div>","null","8","Aaron","8","Kept","0.8,0.35","8","0.8","trustrating_stim/white_00129_931230_fb_edt.bmp","7","141","24"
"html-keyboard-response","209","260560","0.0-19.0-1.24","60599946259dc97d30e2001f","bdp_trlrn","Mon Mar 13 2023 19:50:32 GMT-0700 (Pacific Daylight Time)","533092","Untrustworthy,Trustworthy","","1171","","","","decision","","<div class='trialDiv'><img src='trustrating_stim/white_00761_941201_fb_edt.bmp'><br><font class='baseline'><strong>Brian</strong><p>Choose number of points to send.</font><div class='respPicDiv'><img src='img/responseButtonOffersNo0L.png' class='respPic'></div></div>","2","9","Brian","3","Shared","0.35,0.8","14","0.35","trustrating_stim/white_00761_941201_fb_edt.bmp","2","146","25"
"html-keyboard-response","210","260811","0.0-19.0-2.24","60599946259dc97d30e2001f","bdp_trlrn","Mon Mar 13 2023 19:50:32 GMT-0700 (Pacific Daylight Time)","533092","Untrustworthy,Trustworthy","","null","","","","decisionFB","","<div class='trialDiv'><img src='trustrating_stim/white_00761_941201_fb_edt.bmp'><br><font class='baseline'><strong>Brian</strong><p>Choose number of points to send.</font><div class='respPicDiv'><img src='img/responseButtonOffersNo0L2.png' class='respPic'></div></div>","null","9","Brian","3","Shared","0.35,0.8","14","0.35","trustrating_stim/white_00761_941201_fb_edt.bmp","2","144","25"
"html-keyboard-response","211","261812","0.0-19.0-3.24","60599946259dc97d30e2001f","bdp_trlrn","Mon Mar 13 2023 19:50:32 GMT-0700 (Pacific Daylight Time)","533092","Untrustworthy,Trustworthy","","null","","","","feedback","","<div class='trialDiv'><img src='trustrating_stim/white_00761_941201_fb_edt.bmp'><br><font class='baseline'><strong>Brian</strong><p>Received: <strong>8</strong></font> &nbsp; &nbsp; &nbsp; &nbsp; &nbsp; &nbsp;<font class='posOutcome'>Shared back: <strong>4</strong></font></font><div class='respPicDiv'><img src='img/responseButtonOffersNo0_wht.png' class='respPic'></div></div>","null","9","Brian","3","Shared","0.35,0.8","14","0.35","trustrating_stim/white_00761_941201_fb_edt.bmp","2","148","25"
"html-keyboard-response","212","262103","0.0-19.0-1.25","60599946259dc97d30e2001f","bdp_trlrn","Mon Mar 13 2023 19:50:32 GMT-0700 (Pacific Daylight Time)","533092","Untrustworthy,Trustworthy","","291","","","","decision","","<div class='trialDiv'><img src='trustrating_stim/white_00129_931230_fb_edt.bmp'><br><font class='baseline'><strong>Aaron</strong><p>Choose number of points to send.</font><div class='respPicDiv'><img src='img/responseButtonOffersNo0L.png' class='respPic'></div></div>","4","9","Aaron","8","Shared","0.8,0.35","8","0.8","trustrating_stim/white_00129_931230_fb_edt.bmp","7","153","26"
"html-keyboard-response","213","262355","0.0-19.0-2.25","60599946259dc97d30e2001f","bdp_trlrn","Mon Mar 13 2023 19:50:32 GMT-0700 (Pacific Daylight Time)","533092","Untrustworthy,Trustworthy","","null","","","","decisionFB","","<div class='trialDiv'><img src='trustrating_stim/white_00129_931230_fb_edt.bmp'><br><font class='baseline'><strong>Aaron</strong><p>Choose number of points to send.</font><div class='respPicDiv'><img src='img/responseButtonOffersNo0L4.png' class='respPic'></div></div>","null","9","Aaron","8","Shared","0.8,0.35","8","0.8","trustrating_stim/white_00129_931230_fb_edt.bmp","7","149","26"
"html-keyboard-response","214","263356","0.0-19.0-3.25","60599946259dc97d30e2001f","bdp_trlrn","Mon Mar 13 2023 19:50:32 GMT-0700 (Pacific Daylight Time)","533092","Untrustworthy,Trustworthy","","null","","","","feedback","","<div class='trialDiv'><img src='trustrating_stim/white_00129_931230_fb_edt.bmp'><br><font class='baseline'><strong>Aaron</strong><p>Received: <strong>16</strong></font> &nbsp; &nbsp; &nbsp; &nbsp; &nbsp; &nbsp;<font class='posOutcome'>Shared back: <strong>8</strong></font></font><div class='respPicDiv'><img src='img/responseButtonOffersNo0_wht.png' class='respPic'></div></div>","null","9","Aaron","8","Shared","0.8,0.35","8","0.8","trustrating_stim/white_00129_931230_fb_edt.bmp","7","157","26"
"html-keyboard-response","215","264295","0.0-19.0-1.26","60599946259dc97d30e2001f","bdp_trlrn","Mon Mar 13 2023 19:50:32 GMT-0700 (Pacific Daylight Time)","533092","Untrustworthy,Trustworthy","","939","","","","decision","","<div class='trialDiv'><img src='trustrating_stim/white_mw097.bmp'><br><font class='baseline'><strong>Richard</strong><p>Choose number of points to send.</font><div class='respPicDiv'><img src='img/responseButtonOffersNo0L.png' class='respPic'></div></div>","4","9","Richard","6","Kept","0.8,0.2","9","0.8","trustrating_stim/white_mw097.bmp","4.5","162","27"
"html-keyboard-response","216","264547","0.0-19.0-2.26","60599946259dc97d30e2001f","bdp_trlrn","Mon Mar 13 2023 19:50:32 GMT-0700 (Pacific Daylight Time)","533092","Untrustworthy,Trustworthy","","null","","","","decisionFB","","<div class='trialDiv'><img src='trustrating_stim/white_mw097.bmp'><br><font class='baseline'><strong>Richard</strong><p>Choose number of points to send.</font><div class='respPicDiv'><img src='img/responseButtonOffersNo0L4.png' class='respPic'></div></div>","null","9","Richard","6","Kept","0.8,0.2","9","0.8","trustrating_stim/white_mw097.bmp","4.5","158","27"
"html-keyboard-response","217","265548","0.0-19.0-3.26","60599946259dc97d30e2001f","bdp_trlrn","Mon Mar 13 2023 19:50:32 GMT-0700 (Pacific Daylight Time)","533092","Untrustworthy,Trustworthy","","null","","","","feedback","","<div class='trialDiv'><img src='trustrating_stim/white_mw097.bmp'><br><font class='baseline'><strong>Richard</strong><p>Received: <strong>16</strong></font> &nbsp; &nbsp; &nbsp; &nbsp; &nbsp; &nbsp;<font class='negOutcome'>Shared back: <strong>0</strong></font></font><div class='respPicDiv'><img src='img/responseButtonOffersNo0_wht.png' class='respPic'></div></div>","null","9","Richard","6","Kept","0.8,0.2","9","0.8","trustrating_stim/white_mw097.bmp","4.5","158","27"
"html-keyboard-response","218","266175","0.0-19.0-1.27","60599946259dc97d30e2001f","bdp_trlrn","Mon Mar 13 2023 19:50:32 GMT-0700 (Pacific Daylight Time)","533092","Untrustworthy,Trustworthy","","626","","","","decision","","<div class='trialDiv'><img src='trustrating_stim/white_00761_941201_fb_edt.bmp'><br><font class='baseline'><strong>Brian</strong><p>Choose number of points to send.</font><div class='respPicDiv'><img src='img/responseButtonOffersNo0L.png' class='respPic'></div></div>","2","10","Brian","3","Shared","0.35,0.8","14","0.35","trustrating_stim/white_00761_941201_fb_edt.bmp","2","163","28"
"html-keyboard-response","219","266426","0.0-19.0-2.27","60599946259dc97d30e2001f","bdp_trlrn","Mon Mar 13 2023 19:50:32 GMT-0700 (Pacific Daylight Time)","533092","Untrustworthy,Trustworthy","","null","","","","decisionFB","","<div class='trialDiv'><img src='trustrating_stim/white_00761_941201_fb_edt.bmp'><br><font class='baseline'><strong>Brian</strong><p>Choose number of points to send.</font><div class='respPicDiv'><img src='img/responseButtonOffersNo0L2.png' class='respPic'></div></div>","null","10","Brian","3","Shared","0.35,0.8","14","0.35","trustrating_stim/white_00761_941201_fb_edt.bmp","2","161","28"
"html-keyboard-response","220","267428","0.0-19.0-3.27","60599946259dc97d30e2001f","bdp_trlrn","Mon Mar 13 2023 19:50:32 GMT-0700 (Pacific Daylight Time)","533092","Untrustworthy,Trustworthy","","null","","","","feedback","","<div class='trialDiv'><img src='trustrating_stim/white_00761_941201_fb_edt.bmp'><br><font class='baseline'><strong>Brian</strong><p>Received: <strong>8</strong></font> &nbsp; &nbsp; &nbsp; &nbsp; &nbsp; &nbsp;<font class='posOutcome'>Shared back: <strong>4</strong></font></font><div class='respPicDiv'><img src='img/responseButtonOffersNo0_wht.png' class='respPic'></div></div>","null","10","Brian","3","Shared","0.35,0.8","14","0.35","trustrating_stim/white_00761_941201_fb_edt.bmp","2","165","28"
