"trial_type","trial_index","time_elapsed","internal_node_id","subject_id","task","startTime","totalTime","labels","view_history","rt","event","trial","time","trialtype","success","stimulus","key_press","aground","name","faceID","outcome","agenttype","agentswpt","agentcurrpshare","face","avgRating","point_total","round"
"pavlovia","0","17","0.0-0.0","6282571cf39cd89341a474e9","bdp_trlrn","Wed Jul 27 2022 12:29:55 GMT-0500 (Central Daylight Time)","626438","Untrustworthy,Trustworthy","","","","","","","","","","","","","","","","","","","",""
"instructions","1","5828","0.0-1.0","6282571cf39cd89341a474e9","bdp_trlrn","Wed Jul 27 2022 12:29:55 GMT-0500 (Central Daylight Time)","626438","Untrustworthy,Trustworthy","[{""page_index"":0,""viewing_time"":5808}]","5808","","","","","","","","","","","","","","","","","",""
"","","","","6282571cf39cd89341a474e9","bdp_trlrn","Wed Jul 27 2022 12:29:55 GMT-0500 (Central Daylight Time)","626438","Untrustworthy,Trustworthy","","","fullscreenenter","2","10152","fullscreenenter","","","","","","","","","","","","","",""
"fullscreen","2","11112","0.0-2.0","6282571cf39cd89341a474e9","bdp_trlrn","Wed Jul 27 2022 12:29:55 GMT-0500 (Central Daylight Time)","626438","Untrustworthy,Trustworthy","","","","","","","true","","","","","","","","","","","","",""
"instructions","3","42979","0.0-4.0","6282571cf39cd89341a474e9","bdp_trlrn","Wed Jul 27 2022 12:29:55 GMT-0500 (Central Daylight Time)","626438","Untrustworthy,Trustworthy","[{""page_index"":0,""viewing_time"":12151},{""page_index"":1,""viewing_time"":19712}]","31864","","","","","","","","","","","","","","","","","",""
"instructions","4","49642","0.0-5.0","6282571cf39cd89341a474e9","bdp_trlrn","Wed Jul 27 2022 12:29:55 GMT-0500 (Central Daylight Time)","626438","Untrustworthy,Trustworthy","[{""page_index"":0,""viewing_time"":6659}]","6660","","","","","","","","","","","","","","","","","",""
"image-keyboard-response","5","51343","0.0-6.0-1.0","6282571cf39cd89341a474e9","bdp_trlrn","Wed Jul 27 2022 12:29:55 GMT-0500 (Central Daylight Time)","626438","Untrustworthy,Trustworthy","","1595","","","","rating","","trustrating_stim/white_mw071.bmp","2","","","","","","","","","","",""
"image-keyboard-response","6","51552","0.0-6.0-2.0","6282571cf39cd89341a474e9","bdp_trlrn","Wed Jul 27 2022 12:29:55 GMT-0500 (Central Daylight Time)","626438","Untrustworthy,Trustworthy","","null","","","","ratingFB","","trustrating_stim/white_mw071.bmp","null","","","","","","","","","","",""
"image-keyboard-response","7","52909","0.0-6.0-1.1","6282571cf39cd89341a474e9","bdp_trlrn","Wed Jul 27 2022 12:29:55 GMT-0500 (Central Daylight Time)","626438","Untrustworthy,Trustworthy","","1251","","","","rating","","trustrating_stim/white_mw063.bmp","2","","","","","","","","","","",""
"image-keyboard-response","8","53114","0.0-6.0-2.1","6282571cf39cd89341a474e9","bdp_trlrn","Wed Jul 27 2022 12:29:55 GMT-0500 (Central Daylight Time)","626438","Untrustworthy,Trustworthy","","null","","","","ratingFB","","trustrating_stim/white_mw063.bmp","null","","","","","","","","","","",""
"image-keyboard-response","9","54583","0.0-6.0-1.2","6282571cf39cd89341a474e9","bdp_trlrn","Wed Jul 27 2022 12:29:55 GMT-0500 (Central Daylight Time)","626438","Untrustworthy,Trustworthy","","1364","","","","rating","","trustrating_stim/white_00519_940519_fb_edt.bmp","4","","","","","","","","","","",""
"image-keyboard-response","10","54787","0.0-6.0-2.2","6282571cf39cd89341a474e9","bdp_trlrn","Wed Jul 27 2022 12:29:55 GMT-0500 (Central Daylight Time)","626438","Untrustworthy,Trustworthy","","null","","","","ratingFB","","trustrating_stim/white_00519_940519_fb_edt.bmp","null","","","","","","","","","","",""
"image-keyboard-response","11","55611","0.0-6.0-1.3","6282571cf39cd89341a474e9","bdp_trlrn","Wed Jul 27 2022 12:29:55 GMT-0500 (Central Daylight Time)","626438","Untrustworthy,Trustworthy","","720","","","","rating","","trustrating_stim/white_mw089.bmp","2","","","","","","","","","","",""
"image-keyboard-response","12","55815","0.0-6.0-2.3","6282571cf39cd89341a474e9","bdp_trlrn","Wed Jul 27 2022 12:29:55 GMT-0500 (Central Daylight Time)","626438","Untrustworthy,Trustworthy","","null","","","","ratingFB","","trustrating_stim/white_mw089.bmp","null","","","","","","","","","","",""
"image-keyboard-response","13","56633","0.0-6.0-1.4","6282571cf39cd89341a474e9","bdp_trlrn","Wed Jul 27 2022 12:29:55 GMT-0500 (Central Daylight Time)","626438","Untrustworthy,Trustworthy","","713","","","","rating","","trustrating_stim/white_mw046.bmp","1","","","","","","","","","","",""
"image-keyboard-response","14","56837","0.0-6.0-2.4","6282571cf39cd89341a474e9","bdp_trlrn","Wed Jul 27 2022 12:29:55 GMT-0500 (Central Daylight Time)","626438","Untrustworthy,Trustworthy","","null","","","","ratingFB","","trustrating_stim/white_mw046.bmp","null","","","","","","","","","","",""
"image-keyboard-response","15","57754","0.0-6.0-1.5","6282571cf39cd89341a474e9","bdp_trlrn","Wed Jul 27 2022 12:29:55 GMT-0500 (Central Daylight Time)","626438","Untrustworthy,Trustworthy","","813","","","","rating","","trustrating_stim/white_00898_960530_fa_edt.bmp","1","","","","","","","","","","",""
"image-keyboard-response","16","57957","0.0-6.0-2.5","6282571cf39cd89341a474e9","bdp_trlrn","Wed Jul 27 2022 12:29:55 GMT-0500 (Central Daylight Time)","626438","Untrustworthy,Trustworthy","","null","","","","ratingFB","","trustrating_stim/white_00898_960530_fa_edt.bmp","null","","","","","","","","","","",""
"image-keyboard-response","17","59043","0.0-6.0-1.6","6282571cf39cd89341a474e9","bdp_trlrn","Wed Jul 27 2022 12:29:55 GMT-0500 (Central Daylight Time)","626438","Untrustworthy,Trustworthy","","981","","","","rating","","trustrating_stim/white_mw084.bmp","6","","","","","","","","","","",""
"image-keyboard-response","18","59247","0.0-6.0-2.6","6282571cf39cd89341a474e9","bdp_trlrn","Wed Jul 27 2022 12:29:55 GMT-0500 (Central Daylight Time)","626438","Untrustworthy,Trustworthy","","null","","","","ratingFB","","trustrating_stim/white_mw084.bmp","null","","","","","","","","","","",""
"image-keyboard-response","19","60563","0.0-6.0-1.7","6282571cf39cd89341a474e9","bdp_trlrn","Wed Jul 27 2022 12:29:55 GMT-0500 (Central Daylight Time)","626438","Untrustworthy,Trustworthy","","1211","","","","rating","","trustrating_stim/white_mw033.bmp","7","","","","","","","","","","",""
"image-keyboard-response","20","60766","0.0-6.0-2.7","6282571cf39cd89341a474e9","bdp_trlrn","Wed Jul 27 2022 12:29:55 GMT-0500 (Central Daylight Time)","626438","Untrustworthy,Trustworthy","","null","","","","ratingFB","","trustrating_stim/white_mw033.bmp","null","","","","","","","","","","",""
"image-keyboard-response","21","61751","0.0-6.0-1.8","6282571cf39cd89341a474e9","bdp_trlrn","Wed Jul 27 2022 12:29:55 GMT-0500 (Central Daylight Time)","626438","Untrustworthy,Trustworthy","","878","","","","rating","","trustrating_stim/white_00109_931230_fa_edt.bmp","6","","","","","","","","","","",""
"image-keyboard-response","22","61956","0.0-6.0-2.8","6282571cf39cd89341a474e9","bdp_trlrn","Wed Jul 27 2022 12:29:55 GMT-0500 (Central Daylight Time)","626438","Untrustworthy,Trustworthy","","null","","","","ratingFB","","trustrating_stim/white_00109_931230_fa_edt.bmp","null","","","","","","","","","","",""
"image-keyboard-response","23","62963","0.0-6.0-1.9","6282571cf39cd89341a474e9","bdp_trlrn","Wed Jul 27 2022 12:29:55 GMT-0500 (Central Daylight Time)","626438","Untrustworthy,Trustworthy","","889","","","","rating","","trustrating_stim/white_00299_940422_fa_edt.bmp","1","","","","","","","","","","",""
"image-keyboard-response","24","63168","0.0-6.0-2.9","6282571cf39cd89341a474e9","bdp_trlrn","Wed Jul 27 2022 12:29:55 GMT-0500 (Central Daylight Time)","626438","Untrustworthy,Trustworthy","","null","","","","ratingFB","","trustrating_stim/white_00299_940422_fa_edt.bmp","null","","","","","","","","","","",""
"image-keyboard-response","25","64327","0.0-6.0-1.10","6282571cf39cd89341a474e9","bdp_trlrn","Wed Jul 27 2022 12:29:55 GMT-0500 (Central Daylight Time)","626438","Untrustworthy,Trustworthy","","1055","","","","rating","","trustrating_stim/white_mw049.bmp","3","","","","","","","","","","",""
"image-keyboard-response","26","64530","0.0-6.0-2.10","6282571cf39cd89341a474e9","bdp_trlrn","Wed Jul 27 2022 12:29:55 GMT-0500 (Central Daylight Time)","626438","Untrustworthy,Trustworthy","","null","","","","ratingFB","","trustrating_stim/white_mw049.bmp","null","","","","","","","","","","",""
"image-keyboard-response","27","65346","0.0-6.0-1.11","6282571cf39cd89341a474e9","bdp_trlrn","Wed Jul 27 2022 12:29:55 GMT-0500 (Central Daylight Time)","626438","Untrustworthy,Trustworthy","","709","","","","rating","","trustrating_stim/white_mw099.bmp","3","","","","","","","","","","",""
"image-keyboard-response","28","65550","0.0-6.0-2.11","6282571cf39cd89341a474e9","bdp_trlrn","Wed Jul 27 2022 12:29:55 GMT-0500 (Central Daylight Time)","626438","Untrustworthy,Trustworthy","","null","","","","ratingFB","","trustrating_stim/white_mw099.bmp","null","","","","","","","","","","",""
"image-keyboard-response","29","66432","0.0-6.0-1.12","6282571cf39cd89341a474e9","bdp_trlrn","Wed Jul 27 2022 12:29:55 GMT-0500 (Central Daylight Time)","626438","Untrustworthy,Trustworthy","","777","","","","rating","","trustrating_stim/white_00659_941121_fa_edt.bmp","2","","","","","","","","","","",""
"image-keyboard-response","30","66634","0.0-6.0-2.12","6282571cf39cd89341a474e9","bdp_trlrn","Wed Jul 27 2022 12:29:55 GMT-0500 (Central Daylight Time)","626438","Untrustworthy,Trustworthy","","null","","","","ratingFB","","trustrating_stim/white_00659_941121_fa_edt.bmp","null","","","","","","","","","","",""
"image-keyboard-response","31","67451","0.0-6.0-1.13","6282571cf39cd89341a474e9","bdp_trlrn","Wed Jul 27 2022 12:29:55 GMT-0500 (Central Daylight Time)","626438","Untrustworthy,Trustworthy","","713","","","","rating","","trustrating_stim/white_00785_941205_fb_edt.bmp","2","","","","","","","","","","",""
"image-keyboard-response","32","67654","0.0-6.0-2.13","6282571cf39cd89341a474e9","bdp_trlrn","Wed Jul 27 2022 12:29:55 GMT-0500 (Central Daylight Time)","626438","Untrustworthy,Trustworthy","","null","","","","ratingFB","","trustrating_stim/white_00785_941205_fb_edt.bmp","null","","","","","","","","","","",""
"image-keyboard-response","33","68615","0.0-6.0-1.14","6282571cf39cd89341a474e9","bdp_trlrn","Wed Jul 27 2022 12:29:55 GMT-0500 (Central Daylight Time)","626438","Untrustworthy,Trustworthy","","857","","","","rating","","trustrating_stim/white_00129_931230_fb_edt.bmp","2","","","","","","","","","","",""
"image-keyboard-response","34","68819","0.0-6.0-2.14","6282571cf39cd89341a474e9","bdp_trlrn","Wed Jul 27 2022 12:29:55 GMT-0500 (Central Daylight Time)","626438","Untrustworthy,Trustworthy","","null","","","","ratingFB","","trustrating_stim/white_00129_931230_fb_edt.bmp","null","","","","","","","","","","",""
"image-keyboard-response","35","69455","0.0-6.0-1.15","6282571cf39cd89341a474e9","bdp_trlrn","Wed Jul 27 2022 12:29:55 GMT-0500 (Central Daylight Time)","626438","Untrustworthy,Trustworthy","","532","","","","rating","","trustrating_stim/white_00807_941205_fb_edt.bmp","2","","","","","","","","","","",""
"image-keyboard-response","36","69658","0.0-6.0-2.15","6282571cf39cd89341a474e9","bdp_trlrn","Wed Jul 27 2022 12:29:55 GMT-0500 (Central Daylight Time)","626438","Untrustworthy,Trustworthy","","null","","","","ratingFB","","trustrating_stim/white_00807_941205_fb_edt.bmp","null","","","","","","","","","","",""
"image-keyboard-response","37","70216","0.0-6.0-1.16","6282571cf39cd89341a474e9","bdp_trlrn","Wed Jul 27 2022 12:29:55 GMT-0500 (Central Daylight Time)","626438","Untrustworthy,Trustworthy","","452","","","","rating","","trustrating_stim/white_00120_931230_fa_edt.bmp","2","","","","","","","","","","",""
"image-keyboard-response","38","70420","0.0-6.0-2.16","6282571cf39cd89341a474e9","bdp_trlrn","Wed Jul 27 2022 12:29:55 GMT-0500 (Central Daylight Time)","626438","Untrustworthy,Trustworthy","","null","","","","ratingFB","","trustrating_stim/white_00120_931230_fa_edt.bmp","null","","","","","","","","","","",""
"image-keyboard-response","39","70980","0.0-6.0-1.17","6282571cf39cd89341a474e9","bdp_trlrn","Wed Jul 27 2022 12:29:55 GMT-0500 (Central Daylight Time)","626438","Untrustworthy,Trustworthy","","455","","","","rating","","trustrating_stim/white_00761_941201_fb_edt.bmp","2","","","","","","","","","","",""
"image-keyboard-response","40","71183","0.0-6.0-2.17","6282571cf39cd89341a474e9","bdp_trlrn","Wed Jul 27 2022 12:29:55 GMT-0500 (Central Daylight Time)","626438","Untrustworthy,Trustworthy","","null","","","","ratingFB","","trustrating_stim/white_00761_941201_fb_edt.bmp","null","","","","","","","","","","",""
"image-keyboard-response","41","72561","0.0-6.0-1.18","6282571cf39cd89341a474e9","bdp_trlrn","Wed Jul 27 2022 12:29:55 GMT-0500 (Central Daylight Time)","626438","Untrustworthy,Trustworthy","","1273","","","","rating","","trustrating_stim/white_mw048.bmp","2","","","","","","","","","","",""
"image-keyboard-response","42","72764","0.0-6.0-2.18","6282571cf39cd89341a474e9","bdp_trlrn","Wed Jul 27 2022 12:29:55 GMT-0500 (Central Daylight Time)","626438","Untrustworthy,Trustworthy","","null","","","","ratingFB","","trustrating_stim/white_mw048.bmp","null","","","","","","","","","","",""
"image-keyboard-response","43","73452","0.0-6.0-1.19","6282571cf39cd89341a474e9","bdp_trlrn","Wed Jul 27 2022 12:29:55 GMT-0500 (Central Daylight Time)","626438","Untrustworthy,Trustworthy","","582","","","","rating","","trustrating_stim/white_mw060.bmp","2","","","","","","","","","","",""
"image-keyboard-response","44","73655","0.0-6.0-2.19","6282571cf39cd89341a474e9","bdp_trlrn","Wed Jul 27 2022 12:29:55 GMT-0500 (Central Daylight Time)","626438","Untrustworthy,Trustworthy","","null","","","","ratingFB","","trustrating_stim/white_mw060.bmp","null","","","","","","","","","","",""
"image-keyboard-response","45","74449","0.0-6.0-1.20","6282571cf39cd89341a474e9","bdp_trlrn","Wed Jul 27 2022 12:29:55 GMT-0500 (Central Daylight Time)","626438","Untrustworthy,Trustworthy","","677","","","","rating","","trustrating_stim/white_mw097.bmp","1","","","","","","","","","","",""
"image-keyboard-response","46","74654","0.0-6.0-2.20","6282571cf39cd89341a474e9","bdp_trlrn","Wed Jul 27 2022 12:29:55 GMT-0500 (Central Daylight Time)","626438","Untrustworthy,Trustworthy","","null","","","","ratingFB","","trustrating_stim/white_mw097.bmp","null","","","","","","","","","","",""
"image-keyboard-response","47","75712","0.0-6.0-1.21","6282571cf39cd89341a474e9","bdp_trlrn","Wed Jul 27 2022 12:29:55 GMT-0500 (Central Daylight Time)","626438","Untrustworthy,Trustworthy","","952","","","","rating","","trustrating_stim/white_mw066.bmp","8","","","","","","","","","","",""
"image-keyboard-response","48","75915","0.0-6.0-2.21","6282571cf39cd89341a474e9","bdp_trlrn","Wed Jul 27 2022 12:29:55 GMT-0500 (Central Daylight Time)","626438","Untrustworthy,Trustworthy","","null","","","","ratingFB","","trustrating_stim/white_mw066.bmp","null","","","","","","","","","","",""
"image-keyboard-response","49","76858","0.0-6.0-1.22","6282571cf39cd89341a474e9","bdp_trlrn","Wed Jul 27 2022 12:29:55 GMT-0500 (Central Daylight Time)","626438","Untrustworthy,Trustworthy","","833","","","","rating","","trustrating_stim/white_00757_941201_fa_edt.bmp","1","","","","","","","","","","",""
"image-keyboard-response","50","77062","0.0-6.0-2.22","6282571cf39cd89341a474e9","bdp_trlrn","Wed Jul 27 2022 12:29:55 GMT-0500 (Central Daylight Time)","626438","Untrustworthy,Trustworthy","","null","","","","ratingFB","","trustrating_stim/white_00757_941201_fa_edt.bmp","null","","","","","","","","","","",""
"image-keyboard-response","51","77779","0.0-6.0-1.23","6282571cf39cd89341a474e9","bdp_trlrn","Wed Jul 27 2022 12:29:55 GMT-0500 (Central Daylight Time)","626438","Untrustworthy,Trustworthy","","610","","","","rating","","trustrating_stim/white_mw056.bmp","1","","","","","","","","","","",""
"image-keyboard-response","52","77983","0.0-6.0-2.23","6282571cf39cd89341a474e9","bdp_trlrn","Wed Jul 27 2022 12:29:55 GMT-0500 (Central Daylight Time)","626438","Untrustworthy,Trustworthy","","null","","","","ratingFB","","trustrating_stim/white_mw056.bmp","null","","","","","","","","","","",""
"image-keyboard-response","53","78972","0.0-6.0-1.24","6282571cf39cd89341a474e9","bdp_trlrn","Wed Jul 27 2022 12:29:55 GMT-0500 (Central Daylight Time)","626438","Untrustworthy,Trustworthy","","883","","","","rating","","trustrating_stim/white_mw035.bmp","6","","","","","","","","","","",""
"image-keyboard-response","54","79176","0.0-6.0-2.24","6282571cf39cd89341a474e9","bdp_trlrn","Wed Jul 27 2022 12:29:55 GMT-0500 (Central Daylight Time)","626438","Untrustworthy,Trustworthy","","null","","","","ratingFB","","trustrating_stim/white_mw035.bmp","null","","","","","","","","","","",""
"image-keyboard-response","55","79722","0.0-6.0-1.25","6282571cf39cd89341a474e9","bdp_trlrn","Wed Jul 27 2022 12:29:55 GMT-0500 (Central Daylight Time)","626438","Untrustworthy,Trustworthy","","440","","","","rating","","trustrating_stim/white_00340_940422_fa_edt.bmp","1","","","","","","","","","","",""
"image-keyboard-response","56","79925","0.0-6.0-2.25","6282571cf39cd89341a474e9","bdp_trlrn","Wed Jul 27 2022 12:29:55 GMT-0500 (Central Daylight Time)","626438","Untrustworthy,Trustworthy","","null","","","","ratingFB","","trustrating_stim/white_00340_940422_fa_edt.bmp","null","","","","","","","","","","",""
"image-keyboard-response","57","81178","0.0-6.0-1.26","6282571cf39cd89341a474e9","bdp_trlrn","Wed Jul 27 2022 12:29:55 GMT-0500 (Central Daylight Time)","626438","Untrustworthy,Trustworthy","","1145","","","","rating","","trustrating_stim/white_mw053.bmp","1","","","","","","","","","","",""
"image-keyboard-response","58","81380","0.0-6.0-2.26","6282571cf39cd89341a474e9","bdp_trlrn","Wed Jul 27 2022 12:29:55 GMT-0500 (Central Daylight Time)","626438","Untrustworthy,Trustworthy","","null","","","","ratingFB","","trustrating_stim/white_mw053.bmp","null","","","","","","","","","","",""
"image-keyboard-response","59","82883","0.0-6.0-1.27","6282571cf39cd89341a474e9","bdp_trlrn","Wed Jul 27 2022 12:29:55 GMT-0500 (Central Daylight Time)","626438","Untrustworthy,Trustworthy","","1395","","","","rating","","trustrating_stim/white_00602_940928_fb_edt.bmp","9","","","","","","","","","","",""
"image-keyboard-response","60","83087","0.0-6.0-2.27","6282571cf39cd89341a474e9","bdp_trlrn","Wed Jul 27 2022 12:29:55 GMT-0500 (Central Daylight Time)","626438","Untrustworthy,Trustworthy","","null","","","","ratingFB","","trustrating_stim/white_00602_940928_fb_edt.bmp","null","","","","","","","","","","",""
"image-keyboard-response","61","83789","0.0-6.0-1.28","6282571cf39cd89341a474e9","bdp_trlrn","Wed Jul 27 2022 12:29:55 GMT-0500 (Central Daylight Time)","626438","Untrustworthy,Trustworthy","","595","","","","rating","","trustrating_stim/white_00577_940928_fa_edt.bmp","1","","","","","","","","","","",""
"image-keyboard-response","62","83992","0.0-6.0-2.28","6282571cf39cd89341a474e9","bdp_trlrn","Wed Jul 27 2022 12:29:55 GMT-0500 (Central Daylight Time)","626438","Untrustworthy,Trustworthy","","null","","","","ratingFB","","trustrating_stim/white_00577_940928_fa_edt.bmp","null","","","","","","","","","","",""
"image-keyboard-response","63","85041","0.0-6.0-1.29","6282571cf39cd89341a474e9","bdp_trlrn","Wed Jul 27 2022 12:29:55 GMT-0500 (Central Daylight Time)","626438","Untrustworthy,Trustworthy","","939","","","","rating","","trustrating_stim/white_00223_940128_fb_edt.bmp","2","","","","","","","","","","",""
"image-keyboard-response","64","85246","0.0-6.0-2.29","6282571cf39cd89341a474e9","bdp_trlrn","Wed Jul 27 2022 12:29:55 GMT-0500 (Central Daylight Time)","626438","Untrustworthy,Trustworthy","","null","","","","ratingFB","","trustrating_stim/white_00223_940128_fb_edt.bmp","null","","","","","","","","","","",""
"image-keyboard-response","65","86039","0.0-6.0-1.30","6282571cf39cd89341a474e9","bdp_trlrn","Wed Jul 27 2022 12:29:55 GMT-0500 (Central Daylight Time)","626438","Untrustworthy,Trustworthy","","683","","","","rating","","trustrating_stim/white_mw046.bmp","2","","","","","","","","","","",""
"image-keyboard-response","66","86242","0.0-6.0-2.30","6282571cf39cd89341a474e9","bdp_trlrn","Wed Jul 27 2022 12:29:55 GMT-0500 (Central Daylight Time)","626438","Untrustworthy,Trustworthy","","null","","","","ratingFB","","trustrating_stim/white_mw046.bmp","null","","","","","","","","","","",""
"image-keyboard-response","67","87186","0.0-6.0-1.31","6282571cf39cd89341a474e9","bdp_trlrn","Wed Jul 27 2022 12:29:55 GMT-0500 (Central Daylight Time)","626438","Untrustworthy,Trustworthy","","835","","","","rating","","trustrating_stim/white_00577_940928_fa_edt.bmp","2","","","","","","","","","","",""
"image-keyboard-response","68","87390","0.0-6.0-2.31","6282571cf39cd89341a474e9","bdp_trlrn","Wed Jul 27 2022 12:29:55 GMT-0500 (Central Daylight Time)","626438","Untrustworthy,Trustworthy","","null","","","","ratingFB","","trustrating_stim/white_00577_940928_fa_edt.bmp","null","","","","","","","","","","",""
"image-keyboard-response","69","88348","0.0-6.0-1.32","6282571cf39cd89341a474e9","bdp_trlrn","Wed Jul 27 2022 12:29:55 GMT-0500 (Central Daylight Time)","626438","Untrustworthy,Trustworthy","","850","","","","rating","","trustrating_stim/white_mw053.bmp","8","","","","","","","","","","",""
"image-keyboard-response","70","88557","0.0-6.0-2.32","6282571cf39cd89341a474e9","bdp_trlrn","Wed Jul 27 2022 12:29:55 GMT-0500 (Central Daylight Time)","626438","Untrustworthy,Trustworthy","","null","","","","ratingFB","","trustrating_stim/white_mw053.bmp","null","","","","","","","","","","",""
"image-keyboard-response","71","89138","0.0-6.0-1.33","6282571cf39cd89341a474e9","bdp_trlrn","Wed Jul 27 2022 12:29:55 GMT-0500 (Central Daylight Time)","626438","Untrustworthy,Trustworthy","","468","","","","rating","","trustrating_stim/white_00807_941205_fb_edt.bmp","2","","","","","","","","","","",""
"image-keyboard-response","72","89342","0.0-6.0-2.33","6282571cf39cd89341a474e9","bdp_trlrn","Wed Jul 27 2022 12:29:55 GMT-0500 (Central Daylight Time)","626438","Untrustworthy,Trustworthy","","null","","","","ratingFB","","trustrating_stim/white_00807_941205_fb_edt.bmp","null","","","","","","","","","","",""
"image-keyboard-response","73","89989","0.0-6.0-1.34","6282571cf39cd89341a474e9","bdp_trlrn","Wed Jul 27 2022 12:29:55 GMT-0500 (Central Daylight Time)","626438","Untrustworthy,Trustworthy","","540","","","","rating","","trustrating_stim/white_00120_931230_fa_edt.bmp","2","","","","","","","","","","",""
"image-keyboard-response","74","90192","0.0-6.0-2.34","6282571cf39cd89341a474e9","bdp_trlrn","Wed Jul 27 2022 12:29:55 GMT-0500 (Central Daylight Time)","626438","Untrustworthy,Trustworthy","","null","","","","ratingFB","","trustrating_stim/white_00120_931230_fa_edt.bmp","null","","","","","","","","","","",""
"image-keyboard-response","75","90805","0.0-6.0-1.35","6282571cf39cd89341a474e9","bdp_trlrn","Wed Jul 27 2022 12:29:55 GMT-0500 (Central Daylight Time)","626438","Untrustworthy,Trustworthy","","498","","","","rating","","trustrating_stim/white_mw060.bmp","1","","","","","","","","","","",""
"image-keyboard-response","76","91007","0.0-6.0-2.35","6282571cf39cd89341a474e9","bdp_trlrn","Wed Jul 27 2022 12:29:55 GMT-0500 (Central Daylight Time)","626438","Untrustworthy,Trustworthy","","null","","","","ratingFB","","trustrating_stim/white_mw060.bmp","null","","","","","","","","","","",""
"image-keyboard-response","77","91841","0.0-6.0-1.36","6282571cf39cd89341a474e9","bdp_trlrn","Wed Jul 27 2022 12:29:55 GMT-0500 (Central Daylight Time)","626438","Untrustworthy,Trustworthy","","725","","","","rating","","trustrating_stim/white_00340_940422_fa_edt.bmp","2","","","","","","","","","","",""
"image-keyboard-response","78","92047","0.0-6.0-2.36","6282571cf39cd89341a474e9","bdp_trlrn","Wed Jul 27 2022 12:29:55 GMT-0500 (Central Daylight Time)","626438","Untrustworthy,Trustworthy","","null","","","","ratingFB","","trustrating_stim/white_00340_940422_fa_edt.bmp","null","","","","","","","","","","",""
"image-keyboard-response","79","92611","0.0-6.0-1.37","6282571cf39cd89341a474e9","bdp_trlrn","Wed Jul 27 2022 12:29:55 GMT-0500 (Central Daylight Time)","626438","Untrustworthy,Trustworthy","","455","","","","rating","","trustrating_stim/white_mw033.bmp","1","","","","","","","","","","",""
"image-keyboard-response","80","92816","0.0-6.0-2.37","6282571cf39cd89341a474e9","bdp_trlrn","Wed Jul 27 2022 12:29:55 GMT-0500 (Central Daylight Time)","626438","Untrustworthy,Trustworthy","","null","","","","ratingFB","","trustrating_stim/white_mw033.bmp","null","","","","","","","","","","",""
"image-keyboard-response","81","93592","0.0-6.0-1.38","6282571cf39cd89341a474e9","bdp_trlrn","Wed Jul 27 2022 12:29:55 GMT-0500 (Central Daylight Time)","626438","Untrustworthy,Trustworthy","","669","","","","rating","","trustrating_stim/white_mw084.bmp","1","","","","","","","","","","",""
"image-keyboard-response","82","93796","0.0-6.0-2.38","6282571cf39cd89341a474e9","bdp_trlrn","Wed Jul 27 2022 12:29:55 GMT-0500 (Central Daylight Time)","626438","Untrustworthy,Trustworthy","","null","","","","ratingFB","","trustrating_stim/white_mw084.bmp","null","","","","","","","","","","",""
"image-keyboard-response","83","94509","0.0-6.0-1.39","6282571cf39cd89341a474e9","bdp_trlrn","Wed Jul 27 2022 12:29:55 GMT-0500 (Central Daylight Time)","626438","Untrustworthy,Trustworthy","","605","","","","rating","","trustrating_stim/white_mw056.bmp","1","","","","","","","","","","",""
"image-keyboard-response","84","94712","0.0-6.0-2.39","6282571cf39cd89341a474e9","bdp_trlrn","Wed Jul 27 2022 12:29:55 GMT-0500 (Central Daylight Time)","626438","Untrustworthy,Trustworthy","","null","","","","ratingFB","","trustrating_stim/white_mw056.bmp","null","","","","","","","","","","",""
"image-keyboard-response","85","95681","0.0-6.0-1.40","6282571cf39cd89341a474e9","bdp_trlrn","Wed Jul 27 2022 12:29:55 GMT-0500 (Central Daylight Time)","626438","Untrustworthy,Trustworthy","","863","","","","rating","","trustrating_stim/white_mw097.bmp","1","","","","","","","","","","",""
"image-keyboard-response","86","95886","0.0-6.0-2.40","6282571cf39cd89341a474e9","bdp_trlrn","Wed Jul 27 2022 12:29:55 GMT-0500 (Central Daylight Time)","626438","Untrustworthy,Trustworthy","","null","","","","ratingFB","","trustrating_stim/white_mw097.bmp","null","","","","","","","","","","",""
"image-keyboard-response","87","96603","0.0-6.0-1.41","6282571cf39cd89341a474e9","bdp_trlrn","Wed Jul 27 2022 12:29:55 GMT-0500 (Central Daylight Time)","626438","Untrustworthy,Trustworthy","","610","","","","rating","","trustrating_stim/white_00299_940422_fa_edt.bmp","1","","","","","","","","","","",""
"image-keyboard-response","88","96806","0.0-6.0-2.41","6282571cf39cd89341a474e9","bdp_trlrn","Wed Jul 27 2022 12:29:55 GMT-0500 (Central Daylight Time)","626438","Untrustworthy,Trustworthy","","null","","","","ratingFB","","trustrating_stim/white_00299_940422_fa_edt.bmp","null","","","","","","","","","","",""
"image-keyboard-response","89","97967","0.0-6.0-1.42","6282571cf39cd89341a474e9","bdp_trlrn","Wed Jul 27 2022 12:29:55 GMT-0500 (Central Daylight Time)","626438","Untrustworthy,Trustworthy","","1054","","","","rating","","trustrating_stim/white_00659_941121_fa_edt.bmp","4","","","","","","","","","","",""
"image-keyboard-response","90","98170","0.0-6.0-2.42","6282571cf39cd89341a474e9","bdp_trlrn","Wed Jul 27 2022 12:29:55 GMT-0500 (Central Daylight Time)","626438","Untrustworthy,Trustworthy","","null","","","","ratingFB","","trustrating_stim/white_00659_941121_fa_edt.bmp","null","","","","","","","","","","",""
"image-keyboard-response","91","99501","0.0-6.0-1.43","6282571cf39cd89341a474e9","bdp_trlrn","Wed Jul 27 2022 12:29:55 GMT-0500 (Central Daylight Time)","626438","Untrustworthy,Trustworthy","","1222","","","","rating","","trustrating_stim/white_00519_940519_fb_edt.bmp","2","","","","","","","","","","",""
"image-keyboard-response","92","99704","0.0-6.0-2.43","6282571cf39cd89341a474e9","bdp_trlrn","Wed Jul 27 2022 12:29:55 GMT-0500 (Central Daylight Time)","626438","Untrustworthy,Trustworthy","","null","","","","ratingFB","","trustrating_stim/white_00519_940519_fb_edt.bmp","null","","","","","","","","","","",""
"image-keyboard-response","93","100749","0.0-6.0-1.44","6282571cf39cd89341a474e9","bdp_trlrn","Wed Jul 27 2022 12:29:55 GMT-0500 (Central Daylight Time)","626438","Untrustworthy,Trustworthy","","940","","","","rating","","trustrating_stim/white_mw099.bmp","2","","","","","","","","","","",""
"image-keyboard-response","94","100953","0.0-6.0-2.44","6282571cf39cd89341a474e9","bdp_trlrn","Wed Jul 27 2022 12:29:55 GMT-0500 (Central Daylight Time)","626438","Untrustworthy,Trustworthy","","null","","","","ratingFB","","trustrating_stim/white_mw099.bmp","null","","","","","","","","","","",""
"image-keyboard-response","95","102037","0.0-6.0-1.45","6282571cf39cd89341a474e9","bdp_trlrn","Wed Jul 27 2022 12:29:55 GMT-0500 (Central Daylight Time)","626438","Untrustworthy,Trustworthy","","976","","","","rating","","trustrating_stim/white_00785_941205_fb_edt.bmp","1","","","","","","","","","","",""
"image-keyboard-response","96","102241","0.0-6.0-2.45","6282571cf39cd89341a474e9","bdp_trlrn","Wed Jul 27 2022 12:29:55 GMT-0500 (Central Daylight Time)","626438","Untrustworthy,Trustworthy","","null","","","","ratingFB","","trustrating_stim/white_00785_941205_fb_edt.bmp","null","","","","","","","","","","",""
"image-keyboard-response","97","103286","0.0-6.0-1.46","6282571cf39cd89341a474e9","bdp_trlrn","Wed Jul 27 2022 12:29:55 GMT-0500 (Central Daylight Time)","626438","Untrustworthy,Trustworthy","","937","","","","rating","","trustrating_stim/white_00109_931230_fa_edt.bmp","3","","","","","","","","","","",""
"image-keyboard-response","98","103489","0.0-6.0-2.46","6282571cf39cd89341a474e9","bdp_trlrn","Wed Jul 27 2022 12:29:55 GMT-0500 (Central Daylight Time)","626438","Untrustworthy,Trustworthy","","null","","","","ratingFB","","trustrating_stim/white_00109_931230_fa_edt.bmp","null","","","","","","","","","","",""
"image-keyboard-response","99","104614","0.0-6.0-1.47","6282571cf39cd89341a474e9","bdp_trlrn","Wed Jul 27 2022 12:29:55 GMT-0500 (Central Daylight Time)","626438","Untrustworthy,Trustworthy","","1020","","","","rating","","trustrating_stim/white_mw048.bmp","2","","","","","","","","","","",""
"image-keyboard-response","100","104818","0.0-6.0-2.47","6282571cf39cd89341a474e9","bdp_trlrn","Wed Jul 27 2022 12:29:55 GMT-0500 (Central Daylight Time)","626438","Untrustworthy,Trustworthy","","null","","","","ratingFB","","trustrating_stim/white_mw048.bmp","null","","","","","","","","","","",""
"image-keyboard-response","101","105520","0.0-6.0-1.48","6282571cf39cd89341a474e9","bdp_trlrn","Wed Jul 27 2022 12:29:55 GMT-0500 (Central Daylight Time)","626438","Untrustworthy,Trustworthy","","591","","","","rating","","trustrating_stim/white_mw063.bmp","2","","","","","","","","","","",""
"image-keyboard-response","102","105723","0.0-6.0-2.48","6282571cf39cd89341a474e9","bdp_trlrn","Wed Jul 27 2022 12:29:55 GMT-0500 (Central Daylight Time)","626438","Untrustworthy,Trustworthy","","null","","","","ratingFB","","trustrating_stim/white_mw063.bmp","null","","","","","","","","","","",""
"image-keyboard-response","103","106797","0.0-6.0-1.49","6282571cf39cd89341a474e9","bdp_trlrn","Wed Jul 27 2022 12:29:55 GMT-0500 (Central Daylight Time)","626438","Untrustworthy,Trustworthy","","966","","","","rating","","trustrating_stim/white_mw071.bmp","2","","","","","","","","","","",""
"image-keyboard-response","104","107003","0.0-6.0-2.49","6282571cf39cd89341a474e9","bdp_trlrn","Wed Jul 27 2022 12:29:55 GMT-0500 (Central Daylight Time)","626438","Untrustworthy,Trustworthy","","null","","","","ratingFB","","trustrating_stim/white_mw071.bmp","null","","","","","","","","","","",""
"image-keyboard-response","105","107969","0.0-6.0-1.50","6282571cf39cd89341a474e9","bdp_trlrn","Wed Jul 27 2022 12:29:55 GMT-0500 (Central Daylight Time)","626438","Untrustworthy,Trustworthy","","859","","","","rating","","trustrating_stim/white_00898_960530_fa_edt.bmp","2","","","","","","","","","","",""
"image-keyboard-response","106","108171","0.0-6.0-2.50","6282571cf39cd89341a474e9","bdp_trlrn","Wed Jul 27 2022 12:29:55 GMT-0500 (Central Daylight Time)","626438","Untrustworthy,Trustworthy","","null","","","","ratingFB","","trustrating_stim/white_00898_960530_fa_edt.bmp","null","","","","","","","","","","",""
"image-keyboard-response","107","109046","0.0-6.0-1.51","6282571cf39cd89341a474e9","bdp_trlrn","Wed Jul 27 2022 12:29:55 GMT-0500 (Central Daylight Time)","626438","Untrustworthy,Trustworthy","","766","","","","rating","","trustrating_stim/white_00761_941201_fb_edt.bmp","2","","","","","","","","","","",""
"image-keyboard-response","108","109251","0.0-6.0-2.51","6282571cf39cd89341a474e9","bdp_trlrn","Wed Jul 27 2022 12:29:55 GMT-0500 (Central Daylight Time)","626438","Untrustworthy,Trustworthy","","null","","","","ratingFB","","trustrating_stim/white_00761_941201_fb_edt.bmp","null","","","","","","","","","","",""
"image-keyboard-response","109","110016","0.0-6.0-1.52","6282571cf39cd89341a474e9","bdp_trlrn","Wed Jul 27 2022 12:29:55 GMT-0500 (Central Daylight Time)","626438","Untrustworthy,Trustworthy","","656","","","","rating","","trustrating_stim/white_mw049.bmp","2","","","","","","","","","","",""
"image-keyboard-response","110","110221","0.0-6.0-2.52","6282571cf39cd89341a474e9","bdp_trlrn","Wed Jul 27 2022 12:29:55 GMT-0500 (Central Daylight Time)","626438","Untrustworthy,Trustworthy","","null","","","","ratingFB","","trustrating_stim/white_mw049.bmp","null","","","","","","","","","","",""
"image-keyboard-response","111","111394","0.0-6.0-1.53","6282571cf39cd89341a474e9","bdp_trlrn","Wed Jul 27 2022 12:29:55 GMT-0500 (Central Daylight Time)","626438","Untrustworthy,Trustworthy","","1062","","","","rating","","trustrating_stim/white_00602_940928_fb_edt.bmp","9","","","","","","","","","","",""
"image-keyboard-response","112","111597","0.0-6.0-2.53","6282571cf39cd89341a474e9","bdp_trlrn","Wed Jul 27 2022 12:29:55 GMT-0500 (Central Daylight Time)","626438","Untrustworthy,Trustworthy","","null","","","","ratingFB","","trustrating_stim/white_00602_940928_fb_edt.bmp","null","","","","","","","","","","",""
"image-keyboard-response","113","112259","0.0-6.0-1.54","6282571cf39cd89341a474e9","bdp_trlrn","Wed Jul 27 2022 12:29:55 GMT-0500 (Central Daylight Time)","626438","Untrustworthy,Trustworthy","","552","","","","rating","","trustrating_stim/white_00757_941201_fa_edt.bmp","1","","","","","","","","","","",""
"image-keyboard-response","114","112463","0.0-6.0-2.54","6282571cf39cd89341a474e9","bdp_trlrn","Wed Jul 27 2022 12:29:55 GMT-0500 (Central Daylight Time)","626438","Untrustworthy,Trustworthy","","null","","","","ratingFB","","trustrating_stim/white_00757_941201_fa_edt.bmp","null","","","","","","","","","","",""
"image-keyboard-response","115","113337","0.0-6.0-1.55","6282571cf39cd89341a474e9","bdp_trlrn","Wed Jul 27 2022 12:29:55 GMT-0500 (Central Daylight Time)","626438","Untrustworthy,Trustworthy","","761","","","","rating","","trustrating_stim/white_00129_931230_fb_edt.bmp","1","","","","","","","","","","",""
"image-keyboard-response","116","113540","0.0-6.0-2.55","6282571cf39cd89341a474e9","bdp_trlrn","Wed Jul 27 2022 12:29:55 GMT-0500 (Central Daylight Time)","626438","Untrustworthy,Trustworthy","","null","","","","ratingFB","","trustrating_stim/white_00129_931230_fb_edt.bmp","null","","","","","","","","","","",""
"image-keyboard-response","117","114688","0.0-6.0-1.56","6282571cf39cd89341a474e9","bdp_trlrn","Wed Jul 27 2022 12:29:55 GMT-0500 (Central Daylight Time)","626438","Untrustworthy,Trustworthy","","1039","","","","rating","","trustrating_stim/white_mw089.bmp","1","","","","","","","","","","",""
"image-keyboard-response","118","114890","0.0-6.0-2.56","6282571cf39cd89341a474e9","bdp_trlrn","Wed Jul 27 2022 12:29:55 GMT-0500 (Central Daylight Time)","626438","Untrustworthy,Trustworthy","","null","","","","ratingFB","","trustrating_stim/white_mw089.bmp","null","","","","","","","","","","",""
"image-keyboard-response","119","115867","0.0-6.0-1.57","6282571cf39cd89341a474e9","bdp_trlrn","Wed Jul 27 2022 12:29:55 GMT-0500 (Central Daylight Time)","626438","Untrustworthy,Trustworthy","","867","","","","rating","","trustrating_stim/white_00223_940128_fb_edt.bmp","1","","","","","","","","","","",""
"image-keyboard-response","120","116071","0.0-6.0-2.57","6282571cf39cd89341a474e9","bdp_trlrn","Wed Jul 27 2022 12:29:55 GMT-0500 (Central Daylight Time)","626438","Untrustworthy,Trustworthy","","null","","","","ratingFB","","trustrating_stim/white_00223_940128_fb_edt.bmp","null","","","","","","","","","","",""
"image-keyboard-response","121","116753","0.0-6.0-1.58","6282571cf39cd89341a474e9","bdp_trlrn","Wed Jul 27 2022 12:29:55 GMT-0500 (Central Daylight Time)","626438","Untrustworthy,Trustworthy","","572","","","","rating","","trustrating_stim/white_mw035.bmp","2","","","","","","","","","","",""
"image-keyboard-response","122","116957","0.0-6.0-2.58","6282571cf39cd89341a474e9","bdp_trlrn","Wed Jul 27 2022 12:29:55 GMT-0500 (Central Daylight Time)","626438","Untrustworthy,Trustworthy","","null","","","","ratingFB","","trustrating_stim/white_mw035.bmp","null","","","","","","","","","","",""
"image-keyboard-response","123","117783","0.0-6.0-1.59","6282571cf39cd89341a474e9","bdp_trlrn","Wed Jul 27 2022 12:29:55 GMT-0500 (Central Daylight Time)","626438","Untrustworthy,Trustworthy","","716","","","","rating","","trustrating_stim/white_mw066.bmp","2","","","","","","","","","","",""
"image-keyboard-response","124","117986","0.0-6.0-2.59","6282571cf39cd89341a474e9","bdp_trlrn","Wed Jul 27 2022 12:29:55 GMT-0500 (Central Daylight Time)","626438","Untrustworthy,Trustworthy","","null","","","","ratingFB","","trustrating_stim/white_mw066.bmp","null","","","","","","","","","","",""
"instructions","125","119813","0.0-7.0","6282571cf39cd89341a474e9","bdp_trlrn","Wed Jul 27 2022 12:29:55 GMT-0500 (Central Daylight Time)","626438","Untrustworthy,Trustworthy","[{""page_index"":0,""viewing_time"":1719}]","1720","","","","","","","","","","","","","","","","","",""
"instructions","126","250314","0.0-8.0","6282571cf39cd89341a474e9","bdp_trlrn","Wed Jul 27 2022 12:29:55 GMT-0500 (Central Daylight Time)","626438","Untrustworthy,Trustworthy","[{""page_index"":0,""viewing_time"":29402},{""page_index"":1,""viewing_time"":13084},{""page_index"":2,""viewing_time"":10363},{""page_index"":3,""viewing_time"":8045},{""page_index"":4,""viewing_time"":9562},{""page_index"":5,""viewing_time"":15062},{""page_index"":6,""viewing_time"":24928},{""page_index"":7,""viewing_time"":19950}]","130397","","","","","","","","","","","","","","","","","",""
"instructions","127","305874","0.0-9.0","6282571cf39cd89341a474e9","bdp_trlrn","Wed Jul 27 2022 12:29:55 GMT-0500 (Central Daylight Time)","626438","Untrustworthy,Trustworthy","[{""page_index"":0,""viewing_time"":18649},{""page_index"":1,""viewing_time"":36907}]","55557","","","","","","","","","","","","","","","","","",""
"html-keyboard-response","128","307701","0.0-10.0-1.0","6282571cf39cd89341a474e9","bdp_trlrn","Wed Jul 27 2022 12:29:55 GMT-0500 (Central Daylight Time)","626438","Untrustworthy,Trustworthy","","1719","","","","decision","","<div class='trialDiv'><img src='trustrating_stim/white_00757_941201_fa_edt.bmp'><br><font class='baseline'><strong>Richard</strong><p>Choose number of points to send.</font><div class='respPicDiv'><img src='img/responseButtonOffersNo0L.png' class='respPic'></div></div>","2","1","Richard","1","Kept","0.35,0.8","12","0.35","trustrating_stim/white_00757_941201_fa_edt.bmp","1","5","1"
"html-keyboard-response","129","307956","0.0-10.0-2.0","6282571cf39cd89341a474e9","bdp_trlrn","Wed Jul 27 2022 12:29:55 GMT-0500 (Central Daylight Time)","626438","Untrustworthy,Trustworthy","","null","","","","decisionFB","","<div class='trialDiv'><img src='trustrating_stim/white_00757_941201_fa_edt.bmp'><br><font class='baseline'><strong>Richard</strong><p>Choose number of points to send.</font><div class='respPicDiv'><img src='img/responseButtonOffersNo0L2.png' class='respPic'></div></div>","null","1","Richard","1","Kept","0.35,0.8","12","0.35","trustrating_stim/white_00757_941201_fa_edt.bmp","1","3","1"
"html-keyboard-response","130","308962","0.0-10.0-3.0","6282571cf39cd89341a474e9","bdp_trlrn","Wed Jul 27 2022 12:29:55 GMT-0500 (Central Daylight Time)","626438","Untrustworthy,Trustworthy","","null","","","","feedback","","<div class='trialDiv'><img src='trustrating_stim/white_00757_941201_fa_edt.bmp'><br><font class='baseline'><strong>Richard</strong><p>Received: <strong>8</strong></font> &nbsp; &nbsp; &nbsp; &nbsp; &nbsp; &nbsp;<font class='negOutcome'>Shared back: <strong>0</strong></font></font><div class='respPicDiv'><img src='img/responseButtonOffersNo0_wht.png' class='respPic'></div></div>","null","1","Richard","1","Kept","0.35,0.8","12","0.35","trustrating_stim/white_00757_941201_fa_edt.bmp","1","3","1"
"html-keyboard-response","131","310861","0.0-10.0-1.1","6282571cf39cd89341a474e9","bdp_trlrn","Wed Jul 27 2022 12:29:55 GMT-0500 (Central Daylight Time)","626438","Untrustworthy,Trustworthy","","1894","","","","decision","","<div class='trialDiv'><img src='trustrating_stim/white_mw063.bmp'><br><font class='baseline'><strong>James</strong><p>Choose number of points to send.</font><div class='respPicDiv'><img src='img/responseButtonOffersNo0L.png' class='respPic'></div></div>","1","1","James","6","Shared","0.65,0.2","12","0.65","trustrating_stim/white_mw063.bmp","2","8","2"
"html-keyboard-response","132","311115","0.0-10.0-2.1","6282571cf39cd89341a474e9","bdp_trlrn","Wed Jul 27 2022 12:29:55 GMT-0500 (Central Daylight Time)","626438","Untrustworthy,Trustworthy","","null","","","","decisionFB","","<div class='trialDiv'><img src='trustrating_stim/white_mw063.bmp'><br><font class='baseline'><strong>James</strong><p>Choose number of points to send.</font><div class='respPicDiv'><img src='img/responseButtonOffersNo0L1.png' class='respPic'></div></div>","null","1","James","6","Shared","0.65,0.2","12","0.65","trustrating_stim/white_mw063.bmp","2","7","2"
"html-keyboard-response","133","312120","0.0-10.0-3.1","6282571cf39cd89341a474e9","bdp_trlrn","Wed Jul 27 2022 12:29:55 GMT-0500 (Central Daylight Time)","626438","Untrustworthy,Trustworthy","","null","","","","feedback","","<div class='trialDiv'><img src='trustrating_stim/white_mw063.bmp'><br><font class='baseline'><strong>James</strong><p>Received: <strong>4</strong></font> &nbsp; &nbsp; &nbsp; &nbsp; &nbsp; &nbsp;<font class='posOutcome'>Shared back: <strong>2</strong></font></font><div class='respPicDiv'><img src='img/responseButtonOffersNo0_wht.png' class='respPic'></div></div>","null","1","James","6","Shared","0.65,0.2","12","0.65","trustrating_stim/white_mw063.bmp","2","9","2"
"html-keyboard-response","134","315052","0.0-10.0-1.2","6282571cf39cd89341a474e9","bdp_trlrn","Wed Jul 27 2022 12:29:55 GMT-0500 (Central Daylight Time)","626438","Untrustworthy,Trustworthy","","2930","","","","decision","","<div class='trialDiv'><img src='trustrating_stim/white_mw066.bmp'><br><font class='baseline'><strong>Alex</strong><p>Choose number of points to send.</font><div class='respPicDiv'><img src='img/responseButtonOffersNo0L.png' class='respPic'></div></div>","4","1","Alex","10","Kept","0.35,0.65","9","0.35","trustrating_stim/white_mw066.bmp","5","14","3"
"html-keyboard-response","135","315306","0.0-10.0-2.2","6282571cf39cd89341a474e9","bdp_trlrn","Wed Jul 27 2022 12:29:55 GMT-0500 (Central Daylight Time)","626438","Untrustworthy,Trustworthy","","null","","","","decisionFB","","<div class='trialDiv'><img src='trustrating_stim/white_mw066.bmp'><br><font class='baseline'><strong>Alex</strong><p>Choose number of points to send.</font><div class='respPicDiv'><img src='img/responseButtonOffersNo0L4.png' class='respPic'></div></div>","null","1","Alex","10","Kept","0.35,0.65","9","0.35","trustrating_stim/white_mw066.bmp","5","10","3"
"html-keyboard-response","136","316311","0.0-10.0-3.2","6282571cf39cd89341a474e9","bdp_trlrn","Wed Jul 27 2022 12:29:55 GMT-0500 (Central Daylight Time)","626438","Untrustworthy,Trustworthy","","null","","","","feedback","","<div class='trialDiv'><img src='trustrating_stim/white_mw066.bmp'><br><font class='baseline'><strong>Alex</strong><p>Received: <strong>16</strong></font> &nbsp; &nbsp; &nbsp; &nbsp; &nbsp; &nbsp;<font class='negOutcome'>Shared back: <strong>0</strong></font></font><div class='respPicDiv'><img src='img/responseButtonOffersNo0_wht.png' class='respPic'></div></div>","null","1","Alex","10","Kept","0.35,0.65","9","0.35","trustrating_stim/white_mw066.bmp","5","10","3"
"html-keyboard-response","137","318645","0.0-10.0-1.3","6282571cf39cd89341a474e9","bdp_trlrn","Wed Jul 27 2022 12:29:55 GMT-0500 (Central Daylight Time)","626438","Untrustworthy,Trustworthy","","2329","","","","decision","","<div class='trialDiv'><img src='trustrating_stim/white_00757_941201_fa_edt.bmp'><br><font class='baseline'><strong>Richard</strong><p>Choose number of points to send.</font><div class='respPicDiv'><img src='img/responseButtonOffersNo0L.png' class='respPic'></div></div>","5","2","Richard","1","Shared","0.35,0.8","12","0.35","trustrating_stim/white_00757_941201_fa_edt.bmp","1","15","4"
"html-keyboard-response","138","318899","0.0-10.0-2.3","6282571cf39cd89341a474e9","bdp_trlrn","Wed Jul 27 2022 12:29:55 GMT-0500 (Central Daylight Time)","626438","Untrustworthy,Trustworthy","","null","","","","decisionFB","","<div class='trialDiv'><img src='trustrating_stim/white_00757_941201_fa_edt.bmp'><br><font class='baseline'><strong>Richard</strong><p>Choose number of points to send.</font><div class='respPicDiv'><img src='img/responseButtonOffersNo0L5.png' class='respPic'></div></div>","null","2","Richard","1","Shared","0.35,0.8","12","0.35","trustrating_stim/white_00757_941201_fa_edt.bmp","1","10","4"
"html-keyboard-response","139","319905","0.0-10.0-3.3","6282571cf39cd89341a474e9","bdp_trlrn","Wed Jul 27 2022 12:29:55 GMT-0500 (Central Daylight Time)","626438","Untrustworthy,Trustworthy","","null","","","","feedback","","<div class='trialDiv'><img src='trustrating_stim/white_00757_941201_fa_edt.bmp'><br><font class='baseline'><strong>Richard</strong><p>Received: <strong>20</strong></font> &nbsp; &nbsp; &nbsp; &nbsp; &nbsp; &nbsp;<font class='posOutcome'>Shared back: <strong>10</strong></font></font><div class='respPicDiv'><img src='img/responseButtonOffersNo0_wht.png' class='respPic'></div></div>","null","2","Richard","1","Shared","0.35,0.8","12","0.35","trustrating_stim/white_00757_941201_fa_edt.bmp","1","20","4"
"html-keyboard-response","140","321851","0.0-10.0-1.4","6282571cf39cd89341a474e9","bdp_trlrn","Wed Jul 27 2022 12:29:55 GMT-0500 (Central Daylight Time)","626438","Untrustworthy,Trustworthy","","1942","","","","decision","","<div class='trialDiv'><img src='trustrating_stim/white_mw063.bmp'><br><font class='baseline'><strong>James</strong><p>Choose number of points to send.</font><div class='respPicDiv'><img src='img/responseButtonOffersNo0L.png' class='respPic'></div></div>","1","2","James","6","Kept","0.65,0.2","12","0.65","trustrating_stim/white_mw063.bmp","2","25","5"
"html-keyboard-response","141","322104","0.0-10.0-2.4","6282571cf39cd89341a474e9","bdp_trlrn","Wed Jul 27 2022 12:29:55 GMT-0500 (Central Daylight Time)","626438","Untrustworthy,Trustworthy","","null","","","","decisionFB","","<div class='trialDiv'><img src='trustrating_stim/white_mw063.bmp'><br><font class='baseline'><strong>James</strong><p>Choose number of points to send.</font><div class='respPicDiv'><img src='img/responseButtonOffersNo0L1.png' class='respPic'></div></div>","null","2","James","6","Kept","0.65,0.2","12","0.65","trustrating_stim/white_mw063.bmp","2","24","5"
"html-keyboard-response","142","323110","0.0-10.0-3.4","6282571cf39cd89341a474e9","bdp_trlrn","Wed Jul 27 2022 12:29:55 GMT-0500 (Central Daylight Time)","626438","Untrustworthy,Trustworthy","","null","","","","feedback","","<div class='trialDiv'><img src='trustrating_stim/white_mw063.bmp'><br><font class='baseline'><strong>James</strong><p>Received: <strong>4</strong></font> &nbsp; &nbsp; &nbsp; &nbsp; &nbsp; &nbsp;<font class='negOutcome'>Shared back: <strong>0</strong></font></font><div class='respPicDiv'><img src='img/responseButtonOffersNo0_wht.png' class='respPic'></div></div>","null","2","James","6","Kept","0.65,0.2","12","0.65","trustrating_stim/white_mw063.bmp","2","24","5"
"html-keyboard-response","143","324756","0.0-10.0-1.5","6282571cf39cd89341a474e9","bdp_trlrn","Wed Jul 27 2022 12:29:55 GMT-0500 (Central Daylight Time)","626438","Untrustworthy,Trustworthy","","1643","","","","decision","","<div class='trialDiv'><img src='trustrating_stim/white_mw066.bmp'><br><font class='baseline'><strong>Alex</strong><p>Choose number of points to send.</font><div class='respPicDiv'><img src='img/responseButtonOffersNo0L.png' class='respPic'></div></div>","2","2","Alex","10","Shared","0.35,0.65","9","0.35","trustrating_stim/white_mw066.bmp","5","29","6"
"html-keyboard-response","144","325010","0.0-10.0-2.5","6282571cf39cd89341a474e9","bdp_trlrn","Wed Jul 27 2022 12:29:55 GMT-0500 (Central Daylight Time)","626438","Untrustworthy,Trustworthy","","null","","","","decisionFB","","<div class='trialDiv'><img src='trustrating_stim/white_mw066.bmp'><br><font class='baseline'><strong>Alex</strong><p>Choose number of points to send.</font><div class='respPicDiv'><img src='img/responseButtonOffersNo0L2.png' class='respPic'></div></div>","null","2","Alex","10","Shared","0.35,0.65","9","0.35","trustrating_stim/white_mw066.bmp","5","27","6"
"html-keyboard-response","145","326018","0.0-10.0-3.5","6282571cf39cd89341a474e9","bdp_trlrn","Wed Jul 27 2022 12:29:55 GMT-0500 (Central Daylight Time)","626438","Untrustworthy,Trustworthy","","null","","","","feedback","","<div class='trialDiv'><img src='trustrating_stim/white_mw066.bmp'><br><font class='baseline'><strong>Alex</strong><p>Received: <strong>8</strong></font> &nbsp; &nbsp; &nbsp; &nbsp; &nbsp; &nbsp;<font class='posOutcome'>Shared back: <strong>4</strong></font></font><div class='respPicDiv'><img src='img/responseButtonOffersNo0_wht.png' class='respPic'></div></div>","null","2","Alex","10","Shared","0.35,0.65","9","0.35","trustrating_stim/white_mw066.bmp","5","31","6"
"html-keyboard-response","146","326835","0.0-10.0-1.6","6282571cf39cd89341a474e9","bdp_trlrn","Wed Jul 27 2022 12:29:55 GMT-0500 (Central Daylight Time)","626438","Untrustworthy,Trustworthy","","814","","","","decision","","<div class='trialDiv'><img src='trustrating_stim/white_00757_941201_fa_edt.bmp'><br><font class='baseline'><strong>Richard</strong><p>Choose number of points to send.</font><div class='respPicDiv'><img src='img/responseButtonOffersNo0L.png' class='respPic'></div></div>","2","3","Richard","1","Shared","0.35,0.8","12","0.35","trustrating_stim/white_00757_941201_fa_edt.bmp","1","36","7"
"html-keyboard-response","147","327091","0.0-10.0-2.6","6282571cf39cd89341a474e9","bdp_trlrn","Wed Jul 27 2022 12:29:55 GMT-0500 (Central Daylight Time)","626438","Untrustworthy,Trustworthy","","null","","","","decisionFB","","<div class='trialDiv'><img src='trustrating_stim/white_00757_941201_fa_edt.bmp'><br><font class='baseline'><strong>Richard</strong><p>Choose number of points to send.</font><div class='respPicDiv'><img src='img/responseButtonOffersNo0L2.png' class='respPic'></div></div>","null","3","Richard","1","Shared","0.35,0.8","12","0.35","trustrating_stim/white_00757_941201_fa_edt.bmp","1","34","7"
"html-keyboard-response","148","328096","0.0-10.0-3.6","6282571cf39cd89341a474e9","bdp_trlrn","Wed Jul 27 2022 12:29:55 GMT-0500 (Central Daylight Time)","626438","Untrustworthy,Trustworthy","","null","","","","feedback","","<div class='trialDiv'><img src='trustrating_stim/white_00757_941201_fa_edt.bmp'><br><font class='baseline'><strong>Richard</strong><p>Received: <strong>8</strong></font> &nbsp; &nbsp; &nbsp; &nbsp; &nbsp; &nbsp;<font class='posOutcome'>Shared back: <strong>4</strong></font></font><div class='respPicDiv'><img src='img/responseButtonOffersNo0_wht.png' class='respPic'></div></div>","null","3","Richard","1","Shared","0.35,0.8","12","0.35","trustrating_stim/white_00757_941201_fa_edt.bmp","1","38","7"
"html-keyboard-response","149","329709","0.0-10.0-1.7","6282571cf39cd89341a474e9","bdp_trlrn","Wed Jul 27 2022 12:29:55 GMT-0500 (Central Daylight Time)","626438","Untrustworthy,Trustworthy","","1611","","","","decision","","<div class='trialDiv'><img src='trustrating_stim/white_mw066.bmp'><br><font class='baseline'><strong>Alex</strong><p>Choose number of points to send.</font><div class='respPicDiv'><img src='img/responseButtonOffersNo0L.png' class='respPic'></div></div>","5","3","Alex","10","Kept","0.35,0.65","9","0.35","trustrating_stim/white_mw066.bmp","5","43","8"
"html-keyboard-response","150","329965","0.0-10.0-2.7","6282571cf39cd89341a474e9","bdp_trlrn","Wed Jul 27 2022 12:29:55 GMT-0500 (Central Daylight Time)","626438","Untrustworthy,Trustworthy","","null","","","","decisionFB","","<div class='trialDiv'><img src='trustrating_stim/white_mw066.bmp'><br><font class='baseline'><strong>Alex</strong><p>Choose number of points to send.</font><div class='respPicDiv'><img src='img/responseButtonOffersNo0L5.png' class='respPic'></div></div>","null","3","Alex","10","Kept","0.35,0.65","9","0.35","trustrating_stim/white_mw066.bmp","5","38","8"
"html-keyboard-response","151","330970","0.0-10.0-3.7","6282571cf39cd89341a474e9","bdp_trlrn","Wed Jul 27 2022 12:29:55 GMT-0500 (Central Daylight Time)","626438","Untrustworthy,Trustworthy","","null","","","","feedback","","<div class='trialDiv'><img src='trustrating_stim/white_mw066.bmp'><br><font class='baseline'><strong>Alex</strong><p>Received: <strong>20</strong></font> &nbsp; &nbsp; &nbsp; &nbsp; &nbsp; &nbsp;<font class='negOutcome'>Shared back: <strong>0</strong></font></font><div class='respPicDiv'><img src='img/responseButtonOffersNo0_wht.png' class='respPic'></div></div>","null","3","Alex","10","Kept","0.35,0.65","9","0.35","trustrating_stim/white_mw066.bmp","5","38","8"
"html-keyboard-response","152","331802","0.0-10.0-1.8","6282571cf39cd89341a474e9","bdp_trlrn","Wed Jul 27 2022 12:29:55 GMT-0500 (Central Daylight Time)","626438","Untrustworthy,Trustworthy","","829","","","","decision","","<div class='trialDiv'><img src='trustrating_stim/white_mw063.bmp'><br><font class='baseline'><strong>James</strong><p>Choose number of points to send.</font><div class='respPicDiv'><img src='img/responseButtonOffersNo0L.png' class='respPic'></div></div>","2","3","James","6","Shared","0.65,0.2","12","0.65","trustrating_stim/white_mw063.bmp","2","43","9"
"html-keyboard-response","153","332056","0.0-10.0-2.8","6282571cf39cd89341a474e9","bdp_trlrn","Wed Jul 27 2022 12:29:55 GMT-0500 (Central Daylight Time)","626438","Untrustworthy,Trustworthy","","null","","","","decisionFB","","<div class='trialDiv'><img src='trustrating_stim/white_mw063.bmp'><br><font class='baseline'><strong>James</strong><p>Choose number of points to send.</font><div class='respPicDiv'><img src='img/responseButtonOffersNo0L2.png' class='respPic'></div></div>","null","3","James","6","Shared","0.65,0.2","12","0.65","trustrating_stim/white_mw063.bmp","2","41","9"
"html-keyboard-response","154","333061","0.0-10.0-3.8","6282571cf39cd89341a474e9","bdp_trlrn","Wed Jul 27 2022 12:29:55 GMT-0500 (Central Daylight Time)","626438","Untrustworthy,Trustworthy","","null","","","","feedback","","<div class='trialDiv'><img src='trustrating_stim/white_mw063.bmp'><br><font class='baseline'><strong>James</strong><p>Received: <strong>8</strong></font> &nbsp; &nbsp; &nbsp; &nbsp; &nbsp; &nbsp;<font class='posOutcome'>Shared back: <strong>4</strong></font></font><div class='respPicDiv'><img src='img/responseButtonOffersNo0_wht.png' class='respPic'></div></div>","null","3","James","6","Shared","0.65,0.2","12","0.65","trustrating_stim/white_mw063.bmp","2","45","9"
"html-keyboard-response","155","333976","0.0-10.0-1.9","6282571cf39cd89341a474e9","bdp_trlrn","Wed Jul 27 2022 12:29:55 GMT-0500 (Central Daylight Time)","626438","Untrustworthy,Trustworthy","","911","","","","decision","","<div class='trialDiv'><img src='trustrating_stim/white_00757_941201_fa_edt.bmp'><br><font class='baseline'><strong>Richard</strong><p>Choose number of points to send.</font><div class='respPicDiv'><img src='img/responseButtonOffersNo0L.png' class='respPic'></div></div>","1","4","Richard","1","Shared","0.35,0.8","12","0.35","trustrating_stim/white_00757_941201_fa_edt.bmp","1","50","10"
"html-keyboard-response","156","334229","0.0-10.0-2.9","6282571cf39cd89341a474e9","bdp_trlrn","Wed Jul 27 2022 12:29:55 GMT-0500 (Central Daylight Time)","626438","Untrustworthy,Trustworthy","","null","","","","decisionFB","","<div class='trialDiv'><img src='trustrating_stim/white_00757_941201_fa_edt.bmp'><br><font class='baseline'><strong>Richard</strong><p>Choose number of points to send.</font><div class='respPicDiv'><img src='img/responseButtonOffersNo0L1.png' class='respPic'></div></div>","null","4","Richard","1","Shared","0.35,0.8","12","0.35","trustrating_stim/white_00757_941201_fa_edt.bmp","1","49","10"
"html-keyboard-response","157","335233","0.0-10.0-3.9","6282571cf39cd89341a474e9","bdp_trlrn","Wed Jul 27 2022 12:29:55 GMT-0500 (Central Daylight Time)","626438","Untrustworthy,Trustworthy","","null","","","","feedback","","<div class='trialDiv'><img src='trustrating_stim/white_00757_941201_fa_edt.bmp'><br><font class='baseline'><strong>Richard</strong><p>Received: <strong>4</strong></font> &nbsp; &nbsp; &nbsp; &nbsp; &nbsp; &nbsp;<font class='posOutcome'>Shared back: <strong>2</strong></font></font><div class='respPicDiv'><img src='img/responseButtonOffersNo0_wht.png' class='respPic'></div></div>","null","4","Richard","1","Shared","0.35,0.8","12","0.35","trustrating_stim/white_00757_941201_fa_edt.bmp","1","51","10"
"html-keyboard-response","158","335959","0.0-10.0-1.10","6282571cf39cd89341a474e9","bdp_trlrn","Wed Jul 27 2022 12:29:55 GMT-0500 (Central Daylight Time)","626438","Untrustworthy,Trustworthy","","722","","","","decision","","<div class='trialDiv'><img src='trustrating_stim/white_mw066.bmp'><br><font class='baseline'><strong>Alex</strong><p>Choose number of points to send.</font><div class='respPicDiv'><img src='img/responseButtonOffersNo0L.png' class='respPic'></div></div>","3","4","Alex","10","Kept","0.35,0.65","9","0.35","trustrating_stim/white_mw066.bmp","5","56","11"
"html-keyboard-response","159","336214","0.0-10.0-2.10","6282571cf39cd89341a474e9","bdp_trlrn","Wed Jul 27 2022 12:29:55 GMT-0500 (Central Daylight Time)","626438","Untrustworthy,Trustworthy","","null","","","","decisionFB","","<div class='trialDiv'><img src='trustrating_stim/white_mw066.bmp'><br><font class='baseline'><strong>Alex</strong><p>Choose number of points to send.</font><div class='respPicDiv'><img src='img/responseButtonOffersNo0L3.png' class='respPic'></div></div>","null","4","Alex","10","Kept","0.35,0.65","9","0.35","trustrating_stim/white_mw066.bmp","5","53","11"
"html-keyboard-response","160","337219","0.0-10.0-3.10","6282571cf39cd89341a474e9","bdp_trlrn","Wed Jul 27 2022 12:29:55 GMT-0500 (Central Daylight Time)","626438","Untrustworthy,Trustworthy","","null","","","","feedback","","<div class='trialDiv'><img src='trustrating_stim/white_mw066.bmp'><br><font class='baseline'><strong>Alex</strong><p>Received: <strong>12</strong></font> &nbsp; &nbsp; &nbsp; &nbsp; &nbsp; &nbsp;<font class='negOutcome'>Shared back: <strong>0</strong></font></font><div class='respPicDiv'><img src='img/responseButtonOffersNo0_wht.png' class='respPic'></div></div>","null","4","Alex","10","Kept","0.35,0.65","9","0.35","trustrating_stim/white_mw066.bmp","5","53","11"
"html-keyboard-response","161","338637","0.0-10.0-1.11","6282571cf39cd89341a474e9","bdp_trlrn","Wed Jul 27 2022 12:29:55 GMT-0500 (Central Daylight Time)","626438","Untrustworthy,Trustworthy","","1414","","","","decision","","<div class='trialDiv'><img src='trustrating_stim/white_mw063.bmp'><br><font class='baseline'><strong>James</strong><p>Choose number of points to send.</font><div class='respPicDiv'><img src='img/responseButtonOffersNo0L.png' class='respPic'></div></div>","2","4","James","6","Kept","0.65,0.2","12","0.65","trustrating_stim/white_mw063.bmp","2","58","12"
"html-keyboard-response","162","338893","0.0-10.0-2.11","6282571cf39cd89341a474e9","bdp_trlrn","Wed Jul 27 2022 12:29:55 GMT-0500 (Central Daylight Time)","626438","Untrustworthy,Trustworthy","","null","","","","decisionFB","","<div class='trialDiv'><img src='trustrating_stim/white_mw063.bmp'><br><font class='baseline'><strong>James</strong><p>Choose number of points to send.</font><div class='respPicDiv'><img src='img/responseButtonOffersNo0L2.png' class='respPic'></div></div>","null","4","James","6","Kept","0.65,0.2","12","0.65","trustrating_stim/white_mw063.bmp","2","56","12"
"html-keyboard-response","163","339901","0.0-10.0-3.11","6282571cf39cd89341a474e9","bdp_trlrn","Wed Jul 27 2022 12:29:55 GMT-0500 (Central Daylight Time)","626438","Untrustworthy,Trustworthy","","null","","","","feedback","","<div class='trialDiv'><img src='trustrating_stim/white_mw063.bmp'><br><font class='baseline'><strong>James</strong><p>Received: <strong>8</strong></font> &nbsp; &nbsp; &nbsp; &nbsp; &nbsp; &nbsp;<font class='negOutcome'>Shared back: <strong>0</strong></font></font><div class='respPicDiv'><img src='img/responseButtonOffersNo0_wht.png' class='respPic'></div></div>","null","4","James","6","Kept","0.65,0.2","12","0.65","trustrating_stim/white_mw063.bmp","2","56","12"
"html-keyboard-response","164","340599","0.0-10.0-1.12","6282571cf39cd89341a474e9","bdp_trlrn","Wed Jul 27 2022 12:29:55 GMT-0500 (Central Daylight Time)","626438","Untrustworthy,Trustworthy","","693","","","","decision","","<div class='trialDiv'><img src='trustrating_stim/white_mw066.bmp'><br><font class='baseline'><strong>Alex</strong><p>Choose number of points to send.</font><div class='respPicDiv'><img src='img/responseButtonOffersNo0L.png' class='respPic'></div></div>","1","5","Alex","10","Kept","0.35,0.65","9","0.35","trustrating_stim/white_mw066.bmp","5","61","13"
"html-keyboard-response","165","340855","0.0-10.0-2.12","6282571cf39cd89341a474e9","bdp_trlrn","Wed Jul 27 2022 12:29:55 GMT-0500 (Central Daylight Time)","626438","Untrustworthy,Trustworthy","","null","","","","decisionFB","","<div class='trialDiv'><img src='trustrating_stim/white_mw066.bmp'><br><font class='baseline'><strong>Alex</strong><p>Choose number of points to send.</font><div class='respPicDiv'><img src='img/responseButtonOffersNo0L1.png' class='respPic'></div></div>","null","5","Alex","10","Kept","0.35,0.65","9","0.35","trustrating_stim/white_mw066.bmp","5","60","13"
"html-keyboard-response","166","341858","0.0-10.0-3.12","6282571cf39cd89341a474e9","bdp_trlrn","Wed Jul 27 2022 12:29:55 GMT-0500 (Central Daylight Time)","626438","Untrustworthy,Trustworthy","","null","","","","feedback","","<div class='trialDiv'><img src='trustrating_stim/white_mw066.bmp'><br><font class='baseline'><strong>Alex</strong><p>Received: <strong>4</strong></font> &nbsp; &nbsp; &nbsp; &nbsp; &nbsp; &nbsp;<font class='negOutcome'>Shared back: <strong>0</strong></font></font><div class='respPicDiv'><img src='img/responseButtonOffersNo0_wht.png' class='respPic'></div></div>","null","5","Alex","10","Kept","0.35,0.65","9","0.35","trustrating_stim/white_mw066.bmp","5","60","13"
"html-keyboard-response","167","343229","0.0-10.0-1.13","6282571cf39cd89341a474e9","bdp_trlrn","Wed Jul 27 2022 12:29:55 GMT-0500 (Central Daylight Time)","626438","Untrustworthy,Trustworthy","","1368","","","","decision","","<div class='trialDiv'><img src='trustrating_stim/white_00757_941201_fa_edt.bmp'><br><font class='baseline'><strong>Richard</strong><p>Choose number of points to send.</font><div class='respPicDiv'><img src='img/responseButtonOffersNo0L.png' class='respPic'></div></div>","1","5","Richard","1","Kept","0.35,0.8","12","0.35","trustrating_stim/white_00757_941201_fa_edt.bmp","1","65","14"
"html-keyboard-response","168","343484","0.0-10.0-2.13","6282571cf39cd89341a474e9","bdp_trlrn","Wed Jul 27 2022 12:29:55 GMT-0500 (Central Daylight Time)","626438","Untrustworthy,Trustworthy","","null","","","","decisionFB","","<div class='trialDiv'><img src='trustrating_stim/white_00757_941201_fa_edt.bmp'><br><font class='baseline'><strong>Richard</strong><p>Choose number of points to send.</font><div class='respPicDiv'><img src='img/responseButtonOffersNo0L1.png' class='respPic'></div></div>","null","5","Richard","1","Kept","0.35,0.8","12","0.35","trustrating_stim/white_00757_941201_fa_edt.bmp","1","64","14"
"html-keyboard-response","169","344488","0.0-10.0-3.13","6282571cf39cd89341a474e9","bdp_trlrn","Wed Jul 27 2022 12:29:55 GMT-0500 (Central Daylight Time)","626438","Untrustworthy,Trustworthy","","null","","","","feedback","","<div class='trialDiv'><img src='trustrating_stim/white_00757_941201_fa_edt.bmp'><br><font class='baseline'><strong>Richard</strong><p>Received: <strong>4</strong></font> &nbsp; &nbsp; &nbsp; &nbsp; &nbsp; &nbsp;<font class='negOutcome'>Shared back: <strong>0</strong></font></font><div class='respPicDiv'><img src='img/responseButtonOffersNo0_wht.png' class='respPic'></div></div>","null","5","Richard","1","Kept","0.35,0.8","12","0.35","trustrating_stim/white_00757_941201_fa_edt.bmp","1","64","14"
"html-keyboard-response","170","345378","0.0-10.0-1.14","6282571cf39cd89341a474e9","bdp_trlrn","Wed Jul 27 2022 12:29:55 GMT-0500 (Central Daylight Time)","626438","Untrustworthy,Trustworthy","","887","","","","decision","","<div class='trialDiv'><img src='trustrating_stim/white_mw063.bmp'><br><font class='baseline'><strong>James</strong><p>Choose number of points to send.</font><div class='respPicDiv'><img src='img/responseButtonOffersNo0L.png' class='respPic'></div></div>","2","5","James","6","Kept","0.65,0.2","12","0.65","trustrating_stim/white_mw063.bmp","2","69","15"
"html-keyboard-response","171","345631","0.0-10.0-2.14","6282571cf39cd89341a474e9","bdp_trlrn","Wed Jul 27 2022 12:29:55 GMT-0500 (Central Daylight Time)","626438","Untrustworthy,Trustworthy","","null","","","","decisionFB","","<div class='trialDiv'><img src='trustrating_stim/white_mw063.bmp'><br><font class='baseline'><strong>James</strong><p>Choose number of points to send.</font><div class='respPicDiv'><img src='img/responseButtonOffersNo0L2.png' class='respPic'></div></div>","null","5","James","6","Kept","0.65,0.2","12","0.65","trustrating_stim/white_mw063.bmp","2","67","15"
"html-keyboard-response","172","346636","0.0-10.0-3.14","6282571cf39cd89341a474e9","bdp_trlrn","Wed Jul 27 2022 12:29:55 GMT-0500 (Central Daylight Time)","626438","Untrustworthy,Trustworthy","","null","","","","feedback","","<div class='trialDiv'><img src='trustrating_stim/white_mw063.bmp'><br><font class='baseline'><strong>James</strong><p>Received: <strong>8</strong></font> &nbsp; &nbsp; &nbsp; &nbsp; &nbsp; &nbsp;<font class='negOutcome'>Shared back: <strong>0</strong></font></font><div class='respPicDiv'><img src='img/responseButtonOffersNo0_wht.png' class='respPic'></div></div>","null","5","James","6","Kept","0.65,0.2","12","0.65","trustrating_stim/white_mw063.bmp","2","67","15"
"html-keyboard-response","173","347383","0.0-10.0-1.15","6282571cf39cd89341a474e9","bdp_trlrn","Wed Jul 27 2022 12:29:55 GMT-0500 (Central Daylight Time)","626438","Untrustworthy,Trustworthy","","743","","","","decision","","<div class='trialDiv'><img src='trustrating_stim/white_00757_941201_fa_edt.bmp'><br><font class='baseline'><strong>Richard</strong><p>Choose number of points to send.</font><div class='respPicDiv'><img src='img/responseButtonOffersNo0L.png' class='respPic'></div></div>","3","6","Richard","1","Kept","0.35,0.8","12","0.35","trustrating_stim/white_00757_941201_fa_edt.bmp","1","72","16"
"html-keyboard-response","174","347637","0.0-10.0-2.15","6282571cf39cd89341a474e9","bdp_trlrn","Wed Jul 27 2022 12:29:55 GMT-0500 (Central Daylight Time)","626438","Untrustworthy,Trustworthy","","null","","","","decisionFB","","<div class='trialDiv'><img src='trustrating_stim/white_00757_941201_fa_edt.bmp'><br><font class='baseline'><strong>Richard</strong><p>Choose number of points to send.</font><div class='respPicDiv'><img src='img/responseButtonOffersNo0L3.png' class='respPic'></div></div>","null","6","Richard","1","Kept","0.35,0.8","12","0.35","trustrating_stim/white_00757_941201_fa_edt.bmp","1","69","16"
"html-keyboard-response","175","348641","0.0-10.0-3.15","6282571cf39cd89341a474e9","bdp_trlrn","Wed Jul 27 2022 12:29:55 GMT-0500 (Central Daylight Time)","626438","Untrustworthy,Trustworthy","","null","","","","feedback","","<div class='trialDiv'><img src='trustrating_stim/white_00757_941201_fa_edt.bmp'><br><font class='baseline'><strong>Richard</strong><p>Received: <strong>12</strong></font> &nbsp; &nbsp; &nbsp; &nbsp; &nbsp; &nbsp;<font class='negOutcome'>Shared back: <strong>0</strong></font></font><div class='respPicDiv'><img src='img/responseButtonOffersNo0_wht.png' class='respPic'></div></div>","null","6","Richard","1","Kept","0.35,0.8","12","0.35","trustrating_stim/white_00757_941201_fa_edt.bmp","1","69","16"
"html-keyboard-response","176","349857","0.0-10.0-1.16","6282571cf39cd89341a474e9","bdp_trlrn","Wed Jul 27 2022 12:29:55 GMT-0500 (Central Daylight Time)","626438","Untrustworthy,Trustworthy","","1213","","","","decision","","<div class='trialDiv'><img src='trustrating_stim/white_mw063.bmp'><br><font class='baseline'><strong>James</strong><p>Choose number of points to send.</font><div class='respPicDiv'><img src='img/responseButtonOffersNo0L.png' class='respPic'></div></div>","1","6","James","6","Kept","0.65,0.2","12","0.65","trustrating_stim/white_mw063.bmp","2","74","17"
"html-keyboard-response","177","350114","0.0-10.0-2.16","6282571cf39cd89341a474e9","bdp_trlrn","Wed Jul 27 2022 12:29:55 GMT-0500 (Central Daylight Time)","626438","Untrustworthy,Trustworthy","","null","","","","decisionFB","","<div class='trialDiv'><img src='trustrating_stim/white_mw063.bmp'><br><font class='baseline'><strong>James</strong><p>Choose number of points to send.</font><div class='respPicDiv'><img src='img/responseButtonOffersNo0L1.png' class='respPic'></div></div>","null","6","James","6","Kept","0.65,0.2","12","0.65","trustrating_stim/white_mw063.bmp","2","73","17"
"html-keyboard-response","178","351122","0.0-10.0-3.16","6282571cf39cd89341a474e9","bdp_trlrn","Wed Jul 27 2022 12:29:55 GMT-0500 (Central Daylight Time)","626438","Untrustworthy,Trustworthy","","null","","","","feedback","","<div class='trialDiv'><img src='trustrating_stim/white_mw063.bmp'><br><font class='baseline'><strong>James</strong><p>Received: <strong>4</strong></font> &nbsp; &nbsp; &nbsp; &nbsp; &nbsp; &nbsp;<font class='negOutcome'>Shared back: <strong>0</strong></font></font><div class='respPicDiv'><img src='img/responseButtonOffersNo0_wht.png' class='respPic'></div></div>","null","6","James","6","Kept","0.65,0.2","12","0.65","trustrating_stim/white_mw063.bmp","2","73","17"
"html-keyboard-response","179","352137","0.0-10.0-1.17","6282571cf39cd89341a474e9","bdp_trlrn","Wed Jul 27 2022 12:29:55 GMT-0500 (Central Daylight Time)","626438","Untrustworthy,Trustworthy","","1013","","","","decision","","<div class='trialDiv'><img src='trustrating_stim/white_mw066.bmp'><br><font class='baseline'><strong>Alex</strong><p>Choose number of points to send.</font><div class='respPicDiv'><img src='img/responseButtonOffersNo0L.png' class='respPic'></div></div>","5","6","Alex","10","Kept","0.35,0.65","9","0.35","trustrating_stim/white_mw066.bmp","5","78","18"
"html-keyboard-response","180","352392","0.0-10.0-2.17","6282571cf39cd89341a474e9","bdp_trlrn","Wed Jul 27 2022 12:29:55 GMT-0500 (Central Daylight Time)","626438","Untrustworthy,Trustworthy","","null","","","","decisionFB","","<div class='trialDiv'><img src='trustrating_stim/white_mw066.bmp'><br><font class='baseline'><strong>Alex</strong><p>Choose number of points to send.</font><div class='respPicDiv'><img src='img/responseButtonOffersNo0L5.png' class='respPic'></div></div>","null","6","Alex","10","Kept","0.35,0.65","9","0.35","trustrating_stim/white_mw066.bmp","5","73","18"
"html-keyboard-response","181","353395","0.0-10.0-3.17","6282571cf39cd89341a474e9","bdp_trlrn","Wed Jul 27 2022 12:29:55 GMT-0500 (Central Daylight Time)","626438","Untrustworthy,Trustworthy","","null","","","","feedback","","<div class='trialDiv'><img src='trustrating_stim/white_mw066.bmp'><br><font class='baseline'><strong>Alex</strong><p>Received: <strong>20</strong></font> &nbsp; &nbsp; &nbsp; &nbsp; &nbsp; &nbsp;<font class='negOutcome'>Shared back: <strong>0</strong></font></font><div class='respPicDiv'><img src='img/responseButtonOffersNo0_wht.png' class='respPic'></div></div>","null","6","Alex","10","Kept","0.35,0.65","9","0.35","trustrating_stim/white_mw066.bmp","5","73","18"
"html-keyboard-response","182","353676","0.0-10.0-1.18","6282571cf39cd89341a474e9","bdp_trlrn","Wed Jul 27 2022 12:29:55 GMT-0500 (Central Daylight Time)","626438","Untrustworthy,Trustworthy","","278","","","","decision","","<div class='trialDiv'><img src='trustrating_stim/white_00757_941201_fa_edt.bmp'><br><font class='baseline'><strong>Richard</strong><p>Choose number of points to send.</font><div class='respPicDiv'><img src='img/responseButtonOffersNo0L.png' class='respPic'></div></div>","3","7","Richard","1","Shared","0.35,0.8","12","0.35","trustrating_stim/white_00757_941201_fa_edt.bmp","1","78","19"
"html-keyboard-response","183","353931","0.0-10.0-2.18","6282571cf39cd89341a474e9","bdp_trlrn","Wed Jul 27 2022 12:29:55 GMT-0500 (Central Daylight Time)","626438","Untrustworthy,Trustworthy","","null","","","","decisionFB","","<div class='trialDiv'><img src='trustrating_stim/white_00757_941201_fa_edt.bmp'><br><font class='baseline'><strong>Richard</strong><p>Choose number of points to send.</font><div class='respPicDiv'><img src='img/responseButtonOffersNo0L3.png' class='respPic'></div></div>","null","7","Richard","1","Shared","0.35,0.8","12","0.35","trustrating_stim/white_00757_941201_fa_edt.bmp","1","75","19"
"html-keyboard-response","184","354934","0.0-10.0-3.18","6282571cf39cd89341a474e9","bdp_trlrn","Wed Jul 27 2022 12:29:55 GMT-0500 (Central Daylight Time)","626438","Untrustworthy,Trustworthy","","null","","","","feedback","","<div class='trialDiv'><img src='trustrating_stim/white_00757_941201_fa_edt.bmp'><br><font class='baseline'><strong>Richard</strong><p>Received: <strong>12</strong></font> &nbsp; &nbsp; &nbsp; &nbsp; &nbsp; &nbsp;<font class='posOutcome'>Shared back: <strong>6</strong></font></font><div class='respPicDiv'><img src='img/responseButtonOffersNo0_wht.png' class='respPic'></div></div>","null","7","Richard","1","Shared","0.35,0.8","12","0.35","trustrating_stim/white_00757_941201_fa_edt.bmp","1","81","19"
"html-keyboard-response","185","355897","0.0-10.0-1.19","6282571cf39cd89341a474e9","bdp_trlrn","Wed Jul 27 2022 12:29:55 GMT-0500 (Central Daylight Time)","626438","Untrustworthy,Trustworthy","","960","","","","decision","","<div class='trialDiv'><img src='trustrating_stim/white_mw063.bmp'><br><font class='baseline'><strong>James</strong><p>Choose number of points to send.</font><div class='respPicDiv'><img src='img/responseButtonOffersNo0L.png' class='respPic'></div></div>","4","7","James","6","Kept","0.65,0.2","12","0.65","trustrating_stim/white_mw063.bmp","2","86","20"
"html-keyboard-response","186","356150","0.0-10.0-2.19","6282571cf39cd89341a474e9","bdp_trlrn","Wed Jul 27 2022 12:29:55 GMT-0500 (Central Daylight Time)","626438","Untrustworthy,Trustworthy","","null","","","","decisionFB","","<div class='trialDiv'><img src='trustrating_stim/white_mw063.bmp'><br><font class='baseline'><strong>James</strong><p>Choose number of points to send.</font><div class='respPicDiv'><img src='img/responseButtonOffersNo0L4.png' class='respPic'></div></div>","null","7","James","6","Kept","0.65,0.2","12","0.65","trustrating_stim/white_mw063.bmp","2","82","20"
"html-keyboard-response","187","357155","0.0-10.0-3.19","6282571cf39cd89341a474e9","bdp_trlrn","Wed Jul 27 2022 12:29:55 GMT-0500 (Central Daylight Time)","626438","Untrustworthy,Trustworthy","","null","","","","feedback","","<div class='trialDiv'><img src='trustrating_stim/white_mw063.bmp'><br><font class='baseline'><strong>James</strong><p>Received: <strong>16</strong></font> &nbsp; &nbsp; &nbsp; &nbsp; &nbsp; &nbsp;<font class='negOutcome'>Shared back: <strong>0</strong></font></font><div class='respPicDiv'><img src='img/responseButtonOffersNo0_wht.png' class='respPic'></div></div>","null","7","James","6","Kept","0.65,0.2","12","0.65","trustrating_stim/white_mw063.bmp","2","82","20"
"html-keyboard-response","188","357871","0.0-10.0-1.20","6282571cf39cd89341a474e9","bdp_trlrn","Wed Jul 27 2022 12:29:55 GMT-0500 (Central Daylight Time)","626438","Untrustworthy,Trustworthy","","712","","","","decision","","<div class='trialDiv'><img src='trustrating_stim/white_mw066.bmp'><br><font class='baseline'><strong>Alex</strong><p>Choose number of points to send.</font><div class='respPicDiv'><img src='img/responseButtonOffersNo0L.png' class='respPic'></div></div>","2","7","Alex","10","Shared","0.35,0.65","9","0.35","trustrating_stim/white_mw066.bmp","5","87","21"
"html-keyboard-response","189","358123","0.0-10.0-2.20","6282571cf39cd89341a474e9","bdp_trlrn","Wed Jul 27 2022 12:29:55 GMT-0500 (Central Daylight Time)","626438","Untrustworthy,Trustworthy","","null","","","","decisionFB","","<div class='trialDiv'><img src='trustrating_stim/white_mw066.bmp'><br><font class='baseline'><strong>Alex</strong><p>Choose number of points to send.</font><div class='respPicDiv'><img src='img/responseButtonOffersNo0L2.png' class='respPic'></div></div>","null","7","Alex","10","Shared","0.35,0.65","9","0.35","trustrating_stim/white_mw066.bmp","5","85","21"
"html-keyboard-response","190","359127","0.0-10.0-3.20","6282571cf39cd89341a474e9","bdp_trlrn","Wed Jul 27 2022 12:29:55 GMT-0500 (Central Daylight Time)","626438","Untrustworthy,Trustworthy","","null","","","","feedback","","<div class='trialDiv'><img src='trustrating_stim/white_mw066.bmp'><br><font class='baseline'><strong>Alex</strong><p>Received: <strong>8</strong></font> &nbsp; &nbsp; &nbsp; &nbsp; &nbsp; &nbsp;<font class='posOutcome'>Shared back: <strong>4</strong></font></font><div class='respPicDiv'><img src='img/responseButtonOffersNo0_wht.png' class='respPic'></div></div>","null","7","Alex","10","Shared","0.35,0.65","9","0.35","trustrating_stim/white_mw066.bmp","5","89","21"
"html-keyboard-response","191","360013","0.0-10.0-1.21","6282571cf39cd89341a474e9","bdp_trlrn","Wed Jul 27 2022 12:29:55 GMT-0500 (Central Daylight Time)","626438","Untrustworthy,Trustworthy","","884","","","","decision","","<div class='trialDiv'><img src='trustrating_stim/white_00757_941201_fa_edt.bmp'><br><font class='baseline'><strong>Richard</strong><p>Choose number of points to send.</font><div class='respPicDiv'><img src='img/responseButtonOffersNo0L.png' class='respPic'></div></div>","3","8","Richard","1","Kept","0.35,0.8","12","0.35","trustrating_stim/white_00757_941201_fa_edt.bmp","1","94","22"
"html-keyboard-response","192","360266","0.0-10.0-2.21","6282571cf39cd89341a474e9","bdp_trlrn","Wed Jul 27 2022 12:29:55 GMT-0500 (Central Daylight Time)","626438","Untrustworthy,Trustworthy","","null","","","","decisionFB","","<div class='trialDiv'><img src='trustrating_stim/white_00757_941201_fa_edt.bmp'><br><font class='baseline'><strong>Richard</strong><p>Choose number of points to send.</font><div class='respPicDiv'><img src='img/responseButtonOffersNo0L3.png' class='respPic'></div></div>","null","8","Richard","1","Kept","0.35,0.8","12","0.35","trustrating_stim/white_00757_941201_fa_edt.bmp","1","91","22"
"html-keyboard-response","193","361273","0.0-10.0-3.21","6282571cf39cd89341a474e9","bdp_trlrn","Wed Jul 27 2022 12:29:55 GMT-0500 (Central Daylight Time)","626438","Untrustworthy,Trustworthy","","null","","","","feedback","","<div class='trialDiv'><img src='trustrating_stim/white_00757_941201_fa_edt.bmp'><br><font class='baseline'><strong>Richard</strong><p>Received: <strong>12</strong></font> &nbsp; &nbsp; &nbsp; &nbsp; &nbsp; &nbsp;<font class='negOutcome'>Shared back: <strong>0</strong></font></font><div class='respPicDiv'><img src='img/responseButtonOffersNo0_wht.png' class='respPic'></div></div>","null","8","Richard","1","Kept","0.35,0.8","12","0.35","trustrating_stim/white_00757_941201_fa_edt.bmp","1","91","22"
"html-keyboard-response","194","361947","0.0-10.0-1.22","6282571cf39cd89341a474e9","bdp_trlrn","Wed Jul 27 2022 12:29:55 GMT-0500 (Central Daylight Time)","626438","Untrustworthy,Trustworthy","","670","","","","decision","","<div class='trialDiv'><img src='trustrating_stim/white_mw066.bmp'><br><font class='baseline'><strong>Alex</strong><p>Choose number of points to send.</font><div class='respPicDiv'><img src='img/responseButtonOffersNo0L.png' class='respPic'></div></div>","1","8","Alex","10","Shared","0.35,0.65","9","0.35","trustrating_stim/white_mw066.bmp","5","96","23"
"html-keyboard-response","195","362202","0.0-10.0-2.22","6282571cf39cd89341a474e9","bdp_trlrn","Wed Jul 27 2022 12:29:55 GMT-0500 (Central Daylight Time)","626438","Untrustworthy,Trustworthy","","null","","","","decisionFB","","<div class='trialDiv'><img src='trustrating_stim/white_mw066.bmp'><br><font class='baseline'><strong>Alex</strong><p>Choose number of points to send.</font><div class='respPicDiv'><img src='img/responseButtonOffersNo0L1.png' class='respPic'></div></div>","null","8","Alex","10","Shared","0.35,0.65","9","0.35","trustrating_stim/white_mw066.bmp","5","95","23"
"html-keyboard-response","196","363207","0.0-10.0-3.22","6282571cf39cd89341a474e9","bdp_trlrn","Wed Jul 27 2022 12:29:55 GMT-0500 (Central Daylight Time)","626438","Untrustworthy,Trustworthy","","null","","","","feedback","","<div class='trialDiv'><img src='trustrating_stim/white_mw066.bmp'><br><font class='baseline'><strong>Alex</strong><p>Received: <strong>4</strong></font> &nbsp; &nbsp; &nbsp; &nbsp; &nbsp; &nbsp;<font class='posOutcome'>Shared back: <strong>2</strong></font></font><div class='respPicDiv'><img src='img/responseButtonOffersNo0_wht.png' class='respPic'></div></div>","null","8","Alex","10","Shared","0.35,0.65","9","0.35","trustrating_stim/white_mw066.bmp","5","97","23"
"html-keyboard-response","197","363905","0.0-10.0-1.23","6282571cf39cd89341a474e9","bdp_trlrn","Wed Jul 27 2022 12:29:55 GMT-0500 (Central Daylight Time)","626438","Untrustworthy,Trustworthy","","696","","","","decision","","<div class='trialDiv'><img src='trustrating_stim/white_mw063.bmp'><br><font class='baseline'><strong>James</strong><p>Choose number of points to send.</font><div class='respPicDiv'><img src='img/responseButtonOffersNo0L.png' class='respPic'></div></div>","5","8","James","6","Shared","0.65,0.2","12","0.65","trustrating_stim/white_mw063.bmp","2","102","24"
"html-keyboard-response","198","364159","0.0-10.0-2.23","6282571cf39cd89341a474e9","bdp_trlrn","Wed Jul 27 2022 12:29:55 GMT-0500 (Central Daylight Time)","626438","Untrustworthy,Trustworthy","","null","","","","decisionFB","","<div class='trialDiv'><img src='trustrating_stim/white_mw063.bmp'><br><font class='baseline'><strong>James</strong><p>Choose number of points to send.</font><div class='respPicDiv'><img src='img/responseButtonOffersNo0L5.png' class='respPic'></div></div>","null","8","James","6","Shared","0.65,0.2","12","0.65","trustrating_stim/white_mw063.bmp","2","97","24"
"html-keyboard-response","199","365162","0.0-10.0-3.23","6282571cf39cd89341a474e9","bdp_trlrn","Wed Jul 27 2022 12:29:55 GMT-0500 (Central Daylight Time)","626438","Untrustworthy,Trustworthy","","null","","","","feedback","","<div class='trialDiv'><img src='trustrating_stim/white_mw063.bmp'><br><font class='baseline'><strong>James</strong><p>Received: <strong>20</strong></font> &nbsp; &nbsp; &nbsp; &nbsp; &nbsp; &nbsp;<font class='posOutcome'>Shared back: <strong>10</strong></font></font><div class='respPicDiv'><img src='img/responseButtonOffersNo0_wht.png' class='respPic'></div></div>","null","8","James","6","Shared","0.65,0.2","12","0.65","trustrating_stim/white_mw063.bmp","2","107","24"
"html-keyboard-response","200","366447","0.0-10.0-1.24","6282571cf39cd89341a474e9","bdp_trlrn","Wed Jul 27 2022 12:29:55 GMT-0500 (Central Daylight Time)","626438","Untrustworthy,Trustworthy","","1282","","","","decision","","<div class='trialDiv'><img src='trustrating_stim/white_mw066.bmp'><br><font class='baseline'><strong>Alex</strong><p>Choose number of points to send.</font><div class='respPicDiv'><img src='img/responseButtonOffersNo0L.png' class='respPic'></div></div>","1","9","Alex","10","Shared","0.35,0.65","9","0.35","trustrating_stim/white_mw066.bmp","5","112","25"
"html-keyboard-response","201","366700","0.0-10.0-2.24","6282571cf39cd89341a474e9","bdp_trlrn","Wed Jul 27 2022 12:29:55 GMT-0500 (Central Daylight Time)","626438","Untrustworthy,Trustworthy","","null","","","","decisionFB","","<div class='trialDiv'><img src='trustrating_stim/white_mw066.bmp'><br><font class='baseline'><strong>Alex</strong><p>Choose number of points to send.</font><div class='respPicDiv'><img src='img/responseButtonOffersNo0L1.png' class='respPic'></div></div>","null","9","Alex","10","Shared","0.35,0.65","9","0.35","trustrating_stim/white_mw066.bmp","5","111","25"
"html-keyboard-response","202","367705","0.0-10.0-3.24","6282571cf39cd89341a474e9","bdp_trlrn","Wed Jul 27 2022 12:29:55 GMT-0500 (Central Daylight Time)","626438","Untrustworthy,Trustworthy","","null","","","","feedback","","<div class='trialDiv'><img src='trustrating_stim/white_mw066.bmp'><br><font class='baseline'><strong>Alex</strong><p>Received: <strong>4</strong></font> &nbsp; &nbsp; &nbsp; &nbsp; &nbsp; &nbsp;<font class='posOutcome'>Shared back: <strong>2</strong></font></font><div class='respPicDiv'><img src='img/responseButtonOffersNo0_wht.png' class='respPic'></div></div>","null","9","Alex","10","Shared","0.35,0.65","9","0.35","trustrating_stim/white_mw066.bmp","5","113","25"
"html-keyboard-response","203","368729","0.0-10.0-1.25","6282571cf39cd89341a474e9","bdp_trlrn","Wed Jul 27 2022 12:29:55 GMT-0500 (Central Daylight Time)","626438","Untrustworthy,Trustworthy","","1023","","","","decision","","<div class='trialDiv'><img src='trustrating_stim/white_mw063.bmp'><br><font class='baseline'><strong>James</strong><p>Choose number of points to send.</font><div class='respPicDiv'><img src='img/responseButtonOffersNo0L.png' class='respPic'></div></div>","5","9","James","6","Kept","0.65,0.2","12","0.65","trustrating_stim/white_mw063.bmp","2","118","26"
"html-keyboard-response","204","368982","0.0-10.0-2.25","6282571cf39cd89341a474e9","bdp_trlrn","Wed Jul 27 2022 12:29:55 GMT-0500 (Central Daylight Time)","626438","Untrustworthy,Trustworthy","","null","","","","decisionFB","","<div class='trialDiv'><img src='trustrating_stim/white_mw063.bmp'><br><font class='baseline'><strong>James</strong><p>Choose number of points to send.</font><div class='respPicDiv'><img src='img/responseButtonOffersNo0L5.png' class='respPic'></div></div>","null","9","James","6","Kept","0.65,0.2","12","0.65","trustrating_stim/white_mw063.bmp","2","113","26"
"html-keyboard-response","205","369984","0.0-10.0-3.25","6282571cf39cd89341a474e9","bdp_trlrn","Wed Jul 27 2022 12:29:55 GMT-0500 (Central Daylight Time)","626438","Untrustworthy,Trustworthy","","null","","","","feedback","","<div class='trialDiv'><img src='trustrating_stim/white_mw063.bmp'><br><font class='baseline'><strong>James</strong><p>Received: <strong>20</strong></font> &nbsp; &nbsp; &nbsp; &nbsp; &nbsp; &nbsp;<font class='negOutcome'>Shared back: <strong>0</strong></font></font><div class='respPicDiv'><img src='img/responseButtonOffersNo0_wht.png' class='respPic'></div></div>","null","9","James","6","Kept","0.65,0.2","12","0.65","trustrating_stim/white_mw063.bmp","2","113","26"
"html-keyboard-response","206","370341","0.0-10.0-1.26","6282571cf39cd89341a474e9","bdp_trlrn","Wed Jul 27 2022 12:29:55 GMT-0500 (Central Daylight Time)","626438","Untrustworthy,Trustworthy","","353","","","","decision","","<div class='trialDiv'><img src='trustrating_stim/white_00757_941201_fa_edt.bmp'><br><font class='baseline'><strong>Richard</strong><p>Choose number of points to send.</font><div class='respPicDiv'><img src='img/responseButtonOffersNo0L.png' class='respPic'></div></div>","2","9","Richard","1","Shared","0.35,0.8","12","0.35","trustrating_stim/white_00757_941201_fa_edt.bmp","1","118","27"
"html-keyboard-response","207","370593","0.0-10.0-2.26","6282571cf39cd89341a474e9","bdp_trlrn","Wed Jul 27 2022 12:29:55 GMT-0500 (Central Daylight Time)","626438","Untrustworthy,Trustworthy","","null","","","","decisionFB","","<div class='trialDiv'><img src='trustrating_stim/white_00757_941201_fa_edt.bmp'><br><font class='baseline'><strong>Richard</strong><p>Choose number of points to send.</font><div class='respPicDiv'><img src='img/responseButtonOffersNo0L2.png' class='respPic'></div></div>","null","9","Richard","1","Shared","0.35,0.8","12","0.35","trustrating_stim/white_00757_941201_fa_edt.bmp","1","116","27"
"html-keyboard-response","208","371596","0.0-10.0-3.26","6282571cf39cd89341a474e9","bdp_trlrn","Wed Jul 27 2022 12:29:55 GMT-0500 (Central Daylight Time)","626438","Untrustworthy,Trustworthy","","null","","","","feedback","","<div class='trialDiv'><img src='trustrating_stim/white_00757_941201_fa_edt.bmp'><br><font class='baseline'><strong>Richard</strong><p>Received: <strong>8</strong></font> &nbsp; &nbsp; &nbsp; &nbsp; &nbsp; &nbsp;<font class='posOutcome'>Shared back: <strong>4</strong></font></font><div class='respPicDiv'><img src='img/responseButtonOffersNo0_wht.png' class='respPic'></div></div>","null","9","Richard","1","Shared","0.35,0.8","12","0.35","trustrating_stim/white_00757_941201_fa_edt.bmp","1","120","27"
"html-keyboard-response","209","372099","0.0-10.0-1.27","6282571cf39cd89341a474e9","bdp_trlrn","Wed Jul 27 2022 12:29:55 GMT-0500 (Central Daylight Time)","626438","Untrustworthy,Trustworthy","","500","","","","decision","","<div class='trialDiv'><img src='trustrating_stim/white_mw066.bmp'><br><font class='baseline'><strong>Alex</strong><p>Choose number of points to send.</font><div class='respPicDiv'><img src='img/responseButtonOffersNo0L.png' class='respPic'></div></div>","3","10","Alex","10","Kept","0.35,0.65","9","0.35","trustrating_stim/white_mw066.bmp","5","125","28"
"html-keyboard-response","210","372354","0.0-10.0-2.27","6282571cf39cd89341a474e9","bdp_trlrn","Wed Jul 27 2022 12:29:55 GMT-0500 (Central Daylight Time)","626438","Untrustworthy,Trustworthy","","null","","","","decisionFB","","<div class='trialDiv'><img src='trustrating_stim/white_mw066.bmp'><br><font class='baseline'><strong>Alex</strong><p>Choose number of points to send.</font><div class='respPicDiv'><img src='img/responseButtonOffersNo0L3.png' class='respPic'></div></div>","null","10","Alex","10","Kept","0.35,0.65","9","0.35","trustrating_stim/white_mw066.bmp","5","122","28"
"html-keyboard-response","211","373358","0.0-10.0-3.27","6282571cf39cd89341a474e9","bdp_trlrn","Wed Jul 27 2022 12:29:55 GMT-0500 (Central Daylight Time)","626438","Untrustworthy,Trustworthy","","null","","","","feedback","","<div class='trialDiv'><img src='trustrating_stim/white_mw066.bmp'><br><font class='baseline'><strong>Alex</strong><p>Received: <strong>12</strong></font> &nbsp; &nbsp; &nbsp; &nbsp; &nbsp; &nbsp;<font class='negOutcome'>Shared back: <strong>0</strong></font></font><div class='respPicDiv'><img src='img/responseButtonOffersNo0_wht.png' class='respPic'></div></div>","null","10","Alex","10","Kept","0.35,0.65","9","0.35","trustrating_stim/white_mw066.bmp","5","122","28"
"html-keyboard-response","212","373692","0.0-10.0-1.28","6282571cf39cd89341a474e9","bdp_trlrn","Wed Jul 27 2022 12:29:55 GMT-0500 (Central Daylight Time)","626438","Untrustworthy,Trustworthy","","331","","","","decision","","<div class='trialDiv'><img src='trustrating_stim/white_mw063.bmp'><br><font class='baseline'><strong>James</strong><p>Choose number of points to send.</font><div class='respPicDiv'><img src='img/responseButtonOffersNo0L.png' class='respPic'></div></div>","1","10","James","6","Shared","0.65,0.2","12","0.65","trustrating_stim/white_mw063.bmp","2","127","29"
"html-keyboard-response","213","373944","0.0-10.0-2.28","6282571cf39cd89341a474e9","bdp_trlrn","Wed Jul 27 2022 12:29:55 GMT-0500 (Central Daylight Time)","626438","Untrustworthy,Trustworthy","","null","","","","decisionFB","","<div class='trialDiv'><img src='trustrating_stim/white_mw063.bmp'><br><font class='baseline'><strong>James</strong><p>Choose number of points to send.</font><div class='respPicDiv'><img src='img/responseButtonOffersNo0L1.png' class='respPic'></div></div>","null","10","James","6","Shared","0.65,0.2","12","0.65","trustrating_stim/white_mw063.bmp","2","126","29"
"html-keyboard-response","214","374949","0.0-10.0-3.28","6282571cf39cd89341a474e9","bdp_trlrn","Wed Jul 27 2022 12:29:55 GMT-0500 (Central Daylight Time)","626438","Untrustworthy,Trustworthy","","null","","","","feedback","","<div class='trialDiv'><img src='trustrating_stim/white_mw063.bmp'><br><font class='baseline'><strong>James</strong><p>Received: <strong>4</strong></font> &nbsp; &nbsp; &nbsp; &nbsp; &nbsp; &nbsp;<font class='posOutcome'>Shared back: <strong>2</strong></font></font><div class='respPicDiv'><img src='img/responseButtonOffersNo0_wht.png' class='respPic'></div></div>","null","10","James","6","Shared","0.65,0.2","12","0.65","trustrating_stim/white_mw063.bmp","2","128","29"
"html-keyboard-response","215","375861","0.0-10.0-1.29","6282571cf39cd89341a474e9","bdp_trlrn","Wed Jul 27 2022 12:29:55 GMT-0500 (Central Daylight Time)","626438","Untrustworthy,Trustworthy","","911","","","","decision","","<div class='trialDiv'><img src='trustrating_stim/white_00757_941201_fa_edt.bmp'><br><font class='baseline'><strong>Richard</strong><p>Choose number of points to send.</font><div class='respPicDiv'><img src='img/responseButtonOffersNo0L.png' class='respPic'></div></div>","5","10","Richard","1","Kept","0.35,0.8","12","0.35","trustrating_stim/white_00757_941201_fa_edt.bmp","1","133","30"
"html-keyboard-response","216","376114","0.0-10.0-2.29","6282571cf39cd89341a474e9","bdp_trlrn","Wed Jul 27 2022 12:29:55 GMT-0500 (Central Daylight Time)","626438","Untrustworthy,Trustworthy","","null","","","","decisionFB","","<div class='trialDiv'><img src='trustrating_stim/white_00757_941201_fa_edt.bmp'><br><font class='baseline'><strong>Richard</strong><p>Choose number of points to send.</font><div class='respPicDiv'><img src='img/responseButtonOffersNo0L5.png' class='respPic'></div></div>","null","10","Richard","1","Kept","0.35,0.8","12","0.35","trustrating_stim/white_00757_941201_fa_edt.bmp","1","128","30"
"html-keyboard-response","217","377118","0.0-10.0-3.29","6282571cf39cd89341a474e9","bdp_trlrn","Wed Jul 27 2022 12:29:55 GMT-0500 (Central Daylight Time)","626438","Untrustworthy,Trustworthy","","null","","","","feedback","","<div class='trialDiv'><img src='trustrating_stim/white_00757_941201_fa_edt.bmp'><br><font class='baseline'><strong>Richard</strong><p>Received: <strong>20</strong></font> &nbsp; &nbsp; &nbsp; &nbsp; &nbsp; &nbsp;<font class='negOutcome'>Shared back: <strong>0</strong></font></font><div class='respPicDiv'><img src='img/responseButtonOffersNo0_wht.png' class='respPic'></div></div>","null","10","Richard","1","Kept","0.35,0.8","12","0.35","trustrating_stim/white_00757_941201_fa_edt.bmp","1","128","30"
"html-keyboard-response","218","377577","0.0-10.0-1.30","6282571cf39cd89341a474e9","bdp_trlrn","Wed Jul 27 2022 12:29:55 GMT-0500 (Central Daylight Time)","626438","Untrustworthy,Trustworthy","","455","","","","decision","","<div class='trialDiv'><img src='trustrating_stim/white_mw066.bmp'><br><font class='baseline'><strong>Alex</strong><p>Choose number of points to send.</font><div class='respPicDiv'><img src='img/responseButtonOffersNo0L.png' class='respPic'></div></div>","4","11","Alex","10","Shared","0.35,0.65","9","0.35","trustrating_stim/white_mw066.bmp","5","133","31"
"html-keyboard-response","219","377830","0.0-10.0-2.30","6282571cf39cd89341a474e9","bdp_trlrn","Wed Jul 27 2022 12:29:55 GMT-0500 (Central Daylight Time)","626438","Untrustworthy,Trustworthy","","null","","","","decisionFB","","<div class='trialDiv'><img src='trustrating_stim/white_mw066.bmp'><br><font class='baseline'><strong>Alex</strong><p>Choose number of points to send.</font><div class='respPicDiv'><img src='img/responseButtonOffersNo0L4.png' class='respPic'></div></div>","null","11","Alex","10","Shared","0.35,0.65","9","0.35","trustrating_stim/white_mw066.bmp","5","129","31"
"html-keyboard-response","220","378834","0.0-10.0-3.30","6282571cf39cd89341a474e9","bdp_trlrn","Wed Jul 27 2022 12:29:55 GMT-0500 (Central Daylight Time)","626438","Untrustworthy,Trustworthy","","null","","","","feedback","","<div class='trialDiv'><img src='trustrating_stim/white_mw066.bmp'><br><font class='baseline'><strong>Alex</strong><p>Received: <strong>16</strong></font> &nbsp; &nbsp; &nbsp; &nbsp; &nbsp; &nbsp;<font class='posOutcome'>Shared back: <strong>8</strong></font></font><div class='respPicDiv'><img src='img/responseButtonOffersNo0_wht.png' class='respPic'></div></div>","null","11","Alex","10","Shared","0.35,0.65","9","0.35","trustrating_stim/white_mw066.bmp","5","137","31"
"html-keyboard-response","221","379138","0.0-10.0-1.31","6282571cf39cd89341a474e9","bdp_trlrn","Wed Jul 27 2022 12:29:55 GMT-0500 (Central Daylight Time)","626438","Untrustworthy,Trustworthy","","300","","","","decision","","<div class='trialDiv'><img src='trustrating_stim/white_mw063.bmp'><br><font class='baseline'><strong>James</strong><p>Choose number of points to send.</font><div class='respPicDiv'><img src='img/responseButtonOffersNo0L.png' class='respPic'></div></div>","1","11","James","6","Kept","0.65,0.2","12","0.65","trustrating_stim/white_mw063.bmp","2","142","32"
"html-keyboard-response","222","379390","0.0-10.0-2.31","6282571cf39cd89341a474e9","bdp_trlrn","Wed Jul 27 2022 12:29:55 GMT-0500 (Central Daylight Time)","626438","Untrustworthy,Trustworthy","","null","","","","decisionFB","","<div class='trialDiv'><img src='trustrating_stim/white_mw063.bmp'><br><font class='baseline'><strong>James</strong><p>Choose number of points to send.</font><div class='respPicDiv'><img src='img/responseButtonOffersNo0L1.png' class='respPic'></div></div>","null","11","James","6","Kept","0.65,0.2","12","0.65","trustrating_stim/white_mw063.bmp","2","141","32"
"html-keyboard-response","223","380395","0.0-10.0-3.31","6282571cf39cd89341a474e9","bdp_trlrn","Wed Jul 27 2022 12:29:55 GMT-0500 (Central Daylight Time)","626438","Untrustworthy,Trustworthy","","null","","","","feedback","","<div class='trialDiv'><img src='trustrating_stim/white_mw063.bmp'><br><font class='baseline'><strong>James</strong><p>Received: <strong>4</strong></font> &nbsp; &nbsp; &nbsp; &nbsp; &nbsp; &nbsp;<font class='negOutcome'>Shared back: <strong>0</strong></font></font><div class='respPicDiv'><img src='img/responseButtonOffersNo0_wht.png' class='respPic'></div></div>","null","11","James","6","Kept","0.65,0.2","12","0.65","trustrating_stim/white_mw063.bmp","2","141","32"
