"event","trial","time","trialtype","subject_id","task","startTime","totalTime","labels","trial_type","trial_index","time_elapsed","internal_node_id","view_history","rt","success","stimulus","key_press","aground","name","faceID","outcome","agenttype","agentswpt","agentcurrpshare","face","avgRating","point_total","round"
"focus","0","0","focusevent","5fc70f3bd255c10f0b2346ba","bdp_trlrn","Mon Mar 13 2023 21:33:38 GMT-0700 (Pacific Daylight Time)","818186","Untrustworthy,Trustworthy","","","","","","","","","","","","","","","","","","","",""
"","","","","5fc70f3bd255c10f0b2346ba","bdp_trlrn","Mon Mar 13 2023 21:33:38 GMT-0700 (Pacific Daylight Time)","818186","Untrustworthy,Trustworthy","pavlovia","0","4","0.0-0.0","","","","","","","","","","","","","","","",""
"","","","","5fc70f3bd255c10f0b2346ba","bdp_trlrn","Mon Mar 13 2023 21:33:38 GMT-0700 (Pacific Daylight Time)","818186","Untrustworthy,Trustworthy","instructions","1","2772","0.0-1.0","[{""page_index"":0,""viewing_time"":2768}]","2768","","","","","","","","","","","","","",""
"fullscreenexit","2","4861","fullscreenexit","5fc70f3bd255c10f0b2346ba","bdp_trlrn","Mon Mar 13 2023 21:33:38 GMT-0700 (Pacific Daylight Time)","818186","Untrustworthy,Trustworthy","","","","","","","","","","","","","","","","","","","",""
"","","","","5fc70f3bd255c10f0b2346ba","bdp_trlrn","Mon Mar 13 2023 21:33:38 GMT-0700 (Pacific Daylight Time)","818186","Untrustworthy,Trustworthy","fullscreen","2","5579","0.0-2.0","","","true","","","","","","","","","","","","",""
"","","","fullscreenfail","5fc70f3bd255c10f0b2346ba","bdp_trlrn","Mon Mar 13 2023 21:33:38 GMT-0700 (Pacific Daylight Time)","818186","Untrustworthy,Trustworthy","image-keyboard-response","3","7739","0.0-3.0-0.0","","2158","","","32","","","","","","","","","","",""
"","","","","5fc70f3bd255c10f0b2346ba","bdp_trlrn","Mon Mar 13 2023 21:33:38 GMT-0700 (Pacific Daylight Time)","818186","Untrustworthy,Trustworthy","instructions","4","19336","0.0-4.0","[{""page_index"":0,""viewing_time"":8302},{""page_index"":1,""viewing_time"":3041}]","11343","","","","","","","","","","","","","",""
"","","","","5fc70f3bd255c10f0b2346ba","bdp_trlrn","Mon Mar 13 2023 21:33:38 GMT-0700 (Pacific Daylight Time)","818186","Untrustworthy,Trustworthy","instructions","5","20474","0.0-5.0","[{""page_index"":0,""viewing_time"":1138}]","1138","","","","","","","","","","","","","",""
"","","","rating","5fc70f3bd255c10f0b2346ba","bdp_trlrn","Mon Mar 13 2023 21:33:38 GMT-0700 (Pacific Daylight Time)","818186","Untrustworthy,Trustworthy","image-keyboard-response","6","23582","0.0-6.0-1.0","","3004","","trustrating_stim/white_mw053.bmp","3","","","","","","","","","","",""
"","","","ratingFB","5fc70f3bd255c10f0b2346ba","bdp_trlrn","Mon Mar 13 2023 21:33:38 GMT-0700 (Pacific Daylight Time)","818186","Untrustworthy,Trustworthy","image-keyboard-response","7","23787","0.0-6.0-2.0","","null","","trustrating_stim/white_mw053.bmp","null","","","","","","","","","","",""
"","","","rating","5fc70f3bd255c10f0b2346ba","bdp_trlrn","Mon Mar 13 2023 21:33:38 GMT-0700 (Pacific Daylight Time)","818186","Untrustworthy,Trustworthy","image-keyboard-response","8","27024","0.0-6.0-1.1","","3131","","trustrating_stim/white_mw084.bmp","4","","","","","","","","","","",""
"","","","ratingFB","5fc70f3bd255c10f0b2346ba","bdp_trlrn","Mon Mar 13 2023 21:33:38 GMT-0700 (Pacific Daylight Time)","818186","Untrustworthy,Trustworthy","image-keyboard-response","9","27229","0.0-6.0-2.1","","null","","trustrating_stim/white_mw084.bmp","null","","","","","","","","","","",""
"","","","rating","5fc70f3bd255c10f0b2346ba","bdp_trlrn","Mon Mar 13 2023 21:33:38 GMT-0700 (Pacific Daylight Time)","818186","Untrustworthy,Trustworthy","image-keyboard-response","10","28505","0.0-6.0-1.2","","1175","","trustrating_stim/white_00807_941205_fb_edt.bmp","2","","","","","","","","","","",""
"","","","ratingFB","5fc70f3bd255c10f0b2346ba","bdp_trlrn","Mon Mar 13 2023 21:33:38 GMT-0700 (Pacific Daylight Time)","818186","Untrustworthy,Trustworthy","image-keyboard-response","11","28710","0.0-6.0-2.2","","null","","trustrating_stim/white_00807_941205_fb_edt.bmp","null","","","","","","","","","","",""
"","","","rating","5fc70f3bd255c10f0b2346ba","bdp_trlrn","Mon Mar 13 2023 21:33:38 GMT-0700 (Pacific Daylight Time)","818186","Untrustworthy,Trustworthy","image-keyboard-response","12","30815","0.0-6.0-1.3","","2003","","trustrating_stim/white_00340_940422_fa_edt.bmp","2","","","","","","","","","","",""
"","","","ratingFB","5fc70f3bd255c10f0b2346ba","bdp_trlrn","Mon Mar 13 2023 21:33:38 GMT-0700 (Pacific Daylight Time)","818186","Untrustworthy,Trustworthy","image-keyboard-response","13","31017","0.0-6.0-2.3","","null","","trustrating_stim/white_00340_940422_fa_edt.bmp","null","","","","","","","","","","",""
"","","","rating","5fc70f3bd255c10f0b2346ba","bdp_trlrn","Mon Mar 13 2023 21:33:38 GMT-0700 (Pacific Daylight Time)","818186","Untrustworthy,Trustworthy","image-keyboard-response","14","32700","0.0-6.0-1.4","","1581","","trustrating_stim/white_mw089.bmp","4","","","","","","","","","","",""
"","","","ratingFB","5fc70f3bd255c10f0b2346ba","bdp_trlrn","Mon Mar 13 2023 21:33:38 GMT-0700 (Pacific Daylight Time)","818186","Untrustworthy,Trustworthy","image-keyboard-response","15","32901","0.0-6.0-2.4","","null","","trustrating_stim/white_mw089.bmp","null","","","","","","","","","","",""
"","","","rating","5fc70f3bd255c10f0b2346ba","bdp_trlrn","Mon Mar 13 2023 21:33:38 GMT-0700 (Pacific Daylight Time)","818186","Untrustworthy,Trustworthy","image-keyboard-response","16","34558","0.0-6.0-1.5","","1554","","trustrating_stim/white_00898_960530_fa_edt.bmp","2","","","","","","","","","","",""
"","","","ratingFB","5fc70f3bd255c10f0b2346ba","bdp_trlrn","Mon Mar 13 2023 21:33:38 GMT-0700 (Pacific Daylight Time)","818186","Untrustworthy,Trustworthy","image-keyboard-response","17","34763","0.0-6.0-2.5","","null","","trustrating_stim/white_00898_960530_fa_edt.bmp","null","","","","","","","","","","",""
"","","","rating","5fc70f3bd255c10f0b2346ba","bdp_trlrn","Mon Mar 13 2023 21:33:38 GMT-0700 (Pacific Daylight Time)","818186","Untrustworthy,Trustworthy","image-keyboard-response","18","36409","0.0-6.0-1.6","","1542","","trustrating_stim/white_mw046.bmp","1","","","","","","","","","","",""
"","","","ratingFB","5fc70f3bd255c10f0b2346ba","bdp_trlrn","Mon Mar 13 2023 21:33:38 GMT-0700 (Pacific Daylight Time)","818186","Untrustworthy,Trustworthy","image-keyboard-response","19","36614","0.0-6.0-2.6","","null","","trustrating_stim/white_mw046.bmp","null","","","","","","","","","","",""
"","","","rating","5fc70f3bd255c10f0b2346ba","bdp_trlrn","Mon Mar 13 2023 21:33:38 GMT-0700 (Pacific Daylight Time)","818186","Untrustworthy,Trustworthy","image-keyboard-response","20","38698","0.0-6.0-1.7","","1978","","trustrating_stim/white_mw056.bmp","2","","","","","","","","","","",""
"","","","ratingFB","5fc70f3bd255c10f0b2346ba","bdp_trlrn","Mon Mar 13 2023 21:33:38 GMT-0700 (Pacific Daylight Time)","818186","Untrustworthy,Trustworthy","image-keyboard-response","21","38903","0.0-6.0-2.7","","null","","trustrating_stim/white_mw056.bmp","null","","","","","","","","","","",""
"","","","rating","5fc70f3bd255c10f0b2346ba","bdp_trlrn","Mon Mar 13 2023 21:33:38 GMT-0700 (Pacific Daylight Time)","818186","Untrustworthy,Trustworthy","image-keyboard-response","22","40681","0.0-6.0-1.8","","1673","","trustrating_stim/white_mw063.bmp","2","","","","","","","","","","",""
"","","","ratingFB","5fc70f3bd255c10f0b2346ba","bdp_trlrn","Mon Mar 13 2023 21:33:38 GMT-0700 (Pacific Daylight Time)","818186","Untrustworthy,Trustworthy","image-keyboard-response","23","40887","0.0-6.0-2.8","","null","","trustrating_stim/white_mw063.bmp","null","","","","","","","","","","",""
"","","","rating","5fc70f3bd255c10f0b2346ba","bdp_trlrn","Mon Mar 13 2023 21:33:38 GMT-0700 (Pacific Daylight Time)","818186","Untrustworthy,Trustworthy","image-keyboard-response","24","42971","0.0-6.0-1.9","","1979","","trustrating_stim/white_00785_941205_fb_edt.bmp","1","","","","","","","","","","",""
"","","","ratingFB","5fc70f3bd255c10f0b2346ba","bdp_trlrn","Mon Mar 13 2023 21:33:38 GMT-0700 (Pacific Daylight Time)","818186","Untrustworthy,Trustworthy","image-keyboard-response","25","43177","0.0-6.0-2.9","","null","","trustrating_stim/white_00785_941205_fb_edt.bmp","null","","","","","","","","","","",""
"","","","rating","5fc70f3bd255c10f0b2346ba","bdp_trlrn","Mon Mar 13 2023 21:33:38 GMT-0700 (Pacific Daylight Time)","818186","Untrustworthy,Trustworthy","image-keyboard-response","26","45204","0.0-6.0-1.10","","1927","","trustrating_stim/white_mw066.bmp","4","","","","","","","","","","",""
"","","","ratingFB","5fc70f3bd255c10f0b2346ba","bdp_trlrn","Mon Mar 13 2023 21:33:38 GMT-0700 (Pacific Daylight Time)","818186","Untrustworthy,Trustworthy","image-keyboard-response","27","45410","0.0-6.0-2.10","","null","","trustrating_stim/white_mw066.bmp","null","","","","","","","","","","",""
"","","","rating","5fc70f3bd255c10f0b2346ba","bdp_trlrn","Mon Mar 13 2023 21:33:38 GMT-0700 (Pacific Daylight Time)","818186","Untrustworthy,Trustworthy","image-keyboard-response","28","46737","0.0-6.0-1.11","","1221","","trustrating_stim/white_00757_941201_fa_edt.bmp","1","","","","","","","","","","",""
"","","","ratingFB","5fc70f3bd255c10f0b2346ba","bdp_trlrn","Mon Mar 13 2023 21:33:38 GMT-0700 (Pacific Daylight Time)","818186","Untrustworthy,Trustworthy","image-keyboard-response","29","46943","0.0-6.0-2.11","","null","","trustrating_stim/white_00757_941201_fa_edt.bmp","null","","","","","","","","","","",""
"","","","rating","5fc70f3bd255c10f0b2346ba","bdp_trlrn","Mon Mar 13 2023 21:33:38 GMT-0700 (Pacific Daylight Time)","818186","Untrustworthy,Trustworthy","image-keyboard-response","30","49709","0.0-6.0-1.12","","2659","","trustrating_stim/white_00761_941201_fb_edt.bmp","6","","","","","","","","","","",""
"","","","ratingFB","5fc70f3bd255c10f0b2346ba","bdp_trlrn","Mon Mar 13 2023 21:33:38 GMT-0700 (Pacific Daylight Time)","818186","Untrustworthy,Trustworthy","image-keyboard-response","31","49913","0.0-6.0-2.12","","null","","trustrating_stim/white_00761_941201_fb_edt.bmp","null","","","","","","","","","","",""
"","","","rating","5fc70f3bd255c10f0b2346ba","bdp_trlrn","Mon Mar 13 2023 21:33:38 GMT-0700 (Pacific Daylight Time)","818186","Untrustworthy,Trustworthy","image-keyboard-response","32","52625","0.0-6.0-1.13","","2607","","trustrating_stim/white_00577_940928_fa_edt.bmp","4","","","","","","","","","","",""
"","","","ratingFB","5fc70f3bd255c10f0b2346ba","bdp_trlrn","Mon Mar 13 2023 21:33:38 GMT-0700 (Pacific Daylight Time)","818186","Untrustworthy,Trustworthy","image-keyboard-response","33","52832","0.0-6.0-2.13","","null","","trustrating_stim/white_00577_940928_fa_edt.bmp","null","","","","","","","","","","",""
"","","","rating","5fc70f3bd255c10f0b2346ba","bdp_trlrn","Mon Mar 13 2023 21:33:38 GMT-0700 (Pacific Daylight Time)","818186","Untrustworthy,Trustworthy","image-keyboard-response","34","55576","0.0-6.0-1.14","","2638","","trustrating_stim/white_00109_931230_fa_edt.bmp","7","","","","","","","","","","",""
"","","","ratingFB","5fc70f3bd255c10f0b2346ba","bdp_trlrn","Mon Mar 13 2023 21:33:38 GMT-0700 (Pacific Daylight Time)","818186","Untrustworthy,Trustworthy","image-keyboard-response","35","55782","0.0-6.0-2.14","","null","","trustrating_stim/white_00109_931230_fa_edt.bmp","null","","","","","","","","","","",""
"","","","rating","5fc70f3bd255c10f0b2346ba","bdp_trlrn","Mon Mar 13 2023 21:33:38 GMT-0700 (Pacific Daylight Time)","818186","Untrustworthy,Trustworthy","image-keyboard-response","36","58368","0.0-6.0-1.15","","2481","","trustrating_stim/white_mw049.bmp","6","","","","","","","","","","",""
"","","","ratingFB","5fc70f3bd255c10f0b2346ba","bdp_trlrn","Mon Mar 13 2023 21:33:38 GMT-0700 (Pacific Daylight Time)","818186","Untrustworthy,Trustworthy","image-keyboard-response","37","58570","0.0-6.0-2.15","","null","","trustrating_stim/white_mw049.bmp","null","","","","","","","","","","",""
"","","","rating","5fc70f3bd255c10f0b2346ba","bdp_trlrn","Mon Mar 13 2023 21:33:38 GMT-0700 (Pacific Daylight Time)","818186","Untrustworthy,Trustworthy","image-keyboard-response","38","60461","0.0-6.0-1.16","","1790","","trustrating_stim/white_mw033.bmp","5","","","","","","","","","","",""
"","","","ratingFB","5fc70f3bd255c10f0b2346ba","bdp_trlrn","Mon Mar 13 2023 21:33:38 GMT-0700 (Pacific Daylight Time)","818186","Untrustworthy,Trustworthy","image-keyboard-response","39","60665","0.0-6.0-2.16","","null","","trustrating_stim/white_mw033.bmp","null","","","","","","","","","","",""
"","","","rating","5fc70f3bd255c10f0b2346ba","bdp_trlrn","Mon Mar 13 2023 21:33:38 GMT-0700 (Pacific Daylight Time)","818186","Untrustworthy,Trustworthy","image-keyboard-response","40","61986","0.0-6.0-1.17","","1216","","trustrating_stim/white_mw060.bmp","2","","","","","","","","","","",""
"","","","ratingFB","5fc70f3bd255c10f0b2346ba","bdp_trlrn","Mon Mar 13 2023 21:33:38 GMT-0700 (Pacific Daylight Time)","818186","Untrustworthy,Trustworthy","image-keyboard-response","41","62192","0.0-6.0-2.17","","null","","trustrating_stim/white_mw060.bmp","null","","","","","","","","","","",""
"","","","rating","5fc70f3bd255c10f0b2346ba","bdp_trlrn","Mon Mar 13 2023 21:33:38 GMT-0700 (Pacific Daylight Time)","818186","Untrustworthy,Trustworthy","image-keyboard-response","42","65686","0.0-6.0-1.18","","3385","","trustrating_stim/white_00120_931230_fa_edt.bmp","5","","","","","","","","","","",""
"","","","ratingFB","5fc70f3bd255c10f0b2346ba","bdp_trlrn","Mon Mar 13 2023 21:33:38 GMT-0700 (Pacific Daylight Time)","818186","Untrustworthy,Trustworthy","image-keyboard-response","43","65893","0.0-6.0-2.18","","null","","trustrating_stim/white_00120_931230_fa_edt.bmp","null","","","","","","","","","","",""
"","","","rating","5fc70f3bd255c10f0b2346ba","bdp_trlrn","Mon Mar 13 2023 21:33:38 GMT-0700 (Pacific Daylight Time)","818186","Untrustworthy,Trustworthy","image-keyboard-response","44","68223","0.0-6.0-1.19","","2221","","trustrating_stim/white_00659_941121_fa_edt.bmp","4","","","","","","","","","","",""
"","","","ratingFB","5fc70f3bd255c10f0b2346ba","bdp_trlrn","Mon Mar 13 2023 21:33:38 GMT-0700 (Pacific Daylight Time)","818186","Untrustworthy,Trustworthy","image-keyboard-response","45","68427","0.0-6.0-2.19","","null","","trustrating_stim/white_00659_941121_fa_edt.bmp","null","","","","","","","","","","",""
"","","","rating","5fc70f3bd255c10f0b2346ba","bdp_trlrn","Mon Mar 13 2023 21:33:38 GMT-0700 (Pacific Daylight Time)","818186","Untrustworthy,Trustworthy","image-keyboard-response","46","71321","0.0-6.0-1.20","","2785","","trustrating_stim/white_mw099.bmp","5","","","","","","","","","","",""
"","","","ratingFB","5fc70f3bd255c10f0b2346ba","bdp_trlrn","Mon Mar 13 2023 21:33:38 GMT-0700 (Pacific Daylight Time)","818186","Untrustworthy,Trustworthy","image-keyboard-response","47","71528","0.0-6.0-2.20","","null","","trustrating_stim/white_mw099.bmp","null","","","","","","","","","","",""
"","","","rating","5fc70f3bd255c10f0b2346ba","bdp_trlrn","Mon Mar 13 2023 21:33:38 GMT-0700 (Pacific Daylight Time)","818186","Untrustworthy,Trustworthy","image-keyboard-response","48","73103","0.0-6.0-1.21","","1466","","trustrating_stim/white_00519_940519_fb_edt.bmp","1","","","","","","","","","","",""
"","","","ratingFB","5fc70f3bd255c10f0b2346ba","bdp_trlrn","Mon Mar 13 2023 21:33:38 GMT-0700 (Pacific Daylight Time)","818186","Untrustworthy,Trustworthy","image-keyboard-response","49","73308","0.0-6.0-2.21","","null","","trustrating_stim/white_00519_940519_fb_edt.bmp","null","","","","","","","","","","",""
"","","","rating","5fc70f3bd255c10f0b2346ba","bdp_trlrn","Mon Mar 13 2023 21:33:38 GMT-0700 (Pacific Daylight Time)","818186","Untrustworthy,Trustworthy","image-keyboard-response","50","75795","0.0-6.0-1.22","","2381","","trustrating_stim/white_00129_931230_fb_edt.bmp","2","","","","","","","","","","",""
"","","","ratingFB","5fc70f3bd255c10f0b2346ba","bdp_trlrn","Mon Mar 13 2023 21:33:38 GMT-0700 (Pacific Daylight Time)","818186","Untrustworthy,Trustworthy","image-keyboard-response","51","76001","0.0-6.0-2.22","","null","","trustrating_stim/white_00129_931230_fb_edt.bmp","null","","","","","","","","","","",""
"","","","rating","5fc70f3bd255c10f0b2346ba","bdp_trlrn","Mon Mar 13 2023 21:33:38 GMT-0700 (Pacific Daylight Time)","818186","Untrustworthy,Trustworthy","image-keyboard-response","52","77562","0.0-6.0-1.23","","1452","","trustrating_stim/white_mw097.bmp","1","","","","","","","","","","",""
"","","","ratingFB","5fc70f3bd255c10f0b2346ba","bdp_trlrn","Mon Mar 13 2023 21:33:38 GMT-0700 (Pacific Daylight Time)","818186","Untrustworthy,Trustworthy","image-keyboard-response","53","77768","0.0-6.0-2.23","","null","","trustrating_stim/white_mw097.bmp","null","","","","","","","","","","",""
"","","","rating","5fc70f3bd255c10f0b2346ba","bdp_trlrn","Mon Mar 13 2023 21:33:38 GMT-0700 (Pacific Daylight Time)","818186","Untrustworthy,Trustworthy","image-keyboard-response","54","80320","0.0-6.0-1.24","","2450","","trustrating_stim/white_00602_940928_fb_edt.bmp","6","","","","","","","","","","",""
"","","","ratingFB","5fc70f3bd255c10f0b2346ba","bdp_trlrn","Mon Mar 13 2023 21:33:38 GMT-0700 (Pacific Daylight Time)","818186","Untrustworthy,Trustworthy","image-keyboard-response","55","80526","0.0-6.0-2.24","","null","","trustrating_stim/white_00602_940928_fb_edt.bmp","null","","","","","","","","","","",""
"","","","rating","5fc70f3bd255c10f0b2346ba","bdp_trlrn","Mon Mar 13 2023 21:33:38 GMT-0700 (Pacific Daylight Time)","818186","Untrustworthy,Trustworthy","image-keyboard-response","56","83853","0.0-6.0-1.25","","3222","","trustrating_stim/white_00299_940422_fa_edt.bmp","5","","","","","","","","","","",""
"","","","ratingFB","5fc70f3bd255c10f0b2346ba","bdp_trlrn","Mon Mar 13 2023 21:33:38 GMT-0700 (Pacific Daylight Time)","818186","Untrustworthy,Trustworthy","image-keyboard-response","57","84060","0.0-6.0-2.25","","null","","trustrating_stim/white_00299_940422_fa_edt.bmp","null","","","","","","","","","","",""
"","","","rating","5fc70f3bd255c10f0b2346ba","bdp_trlrn","Mon Mar 13 2023 21:33:38 GMT-0700 (Pacific Daylight Time)","818186","Untrustworthy,Trustworthy","image-keyboard-response","58","87003","0.0-6.0-1.26","","2834","","trustrating_stim/white_00223_940128_fb_edt.bmp","4","","","","","","","","","","",""
"","","","ratingFB","5fc70f3bd255c10f0b2346ba","bdp_trlrn","Mon Mar 13 2023 21:33:38 GMT-0700 (Pacific Daylight Time)","818186","Untrustworthy,Trustworthy","image-keyboard-response","59","87205","0.0-6.0-2.26","","null","","trustrating_stim/white_00223_940128_fb_edt.bmp","null","","","","","","","","","","",""
"","","","rating","5fc70f3bd255c10f0b2346ba","bdp_trlrn","Mon Mar 13 2023 21:33:38 GMT-0700 (Pacific Daylight Time)","818186","Untrustworthy,Trustworthy","image-keyboard-response","60","93082","0.0-6.0-1.27","","5773","","trustrating_stim/white_mw071.bmp","4","","","","","","","","","","",""
"","","","ratingFB","5fc70f3bd255c10f0b2346ba","bdp_trlrn","Mon Mar 13 2023 21:33:38 GMT-0700 (Pacific Daylight Time)","818186","Untrustworthy,Trustworthy","image-keyboard-response","61","93288","0.0-6.0-2.27","","null","","trustrating_stim/white_mw071.bmp","null","","","","","","","","","","",""
"","","","rating","5fc70f3bd255c10f0b2346ba","bdp_trlrn","Mon Mar 13 2023 21:33:38 GMT-0700 (Pacific Daylight Time)","818186","Untrustworthy,Trustworthy","image-keyboard-response","62","94859","0.0-6.0-1.28","","1462","","trustrating_stim/white_mw048.bmp","1","","","","","","","","","","",""
"","","","ratingFB","5fc70f3bd255c10f0b2346ba","bdp_trlrn","Mon Mar 13 2023 21:33:38 GMT-0700 (Pacific Daylight Time)","818186","Untrustworthy,Trustworthy","image-keyboard-response","63","95065","0.0-6.0-2.28","","null","","trustrating_stim/white_mw048.bmp","null","","","","","","","","","","",""
"","","","rating","5fc70f3bd255c10f0b2346ba","bdp_trlrn","Mon Mar 13 2023 21:33:38 GMT-0700 (Pacific Daylight Time)","818186","Untrustworthy,Trustworthy","image-keyboard-response","64","97759","0.0-6.0-1.29","","2584","","trustrating_stim/white_mw035.bmp","5","","","","","","","","","","",""
"","","","ratingFB","5fc70f3bd255c10f0b2346ba","bdp_trlrn","Mon Mar 13 2023 21:33:38 GMT-0700 (Pacific Daylight Time)","818186","Untrustworthy,Trustworthy","image-keyboard-response","65","97965","0.0-6.0-2.29","","null","","trustrating_stim/white_mw035.bmp","null","","","","","","","","","","",""
"","","","rating","5fc70f3bd255c10f0b2346ba","bdp_trlrn","Mon Mar 13 2023 21:33:38 GMT-0700 (Pacific Daylight Time)","818186","Untrustworthy,Trustworthy","image-keyboard-response","66","100568","0.0-6.0-1.30","","2495","","trustrating_stim/white_00223_940128_fb_edt.bmp","4","","","","","","","","","","",""
"","","","ratingFB","5fc70f3bd255c10f0b2346ba","bdp_trlrn","Mon Mar 13 2023 21:33:38 GMT-0700 (Pacific Daylight Time)","818186","Untrustworthy,Trustworthy","image-keyboard-response","67","100770","0.0-6.0-2.30","","null","","trustrating_stim/white_00223_940128_fb_edt.bmp","null","","","","","","","","","","",""
"","","","rating","5fc70f3bd255c10f0b2346ba","bdp_trlrn","Mon Mar 13 2023 21:33:38 GMT-0700 (Pacific Daylight Time)","818186","Untrustworthy,Trustworthy","image-keyboard-response","68","102287","0.0-6.0-1.31","","1410","","trustrating_stim/white_00807_941205_fb_edt.bmp","1","","","","","","","","","","",""
"","","","ratingFB","5fc70f3bd255c10f0b2346ba","bdp_trlrn","Mon Mar 13 2023 21:33:38 GMT-0700 (Pacific Daylight Time)","818186","Untrustworthy,Trustworthy","image-keyboard-response","69","102492","0.0-6.0-2.31","","null","","trustrating_stim/white_00807_941205_fb_edt.bmp","null","","","","","","","","","","",""
"","","","rating","5fc70f3bd255c10f0b2346ba","bdp_trlrn","Mon Mar 13 2023 21:33:38 GMT-0700 (Pacific Daylight Time)","818186","Untrustworthy,Trustworthy","image-keyboard-response","70","104698","0.0-6.0-1.32","","2101","","trustrating_stim/white_00109_931230_fa_edt.bmp","6","","","","","","","","","","",""
"","","","ratingFB","5fc70f3bd255c10f0b2346ba","bdp_trlrn","Mon Mar 13 2023 21:33:38 GMT-0700 (Pacific Daylight Time)","818186","Untrustworthy,Trustworthy","image-keyboard-response","71","104900","0.0-6.0-2.32","","null","","trustrating_stim/white_00109_931230_fa_edt.bmp","null","","","","","","","","","","",""
"","","","rating","5fc70f3bd255c10f0b2346ba","bdp_trlrn","Mon Mar 13 2023 21:33:38 GMT-0700 (Pacific Daylight Time)","818186","Untrustworthy,Trustworthy","image-keyboard-response","72","106341","0.0-6.0-1.33","","1338","","trustrating_stim/white_00898_960530_fa_edt.bmp","2","","","","","","","","","","",""
"","","","ratingFB","5fc70f3bd255c10f0b2346ba","bdp_trlrn","Mon Mar 13 2023 21:33:38 GMT-0700 (Pacific Daylight Time)","818186","Untrustworthy,Trustworthy","image-keyboard-response","73","106547","0.0-6.0-2.33","","null","","trustrating_stim/white_00898_960530_fa_edt.bmp","null","","","","","","","","","","",""
"","","","rating","5fc70f3bd255c10f0b2346ba","bdp_trlrn","Mon Mar 13 2023 21:33:38 GMT-0700 (Pacific Daylight Time)","818186","Untrustworthy,Trustworthy","image-keyboard-response","74","108818","0.0-6.0-1.34","","2164","","trustrating_stim/white_00129_931230_fb_edt.bmp","3","","","","","","","","","","",""
"","","","ratingFB","5fc70f3bd255c10f0b2346ba","bdp_trlrn","Mon Mar 13 2023 21:33:38 GMT-0700 (Pacific Daylight Time)","818186","Untrustworthy,Trustworthy","image-keyboard-response","75","109024","0.0-6.0-2.34","","null","","trustrating_stim/white_00129_931230_fb_edt.bmp","null","","","","","","","","","","",""
"","","","rating","5fc70f3bd255c10f0b2346ba","bdp_trlrn","Mon Mar 13 2023 21:33:38 GMT-0700 (Pacific Daylight Time)","818186","Untrustworthy,Trustworthy","image-keyboard-response","76","110922","0.0-6.0-1.35","","1789","","trustrating_stim/white_mw033.bmp","4","","","","","","","","","","",""
"","","","ratingFB","5fc70f3bd255c10f0b2346ba","bdp_trlrn","Mon Mar 13 2023 21:33:38 GMT-0700 (Pacific Daylight Time)","818186","Untrustworthy,Trustworthy","image-keyboard-response","77","111127","0.0-6.0-2.35","","null","","trustrating_stim/white_mw033.bmp","null","","","","","","","","","","",""
"","","","rating","5fc70f3bd255c10f0b2346ba","bdp_trlrn","Mon Mar 13 2023 21:33:38 GMT-0700 (Pacific Daylight Time)","818186","Untrustworthy,Trustworthy","image-keyboard-response","78","114041","0.0-6.0-1.36","","2799","","trustrating_stim/white_00761_941201_fb_edt.bmp","4","","","","","","","","","","",""
"","","","ratingFB","5fc70f3bd255c10f0b2346ba","bdp_trlrn","Mon Mar 13 2023 21:33:38 GMT-0700 (Pacific Daylight Time)","818186","Untrustworthy,Trustworthy","image-keyboard-response","79","114258","0.0-6.0-2.36","","null","","trustrating_stim/white_00761_941201_fb_edt.bmp","null","","","","","","","","","","",""
"","","","rating","5fc70f3bd255c10f0b2346ba","bdp_trlrn","Mon Mar 13 2023 21:33:38 GMT-0700 (Pacific Daylight Time)","818186","Untrustworthy,Trustworthy","image-keyboard-response","80","116043","0.0-6.0-1.37","","1679","","trustrating_stim/white_00757_941201_fa_edt.bmp","2","","","","","","","","","","",""
"","","","ratingFB","5fc70f3bd255c10f0b2346ba","bdp_trlrn","Mon Mar 13 2023 21:33:38 GMT-0700 (Pacific Daylight Time)","818186","Untrustworthy,Trustworthy","image-keyboard-response","81","116246","0.0-6.0-2.37","","null","","trustrating_stim/white_00757_941201_fa_edt.bmp","null","","","","","","","","","","",""
"","","","rating","5fc70f3bd255c10f0b2346ba","bdp_trlrn","Mon Mar 13 2023 21:33:38 GMT-0700 (Pacific Daylight Time)","818186","Untrustworthy,Trustworthy","image-keyboard-response","82","119432","0.0-6.0-1.38","","3084","","trustrating_stim/white_mw063.bmp","3","","","","","","","","","","",""
"","","","ratingFB","5fc70f3bd255c10f0b2346ba","bdp_trlrn","Mon Mar 13 2023 21:33:38 GMT-0700 (Pacific Daylight Time)","818186","Untrustworthy,Trustworthy","image-keyboard-response","83","119638","0.0-6.0-2.38","","null","","trustrating_stim/white_mw063.bmp","null","","","","","","","","","","",""
"","","","rating","5fc70f3bd255c10f0b2346ba","bdp_trlrn","Mon Mar 13 2023 21:33:38 GMT-0700 (Pacific Daylight Time)","818186","Untrustworthy,Trustworthy","image-keyboard-response","84","121506","0.0-6.0-1.39","","1760","","trustrating_stim/white_mw048.bmp","1","","","","","","","","","","",""
"","","","ratingFB","5fc70f3bd255c10f0b2346ba","bdp_trlrn","Mon Mar 13 2023 21:33:38 GMT-0700 (Pacific Daylight Time)","818186","Untrustworthy,Trustworthy","image-keyboard-response","85","121713","0.0-6.0-2.39","","null","","trustrating_stim/white_mw048.bmp","null","","","","","","","","","","",""
"","","","rating","5fc70f3bd255c10f0b2346ba","bdp_trlrn","Mon Mar 13 2023 21:33:38 GMT-0700 (Pacific Daylight Time)","818186","Untrustworthy,Trustworthy","image-keyboard-response","86","123665","0.0-6.0-1.40","","1844","","trustrating_stim/white_mw089.bmp","6","","","","","","","","","","",""
"","","","ratingFB","5fc70f3bd255c10f0b2346ba","bdp_trlrn","Mon Mar 13 2023 21:33:38 GMT-0700 (Pacific Daylight Time)","818186","Untrustworthy,Trustworthy","image-keyboard-response","87","123871","0.0-6.0-2.40","","null","","trustrating_stim/white_mw089.bmp","null","","","","","","","","","","",""
"","","","rating","5fc70f3bd255c10f0b2346ba","bdp_trlrn","Mon Mar 13 2023 21:33:38 GMT-0700 (Pacific Daylight Time)","818186","Untrustworthy,Trustworthy","image-keyboard-response","88","125508","0.0-6.0-1.41","","1528","","trustrating_stim/white_00299_940422_fa_edt.bmp","5","","","","","","","","","","",""
"","","","ratingFB","5fc70f3bd255c10f0b2346ba","bdp_trlrn","Mon Mar 13 2023 21:33:38 GMT-0700 (Pacific Daylight Time)","818186","Untrustworthy,Trustworthy","image-keyboard-response","89","125714","0.0-6.0-2.41","","null","","trustrating_stim/white_00299_940422_fa_edt.bmp","null","","","","","","","","","","",""
"","","","rating","5fc70f3bd255c10f0b2346ba","bdp_trlrn","Mon Mar 13 2023 21:33:38 GMT-0700 (Pacific Daylight Time)","818186","Untrustworthy,Trustworthy","image-keyboard-response","90","128386","0.0-6.0-1.42","","2568","","trustrating_stim/white_mw056.bmp","3","","","","","","","","","","",""
"","","","ratingFB","5fc70f3bd255c10f0b2346ba","bdp_trlrn","Mon Mar 13 2023 21:33:38 GMT-0700 (Pacific Daylight Time)","818186","Untrustworthy,Trustworthy","image-keyboard-response","91","128591","0.0-6.0-2.42","","null","","trustrating_stim/white_mw056.bmp","null","","","","","","","","","","",""
"","","","rating","5fc70f3bd255c10f0b2346ba","bdp_trlrn","Mon Mar 13 2023 21:33:38 GMT-0700 (Pacific Daylight Time)","818186","Untrustworthy,Trustworthy","image-keyboard-response","92","130502","0.0-6.0-1.43","","1802","","trustrating_stim/white_00120_931230_fa_edt.bmp","4","","","","","","","","","","",""
"","","","ratingFB","5fc70f3bd255c10f0b2346ba","bdp_trlrn","Mon Mar 13 2023 21:33:38 GMT-0700 (Pacific Daylight Time)","818186","Untrustworthy,Trustworthy","image-keyboard-response","93","130709","0.0-6.0-2.43","","null","","trustrating_stim/white_00120_931230_fa_edt.bmp","null","","","","","","","","","","",""
"","","","rating","5fc70f3bd255c10f0b2346ba","bdp_trlrn","Mon Mar 13 2023 21:33:38 GMT-0700 (Pacific Daylight Time)","818186","Untrustworthy,Trustworthy","image-keyboard-response","94","132490","0.0-6.0-1.44","","1674","","trustrating_stim/white_00785_941205_fb_edt.bmp","1","","","","","","","","","","",""
"","","","ratingFB","5fc70f3bd255c10f0b2346ba","bdp_trlrn","Mon Mar 13 2023 21:33:38 GMT-0700 (Pacific Daylight Time)","818186","Untrustworthy,Trustworthy","image-keyboard-response","95","132691","0.0-6.0-2.44","","null","","trustrating_stim/white_00785_941205_fb_edt.bmp","null","","","","","","","","","","",""
"","","","rating","5fc70f3bd255c10f0b2346ba","bdp_trlrn","Mon Mar 13 2023 21:33:38 GMT-0700 (Pacific Daylight Time)","818186","Untrustworthy,Trustworthy","image-keyboard-response","96","134941","0.0-6.0-1.45","","2144","","trustrating_stim/white_mw099.bmp","2","","","","","","","","","","",""
"","","","ratingFB","5fc70f3bd255c10f0b2346ba","bdp_trlrn","Mon Mar 13 2023 21:33:38 GMT-0700 (Pacific Daylight Time)","818186","Untrustworthy,Trustworthy","image-keyboard-response","97","135145","0.0-6.0-2.45","","null","","trustrating_stim/white_mw099.bmp","null","","","","","","","","","","",""
"","","","rating","5fc70f3bd255c10f0b2346ba","bdp_trlrn","Mon Mar 13 2023 21:33:38 GMT-0700 (Pacific Daylight Time)","818186","Untrustworthy,Trustworthy","image-keyboard-response","98","136811","0.0-6.0-1.46","","1555","","trustrating_stim/white_mw060.bmp","1","","","","","","","","","","",""
"","","","ratingFB","5fc70f3bd255c10f0b2346ba","bdp_trlrn","Mon Mar 13 2023 21:33:38 GMT-0700 (Pacific Daylight Time)","818186","Untrustworthy,Trustworthy","image-keyboard-response","99","137018","0.0-6.0-2.46","","null","","trustrating_stim/white_mw060.bmp","null","","","","","","","","","","",""
"","","","rating","5fc70f3bd255c10f0b2346ba","bdp_trlrn","Mon Mar 13 2023 21:33:38 GMT-0700 (Pacific Daylight Time)","818186","Untrustworthy,Trustworthy","image-keyboard-response","100","139854","0.0-6.0-1.47","","2729","","trustrating_stim/white_00659_941121_fa_edt.bmp","1","","","","","","","","","","",""
"","","","ratingFB","5fc70f3bd255c10f0b2346ba","bdp_trlrn","Mon Mar 13 2023 21:33:38 GMT-0700 (Pacific Daylight Time)","818186","Untrustworthy,Trustworthy","image-keyboard-response","101","140059","0.0-6.0-2.47","","null","","trustrating_stim/white_00659_941121_fa_edt.bmp","null","","","","","","","","","","",""
"","","","rating","5fc70f3bd255c10f0b2346ba","bdp_trlrn","Mon Mar 13 2023 21:33:38 GMT-0700 (Pacific Daylight Time)","818186","Untrustworthy,Trustworthy","image-keyboard-response","102","143399","0.0-6.0-1.48","","3231","","trustrating_stim/white_mw049.bmp","6","","","","","","","","","","",""
"","","","ratingFB","5fc70f3bd255c10f0b2346ba","bdp_trlrn","Mon Mar 13 2023 21:33:38 GMT-0700 (Pacific Daylight Time)","818186","Untrustworthy,Trustworthy","image-keyboard-response","103","143605","0.0-6.0-2.48","","null","","trustrating_stim/white_mw049.bmp","null","","","","","","","","","","",""
"","","","rating","5fc70f3bd255c10f0b2346ba","bdp_trlrn","Mon Mar 13 2023 21:33:38 GMT-0700 (Pacific Daylight Time)","818186","Untrustworthy,Trustworthy","image-keyboard-response","104","146849","0.0-6.0-1.49","","3137","","trustrating_stim/white_mw066.bmp","5","","","","","","","","","","",""
"","","","ratingFB","5fc70f3bd255c10f0b2346ba","bdp_trlrn","Mon Mar 13 2023 21:33:38 GMT-0700 (Pacific Daylight Time)","818186","Untrustworthy,Trustworthy","image-keyboard-response","105","147055","0.0-6.0-2.49","","null","","trustrating_stim/white_mw066.bmp","null","","","","","","","","","","",""
"","","","rating","5fc70f3bd255c10f0b2346ba","bdp_trlrn","Mon Mar 13 2023 21:33:38 GMT-0700 (Pacific Daylight Time)","818186","Untrustworthy,Trustworthy","image-keyboard-response","106","149325","0.0-6.0-1.50","","2163","","trustrating_stim/white_mw084.bmp","4","","","","","","","","","","",""
"","","","ratingFB","5fc70f3bd255c10f0b2346ba","bdp_trlrn","Mon Mar 13 2023 21:33:38 GMT-0700 (Pacific Daylight Time)","818186","Untrustworthy,Trustworthy","image-keyboard-response","107","149527","0.0-6.0-2.50","","null","","trustrating_stim/white_mw084.bmp","null","","","","","","","","","","",""
"","","","rating","5fc70f3bd255c10f0b2346ba","bdp_trlrn","Mon Mar 13 2023 21:33:38 GMT-0700 (Pacific Daylight Time)","818186","Untrustworthy,Trustworthy","image-keyboard-response","108","150626","0.0-6.0-1.51","","991","","trustrating_stim/white_00519_940519_fb_edt.bmp","1","","","","","","","","","","",""
"","","","ratingFB","5fc70f3bd255c10f0b2346ba","bdp_trlrn","Mon Mar 13 2023 21:33:38 GMT-0700 (Pacific Daylight Time)","818186","Untrustworthy,Trustworthy","image-keyboard-response","109","150830","0.0-6.0-2.51","","null","","trustrating_stim/white_00519_940519_fb_edt.bmp","null","","","","","","","","","","",""
"","","","rating","5fc70f3bd255c10f0b2346ba","bdp_trlrn","Mon Mar 13 2023 21:33:38 GMT-0700 (Pacific Daylight Time)","818186","Untrustworthy,Trustworthy","image-keyboard-response","110","152066","0.0-6.0-1.52","","1129","","trustrating_stim/white_00340_940422_fa_edt.bmp","1","","","","","","","","","","",""
"","","","ratingFB","5fc70f3bd255c10f0b2346ba","bdp_trlrn","Mon Mar 13 2023 21:33:38 GMT-0700 (Pacific Daylight Time)","818186","Untrustworthy,Trustworthy","image-keyboard-response","111","152269","0.0-6.0-2.52","","null","","trustrating_stim/white_00340_940422_fa_edt.bmp","null","","","","","","","","","","",""
"","","","rating","5fc70f3bd255c10f0b2346ba","bdp_trlrn","Mon Mar 13 2023 21:33:38 GMT-0700 (Pacific Daylight Time)","818186","Untrustworthy,Trustworthy","image-keyboard-response","112","154377","0.0-6.0-1.53","","2005","","trustrating_stim/white_mw046.bmp","3","","","","","","","","","","",""
"","","","ratingFB","5fc70f3bd255c10f0b2346ba","bdp_trlrn","Mon Mar 13 2023 21:33:38 GMT-0700 (Pacific Daylight Time)","818186","Untrustworthy,Trustworthy","image-keyboard-response","113","154582","0.0-6.0-2.53","","null","","trustrating_stim/white_mw046.bmp","null","","","","","","","","","","",""
"","","","rating","5fc70f3bd255c10f0b2346ba","bdp_trlrn","Mon Mar 13 2023 21:33:38 GMT-0700 (Pacific Daylight Time)","818186","Untrustworthy,Trustworthy","image-keyboard-response","114","156093","0.0-6.0-1.54","","1406","","trustrating_stim/white_00577_940928_fa_edt.bmp","1","","","","","","","","","","",""
"","","","ratingFB","5fc70f3bd255c10f0b2346ba","bdp_trlrn","Mon Mar 13 2023 21:33:38 GMT-0700 (Pacific Daylight Time)","818186","Untrustworthy,Trustworthy","image-keyboard-response","115","156301","0.0-6.0-2.54","","null","","trustrating_stim/white_00577_940928_fa_edt.bmp","null","","","","","","","","","","",""
"","","","rating","5fc70f3bd255c10f0b2346ba","bdp_trlrn","Mon Mar 13 2023 21:33:38 GMT-0700 (Pacific Daylight Time)","818186","Untrustworthy,Trustworthy","image-keyboard-response","116","158069","0.0-6.0-1.55","","1660","","trustrating_stim/white_00602_940928_fb_edt.bmp","6","","","","","","","","","","",""
"","","","ratingFB","5fc70f3bd255c10f0b2346ba","bdp_trlrn","Mon Mar 13 2023 21:33:38 GMT-0700 (Pacific Daylight Time)","818186","Untrustworthy,Trustworthy","image-keyboard-response","117","158272","0.0-6.0-2.55","","null","","trustrating_stim/white_00602_940928_fb_edt.bmp","null","","","","","","","","","","",""
"","","","rating","5fc70f3bd255c10f0b2346ba","bdp_trlrn","Mon Mar 13 2023 21:33:38 GMT-0700 (Pacific Daylight Time)","818186","Untrustworthy,Trustworthy","image-keyboard-response","118","162206","0.0-6.0-1.56","","3825","","trustrating_stim/white_mw071.bmp","4","","","","","","","","","","",""
"","","","ratingFB","5fc70f3bd255c10f0b2346ba","bdp_trlrn","Mon Mar 13 2023 21:33:38 GMT-0700 (Pacific Daylight Time)","818186","Untrustworthy,Trustworthy","image-keyboard-response","119","162409","0.0-6.0-2.56","","null","","trustrating_stim/white_mw071.bmp","null","","","","","","","","","","",""
"","","","rating","5fc70f3bd255c10f0b2346ba","bdp_trlrn","Mon Mar 13 2023 21:33:38 GMT-0700 (Pacific Daylight Time)","818186","Untrustworthy,Trustworthy","image-keyboard-response","120","166372","0.0-6.0-1.57","","3852","","trustrating_stim/white_mw035.bmp","3","","","","","","","","","","",""
"","","","ratingFB","5fc70f3bd255c10f0b2346ba","bdp_trlrn","Mon Mar 13 2023 21:33:38 GMT-0700 (Pacific Daylight Time)","818186","Untrustworthy,Trustworthy","image-keyboard-response","121","166576","0.0-6.0-2.57","","null","","trustrating_stim/white_mw035.bmp","null","","","","","","","","","","",""
"","","","rating","5fc70f3bd255c10f0b2346ba","bdp_trlrn","Mon Mar 13 2023 21:33:38 GMT-0700 (Pacific Daylight Time)","818186","Untrustworthy,Trustworthy","image-keyboard-response","122","167943","0.0-6.0-1.58","","1257","","trustrating_stim/white_mw097.bmp","1","","","","","","","","","","",""
"","","","ratingFB","5fc70f3bd255c10f0b2346ba","bdp_trlrn","Mon Mar 13 2023 21:33:38 GMT-0700 (Pacific Daylight Time)","818186","Untrustworthy,Trustworthy","image-keyboard-response","123","168149","0.0-6.0-2.58","","null","","trustrating_stim/white_mw097.bmp","null","","","","","","","","","","",""
"","","","rating","5fc70f3bd255c10f0b2346ba","bdp_trlrn","Mon Mar 13 2023 21:33:38 GMT-0700 (Pacific Daylight Time)","818186","Untrustworthy,Trustworthy","image-keyboard-response","124","170234","0.0-6.0-1.59","","1977","","trustrating_stim/white_mw053.bmp","3","","","","","","","","","","",""
"","","","ratingFB","5fc70f3bd255c10f0b2346ba","bdp_trlrn","Mon Mar 13 2023 21:33:38 GMT-0700 (Pacific Daylight Time)","818186","Untrustworthy,Trustworthy","image-keyboard-response","125","170439","0.0-6.0-2.59","","null","","trustrating_stim/white_mw053.bmp","null","","","","","","","","","","",""
"","","","","5fc70f3bd255c10f0b2346ba","bdp_trlrn","Mon Mar 13 2023 21:33:38 GMT-0700 (Pacific Daylight Time)","818186","Untrustworthy,Trustworthy","instructions","126","172678","0.0-7.0","[{""page_index"":0,""viewing_time"":2127}]","2127","","","","","","","","","","","","","",""
"","","","","5fc70f3bd255c10f0b2346ba","bdp_trlrn","Mon Mar 13 2023 21:33:38 GMT-0700 (Pacific Daylight Time)","818186","Untrustworthy,Trustworthy","instructions","127","260495","0.0-8.0","[{""page_index"":0,""viewing_time"":24205},{""page_index"":1,""viewing_time"":12085},{""page_index"":2,""viewing_time"":6182},{""page_index"":3,""viewing_time"":9150},{""page_index"":4,""viewing_time"":9968},{""page_index"":5,""viewing_time"":7161},{""page_index"":6,""viewing_time"":15918},{""page_index"":7,""viewing_time"":3039}]","87710","","","","","","","","","","","","","",""
"","","","","5fc70f3bd255c10f0b2346ba","bdp_trlrn","Mon Mar 13 2023 21:33:38 GMT-0700 (Pacific Daylight Time)","818186","Untrustworthy,Trustworthy","html-keyboard-response","128","268571","0.0-9.0","","8073","","<div class='header' style='text-align:left; position: absolute; top: 5%; left: 5%;'><small>Task 3 of 5</small></div><div class='instruxDiv'><p><strong>1) What is the minimum number of points you can choose to send to your partner?</strong></p><p>a) 0</p><p>b) 1</p><p>c) 5</p>","B","","","","","","","","","","",""
"","","","","5fc70f3bd255c10f0b2346ba","bdp_trlrn","Mon Mar 13 2023 21:33:38 GMT-0700 (Pacific Daylight Time)","818186","Untrustworthy,Trustworthy","html-keyboard-response","129","269917","0.0-10.0","","1240","","<div class='header' style='text-align:left; position: absolute; top: 5%; left: 5%;'><small>Task 3 of 5</small></div><div class='instruxDiv'><p><strong>1) What is the minimum number of points you can choose to send to your partner?</strong></p><p>a) 0</p><p style='color:#00FF00'>b) 1</p><p>c) 5</p><h3 style='color:#00FF00'>Correct!</h3><h3 class='center-content'>The correct response is b).</h3><h3 class='center-content'>The minimum number of points you can choose to send to your partner is 1 point.</h3><p><em>Press SPACEBAR to continue</em></p></div>"," ","","","","","","","","","","",""
"","","","","5fc70f3bd255c10f0b2346ba","bdp_trlrn","Mon Mar 13 2023 21:33:38 GMT-0700 (Pacific Daylight Time)","818186","Untrustworthy,Trustworthy","html-keyboard-response","130","272232","0.0-11.0","","2208","","<div class='header' style='text-align:left; position: absolute; top: 5%; left: 5%;'><small>Task 3 of 5</small></div><div class='instruxDiv'><p><strong>2) What is the maximum number of points you can choose to send to your partner?</strong></p><p>a) 8</p><p>b) 5</p><p>c) 3</p>","B","","","","","","","","","","",""
"","","","","5fc70f3bd255c10f0b2346ba","bdp_trlrn","Mon Mar 13 2023 21:33:38 GMT-0700 (Pacific Daylight Time)","818186","Untrustworthy,Trustworthy","html-keyboard-response","131","273335","0.0-12.0","","997","","<div class='header' style='text-align:left; position: absolute; top: 5%; left: 5%;'><small>Task 3 of 5</small></div><div class='instruxDiv'><p><strong>2) What is the maximum number of points you can choose to send to your partner?</strong></p><p>a) 8</p><p style='color:#00FF00'>b) 5</p><p>c) 3</p><h3 style='color:#00FF00'>Correct!</h3><h3 class='center-content'>The correct response is b).</h3><h3 class='center-content'>The maximum number of points you can choose to send to your partner is 5 points.</h3><p><em>Press SPACEBAR to continue</em></p></div>"," ","","","","","","","","","","",""
"","","","","5fc70f3bd255c10f0b2346ba","bdp_trlrn","Mon Mar 13 2023 21:33:38 GMT-0700 (Pacific Daylight Time)","818186","Untrustworthy,Trustworthy","html-keyboard-response","132","275990","0.0-13.0","","2551","","<div class='header' style='text-align:left; position: absolute; top: 5%; left: 5%;'><small>Task 3 of 5</small></div><div class='instruxDiv'><p><strong>3) What happens to the amount of points you send to your partner?</strong></p><p>a) Nothing</p><p>b) It doubles</p><p>c) It quadruples</p>","C","","","","","","","","","","",""
"","","","","5fc70f3bd255c10f0b2346ba","bdp_trlrn","Mon Mar 13 2023 21:33:38 GMT-0700 (Pacific Daylight Time)","818186","Untrustworthy,Trustworthy","html-keyboard-response","133","277315","0.0-14.0","","1221","","<div class='header' style='text-align:left; position: absolute; top: 5%; left: 5%;'><small>Task 3 of 5</small></div><div class='instruxDiv'><p><strong>3) What happens to the amount of points you send to your partner?</strong></p><p>a) Nothing</p><p>b) It doubles</p><p style='color:#00FF00'>c) It quadruples</p><h3 style='color:#00FF00'>Correct!</h3><h3 class='center-content'>The correct response is c).</h3><h3 class='center-content'>The amount of points you send to your partner quadruples.</h3><p><em>Press SPACEBAR to continue</em></p></div>"," ","","","","","","","","","","",""
"","","","","5fc70f3bd255c10f0b2346ba","bdp_trlrn","Mon Mar 13 2023 21:33:38 GMT-0700 (Pacific Daylight Time)","818186","Untrustworthy,Trustworthy","html-keyboard-response","134","283552","0.0-15.0","","6134","","<div class='header' style='text-align:left; position: absolute; top: 5%; left: 5%;'><small>Task 3 of 5</small></div><div class='instruxDiv'><p><strong>4) If you decided to share 4 out of 5 points with your partner, and they decided to share half of the amount they received with you, how many points would you receive back from them on this round?</strong></p><p>a) 16</p><p>b) 0</p><p>c) 8</p>","C","","","","","","","","","","",""
"","","","","5fc70f3bd255c10f0b2346ba","bdp_trlrn","Mon Mar 13 2023 21:33:38 GMT-0700 (Pacific Daylight Time)","818186","Untrustworthy,Trustworthy","html-keyboard-response","135","284682","0.0-16.0","","1023","","<div class='header' style='text-align:left; position: absolute; top: 5%; left: 5%;'><small>Task 3 of 5</small></div><div class='instruxDiv'><p><strong>4) If you decided to share 4 out of 5 points with your partner, and they decided to share half of the amount they received with you, how many points would you receive back from them on this round?</strong></p><p>a) 16</p><p>b) 0</p><p style='color:#00FF00'>c) 8</p><h3 style='color:#00FF00'>Correct!</h3><h3 class='center-content'>The correct response is c).</h3><h3 class='center-content'>If you shared 4 out of 5 points with your partner and they decided to share half of the amount they received with you, you would receive 8 points back (i.e. (4 x 4)/2 = 8).</h3><p><em>Press SPACEBAR to continue</em></p></div>"," ","","","","","","","","","","",""
"","","","","5fc70f3bd255c10f0b2346ba","bdp_trlrn","Mon Mar 13 2023 21:33:38 GMT-0700 (Pacific Daylight Time)","818186","Untrustworthy,Trustworthy","html-keyboard-response","136","289790","0.0-17.0","","null","","<div class='header' style='text-align:left; position: absolute; top: 5%; left: 5%;'><small>Task 3 of 5</small></div><div class='instruxDiv'><p>Thank you for completing the quiz<p>These are the actual partners you will be interacting with in the next block:<p><div class='tc' align='center'><img class='introPic' src='trustrating_stim/white_00785_941205_fb_edt.bmp'><br><strong>Ryan</strong></div><div class='bl' align='center'><img class='introPic' src='trustrating_stim/white_mw099.bmp'><br><strong>Jacob</strong></div><div class='br' align='center'><img class='introPic' src='trustrating_stim/white_00602_940928_fb_edt.bmp'><br><strong>Aaron</strong></div></div><p>Across <strong>66 rounds</strong> you will interact with each partner <strong>22 times</strong> (in random order).<p style='align:center; color:white'><font <em>Press SPACEBAR to continue</em></p>","null","","","","","","","","","","",""
"","","","","5fc70f3bd255c10f0b2346ba","bdp_trlrn","Mon Mar 13 2023 21:33:38 GMT-0700 (Pacific Daylight Time)","818186","Untrustworthy,Trustworthy","instructions","137","303288","0.0-18.0","[{""page_index"":0,""viewing_time"":8371},{""page_index"":1,""viewing_time"":5126}]","13497","","","","","","","","","","","","","",""
"","","","decision","5fc70f3bd255c10f0b2346ba","bdp_trlrn","Mon Mar 13 2023 21:33:38 GMT-0700 (Pacific Daylight Time)","818186","Untrustworthy,Trustworthy","html-keyboard-response","138","307183","0.0-19.0-1.0","","3784","","<div class='trialDiv'><img src='trustrating_stim/white_mw099.bmp'><br><font class='baseline'><strong>Jacob</strong><p>Choose number of points to send.</font><div class='respPicDiv'><img src='img/responseButtonOffersNo0L.png' class='respPic'></div></div>","3","1","Jacob","7","Kept","0.35,0.65","8","0.35","trustrating_stim/white_mw099.bmp","3.5","5","1"
"","","","decisionFB","5fc70f3bd255c10f0b2346ba","bdp_trlrn","Mon Mar 13 2023 21:33:38 GMT-0700 (Pacific Daylight Time)","818186","Untrustworthy,Trustworthy","html-keyboard-response","139","307443","0.0-19.0-2.0","","null","","<div class='trialDiv'><img src='trustrating_stim/white_mw099.bmp'><br><font class='baseline'><strong>Jacob</strong><p>Choose number of points to send.</font><div class='respPicDiv'><img src='img/responseButtonOffersNo0L3.png' class='respPic'></div></div>","null","1","Jacob","7","Kept","0.35,0.65","8","0.35","trustrating_stim/white_mw099.bmp","3.5","2","1"
"","","","feedback","5fc70f3bd255c10f0b2346ba","bdp_trlrn","Mon Mar 13 2023 21:33:38 GMT-0700 (Pacific Daylight Time)","818186","Untrustworthy,Trustworthy","html-keyboard-response","140","308449","0.0-19.0-3.0","","null","","<div class='trialDiv'><img src='trustrating_stim/white_mw099.bmp'><br><font class='baseline'><strong>Jacob</strong><p>Received: <strong>12</strong></font> &nbsp; &nbsp; &nbsp; &nbsp; &nbsp; &nbsp;<font class='negOutcome'>Shared back: <strong>0</strong></font></font><div class='respPicDiv'><img src='img/responseButtonOffersNo0_wht.png' class='respPic'></div></div>","null","1","Jacob","7","Kept","0.35,0.65","8","0.35","trustrating_stim/white_mw099.bmp","3.5","2","1"
"","","","decision","5fc70f3bd255c10f0b2346ba","bdp_trlrn","Mon Mar 13 2023 21:33:38 GMT-0700 (Pacific Daylight Time)","818186","Untrustworthy,Trustworthy","html-keyboard-response","141","309765","0.0-19.0-1.1","","1314","","<div class='trialDiv'><img src='trustrating_stim/white_00602_940928_fb_edt.bmp'><br><font class='baseline'><strong>Aaron</strong><p>Choose number of points to send.</font><div class='respPicDiv'><img src='img/responseButtonOffersNo0L.png' class='respPic'></div></div>","3","1","Aaron","9","Kept","0.2,0.65","14","0.2","trustrating_stim/white_00602_940928_fb_edt.bmp","6","7","2"
"","","","decisionFB","5fc70f3bd255c10f0b2346ba","bdp_trlrn","Mon Mar 13 2023 21:33:38 GMT-0700 (Pacific Daylight Time)","818186","Untrustworthy,Trustworthy","html-keyboard-response","142","310022","0.0-19.0-2.1","","null","","<div class='trialDiv'><img src='trustrating_stim/white_00602_940928_fb_edt.bmp'><br><font class='baseline'><strong>Aaron</strong><p>Choose number of points to send.</font><div class='respPicDiv'><img src='img/responseButtonOffersNo0L3.png' class='respPic'></div></div>","null","1","Aaron","9","Kept","0.2,0.65","14","0.2","trustrating_stim/white_00602_940928_fb_edt.bmp","6","4","2"
"","","","feedback","5fc70f3bd255c10f0b2346ba","bdp_trlrn","Mon Mar 13 2023 21:33:38 GMT-0700 (Pacific Daylight Time)","818186","Untrustworthy,Trustworthy","html-keyboard-response","143","311029","0.0-19.0-3.1","","null","","<div class='trialDiv'><img src='trustrating_stim/white_00602_940928_fb_edt.bmp'><br><font class='baseline'><strong>Aaron</strong><p>Received: <strong>12</strong></font> &nbsp; &nbsp; &nbsp; &nbsp; &nbsp; &nbsp;<font class='negOutcome'>Shared back: <strong>0</strong></font></font><div class='respPicDiv'><img src='img/responseButtonOffersNo0_wht.png' class='respPic'></div></div>","null","1","Aaron","9","Kept","0.2,0.65","14","0.2","trustrating_stim/white_00602_940928_fb_edt.bmp","6","4","2"
"","","","decision","5fc70f3bd255c10f0b2346ba","bdp_trlrn","Mon Mar 13 2023 21:33:38 GMT-0700 (Pacific Daylight Time)","818186","Untrustworthy,Trustworthy","html-keyboard-response","144","312095","0.0-19.0-1.2","","1065","","<div class='trialDiv'><img src='trustrating_stim/white_00785_941205_fb_edt.bmp'><br><font class='baseline'><strong>Ryan</strong><p>Choose number of points to send.</font><div class='respPicDiv'><img src='img/responseButtonOffersNo0L.png' class='respPic'></div></div>","3","1","Ryan","3","Shared","0.65,0.2","11","0.65","trustrating_stim/white_00785_941205_fb_edt.bmp","1","9","3"
"","","","decisionFB","5fc70f3bd255c10f0b2346ba","bdp_trlrn","Mon Mar 13 2023 21:33:38 GMT-0700 (Pacific Daylight Time)","818186","Untrustworthy,Trustworthy","html-keyboard-response","145","312349","0.0-19.0-2.2","","null","","<div class='trialDiv'><img src='trustrating_stim/white_00785_941205_fb_edt.bmp'><br><font class='baseline'><strong>Ryan</strong><p>Choose number of points to send.</font><div class='respPicDiv'><img src='img/responseButtonOffersNo0L3.png' class='respPic'></div></div>","null","1","Ryan","3","Shared","0.65,0.2","11","0.65","trustrating_stim/white_00785_941205_fb_edt.bmp","1","6","3"
"","","","feedback","5fc70f3bd255c10f0b2346ba","bdp_trlrn","Mon Mar 13 2023 21:33:38 GMT-0700 (Pacific Daylight Time)","818186","Untrustworthy,Trustworthy","html-keyboard-response","146","313354","0.0-19.0-3.2","","null","","<div class='trialDiv'><img src='trustrating_stim/white_00785_941205_fb_edt.bmp'><br><font class='baseline'><strong>Ryan</strong><p>Received: <strong>12</strong></font> &nbsp; &nbsp; &nbsp; &nbsp; &nbsp; &nbsp;<font class='posOutcome'>Shared back: <strong>6</strong></font></font><div class='respPicDiv'><img src='img/responseButtonOffersNo0_wht.png' class='respPic'></div></div>","null","1","Ryan","3","Shared","0.65,0.2","11","0.65","trustrating_stim/white_00785_941205_fb_edt.bmp","1","12","3"
"","","","decision","5fc70f3bd255c10f0b2346ba","bdp_trlrn","Mon Mar 13 2023 21:33:38 GMT-0700 (Pacific Daylight Time)","818186","Untrustworthy,Trustworthy","html-keyboard-response","147","317539","0.0-19.0-1.3","","4184","","<div class='trialDiv'><img src='trustrating_stim/white_mw099.bmp'><br><font class='baseline'><strong>Jacob</strong><p>Choose number of points to send.</font><div class='respPicDiv'><img src='img/responseButtonOffersNo0L.png' class='respPic'></div></div>","2","2","Jacob","7","Kept","0.35,0.65","8","0.35","trustrating_stim/white_mw099.bmp","3.5","17","4"
"","","","decisionFB","5fc70f3bd255c10f0b2346ba","bdp_trlrn","Mon Mar 13 2023 21:33:38 GMT-0700 (Pacific Daylight Time)","818186","Untrustworthy,Trustworthy","html-keyboard-response","148","317792","0.0-19.0-2.3","","null","","<div class='trialDiv'><img src='trustrating_stim/white_mw099.bmp'><br><font class='baseline'><strong>Jacob</strong><p>Choose number of points to send.</font><div class='respPicDiv'><img src='img/responseButtonOffersNo0L2.png' class='respPic'></div></div>","null","2","Jacob","7","Kept","0.35,0.65","8","0.35","trustrating_stim/white_mw099.bmp","3.5","15","4"
"","","","feedback","5fc70f3bd255c10f0b2346ba","bdp_trlrn","Mon Mar 13 2023 21:33:38 GMT-0700 (Pacific Daylight Time)","818186","Untrustworthy,Trustworthy","html-keyboard-response","149","318799","0.0-19.0-3.3","","null","","<div class='trialDiv'><img src='trustrating_stim/white_mw099.bmp'><br><font class='baseline'><strong>Jacob</strong><p>Received: <strong>8</strong></font> &nbsp; &nbsp; &nbsp; &nbsp; &nbsp; &nbsp;<font class='negOutcome'>Shared back: <strong>0</strong></font></font><div class='respPicDiv'><img src='img/responseButtonOffersNo0_wht.png' class='respPic'></div></div>","null","2","Jacob","7","Kept","0.35,0.65","8","0.35","trustrating_stim/white_mw099.bmp","3.5","15","4"
"","","","decision","5fc70f3bd255c10f0b2346ba","bdp_trlrn","Mon Mar 13 2023 21:33:38 GMT-0700 (Pacific Daylight Time)","818186","Untrustworthy,Trustworthy","html-keyboard-response","150","320502","0.0-19.0-1.4","","1701","","<div class='trialDiv'><img src='trustrating_stim/white_00602_940928_fb_edt.bmp'><br><font class='baseline'><strong>Aaron</strong><p>Choose number of points to send.</font><div class='respPicDiv'><img src='img/responseButtonOffersNo0L.png' class='respPic'></div></div>","2","2","Aaron","9","Kept","0.2,0.65","14","0.2","trustrating_stim/white_00602_940928_fb_edt.bmp","6","20","5"
"","","","decisionFB","5fc70f3bd255c10f0b2346ba","bdp_trlrn","Mon Mar 13 2023 21:33:38 GMT-0700 (Pacific Daylight Time)","818186","Untrustworthy,Trustworthy","html-keyboard-response","151","320759","0.0-19.0-2.4","","null","","<div class='trialDiv'><img src='trustrating_stim/white_00602_940928_fb_edt.bmp'><br><font class='baseline'><strong>Aaron</strong><p>Choose number of points to send.</font><div class='respPicDiv'><img src='img/responseButtonOffersNo0L2.png' class='respPic'></div></div>","null","2","Aaron","9","Kept","0.2,0.65","14","0.2","trustrating_stim/white_00602_940928_fb_edt.bmp","6","18","5"
"","","","feedback","5fc70f3bd255c10f0b2346ba","bdp_trlrn","Mon Mar 13 2023 21:33:38 GMT-0700 (Pacific Daylight Time)","818186","Untrustworthy,Trustworthy","html-keyboard-response","152","321765","0.0-19.0-3.4","","null","","<div class='trialDiv'><img src='trustrating_stim/white_00602_940928_fb_edt.bmp'><br><font class='baseline'><strong>Aaron</strong><p>Received: <strong>8</strong></font> &nbsp; &nbsp; &nbsp; &nbsp; &nbsp; &nbsp;<font class='negOutcome'>Shared back: <strong>0</strong></font></font><div class='respPicDiv'><img src='img/responseButtonOffersNo0_wht.png' class='respPic'></div></div>","null","2","Aaron","9","Kept","0.2,0.65","14","0.2","trustrating_stim/white_00602_940928_fb_edt.bmp","6","18","5"
"","","","decision","5fc70f3bd255c10f0b2346ba","bdp_trlrn","Mon Mar 13 2023 21:33:38 GMT-0700 (Pacific Daylight Time)","818186","Untrustworthy,Trustworthy","html-keyboard-response","153","324269","0.0-19.0-1.5","","2501","","<div class='trialDiv'><img src='trustrating_stim/white_00785_941205_fb_edt.bmp'><br><font class='baseline'><strong>Ryan</strong><p>Choose number of points to send.</font><div class='respPicDiv'><img src='img/responseButtonOffersNo0L.png' class='respPic'></div></div>","5","2","Ryan","3","Shared","0.65,0.2","11","0.65","trustrating_stim/white_00785_941205_fb_edt.bmp","1","23","6"
"","","","decisionFB","5fc70f3bd255c10f0b2346ba","bdp_trlrn","Mon Mar 13 2023 21:33:38 GMT-0700 (Pacific Daylight Time)","818186","Untrustworthy,Trustworthy","html-keyboard-response","154","324525","0.0-19.0-2.5","","null","","<div class='trialDiv'><img src='trustrating_stim/white_00785_941205_fb_edt.bmp'><br><font class='baseline'><strong>Ryan</strong><p>Choose number of points to send.</font><div class='respPicDiv'><img src='img/responseButtonOffersNo0L5.png' class='respPic'></div></div>","null","2","Ryan","3","Shared","0.65,0.2","11","0.65","trustrating_stim/white_00785_941205_fb_edt.bmp","1","18","6"
"","","","feedback","5fc70f3bd255c10f0b2346ba","bdp_trlrn","Mon Mar 13 2023 21:33:38 GMT-0700 (Pacific Daylight Time)","818186","Untrustworthy,Trustworthy","html-keyboard-response","155","325530","0.0-19.0-3.5","","null","","<div class='trialDiv'><img src='trustrating_stim/white_00785_941205_fb_edt.bmp'><br><font class='baseline'><strong>Ryan</strong><p>Received: <strong>20</strong></font> &nbsp; &nbsp; &nbsp; &nbsp; &nbsp; &nbsp;<font class='posOutcome'>Shared back: <strong>10</strong></font></font><div class='respPicDiv'><img src='img/responseButtonOffersNo0_wht.png' class='respPic'></div></div>","null","2","Ryan","3","Shared","0.65,0.2","11","0.65","trustrating_stim/white_00785_941205_fb_edt.bmp","1","28","6"
"","","","decision","5fc70f3bd255c10f0b2346ba","bdp_trlrn","Mon Mar 13 2023 21:33:38 GMT-0700 (Pacific Daylight Time)","818186","Untrustworthy,Trustworthy","html-keyboard-response","156","327152","0.0-19.0-1.6","","1620","","<div class='trialDiv'><img src='trustrating_stim/white_00602_940928_fb_edt.bmp'><br><font class='baseline'><strong>Aaron</strong><p>Choose number of points to send.</font><div class='respPicDiv'><img src='img/responseButtonOffersNo0L.png' class='respPic'></div></div>","1","3","Aaron","9","Shared","0.2,0.65","14","0.2","trustrating_stim/white_00602_940928_fb_edt.bmp","6","33","7"
"","","","decisionFB","5fc70f3bd255c10f0b2346ba","bdp_trlrn","Mon Mar 13 2023 21:33:38 GMT-0700 (Pacific Daylight Time)","818186","Untrustworthy,Trustworthy","html-keyboard-response","157","327404","0.0-19.0-2.6","","null","","<div class='trialDiv'><img src='trustrating_stim/white_00602_940928_fb_edt.bmp'><br><font class='baseline'><strong>Aaron</strong><p>Choose number of points to send.</font><div class='respPicDiv'><img src='img/responseButtonOffersNo0L1.png' class='respPic'></div></div>","null","3","Aaron","9","Shared","0.2,0.65","14","0.2","trustrating_stim/white_00602_940928_fb_edt.bmp","6","32","7"
"","","","feedback","5fc70f3bd255c10f0b2346ba","bdp_trlrn","Mon Mar 13 2023 21:33:38 GMT-0700 (Pacific Daylight Time)","818186","Untrustworthy,Trustworthy","html-keyboard-response","158","328412","0.0-19.0-3.6","","null","","<div class='trialDiv'><img src='trustrating_stim/white_00602_940928_fb_edt.bmp'><br><font class='baseline'><strong>Aaron</strong><p>Received: <strong>4</strong></font> &nbsp; &nbsp; &nbsp; &nbsp; &nbsp; &nbsp;<font class='posOutcome'>Shared back: <strong>2</strong></font></font><div class='respPicDiv'><img src='img/responseButtonOffersNo0_wht.png' class='respPic'></div></div>","null","3","Aaron","9","Shared","0.2,0.65","14","0.2","trustrating_stim/white_00602_940928_fb_edt.bmp","6","34","7"
"","","","decision","5fc70f3bd255c10f0b2346ba","bdp_trlrn","Mon Mar 13 2023 21:33:38 GMT-0700 (Pacific Daylight Time)","818186","Untrustworthy,Trustworthy","html-keyboard-response","159","331148","0.0-19.0-1.7","","2733","","<div class='trialDiv'><img src='trustrating_stim/white_mw099.bmp'><br><font class='baseline'><strong>Jacob</strong><p>Choose number of points to send.</font><div class='respPicDiv'><img src='img/responseButtonOffersNo0L.png' class='respPic'></div></div>","1","3","Jacob","7","Kept","0.35,0.65","8","0.35","trustrating_stim/white_mw099.bmp","3.5","39","8"
"","","","decisionFB","5fc70f3bd255c10f0b2346ba","bdp_trlrn","Mon Mar 13 2023 21:33:38 GMT-0700 (Pacific Daylight Time)","818186","Untrustworthy,Trustworthy","html-keyboard-response","160","331405","0.0-19.0-2.7","","null","","<div class='trialDiv'><img src='trustrating_stim/white_mw099.bmp'><br><font class='baseline'><strong>Jacob</strong><p>Choose number of points to send.</font><div class='respPicDiv'><img src='img/responseButtonOffersNo0L1.png' class='respPic'></div></div>","null","3","Jacob","7","Kept","0.35,0.65","8","0.35","trustrating_stim/white_mw099.bmp","3.5","38","8"
"","","","feedback","5fc70f3bd255c10f0b2346ba","bdp_trlrn","Mon Mar 13 2023 21:33:38 GMT-0700 (Pacific Daylight Time)","818186","Untrustworthy,Trustworthy","html-keyboard-response","161","332409","0.0-19.0-3.7","","null","","<div class='trialDiv'><img src='trustrating_stim/white_mw099.bmp'><br><font class='baseline'><strong>Jacob</strong><p>Received: <strong>4</strong></font> &nbsp; &nbsp; &nbsp; &nbsp; &nbsp; &nbsp;<font class='negOutcome'>Shared back: <strong>0</strong></font></font><div class='respPicDiv'><img src='img/responseButtonOffersNo0_wht.png' class='respPic'></div></div>","null","3","Jacob","7","Kept","0.35,0.65","8","0.35","trustrating_stim/white_mw099.bmp","3.5","38","8"
"","","","decision","5fc70f3bd255c10f0b2346ba","bdp_trlrn","Mon Mar 13 2023 21:33:38 GMT-0700 (Pacific Daylight Time)","818186","Untrustworthy,Trustworthy","html-keyboard-response","162","333829","0.0-19.0-1.8","","1419","","<div class='trialDiv'><img src='trustrating_stim/white_00785_941205_fb_edt.bmp'><br><font class='baseline'><strong>Ryan</strong><p>Choose number of points to send.</font><div class='respPicDiv'><img src='img/responseButtonOffersNo0L.png' class='respPic'></div></div>","5","3","Ryan","3","Shared","0.65,0.2","11","0.65","trustrating_stim/white_00785_941205_fb_edt.bmp","1","43","9"
"","","","decisionFB","5fc70f3bd255c10f0b2346ba","bdp_trlrn","Mon Mar 13 2023 21:33:38 GMT-0700 (Pacific Daylight Time)","818186","Untrustworthy,Trustworthy","html-keyboard-response","163","334083","0.0-19.0-2.8","","null","","<div class='trialDiv'><img src='trustrating_stim/white_00785_941205_fb_edt.bmp'><br><font class='baseline'><strong>Ryan</strong><p>Choose number of points to send.</font><div class='respPicDiv'><img src='img/responseButtonOffersNo0L5.png' class='respPic'></div></div>","null","3","Ryan","3","Shared","0.65,0.2","11","0.65","trustrating_stim/white_00785_941205_fb_edt.bmp","1","38","9"
"","","","feedback","5fc70f3bd255c10f0b2346ba","bdp_trlrn","Mon Mar 13 2023 21:33:38 GMT-0700 (Pacific Daylight Time)","818186","Untrustworthy,Trustworthy","html-keyboard-response","164","335090","0.0-19.0-3.8","","null","","<div class='trialDiv'><img src='trustrating_stim/white_00785_941205_fb_edt.bmp'><br><font class='baseline'><strong>Ryan</strong><p>Received: <strong>20</strong></font> &nbsp; &nbsp; &nbsp; &nbsp; &nbsp; &nbsp;<font class='posOutcome'>Shared back: <strong>10</strong></font></font><div class='respPicDiv'><img src='img/responseButtonOffersNo0_wht.png' class='respPic'></div></div>","null","3","Ryan","3","Shared","0.65,0.2","11","0.65","trustrating_stim/white_00785_941205_fb_edt.bmp","1","48","9"
"","","","decision","5fc70f3bd255c10f0b2346ba","bdp_trlrn","Mon Mar 13 2023 21:33:38 GMT-0700 (Pacific Daylight Time)","818186","Untrustworthy,Trustworthy","html-keyboard-response","165","339423","0.0-19.0-1.9","","4331","","<div class='trialDiv'><img src='trustrating_stim/white_mw099.bmp'><br><font class='baseline'><strong>Jacob</strong><p>Choose number of points to send.</font><div class='respPicDiv'><img src='img/responseButtonOffersNo0L.png' class='respPic'></div></div>","2","4","Jacob","7","Kept","0.35,0.65","8","0.35","trustrating_stim/white_mw099.bmp","3.5","53","10"
"","","","decisionFB","5fc70f3bd255c10f0b2346ba","bdp_trlrn","Mon Mar 13 2023 21:33:38 GMT-0700 (Pacific Daylight Time)","818186","Untrustworthy,Trustworthy","html-keyboard-response","166","339680","0.0-19.0-2.9","","null","","<div class='trialDiv'><img src='trustrating_stim/white_mw099.bmp'><br><font class='baseline'><strong>Jacob</strong><p>Choose number of points to send.</font><div class='respPicDiv'><img src='img/responseButtonOffersNo0L2.png' class='respPic'></div></div>","null","4","Jacob","7","Kept","0.35,0.65","8","0.35","trustrating_stim/white_mw099.bmp","3.5","51","10"
"","","","feedback","5fc70f3bd255c10f0b2346ba","bdp_trlrn","Mon Mar 13 2023 21:33:38 GMT-0700 (Pacific Daylight Time)","818186","Untrustworthy,Trustworthy","html-keyboard-response","167","340687","0.0-19.0-3.9","","null","","<div class='trialDiv'><img src='trustrating_stim/white_mw099.bmp'><br><font class='baseline'><strong>Jacob</strong><p>Received: <strong>8</strong></font> &nbsp; &nbsp; &nbsp; &nbsp; &nbsp; &nbsp;<font class='negOutcome'>Shared back: <strong>0</strong></font></font><div class='respPicDiv'><img src='img/responseButtonOffersNo0_wht.png' class='respPic'></div></div>","null","4","Jacob","7","Kept","0.35,0.65","8","0.35","trustrating_stim/white_mw099.bmp","3.5","51","10"
"","","","decision","5fc70f3bd255c10f0b2346ba","bdp_trlrn","Mon Mar 13 2023 21:33:38 GMT-0700 (Pacific Daylight Time)","818186","Untrustworthy,Trustworthy","html-keyboard-response","168","342134","0.0-19.0-1.10","","1444","","<div class='trialDiv'><img src='trustrating_stim/white_00785_941205_fb_edt.bmp'><br><font class='baseline'><strong>Ryan</strong><p>Choose number of points to send.</font><div class='respPicDiv'><img src='img/responseButtonOffersNo0L.png' class='respPic'></div></div>","5","4","Ryan","3","Shared","0.65,0.2","11","0.65","trustrating_stim/white_00785_941205_fb_edt.bmp","1","56","11"
"","","","decisionFB","5fc70f3bd255c10f0b2346ba","bdp_trlrn","Mon Mar 13 2023 21:33:38 GMT-0700 (Pacific Daylight Time)","818186","Untrustworthy,Trustworthy","html-keyboard-response","169","342391","0.0-19.0-2.10","","null","","<div class='trialDiv'><img src='trustrating_stim/white_00785_941205_fb_edt.bmp'><br><font class='baseline'><strong>Ryan</strong><p>Choose number of points to send.</font><div class='respPicDiv'><img src='img/responseButtonOffersNo0L5.png' class='respPic'></div></div>","null","4","Ryan","3","Shared","0.65,0.2","11","0.65","trustrating_stim/white_00785_941205_fb_edt.bmp","1","51","11"
"","","","feedback","5fc70f3bd255c10f0b2346ba","bdp_trlrn","Mon Mar 13 2023 21:33:38 GMT-0700 (Pacific Daylight Time)","818186","Untrustworthy,Trustworthy","html-keyboard-response","170","343398","0.0-19.0-3.10","","null","","<div class='trialDiv'><img src='trustrating_stim/white_00785_941205_fb_edt.bmp'><br><font class='baseline'><strong>Ryan</strong><p>Received: <strong>20</strong></font> &nbsp; &nbsp; &nbsp; &nbsp; &nbsp; &nbsp;<font class='posOutcome'>Shared back: <strong>10</strong></font></font><div class='respPicDiv'><img src='img/responseButtonOffersNo0_wht.png' class='respPic'></div></div>","null","4","Ryan","3","Shared","0.65,0.2","11","0.65","trustrating_stim/white_00785_941205_fb_edt.bmp","1","61","11"
"","","","decision","5fc70f3bd255c10f0b2346ba","bdp_trlrn","Mon Mar 13 2023 21:33:38 GMT-0700 (Pacific Daylight Time)","818186","Untrustworthy,Trustworthy","html-keyboard-response","171","346133","0.0-19.0-1.11","","2733","","<div class='trialDiv'><img src='trustrating_stim/white_00602_940928_fb_edt.bmp'><br><font class='baseline'><strong>Aaron</strong><p>Choose number of points to send.</font><div class='respPicDiv'><img src='img/responseButtonOffersNo0L.png' class='respPic'></div></div>","1","4","Aaron","9","Kept","0.2,0.65","14","0.2","trustrating_stim/white_00602_940928_fb_edt.bmp","6","66","12"
"","","","decisionFB","5fc70f3bd255c10f0b2346ba","bdp_trlrn","Mon Mar 13 2023 21:33:38 GMT-0700 (Pacific Daylight Time)","818186","Untrustworthy,Trustworthy","html-keyboard-response","172","346389","0.0-19.0-2.11","","null","","<div class='trialDiv'><img src='trustrating_stim/white_00602_940928_fb_edt.bmp'><br><font class='baseline'><strong>Aaron</strong><p>Choose number of points to send.</font><div class='respPicDiv'><img src='img/responseButtonOffersNo0L1.png' class='respPic'></div></div>","null","4","Aaron","9","Kept","0.2,0.65","14","0.2","trustrating_stim/white_00602_940928_fb_edt.bmp","6","65","12"
"","","","feedback","5fc70f3bd255c10f0b2346ba","bdp_trlrn","Mon Mar 13 2023 21:33:38 GMT-0700 (Pacific Daylight Time)","818186","Untrustworthy,Trustworthy","html-keyboard-response","173","347392","0.0-19.0-3.11","","null","","<div class='trialDiv'><img src='trustrating_stim/white_00602_940928_fb_edt.bmp'><br><font class='baseline'><strong>Aaron</strong><p>Received: <strong>4</strong></font> &nbsp; &nbsp; &nbsp; &nbsp; &nbsp; &nbsp;<font class='negOutcome'>Shared back: <strong>0</strong></font></font><div class='respPicDiv'><img src='img/responseButtonOffersNo0_wht.png' class='respPic'></div></div>","null","4","Aaron","9","Kept","0.2,0.65","14","0.2","trustrating_stim/white_00602_940928_fb_edt.bmp","6","65","12"
"","","","decision","5fc70f3bd255c10f0b2346ba","bdp_trlrn","Mon Mar 13 2023 21:33:38 GMT-0700 (Pacific Daylight Time)","818186","Untrustworthy,Trustworthy","html-keyboard-response","174","349685","0.0-19.0-1.12","","2290","","<div class='trialDiv'><img src='trustrating_stim/white_00785_941205_fb_edt.bmp'><br><font class='baseline'><strong>Ryan</strong><p>Choose number of points to send.</font><div class='respPicDiv'><img src='img/responseButtonOffersNo0L.png' class='respPic'></div></div>","5","5","Ryan","3","Shared","0.65,0.2","11","0.65","trustrating_stim/white_00785_941205_fb_edt.bmp","1","70","13"
"","","","decisionFB","5fc70f3bd255c10f0b2346ba","bdp_trlrn","Mon Mar 13 2023 21:33:38 GMT-0700 (Pacific Daylight Time)","818186","Untrustworthy,Trustworthy","html-keyboard-response","175","349940","0.0-19.0-2.12","","null","","<div class='trialDiv'><img src='trustrating_stim/white_00785_941205_fb_edt.bmp'><br><font class='baseline'><strong>Ryan</strong><p>Choose number of points to send.</font><div class='respPicDiv'><img src='img/responseButtonOffersNo0L5.png' class='respPic'></div></div>","null","5","Ryan","3","Shared","0.65,0.2","11","0.65","trustrating_stim/white_00785_941205_fb_edt.bmp","1","65","13"
"","","","feedback","5fc70f3bd255c10f0b2346ba","bdp_trlrn","Mon Mar 13 2023 21:33:38 GMT-0700 (Pacific Daylight Time)","818186","Untrustworthy,Trustworthy","html-keyboard-response","176","350944","0.0-19.0-3.12","","null","","<div class='trialDiv'><img src='trustrating_stim/white_00785_941205_fb_edt.bmp'><br><font class='baseline'><strong>Ryan</strong><p>Received: <strong>20</strong></font> &nbsp; &nbsp; &nbsp; &nbsp; &nbsp; &nbsp;<font class='posOutcome'>Shared back: <strong>10</strong></font></font><div class='respPicDiv'><img src='img/responseButtonOffersNo0_wht.png' class='respPic'></div></div>","null","5","Ryan","3","Shared","0.65,0.2","11","0.65","trustrating_stim/white_00785_941205_fb_edt.bmp","1","75","13"
"","","","decision","5fc70f3bd255c10f0b2346ba","bdp_trlrn","Mon Mar 13 2023 21:33:38 GMT-0700 (Pacific Daylight Time)","818186","Untrustworthy,Trustworthy","html-keyboard-response","177","352707","0.0-19.0-1.13","","1762","","<div class='trialDiv'><img src='trustrating_stim/white_mw099.bmp'><br><font class='baseline'><strong>Jacob</strong><p>Choose number of points to send.</font><div class='respPicDiv'><img src='img/responseButtonOffersNo0L.png' class='respPic'></div></div>","2","5","Jacob","7","Kept","0.35,0.65","8","0.35","trustrating_stim/white_mw099.bmp","3.5","80","14"
"","","","decisionFB","5fc70f3bd255c10f0b2346ba","bdp_trlrn","Mon Mar 13 2023 21:33:38 GMT-0700 (Pacific Daylight Time)","818186","Untrustworthy,Trustworthy","html-keyboard-response","178","352962","0.0-19.0-2.13","","null","","<div class='trialDiv'><img src='trustrating_stim/white_mw099.bmp'><br><font class='baseline'><strong>Jacob</strong><p>Choose number of points to send.</font><div class='respPicDiv'><img src='img/responseButtonOffersNo0L2.png' class='respPic'></div></div>","null","5","Jacob","7","Kept","0.35,0.65","8","0.35","trustrating_stim/white_mw099.bmp","3.5","78","14"
"","","","feedback","5fc70f3bd255c10f0b2346ba","bdp_trlrn","Mon Mar 13 2023 21:33:38 GMT-0700 (Pacific Daylight Time)","818186","Untrustworthy,Trustworthy","html-keyboard-response","179","353966","0.0-19.0-3.13","","null","","<div class='trialDiv'><img src='trustrating_stim/white_mw099.bmp'><br><font class='baseline'><strong>Jacob</strong><p>Received: <strong>8</strong></font> &nbsp; &nbsp; &nbsp; &nbsp; &nbsp; &nbsp;<font class='negOutcome'>Shared back: <strong>0</strong></font></font><div class='respPicDiv'><img src='img/responseButtonOffersNo0_wht.png' class='respPic'></div></div>","null","5","Jacob","7","Kept","0.35,0.65","8","0.35","trustrating_stim/white_mw099.bmp","3.5","78","14"
"","","","decision","5fc70f3bd255c10f0b2346ba","bdp_trlrn","Mon Mar 13 2023 21:33:38 GMT-0700 (Pacific Daylight Time)","818186","Untrustworthy,Trustworthy","html-keyboard-response","180","356255","0.0-19.0-1.14","","2288","","<div class='trialDiv'><img src='trustrating_stim/white_00602_940928_fb_edt.bmp'><br><font class='baseline'><strong>Aaron</strong><p>Choose number of points to send.</font><div class='respPicDiv'><img src='img/responseButtonOffersNo0L.png' class='respPic'></div></div>","1","5","Aaron","9","Shared","0.2,0.65","14","0.2","trustrating_stim/white_00602_940928_fb_edt.bmp","6","83","15"
"","","","decisionFB","5fc70f3bd255c10f0b2346ba","bdp_trlrn","Mon Mar 13 2023 21:33:38 GMT-0700 (Pacific Daylight Time)","818186","Untrustworthy,Trustworthy","html-keyboard-response","181","356509","0.0-19.0-2.14","","null","","<div class='trialDiv'><img src='trustrating_stim/white_00602_940928_fb_edt.bmp'><br><font class='baseline'><strong>Aaron</strong><p>Choose number of points to send.</font><div class='respPicDiv'><img src='img/responseButtonOffersNo0L1.png' class='respPic'></div></div>","null","5","Aaron","9","Shared","0.2,0.65","14","0.2","trustrating_stim/white_00602_940928_fb_edt.bmp","6","82","15"
"","","","feedback","5fc70f3bd255c10f0b2346ba","bdp_trlrn","Mon Mar 13 2023 21:33:38 GMT-0700 (Pacific Daylight Time)","818186","Untrustworthy,Trustworthy","html-keyboard-response","182","357512","0.0-19.0-3.14","","null","","<div class='trialDiv'><img src='trustrating_stim/white_00602_940928_fb_edt.bmp'><br><font class='baseline'><strong>Aaron</strong><p>Received: <strong>4</strong></font> &nbsp; &nbsp; &nbsp; &nbsp; &nbsp; &nbsp;<font class='posOutcome'>Shared back: <strong>2</strong></font></font><div class='respPicDiv'><img src='img/responseButtonOffersNo0_wht.png' class='respPic'></div></div>","null","5","Aaron","9","Shared","0.2,0.65","14","0.2","trustrating_stim/white_00602_940928_fb_edt.bmp","6","84","15"
"","","","decision","5fc70f3bd255c10f0b2346ba","bdp_trlrn","Mon Mar 13 2023 21:33:38 GMT-0700 (Pacific Daylight Time)","818186","Untrustworthy,Trustworthy","html-keyboard-response","183","359027","0.0-19.0-1.15","","1513","","<div class='trialDiv'><img src='trustrating_stim/white_mw099.bmp'><br><font class='baseline'><strong>Jacob</strong><p>Choose number of points to send.</font><div class='respPicDiv'><img src='img/responseButtonOffersNo0L.png' class='respPic'></div></div>","1","6","Jacob","7","Kept","0.35,0.65","8","0.35","trustrating_stim/white_mw099.bmp","3.5","89","16"
"","","","decisionFB","5fc70f3bd255c10f0b2346ba","bdp_trlrn","Mon Mar 13 2023 21:33:38 GMT-0700 (Pacific Daylight Time)","818186","Untrustworthy,Trustworthy","html-keyboard-response","184","359281","0.0-19.0-2.15","","null","","<div class='trialDiv'><img src='trustrating_stim/white_mw099.bmp'><br><font class='baseline'><strong>Jacob</strong><p>Choose number of points to send.</font><div class='respPicDiv'><img src='img/responseButtonOffersNo0L1.png' class='respPic'></div></div>","null","6","Jacob","7","Kept","0.35,0.65","8","0.35","trustrating_stim/white_mw099.bmp","3.5","88","16"
"","","","feedback","5fc70f3bd255c10f0b2346ba","bdp_trlrn","Mon Mar 13 2023 21:33:38 GMT-0700 (Pacific Daylight Time)","818186","Untrustworthy,Trustworthy","html-keyboard-response","185","360288","0.0-19.0-3.15","","null","","<div class='trialDiv'><img src='trustrating_stim/white_mw099.bmp'><br><font class='baseline'><strong>Jacob</strong><p>Received: <strong>4</strong></font> &nbsp; &nbsp; &nbsp; &nbsp; &nbsp; &nbsp;<font class='negOutcome'>Shared back: <strong>0</strong></font></font><div class='respPicDiv'><img src='img/responseButtonOffersNo0_wht.png' class='respPic'></div></div>","null","6","Jacob","7","Kept","0.35,0.65","8","0.35","trustrating_stim/white_mw099.bmp","3.5","88","16"
"","","","decision","5fc70f3bd255c10f0b2346ba","bdp_trlrn","Mon Mar 13 2023 21:33:38 GMT-0700 (Pacific Daylight Time)","818186","Untrustworthy,Trustworthy","html-keyboard-response","186","361630","0.0-19.0-1.16","","1342","","<div class='trialDiv'><img src='trustrating_stim/white_00602_940928_fb_edt.bmp'><br><font class='baseline'><strong>Aaron</strong><p>Choose number of points to send.</font><div class='respPicDiv'><img src='img/responseButtonOffersNo0L.png' class='respPic'></div></div>","2","6","Aaron","9","Kept","0.2,0.65","14","0.2","trustrating_stim/white_00602_940928_fb_edt.bmp","6","93","17"
"","","","decisionFB","5fc70f3bd255c10f0b2346ba","bdp_trlrn","Mon Mar 13 2023 21:33:38 GMT-0700 (Pacific Daylight Time)","818186","Untrustworthy,Trustworthy","html-keyboard-response","187","361882","0.0-19.0-2.16","","null","","<div class='trialDiv'><img src='trustrating_stim/white_00602_940928_fb_edt.bmp'><br><font class='baseline'><strong>Aaron</strong><p>Choose number of points to send.</font><div class='respPicDiv'><img src='img/responseButtonOffersNo0L2.png' class='respPic'></div></div>","null","6","Aaron","9","Kept","0.2,0.65","14","0.2","trustrating_stim/white_00602_940928_fb_edt.bmp","6","91","17"
"","","","feedback","5fc70f3bd255c10f0b2346ba","bdp_trlrn","Mon Mar 13 2023 21:33:38 GMT-0700 (Pacific Daylight Time)","818186","Untrustworthy,Trustworthy","html-keyboard-response","188","362890","0.0-19.0-3.16","","null","","<div class='trialDiv'><img src='trustrating_stim/white_00602_940928_fb_edt.bmp'><br><font class='baseline'><strong>Aaron</strong><p>Received: <strong>8</strong></font> &nbsp; &nbsp; &nbsp; &nbsp; &nbsp; &nbsp;<font class='negOutcome'>Shared back: <strong>0</strong></font></font><div class='respPicDiv'><img src='img/responseButtonOffersNo0_wht.png' class='respPic'></div></div>","null","6","Aaron","9","Kept","0.2,0.65","14","0.2","trustrating_stim/white_00602_940928_fb_edt.bmp","6","91","17"
"","","","decision","5fc70f3bd255c10f0b2346ba","bdp_trlrn","Mon Mar 13 2023 21:33:38 GMT-0700 (Pacific Daylight Time)","818186","Untrustworthy,Trustworthy","html-keyboard-response","189","365096","0.0-19.0-1.17","","2205","","<div class='trialDiv'><img src='trustrating_stim/white_00785_941205_fb_edt.bmp'><br><font class='baseline'><strong>Ryan</strong><p>Choose number of points to send.</font><div class='respPicDiv'><img src='img/responseButtonOffersNo0L.png' class='respPic'></div></div>","5","6","Ryan","3","Shared","0.65,0.2","11","0.65","trustrating_stim/white_00785_941205_fb_edt.bmp","1","96","18"
"","","","decisionFB","5fc70f3bd255c10f0b2346ba","bdp_trlrn","Mon Mar 13 2023 21:33:38 GMT-0700 (Pacific Daylight Time)","818186","Untrustworthy,Trustworthy","html-keyboard-response","190","365353","0.0-19.0-2.17","","null","","<div class='trialDiv'><img src='trustrating_stim/white_00785_941205_fb_edt.bmp'><br><font class='baseline'><strong>Ryan</strong><p>Choose number of points to send.</font><div class='respPicDiv'><img src='img/responseButtonOffersNo0L5.png' class='respPic'></div></div>","null","6","Ryan","3","Shared","0.65,0.2","11","0.65","trustrating_stim/white_00785_941205_fb_edt.bmp","1","91","18"
"","","","feedback","5fc70f3bd255c10f0b2346ba","bdp_trlrn","Mon Mar 13 2023 21:33:38 GMT-0700 (Pacific Daylight Time)","818186","Untrustworthy,Trustworthy","html-keyboard-response","191","366357","0.0-19.0-3.17","","null","","<div class='trialDiv'><img src='trustrating_stim/white_00785_941205_fb_edt.bmp'><br><font class='baseline'><strong>Ryan</strong><p>Received: <strong>20</strong></font> &nbsp; &nbsp; &nbsp; &nbsp; &nbsp; &nbsp;<font class='posOutcome'>Shared back: <strong>10</strong></font></font><div class='respPicDiv'><img src='img/responseButtonOffersNo0_wht.png' class='respPic'></div></div>","null","6","Ryan","3","Shared","0.65,0.2","11","0.65","trustrating_stim/white_00785_941205_fb_edt.bmp","1","101","18"
"","","","decision","5fc70f3bd255c10f0b2346ba","bdp_trlrn","Mon Mar 13 2023 21:33:38 GMT-0700 (Pacific Daylight Time)","818186","Untrustworthy,Trustworthy","html-keyboard-response","192","369133","0.0-19.0-1.18","","2774","","<div class='trialDiv'><img src='trustrating_stim/white_00602_940928_fb_edt.bmp'><br><font class='baseline'><strong>Aaron</strong><p>Choose number of points to send.</font><div class='respPicDiv'><img src='img/responseButtonOffersNo0L.png' class='respPic'></div></div>","2","7","Aaron","9","Kept","0.2,0.65","14","0.2","trustrating_stim/white_00602_940928_fb_edt.bmp","6","106","19"
"","","","decisionFB","5fc70f3bd255c10f0b2346ba","bdp_trlrn","Mon Mar 13 2023 21:33:38 GMT-0700 (Pacific Daylight Time)","818186","Untrustworthy,Trustworthy","html-keyboard-response","193","369390","0.0-19.0-2.18","","null","","<div class='trialDiv'><img src='trustrating_stim/white_00602_940928_fb_edt.bmp'><br><font class='baseline'><strong>Aaron</strong><p>Choose number of points to send.</font><div class='respPicDiv'><img src='img/responseButtonOffersNo0L2.png' class='respPic'></div></div>","null","7","Aaron","9","Kept","0.2,0.65","14","0.2","trustrating_stim/white_00602_940928_fb_edt.bmp","6","104","19"
"","","","feedback","5fc70f3bd255c10f0b2346ba","bdp_trlrn","Mon Mar 13 2023 21:33:38 GMT-0700 (Pacific Daylight Time)","818186","Untrustworthy,Trustworthy","html-keyboard-response","194","370394","0.0-19.0-3.18","","null","","<div class='trialDiv'><img src='trustrating_stim/white_00602_940928_fb_edt.bmp'><br><font class='baseline'><strong>Aaron</strong><p>Received: <strong>8</strong></font> &nbsp; &nbsp; &nbsp; &nbsp; &nbsp; &nbsp;<font class='negOutcome'>Shared back: <strong>0</strong></font></font><div class='respPicDiv'><img src='img/responseButtonOffersNo0_wht.png' class='respPic'></div></div>","null","7","Aaron","9","Kept","0.2,0.65","14","0.2","trustrating_stim/white_00602_940928_fb_edt.bmp","6","104","19"
"","","","decision","5fc70f3bd255c10f0b2346ba","bdp_trlrn","Mon Mar 13 2023 21:33:38 GMT-0700 (Pacific Daylight Time)","818186","Untrustworthy,Trustworthy","html-keyboard-response","195","371331","0.0-19.0-1.19","","935","","<div class='trialDiv'><img src='trustrating_stim/white_00785_941205_fb_edt.bmp'><br><font class='baseline'><strong>Ryan</strong><p>Choose number of points to send.</font><div class='respPicDiv'><img src='img/responseButtonOffersNo0L.png' class='respPic'></div></div>","5","7","Ryan","3","Kept","0.65,0.2","11","0.65","trustrating_stim/white_00785_941205_fb_edt.bmp","1","109","20"
"","","","decisionFB","5fc70f3bd255c10f0b2346ba","bdp_trlrn","Mon Mar 13 2023 21:33:38 GMT-0700 (Pacific Daylight Time)","818186","Untrustworthy,Trustworthy","html-keyboard-response","196","371588","0.0-19.0-2.19","","null","","<div class='trialDiv'><img src='trustrating_stim/white_00785_941205_fb_edt.bmp'><br><font class='baseline'><strong>Ryan</strong><p>Choose number of points to send.</font><div class='respPicDiv'><img src='img/responseButtonOffersNo0L5.png' class='respPic'></div></div>","null","7","Ryan","3","Kept","0.65,0.2","11","0.65","trustrating_stim/white_00785_941205_fb_edt.bmp","1","104","20"
"","","","feedback","5fc70f3bd255c10f0b2346ba","bdp_trlrn","Mon Mar 13 2023 21:33:38 GMT-0700 (Pacific Daylight Time)","818186","Untrustworthy,Trustworthy","html-keyboard-response","197","372590","0.0-19.0-3.19","","null","","<div class='trialDiv'><img src='trustrating_stim/white_00785_941205_fb_edt.bmp'><br><font class='baseline'><strong>Ryan</strong><p>Received: <strong>20</strong></font> &nbsp; &nbsp; &nbsp; &nbsp; &nbsp; &nbsp;<font class='negOutcome'>Shared back: <strong>0</strong></font></font><div class='respPicDiv'><img src='img/responseButtonOffersNo0_wht.png' class='respPic'></div></div>","null","7","Ryan","3","Kept","0.65,0.2","11","0.65","trustrating_stim/white_00785_941205_fb_edt.bmp","1","104","20"
"","","","decision","5fc70f3bd255c10f0b2346ba","bdp_trlrn","Mon Mar 13 2023 21:33:38 GMT-0700 (Pacific Daylight Time)","818186","Untrustworthy,Trustworthy","html-keyboard-response","198","376770","0.0-19.0-1.20","","4178","","<div class='trialDiv'><img src='trustrating_stim/white_mw099.bmp'><br><font class='baseline'><strong>Jacob</strong><p>Choose number of points to send.</font><div class='respPicDiv'><img src='img/responseButtonOffersNo0L.png' class='respPic'></div></div>","1","7","Jacob","7","Kept","0.35,0.65","8","0.35","trustrating_stim/white_mw099.bmp","3.5","109","21"
"","","","decisionFB","5fc70f3bd255c10f0b2346ba","bdp_trlrn","Mon Mar 13 2023 21:33:38 GMT-0700 (Pacific Daylight Time)","818186","Untrustworthy,Trustworthy","html-keyboard-response","199","377022","0.0-19.0-2.20","","null","","<div class='trialDiv'><img src='trustrating_stim/white_mw099.bmp'><br><font class='baseline'><strong>Jacob</strong><p>Choose number of points to send.</font><div class='respPicDiv'><img src='img/responseButtonOffersNo0L1.png' class='respPic'></div></div>","null","7","Jacob","7","Kept","0.35,0.65","8","0.35","trustrating_stim/white_mw099.bmp","3.5","108","21"
"","","","feedback","5fc70f3bd255c10f0b2346ba","bdp_trlrn","Mon Mar 13 2023 21:33:38 GMT-0700 (Pacific Daylight Time)","818186","Untrustworthy,Trustworthy","html-keyboard-response","200","378028","0.0-19.0-3.20","","null","","<div class='trialDiv'><img src='trustrating_stim/white_mw099.bmp'><br><font class='baseline'><strong>Jacob</strong><p>Received: <strong>4</strong></font> &nbsp; &nbsp; &nbsp; &nbsp; &nbsp; &nbsp;<font class='negOutcome'>Shared back: <strong>0</strong></font></font><div class='respPicDiv'><img src='img/responseButtonOffersNo0_wht.png' class='respPic'></div></div>","null","7","Jacob","7","Kept","0.35,0.65","8","0.35","trustrating_stim/white_mw099.bmp","3.5","108","21"
"","","","decision","5fc70f3bd255c10f0b2346ba","bdp_trlrn","Mon Mar 13 2023 21:33:38 GMT-0700 (Pacific Daylight Time)","818186","Untrustworthy,Trustworthy","html-keyboard-response","201","379077","0.0-19.0-1.21","","1049","","<div class='trialDiv'><img src='trustrating_stim/white_00785_941205_fb_edt.bmp'><br><font class='baseline'><strong>Ryan</strong><p>Choose number of points to send.</font><div class='respPicDiv'><img src='img/responseButtonOffersNo0L.png' class='respPic'></div></div>","5","8","Ryan","3","Kept","0.65,0.2","11","0.65","trustrating_stim/white_00785_941205_fb_edt.bmp","1","113","22"
"","","","decisionFB","5fc70f3bd255c10f0b2346ba","bdp_trlrn","Mon Mar 13 2023 21:33:38 GMT-0700 (Pacific Daylight Time)","818186","Untrustworthy,Trustworthy","html-keyboard-response","202","379334","0.0-19.0-2.21","","null","","<div class='trialDiv'><img src='trustrating_stim/white_00785_941205_fb_edt.bmp'><br><font class='baseline'><strong>Ryan</strong><p>Choose number of points to send.</font><div class='respPicDiv'><img src='img/responseButtonOffersNo0L5.png' class='respPic'></div></div>","null","8","Ryan","3","Kept","0.65,0.2","11","0.65","trustrating_stim/white_00785_941205_fb_edt.bmp","1","108","22"
"","","","feedback","5fc70f3bd255c10f0b2346ba","bdp_trlrn","Mon Mar 13 2023 21:33:38 GMT-0700 (Pacific Daylight Time)","818186","Untrustworthy,Trustworthy","html-keyboard-response","203","380340","0.0-19.0-3.21","","null","","<div class='trialDiv'><img src='trustrating_stim/white_00785_941205_fb_edt.bmp'><br><font class='baseline'><strong>Ryan</strong><p>Received: <strong>20</strong></font> &nbsp; &nbsp; &nbsp; &nbsp; &nbsp; &nbsp;<font class='negOutcome'>Shared back: <strong>0</strong></font></font><div class='respPicDiv'><img src='img/responseButtonOffersNo0_wht.png' class='respPic'></div></div>","null","8","Ryan","3","Kept","0.65,0.2","11","0.65","trustrating_stim/white_00785_941205_fb_edt.bmp","1","108","22"
"","","","decision","5fc70f3bd255c10f0b2346ba","bdp_trlrn","Mon Mar 13 2023 21:33:38 GMT-0700 (Pacific Daylight Time)","818186","Untrustworthy,Trustworthy","html-keyboard-response","204","381845","0.0-19.0-1.22","","1504","","<div class='trialDiv'><img src='trustrating_stim/white_mw099.bmp'><br><font class='baseline'><strong>Jacob</strong><p>Choose number of points to send.</font><div class='respPicDiv'><img src='img/responseButtonOffersNo0L.png' class='respPic'></div></div>","1","8","Jacob","7","Shared","0.35,0.65","8","0.35","trustrating_stim/white_mw099.bmp","3.5","113","23"
"","","","decisionFB","5fc70f3bd255c10f0b2346ba","bdp_trlrn","Mon Mar 13 2023 21:33:38 GMT-0700 (Pacific Daylight Time)","818186","Untrustworthy,Trustworthy","html-keyboard-response","205","382102","0.0-19.0-2.22","","null","","<div class='trialDiv'><img src='trustrating_stim/white_mw099.bmp'><br><font class='baseline'><strong>Jacob</strong><p>Choose number of points to send.</font><div class='respPicDiv'><img src='img/responseButtonOffersNo0L1.png' class='respPic'></div></div>","null","8","Jacob","7","Shared","0.35,0.65","8","0.35","trustrating_stim/white_mw099.bmp","3.5","112","23"
"","","","feedback","5fc70f3bd255c10f0b2346ba","bdp_trlrn","Mon Mar 13 2023 21:33:38 GMT-0700 (Pacific Daylight Time)","818186","Untrustworthy,Trustworthy","html-keyboard-response","206","383105","0.0-19.0-3.22","","null","","<div class='trialDiv'><img src='trustrating_stim/white_mw099.bmp'><br><font class='baseline'><strong>Jacob</strong><p>Received: <strong>4</strong></font> &nbsp; &nbsp; &nbsp; &nbsp; &nbsp; &nbsp;<font class='posOutcome'>Shared back: <strong>2</strong></font></font><div class='respPicDiv'><img src='img/responseButtonOffersNo0_wht.png' class='respPic'></div></div>","null","8","Jacob","7","Shared","0.35,0.65","8","0.35","trustrating_stim/white_mw099.bmp","3.5","114","23"
"","","","decision","5fc70f3bd255c10f0b2346ba","bdp_trlrn","Mon Mar 13 2023 21:33:38 GMT-0700 (Pacific Daylight Time)","818186","Untrustworthy,Trustworthy","html-keyboard-response","207","384315","0.0-19.0-1.23","","1209","","<div class='trialDiv'><img src='trustrating_stim/white_00602_940928_fb_edt.bmp'><br><font class='baseline'><strong>Aaron</strong><p>Choose number of points to send.</font><div class='respPicDiv'><img src='img/responseButtonOffersNo0L.png' class='respPic'></div></div>","1","8","Aaron","9","Kept","0.2,0.65","14","0.2","trustrating_stim/white_00602_940928_fb_edt.bmp","6","119","24"
"","","","decisionFB","5fc70f3bd255c10f0b2346ba","bdp_trlrn","Mon Mar 13 2023 21:33:38 GMT-0700 (Pacific Daylight Time)","818186","Untrustworthy,Trustworthy","html-keyboard-response","208","384567","0.0-19.0-2.23","","null","","<div class='trialDiv'><img src='trustrating_stim/white_00602_940928_fb_edt.bmp'><br><font class='baseline'><strong>Aaron</strong><p>Choose number of points to send.</font><div class='respPicDiv'><img src='img/responseButtonOffersNo0L1.png' class='respPic'></div></div>","null","8","Aaron","9","Kept","0.2,0.65","14","0.2","trustrating_stim/white_00602_940928_fb_edt.bmp","6","118","24"
"","","","feedback","5fc70f3bd255c10f0b2346ba","bdp_trlrn","Mon Mar 13 2023 21:33:38 GMT-0700 (Pacific Daylight Time)","818186","Untrustworthy,Trustworthy","html-keyboard-response","209","385573","0.0-19.0-3.23","","null","","<div class='trialDiv'><img src='trustrating_stim/white_00602_940928_fb_edt.bmp'><br><font class='baseline'><strong>Aaron</strong><p>Received: <strong>4</strong></font> &nbsp; &nbsp; &nbsp; &nbsp; &nbsp; &nbsp;<font class='negOutcome'>Shared back: <strong>0</strong></font></font><div class='respPicDiv'><img src='img/responseButtonOffersNo0_wht.png' class='respPic'></div></div>","null","8","Aaron","9","Kept","0.2,0.65","14","0.2","trustrating_stim/white_00602_940928_fb_edt.bmp","6","118","24"
"","","","decision","5fc70f3bd255c10f0b2346ba","bdp_trlrn","Mon Mar 13 2023 21:33:38 GMT-0700 (Pacific Daylight Time)","818186","Untrustworthy,Trustworthy","html-keyboard-response","210","386998","0.0-19.0-1.24","","1424","","<div class='trialDiv'><img src='trustrating_stim/white_00785_941205_fb_edt.bmp'><br><font class='baseline'><strong>Ryan</strong><p>Choose number of points to send.</font><div class='respPicDiv'><img src='img/responseButtonOffersNo0L.png' class='respPic'></div></div>","2","9","Ryan","3","Shared","0.65,0.2","11","0.65","trustrating_stim/white_00785_941205_fb_edt.bmp","1","123","25"
"","","","decisionFB","5fc70f3bd255c10f0b2346ba","bdp_trlrn","Mon Mar 13 2023 21:33:38 GMT-0700 (Pacific Daylight Time)","818186","Untrustworthy,Trustworthy","html-keyboard-response","211","387255","0.0-19.0-2.24","","null","","<div class='trialDiv'><img src='trustrating_stim/white_00785_941205_fb_edt.bmp'><br><font class='baseline'><strong>Ryan</strong><p>Choose number of points to send.</font><div class='respPicDiv'><img src='img/responseButtonOffersNo0L2.png' class='respPic'></div></div>","null","9","Ryan","3","Shared","0.65,0.2","11","0.65","trustrating_stim/white_00785_941205_fb_edt.bmp","1","121","25"
"","","","feedback","5fc70f3bd255c10f0b2346ba","bdp_trlrn","Mon Mar 13 2023 21:33:38 GMT-0700 (Pacific Daylight Time)","818186","Untrustworthy,Trustworthy","html-keyboard-response","212","388260","0.0-19.0-3.24","","null","","<div class='trialDiv'><img src='trustrating_stim/white_00785_941205_fb_edt.bmp'><br><font class='baseline'><strong>Ryan</strong><p>Received: <strong>8</strong></font> &nbsp; &nbsp; &nbsp; &nbsp; &nbsp; &nbsp;<font class='posOutcome'>Shared back: <strong>4</strong></font></font><div class='respPicDiv'><img src='img/responseButtonOffersNo0_wht.png' class='respPic'></div></div>","null","9","Ryan","3","Shared","0.65,0.2","11","0.65","trustrating_stim/white_00785_941205_fb_edt.bmp","1","125","25"
"","","","decision","5fc70f3bd255c10f0b2346ba","bdp_trlrn","Mon Mar 13 2023 21:33:38 GMT-0700 (Pacific Daylight Time)","818186","Untrustworthy,Trustworthy","html-keyboard-response","213","395707","0.0-19.0-1.25","","7445","","<div class='trialDiv'><img src='trustrating_stim/white_mw099.bmp'><br><font class='baseline'><strong>Jacob</strong><p>Choose number of points to send.</font><div class='respPicDiv'><img src='img/responseButtonOffersNo0L.png' class='respPic'></div></div>","1","9","Jacob","7","Kept","0.35,0.65","8","0.35","trustrating_stim/white_mw099.bmp","3.5","130","26"
"","","","decisionFB","5fc70f3bd255c10f0b2346ba","bdp_trlrn","Mon Mar 13 2023 21:33:38 GMT-0700 (Pacific Daylight Time)","818186","Untrustworthy,Trustworthy","html-keyboard-response","214","395958","0.0-19.0-2.25","","null","","<div class='trialDiv'><img src='trustrating_stim/white_mw099.bmp'><br><font class='baseline'><strong>Jacob</strong><p>Choose number of points to send.</font><div class='respPicDiv'><img src='img/responseButtonOffersNo0L1.png' class='respPic'></div></div>","null","9","Jacob","7","Kept","0.35,0.65","8","0.35","trustrating_stim/white_mw099.bmp","3.5","129","26"
"","","","feedback","5fc70f3bd255c10f0b2346ba","bdp_trlrn","Mon Mar 13 2023 21:33:38 GMT-0700 (Pacific Daylight Time)","818186","Untrustworthy,Trustworthy","html-keyboard-response","215","396960","0.0-19.0-3.25","","null","","<div class='trialDiv'><img src='trustrating_stim/white_mw099.bmp'><br><font class='baseline'><strong>Jacob</strong><p>Received: <strong>4</strong></font> &nbsp; &nbsp; &nbsp; &nbsp; &nbsp; &nbsp;<font class='negOutcome'>Shared back: <strong>0</strong></font></font><div class='respPicDiv'><img src='img/responseButtonOffersNo0_wht.png' class='respPic'></div></div>","null","9","Jacob","7","Kept","0.35,0.65","8","0.35","trustrating_stim/white_mw099.bmp","3.5","129","26"
"","","","decision","5fc70f3bd255c10f0b2346ba","bdp_trlrn","Mon Mar 13 2023 21:33:38 GMT-0700 (Pacific Daylight Time)","818186","Untrustworthy,Trustworthy","html-keyboard-response","216","397798","0.0-19.0-1.26","","837","","<div class='trialDiv'><img src='trustrating_stim/white_00602_940928_fb_edt.bmp'><br><font class='baseline'><strong>Aaron</strong><p>Choose number of points to send.</font><div class='respPicDiv'><img src='img/responseButtonOffersNo0L.png' class='respPic'></div></div>","2","9","Aaron","9","Kept","0.2,0.65","14","0.2","trustrating_stim/white_00602_940928_fb_edt.bmp","6","134","27"
"","","","decisionFB","5fc70f3bd255c10f0b2346ba","bdp_trlrn","Mon Mar 13 2023 21:33:38 GMT-0700 (Pacific Daylight Time)","818186","Untrustworthy,Trustworthy","html-keyboard-response","217","398051","0.0-19.0-2.26","","null","","<div class='trialDiv'><img src='trustrating_stim/white_00602_940928_fb_edt.bmp'><br><font class='baseline'><strong>Aaron</strong><p>Choose number of points to send.</font><div class='respPicDiv'><img src='img/responseButtonOffersNo0L2.png' class='respPic'></div></div>","null","9","Aaron","9","Kept","0.2,0.65","14","0.2","trustrating_stim/white_00602_940928_fb_edt.bmp","6","132","27"
"","","","feedback","5fc70f3bd255c10f0b2346ba","bdp_trlrn","Mon Mar 13 2023 21:33:38 GMT-0700 (Pacific Daylight Time)","818186","Untrustworthy,Trustworthy","html-keyboard-response","218","399056","0.0-19.0-3.26","","null","","<div class='trialDiv'><img src='trustrating_stim/white_00602_940928_fb_edt.bmp'><br><font class='baseline'><strong>Aaron</strong><p>Received: <strong>8</strong></font> &nbsp; &nbsp; &nbsp; &nbsp; &nbsp; &nbsp;<font class='negOutcome'>Shared back: <strong>0</strong></font></font><div class='respPicDiv'><img src='img/responseButtonOffersNo0_wht.png' class='respPic'></div></div>","null","9","Aaron","9","Kept","0.2,0.65","14","0.2","trustrating_stim/white_00602_940928_fb_edt.bmp","6","132","27"
"","","","decision","5fc70f3bd255c10f0b2346ba","bdp_trlrn","Mon Mar 13 2023 21:33:38 GMT-0700 (Pacific Daylight Time)","818186","Untrustworthy,Trustworthy","html-keyboard-response","219","402853","0.0-19.0-1.27","","3795","","<div class='trialDiv'><img src='trustrating_stim/white_00785_941205_fb_edt.bmp'><br><font class='baseline'><strong>Ryan</strong><p>Choose number of points to send.</font><div class='respPicDiv'><img src='img/responseButtonOffersNo0L.png' class='respPic'></div></div>","5","10","Ryan","3","Kept","0.65,0.2","11","0.65","trustrating_stim/white_00785_941205_fb_edt.bmp","1","137","28"
"","","","decisionFB","5fc70f3bd255c10f0b2346ba","bdp_trlrn","Mon Mar 13 2023 21:33:38 GMT-0700 (Pacific Daylight Time)","818186","Untrustworthy,Trustworthy","html-keyboard-response","220","403106","0.0-19.0-2.27","","null","","<div class='trialDiv'><img src='trustrating_stim/white_00785_941205_fb_edt.bmp'><br><font class='baseline'><strong>Ryan</strong><p>Choose number of points to send.</font><div class='respPicDiv'><img src='img/responseButtonOffersNo0L5.png' class='respPic'></div></div>","null","10","Ryan","3","Kept","0.65,0.2","11","0.65","trustrating_stim/white_00785_941205_fb_edt.bmp","1","132","28"
