"trial_type","trial_index","time_elapsed","internal_node_id","subject_id","task","startTime","totalTime","labels","view_history","rt","event","trial","time","trialtype","success","stimulus","key_press","aground","name","faceID","outcome","agenttype","agentswpt","agentcurrpshare","face","avgRating","point_total","round"
"pavlovia","0","4","0.0-0.0","63d89eb9781fd5479e5c175a","bdp_trlrn","Wed Mar 15 2023 21:18:13 GMT-0600 (Mountain Daylight Time)","1243476","Trustworthy,Untrustworthy","","","","","","","","","","","","","","","","","","","",""
"instructions","1","140571","0.0-1.0","63d89eb9781fd5479e5c175a","bdp_trlrn","Wed Mar 15 2023 21:18:13 GMT-0600 (Mountain Daylight Time)","1243476","Trustworthy,Untrustworthy","[{""page_index"":0,""viewing_time"":140565}]","140566","","","","","","","","","","","","","","","","","",""
"","","","","63d89eb9781fd5479e5c175a","bdp_trlrn","Wed Mar 15 2023 21:18:13 GMT-0600 (Mountain Daylight Time)","1243476","Trustworthy,Untrustworthy","","","fullscreenenter","2","144762","fullscreenenter","","","","","","","","","","","","","",""
"fullscreen","2","145663","0.0-2.0","63d89eb9781fd5479e5c175a","bdp_trlrn","Wed Mar 15 2023 21:18:13 GMT-0600 (Mountain Daylight Time)","1243476","Trustworthy,Untrustworthy","","","","","","","true","","","","","","","","","","","","",""
"instructions","3","192009","0.0-4.0","63d89eb9781fd5479e5c175a","bdp_trlrn","Wed Mar 15 2023 21:18:13 GMT-0600 (Mountain Daylight Time)","1243476","Trustworthy,Untrustworthy","[{""page_index"":0,""viewing_time"":28238},{""page_index"":1,""viewing_time"":18106}]","46344","","","","","","","","","","","","","","","","","",""
"instructions","4","193708","0.0-5.0","63d89eb9781fd5479e5c175a","bdp_trlrn","Wed Mar 15 2023 21:18:13 GMT-0600 (Mountain Daylight Time)","1243476","Trustworthy,Untrustworthy","[{""page_index"":0,""viewing_time"":1698}]","1698","","","","","","","","","","","","","","","","","",""
"image-keyboard-response","5","206822","0.0-6.0-1.0","63d89eb9781fd5479e5c175a","bdp_trlrn","Wed Mar 15 2023 21:18:13 GMT-0600 (Mountain Daylight Time)","1243476","Trustworthy,Untrustworthy","","13006","","","","rating","","trustrating_stim/white_mw035.bmp","7","","","","","","","","","","",""
"image-keyboard-response","6","207036","0.0-6.0-2.0","63d89eb9781fd5479e5c175a","bdp_trlrn","Wed Mar 15 2023 21:18:13 GMT-0600 (Mountain Daylight Time)","1243476","Trustworthy,Untrustworthy","","null","","","","ratingFB","","trustrating_stim/white_mw035.bmp","null","","","","","","","","","","",""
"image-keyboard-response","7","211886","0.0-6.0-1.1","63d89eb9781fd5479e5c175a","bdp_trlrn","Wed Mar 15 2023 21:18:13 GMT-0600 (Mountain Daylight Time)","1243476","Trustworthy,Untrustworthy","","4741","","","","rating","","trustrating_stim/white_00299_940422_fa_edt.bmp","7","","","","","","","","","","",""
"image-keyboard-response","8","212104","0.0-6.0-2.1","63d89eb9781fd5479e5c175a","bdp_trlrn","Wed Mar 15 2023 21:18:13 GMT-0600 (Mountain Daylight Time)","1243476","Trustworthy,Untrustworthy","","null","","","","ratingFB","","trustrating_stim/white_00299_940422_fa_edt.bmp","null","","","","","","","","","","",""
"image-keyboard-response","9","215299","0.0-6.0-1.2","63d89eb9781fd5479e5c175a","bdp_trlrn","Wed Mar 15 2023 21:18:13 GMT-0600 (Mountain Daylight Time)","1243476","Trustworthy,Untrustworthy","","3087","","","","rating","","trustrating_stim/white_mw053.bmp","8","","","","","","","","","","",""
"image-keyboard-response","10","215504","0.0-6.0-2.2","63d89eb9781fd5479e5c175a","bdp_trlrn","Wed Mar 15 2023 21:18:13 GMT-0600 (Mountain Daylight Time)","1243476","Trustworthy,Untrustworthy","","null","","","","ratingFB","","trustrating_stim/white_mw053.bmp","null","","","","","","","","","","",""
"image-keyboard-response","11","219606","0.0-6.0-1.3","63d89eb9781fd5479e5c175a","bdp_trlrn","Wed Mar 15 2023 21:18:13 GMT-0600 (Mountain Daylight Time)","1243476","Trustworthy,Untrustworthy","","3995","","","","rating","","trustrating_stim/white_mw063.bmp","3","","","","","","","","","","",""
"image-keyboard-response","12","219820","0.0-6.0-2.3","63d89eb9781fd5479e5c175a","bdp_trlrn","Wed Mar 15 2023 21:18:13 GMT-0600 (Mountain Daylight Time)","1243476","Trustworthy,Untrustworthy","","null","","","","ratingFB","","trustrating_stim/white_mw063.bmp","null","","","","","","","","","","",""
"image-keyboard-response","13","223318","0.0-6.0-1.4","63d89eb9781fd5479e5c175a","bdp_trlrn","Wed Mar 15 2023 21:18:13 GMT-0600 (Mountain Daylight Time)","1243476","Trustworthy,Untrustworthy","","3391","","","","rating","","trustrating_stim/white_mw048.bmp","3","","","","","","","","","","",""
"image-keyboard-response","14","223536","0.0-6.0-2.4","63d89eb9781fd5479e5c175a","bdp_trlrn","Wed Mar 15 2023 21:18:13 GMT-0600 (Mountain Daylight Time)","1243476","Trustworthy,Untrustworthy","","null","","","","ratingFB","","trustrating_stim/white_mw048.bmp","null","","","","","","","","","","",""
"image-keyboard-response","15","226725","0.0-6.0-1.5","63d89eb9781fd5479e5c175a","bdp_trlrn","Wed Mar 15 2023 21:18:13 GMT-0600 (Mountain Daylight Time)","1243476","Trustworthy,Untrustworthy","","3082","","","","rating","","trustrating_stim/white_00129_931230_fb_edt.bmp","8","","","","","","","","","","",""
"image-keyboard-response","16","226937","0.0-6.0-2.5","63d89eb9781fd5479e5c175a","bdp_trlrn","Wed Mar 15 2023 21:18:13 GMT-0600 (Mountain Daylight Time)","1243476","Trustworthy,Untrustworthy","","null","","","","ratingFB","","trustrating_stim/white_00129_931230_fb_edt.bmp","null","","","","","","","","","","",""
"image-keyboard-response","17","233543","0.0-6.0-1.6","63d89eb9781fd5479e5c175a","bdp_trlrn","Wed Mar 15 2023 21:18:13 GMT-0600 (Mountain Daylight Time)","1243476","Trustworthy,Untrustworthy","","6499","","","","rating","","trustrating_stim/white_00519_940519_fb_edt.bmp","4","","","","","","","","","","",""
"image-keyboard-response","18","233753","0.0-6.0-2.6","63d89eb9781fd5479e5c175a","bdp_trlrn","Wed Mar 15 2023 21:18:13 GMT-0600 (Mountain Daylight Time)","1243476","Trustworthy,Untrustworthy","","null","","","","ratingFB","","trustrating_stim/white_00519_940519_fb_edt.bmp","null","","","","","","","","","","",""
"image-keyboard-response","19","236083","0.0-6.0-1.7","63d89eb9781fd5479e5c175a","bdp_trlrn","Wed Mar 15 2023 21:18:13 GMT-0600 (Mountain Daylight Time)","1243476","Trustworthy,Untrustworthy","","2224","","","","rating","","trustrating_stim/white_mw071.bmp","3","","","","","","","","","","",""
"image-keyboard-response","20","236287","0.0-6.0-2.7","63d89eb9781fd5479e5c175a","bdp_trlrn","Wed Mar 15 2023 21:18:13 GMT-0600 (Mountain Daylight Time)","1243476","Trustworthy,Untrustworthy","","null","","","","ratingFB","","trustrating_stim/white_mw071.bmp","null","","","","","","","","","","",""
"image-keyboard-response","21","241688","0.0-6.0-1.8","63d89eb9781fd5479e5c175a","bdp_trlrn","Wed Mar 15 2023 21:18:13 GMT-0600 (Mountain Daylight Time)","1243476","Trustworthy,Untrustworthy","","5295","","","","rating","","trustrating_stim/white_00785_941205_fb_edt.bmp","4","","","","","","","","","","",""
"image-keyboard-response","22","241903","0.0-6.0-2.8","63d89eb9781fd5479e5c175a","bdp_trlrn","Wed Mar 15 2023 21:18:13 GMT-0600 (Mountain Daylight Time)","1243476","Trustworthy,Untrustworthy","","null","","","","ratingFB","","trustrating_stim/white_00785_941205_fb_edt.bmp","null","","","","","","","","","","",""
"image-keyboard-response","23","247598","0.0-6.0-1.9","63d89eb9781fd5479e5c175a","bdp_trlrn","Wed Mar 15 2023 21:18:13 GMT-0600 (Mountain Daylight Time)","1243476","Trustworthy,Untrustworthy","","5588","","","","rating","","trustrating_stim/white_00761_941201_fb_edt.bmp","5","","","","","","","","","","",""
"image-keyboard-response","24","247801","0.0-6.0-2.9","63d89eb9781fd5479e5c175a","bdp_trlrn","Wed Mar 15 2023 21:18:13 GMT-0600 (Mountain Daylight Time)","1243476","Trustworthy,Untrustworthy","","null","","","","ratingFB","","trustrating_stim/white_00761_941201_fb_edt.bmp","null","","","","","","","","","","",""
"image-keyboard-response","25","253985","0.0-6.0-1.10","63d89eb9781fd5479e5c175a","bdp_trlrn","Wed Mar 15 2023 21:18:13 GMT-0600 (Mountain Daylight Time)","1243476","Trustworthy,Untrustworthy","","6077","","","","rating","","trustrating_stim/white_00807_941205_fb_edt.bmp","6","","","","","","","","","","",""
"image-keyboard-response","26","254199","0.0-6.0-2.10","63d89eb9781fd5479e5c175a","bdp_trlrn","Wed Mar 15 2023 21:18:13 GMT-0600 (Mountain Daylight Time)","1243476","Trustworthy,Untrustworthy","","null","","","","ratingFB","","trustrating_stim/white_00807_941205_fb_edt.bmp","null","","","","","","","","","","",""
"image-keyboard-response","27","258600","0.0-6.0-1.11","63d89eb9781fd5479e5c175a","bdp_trlrn","Wed Mar 15 2023 21:18:13 GMT-0600 (Mountain Daylight Time)","1243476","Trustworthy,Untrustworthy","","4291","","","","rating","","trustrating_stim/white_mw099.bmp","4","","","","","","","","","","",""
"image-keyboard-response","28","258816","0.0-6.0-2.11","63d89eb9781fd5479e5c175a","bdp_trlrn","Wed Mar 15 2023 21:18:13 GMT-0600 (Mountain Daylight Time)","1243476","Trustworthy,Untrustworthy","","null","","","","ratingFB","","trustrating_stim/white_mw099.bmp","null","","","","","","","","","","",""
"image-keyboard-response","29","263045","0.0-6.0-1.12","63d89eb9781fd5479e5c175a","bdp_trlrn","Wed Mar 15 2023 21:18:13 GMT-0600 (Mountain Daylight Time)","1243476","Trustworthy,Untrustworthy","","4122","","","","rating","","trustrating_stim/white_00340_940422_fa_edt.bmp","5","","","","","","","","","","",""
"image-keyboard-response","30","263250","0.0-6.0-2.12","63d89eb9781fd5479e5c175a","bdp_trlrn","Wed Mar 15 2023 21:18:13 GMT-0600 (Mountain Daylight Time)","1243476","Trustworthy,Untrustworthy","","null","","","","ratingFB","","trustrating_stim/white_00340_940422_fa_edt.bmp","null","","","","","","","","","","",""
"image-keyboard-response","31","266439","0.0-6.0-1.13","63d89eb9781fd5479e5c175a","bdp_trlrn","Wed Mar 15 2023 21:18:13 GMT-0600 (Mountain Daylight Time)","1243476","Trustworthy,Untrustworthy","","3081","","","","rating","","trustrating_stim/white_00602_940928_fb_edt.bmp","8","","","","","","","","","","",""
"image-keyboard-response","32","266650","0.0-6.0-2.13","63d89eb9781fd5479e5c175a","bdp_trlrn","Wed Mar 15 2023 21:18:13 GMT-0600 (Mountain Daylight Time)","1243476","Trustworthy,Untrustworthy","","null","","","","ratingFB","","trustrating_stim/white_00602_940928_fb_edt.bmp","null","","","","","","","","","","",""
"image-keyboard-response","33","268661","0.0-6.0-1.14","63d89eb9781fd5479e5c175a","bdp_trlrn","Wed Mar 15 2023 21:18:13 GMT-0600 (Mountain Daylight Time)","1243476","Trustworthy,Untrustworthy","","1904","","","","rating","","trustrating_stim/white_mw066.bmp","7","","","","","","","","","","",""
"image-keyboard-response","34","268866","0.0-6.0-2.14","63d89eb9781fd5479e5c175a","bdp_trlrn","Wed Mar 15 2023 21:18:13 GMT-0600 (Mountain Daylight Time)","1243476","Trustworthy,Untrustworthy","","null","","","","ratingFB","","trustrating_stim/white_mw066.bmp","null","","","","","","","","","","",""
"image-keyboard-response","35","271587","0.0-6.0-1.15","63d89eb9781fd5479e5c175a","bdp_trlrn","Wed Mar 15 2023 21:18:13 GMT-0600 (Mountain Daylight Time)","1243476","Trustworthy,Untrustworthy","","2615","","","","rating","","trustrating_stim/white_00898_960530_fa_edt.bmp","7","","","","","","","","","","",""
"image-keyboard-response","36","271798","0.0-6.0-2.15","63d89eb9781fd5479e5c175a","bdp_trlrn","Wed Mar 15 2023 21:18:13 GMT-0600 (Mountain Daylight Time)","1243476","Trustworthy,Untrustworthy","","null","","","","ratingFB","","trustrating_stim/white_00898_960530_fa_edt.bmp","null","","","","","","","","","","",""
"image-keyboard-response","37","277157","0.0-6.0-1.16","63d89eb9781fd5479e5c175a","bdp_trlrn","Wed Mar 15 2023 21:18:13 GMT-0600 (Mountain Daylight Time)","1243476","Trustworthy,Untrustworthy","","5252","","","","rating","","trustrating_stim/white_mw056.bmp","5","","","","","","","","","","",""
"image-keyboard-response","38","277365","0.0-6.0-2.16","63d89eb9781fd5479e5c175a","bdp_trlrn","Wed Mar 15 2023 21:18:13 GMT-0600 (Mountain Daylight Time)","1243476","Trustworthy,Untrustworthy","","null","","","","ratingFB","","trustrating_stim/white_mw056.bmp","null","","","","","","","","","","",""
"image-keyboard-response","39","279282","0.0-6.0-1.17","63d89eb9781fd5479e5c175a","bdp_trlrn","Wed Mar 15 2023 21:18:13 GMT-0600 (Mountain Daylight Time)","1243476","Trustworthy,Untrustworthy","","1810","","","","rating","","trustrating_stim/white_mw049.bmp","8","","","","","","","","","","",""
"image-keyboard-response","40","279497","0.0-6.0-2.17","63d89eb9781fd5479e5c175a","bdp_trlrn","Wed Mar 15 2023 21:18:13 GMT-0600 (Mountain Daylight Time)","1243476","Trustworthy,Untrustworthy","","null","","","","ratingFB","","trustrating_stim/white_mw049.bmp","null","","","","","","","","","","",""
"image-keyboard-response","41","283648","0.0-6.0-1.18","63d89eb9781fd5479e5c175a","bdp_trlrn","Wed Mar 15 2023 21:18:13 GMT-0600 (Mountain Daylight Time)","1243476","Trustworthy,Untrustworthy","","4043","","","","rating","","trustrating_stim/white_mw084.bmp","8","","","","","","","","","","",""
"image-keyboard-response","42","283863","0.0-6.0-2.18","63d89eb9781fd5479e5c175a","bdp_trlrn","Wed Mar 15 2023 21:18:13 GMT-0600 (Mountain Daylight Time)","1243476","Trustworthy,Untrustworthy","","null","","","","ratingFB","","trustrating_stim/white_mw084.bmp","null","","","","","","","","","","",""
"image-keyboard-response","43","285404","0.0-6.0-1.19","63d89eb9781fd5479e5c175a","bdp_trlrn","Wed Mar 15 2023 21:18:13 GMT-0600 (Mountain Daylight Time)","1243476","Trustworthy,Untrustworthy","","1433","","","","rating","","trustrating_stim/white_00120_931230_fa_edt.bmp","8","","","","","","","","","","",""
"image-keyboard-response","44","285614","0.0-6.0-2.19","63d89eb9781fd5479e5c175a","bdp_trlrn","Wed Mar 15 2023 21:18:13 GMT-0600 (Mountain Daylight Time)","1243476","Trustworthy,Untrustworthy","","null","","","","ratingFB","","trustrating_stim/white_00120_931230_fa_edt.bmp","null","","","","","","","","","","",""
"image-keyboard-response","45","287791","0.0-6.0-1.20","63d89eb9781fd5479e5c175a","bdp_trlrn","Wed Mar 15 2023 21:18:13 GMT-0600 (Mountain Daylight Time)","1243476","Trustworthy,Untrustworthy","","2070","","","","rating","","trustrating_stim/white_00659_941121_fa_edt.bmp","4","","","","","","","","","","",""
"image-keyboard-response","46","287998","0.0-6.0-2.20","63d89eb9781fd5479e5c175a","bdp_trlrn","Wed Mar 15 2023 21:18:13 GMT-0600 (Mountain Daylight Time)","1243476","Trustworthy,Untrustworthy","","null","","","","ratingFB","","trustrating_stim/white_00659_941121_fa_edt.bmp","null","","","","","","","","","","",""
"image-keyboard-response","47","290625","0.0-6.0-1.21","63d89eb9781fd5479e5c175a","bdp_trlrn","Wed Mar 15 2023 21:18:13 GMT-0600 (Mountain Daylight Time)","1243476","Trustworthy,Untrustworthy","","2520","","","","rating","","trustrating_stim/white_mw033.bmp","7","","","","","","","","","","",""
"image-keyboard-response","48","290831","0.0-6.0-2.21","63d89eb9781fd5479e5c175a","bdp_trlrn","Wed Mar 15 2023 21:18:13 GMT-0600 (Mountain Daylight Time)","1243476","Trustworthy,Untrustworthy","","null","","","","ratingFB","","trustrating_stim/white_mw033.bmp","null","","","","","","","","","","",""
"image-keyboard-response","49","295201","0.0-6.0-1.22","63d89eb9781fd5479e5c175a","bdp_trlrn","Wed Mar 15 2023 21:18:13 GMT-0600 (Mountain Daylight Time)","1243476","Trustworthy,Untrustworthy","","4263","","","","rating","","trustrating_stim/white_mw060.bmp","4","","","","","","","","","","",""
"image-keyboard-response","50","295412","0.0-6.0-2.22","63d89eb9781fd5479e5c175a","bdp_trlrn","Wed Mar 15 2023 21:18:13 GMT-0600 (Mountain Daylight Time)","1243476","Trustworthy,Untrustworthy","","null","","","","ratingFB","","trustrating_stim/white_mw060.bmp","null","","","","","","","","","","",""
"image-keyboard-response","51","303145","0.0-6.0-1.23","63d89eb9781fd5479e5c175a","bdp_trlrn","Wed Mar 15 2023 21:18:13 GMT-0600 (Mountain Daylight Time)","1243476","Trustworthy,Untrustworthy","","7623","","","","rating","","trustrating_stim/white_00577_940928_fa_edt.bmp","4","","","","","","","","","","",""
"image-keyboard-response","52","303361","0.0-6.0-2.23","63d89eb9781fd5479e5c175a","bdp_trlrn","Wed Mar 15 2023 21:18:13 GMT-0600 (Mountain Daylight Time)","1243476","Trustworthy,Untrustworthy","","null","","","","ratingFB","","trustrating_stim/white_00577_940928_fa_edt.bmp","null","","","","","","","","","","",""
"image-keyboard-response","53","305475","0.0-6.0-1.24","63d89eb9781fd5479e5c175a","bdp_trlrn","Wed Mar 15 2023 21:18:13 GMT-0600 (Mountain Daylight Time)","1243476","Trustworthy,Untrustworthy","","2006","","","","rating","","trustrating_stim/white_00109_931230_fa_edt.bmp","7","","","","","","","","","","",""
"image-keyboard-response","54","305679","0.0-6.0-2.24","63d89eb9781fd5479e5c175a","bdp_trlrn","Wed Mar 15 2023 21:18:13 GMT-0600 (Mountain Daylight Time)","1243476","Trustworthy,Untrustworthy","","null","","","","ratingFB","","trustrating_stim/white_00109_931230_fa_edt.bmp","null","","","","","","","","","","",""
"image-keyboard-response","55","311899","0.0-6.0-1.25","63d89eb9781fd5479e5c175a","bdp_trlrn","Wed Mar 15 2023 21:18:13 GMT-0600 (Mountain Daylight Time)","1243476","Trustworthy,Untrustworthy","","6112","","","","rating","","trustrating_stim/white_00223_940128_fb_edt.bmp","3","","","","","","","","","","",""
"image-keyboard-response","56","312111","0.0-6.0-2.25","63d89eb9781fd5479e5c175a","bdp_trlrn","Wed Mar 15 2023 21:18:13 GMT-0600 (Mountain Daylight Time)","1243476","Trustworthy,Untrustworthy","","null","","","","ratingFB","","trustrating_stim/white_00223_940128_fb_edt.bmp","null","","","","","","","","","","",""
"image-keyboard-response","57","314733","0.0-6.0-1.26","63d89eb9781fd5479e5c175a","bdp_trlrn","Wed Mar 15 2023 21:18:13 GMT-0600 (Mountain Daylight Time)","1243476","Trustworthy,Untrustworthy","","2514","","","","rating","","trustrating_stim/white_mw046.bmp","7","","","","","","","","","","",""
"image-keyboard-response","58","314945","0.0-6.0-2.26","63d89eb9781fd5479e5c175a","bdp_trlrn","Wed Mar 15 2023 21:18:13 GMT-0600 (Mountain Daylight Time)","1243476","Trustworthy,Untrustworthy","","null","","","","ratingFB","","trustrating_stim/white_mw046.bmp","null","","","","","","","","","","",""
"image-keyboard-response","59","319250","0.0-6.0-1.27","63d89eb9781fd5479e5c175a","bdp_trlrn","Wed Mar 15 2023 21:18:13 GMT-0600 (Mountain Daylight Time)","1243476","Trustworthy,Untrustworthy","","4199","","","","rating","","trustrating_stim/white_00757_941201_fa_edt.bmp","4","","","","","","","","","","",""
"image-keyboard-response","60","319461","0.0-6.0-2.27","63d89eb9781fd5479e5c175a","bdp_trlrn","Wed Mar 15 2023 21:18:13 GMT-0600 (Mountain Daylight Time)","1243476","Trustworthy,Untrustworthy","","null","","","","ratingFB","","trustrating_stim/white_00757_941201_fa_edt.bmp","null","","","","","","","","","","",""
"image-keyboard-response","61","324447","0.0-6.0-1.28","63d89eb9781fd5479e5c175a","bdp_trlrn","Wed Mar 15 2023 21:18:13 GMT-0600 (Mountain Daylight Time)","1243476","Trustworthy,Untrustworthy","","4878","","","","rating","","trustrating_stim/white_mw097.bmp","3","","","","","","","","","","",""
"image-keyboard-response","62","324659","0.0-6.0-2.28","63d89eb9781fd5479e5c175a","bdp_trlrn","Wed Mar 15 2023 21:18:13 GMT-0600 (Mountain Daylight Time)","1243476","Trustworthy,Untrustworthy","","null","","","","ratingFB","","trustrating_stim/white_mw097.bmp","null","","","","","","","","","","",""
"image-keyboard-response","63","328891","0.0-6.0-1.29","63d89eb9781fd5479e5c175a","bdp_trlrn","Wed Mar 15 2023 21:18:13 GMT-0600 (Mountain Daylight Time)","1243476","Trustworthy,Untrustworthy","","4123","","","","rating","","trustrating_stim/white_mw089.bmp","7","","","","","","","","","","",""
"image-keyboard-response","64","329102","0.0-6.0-2.29","63d89eb9781fd5479e5c175a","bdp_trlrn","Wed Mar 15 2023 21:18:13 GMT-0600 (Mountain Daylight Time)","1243476","Trustworthy,Untrustworthy","","null","","","","ratingFB","","trustrating_stim/white_mw089.bmp","null","","","","","","","","","","",""
"image-keyboard-response","65","333268","0.0-6.0-1.30","63d89eb9781fd5479e5c175a","bdp_trlrn","Wed Mar 15 2023 21:18:13 GMT-0600 (Mountain Daylight Time)","1243476","Trustworthy,Untrustworthy","","4062","","","","rating","","trustrating_stim/white_00519_940519_fb_edt.bmp","6","","","","","","","","","","",""
"image-keyboard-response","66","333482","0.0-6.0-2.30","63d89eb9781fd5479e5c175a","bdp_trlrn","Wed Mar 15 2023 21:18:13 GMT-0600 (Mountain Daylight Time)","1243476","Trustworthy,Untrustworthy","","null","","","","ratingFB","","trustrating_stim/white_00519_940519_fb_edt.bmp","null","","","","","","","","","","",""
"image-keyboard-response","67","338232","0.0-6.0-1.31","63d89eb9781fd5479e5c175a","bdp_trlrn","Wed Mar 15 2023 21:18:13 GMT-0600 (Mountain Daylight Time)","1243476","Trustworthy,Untrustworthy","","4643","","","","rating","","trustrating_stim/white_mw066.bmp","7","","","","","","","","","","",""
"image-keyboard-response","68","338447","0.0-6.0-2.31","63d89eb9781fd5479e5c175a","bdp_trlrn","Wed Mar 15 2023 21:18:13 GMT-0600 (Mountain Daylight Time)","1243476","Trustworthy,Untrustworthy","","null","","","","ratingFB","","trustrating_stim/white_mw066.bmp","null","","","","","","","","","","",""
"image-keyboard-response","69","342350","0.0-6.0-1.32","63d89eb9781fd5479e5c175a","bdp_trlrn","Wed Mar 15 2023 21:18:13 GMT-0600 (Mountain Daylight Time)","1243476","Trustworthy,Untrustworthy","","3795","","","","rating","","trustrating_stim/white_mw056.bmp","6","","","","","","","","","","",""
"image-keyboard-response","70","342563","0.0-6.0-2.32","63d89eb9781fd5479e5c175a","bdp_trlrn","Wed Mar 15 2023 21:18:13 GMT-0600 (Mountain Daylight Time)","1243476","Trustworthy,Untrustworthy","","null","","","","ratingFB","","trustrating_stim/white_mw056.bmp","null","","","","","","","","","","",""
"image-keyboard-response","71","343861","0.0-6.0-1.33","63d89eb9781fd5479e5c175a","bdp_trlrn","Wed Mar 15 2023 21:18:13 GMT-0600 (Mountain Daylight Time)","1243476","Trustworthy,Untrustworthy","","1190","","","","rating","","trustrating_stim/white_mw053.bmp","7","","","","","","","","","","",""
"image-keyboard-response","72","344065","0.0-6.0-2.33","63d89eb9781fd5479e5c175a","bdp_trlrn","Wed Mar 15 2023 21:18:13 GMT-0600 (Mountain Daylight Time)","1243476","Trustworthy,Untrustworthy","","null","","","","ratingFB","","trustrating_stim/white_mw053.bmp","null","","","","","","","","","","",""
"image-keyboard-response","73","346214","0.0-6.0-1.34","63d89eb9781fd5479e5c175a","bdp_trlrn","Wed Mar 15 2023 21:18:13 GMT-0600 (Mountain Daylight Time)","1243476","Trustworthy,Untrustworthy","","2043","","","","rating","","trustrating_stim/white_mw048.bmp","4","","","","","","","","","","",""
"image-keyboard-response","74","346431","0.0-6.0-2.34","63d89eb9781fd5479e5c175a","bdp_trlrn","Wed Mar 15 2023 21:18:13 GMT-0600 (Mountain Daylight Time)","1243476","Trustworthy,Untrustworthy","","null","","","","ratingFB","","trustrating_stim/white_mw048.bmp","null","","","","","","","","","","",""
"image-keyboard-response","75","350656","0.0-6.0-1.35","63d89eb9781fd5479e5c175a","bdp_trlrn","Wed Mar 15 2023 21:18:13 GMT-0600 (Mountain Daylight Time)","1243476","Trustworthy,Untrustworthy","","4118","","","","rating","","trustrating_stim/white_mw099.bmp","5","","","","","","","","","","",""
"image-keyboard-response","76","350865","0.0-6.0-2.35","63d89eb9781fd5479e5c175a","bdp_trlrn","Wed Mar 15 2023 21:18:13 GMT-0600 (Mountain Daylight Time)","1243476","Trustworthy,Untrustworthy","","null","","","","ratingFB","","trustrating_stim/white_mw099.bmp","null","","","","","","","","","","",""
"image-keyboard-response","77","352291","0.0-6.0-1.36","63d89eb9781fd5479e5c175a","bdp_trlrn","Wed Mar 15 2023 21:18:13 GMT-0600 (Mountain Daylight Time)","1243476","Trustworthy,Untrustworthy","","1320","","","","rating","","trustrating_stim/white_mw063.bmp","3","","","","","","","","","","",""
"image-keyboard-response","78","352497","0.0-6.0-2.36","63d89eb9781fd5479e5c175a","bdp_trlrn","Wed Mar 15 2023 21:18:13 GMT-0600 (Mountain Daylight Time)","1243476","Trustworthy,Untrustworthy","","null","","","","ratingFB","","trustrating_stim/white_mw063.bmp","null","","","","","","","","","","",""
"image-keyboard-response","79","355273","0.0-6.0-1.37","63d89eb9781fd5479e5c175a","bdp_trlrn","Wed Mar 15 2023 21:18:13 GMT-0600 (Mountain Daylight Time)","1243476","Trustworthy,Untrustworthy","","2667","","","","rating","","trustrating_stim/white_00659_941121_fa_edt.bmp","3","","","","","","","","","","",""
"image-keyboard-response","80","355482","0.0-6.0-2.37","63d89eb9781fd5479e5c175a","bdp_trlrn","Wed Mar 15 2023 21:18:13 GMT-0600 (Mountain Daylight Time)","1243476","Trustworthy,Untrustworthy","","null","","","","ratingFB","","trustrating_stim/white_00659_941121_fa_edt.bmp","null","","","","","","","","","","",""
"image-keyboard-response","81","357286","0.0-6.0-1.38","63d89eb9781fd5479e5c175a","bdp_trlrn","Wed Mar 15 2023 21:18:13 GMT-0600 (Mountain Daylight Time)","1243476","Trustworthy,Untrustworthy","","1697","","","","rating","","trustrating_stim/white_00299_940422_fa_edt.bmp","6","","","","","","","","","","",""
"image-keyboard-response","82","357496","0.0-6.0-2.38","63d89eb9781fd5479e5c175a","bdp_trlrn","Wed Mar 15 2023 21:18:13 GMT-0600 (Mountain Daylight Time)","1243476","Trustworthy,Untrustworthy","","null","","","","ratingFB","","trustrating_stim/white_00299_940422_fa_edt.bmp","null","","","","","","","","","","",""
"image-keyboard-response","83","360375","0.0-6.0-1.39","63d89eb9781fd5479e5c175a","bdp_trlrn","Wed Mar 15 2023 21:18:13 GMT-0600 (Mountain Daylight Time)","1243476","Trustworthy,Untrustworthy","","2771","","","","rating","","trustrating_stim/white_00120_931230_fa_edt.bmp","8","","","","","","","","","","",""
"image-keyboard-response","84","360583","0.0-6.0-2.39","63d89eb9781fd5479e5c175a","bdp_trlrn","Wed Mar 15 2023 21:18:13 GMT-0600 (Mountain Daylight Time)","1243476","Trustworthy,Untrustworthy","","null","","","","ratingFB","","trustrating_stim/white_00120_931230_fa_edt.bmp","null","","","","","","","","","","",""
"image-keyboard-response","85","362505","0.0-6.0-1.40","63d89eb9781fd5479e5c175a","bdp_trlrn","Wed Mar 15 2023 21:18:13 GMT-0600 (Mountain Daylight Time)","1243476","Trustworthy,Untrustworthy","","1813","","","","rating","","trustrating_stim/white_00757_941201_fa_edt.bmp","4","","","","","","","","","","",""
"image-keyboard-response","86","362714","0.0-6.0-2.40","63d89eb9781fd5479e5c175a","bdp_trlrn","Wed Mar 15 2023 21:18:13 GMT-0600 (Mountain Daylight Time)","1243476","Trustworthy,Untrustworthy","","null","","","","ratingFB","","trustrating_stim/white_00757_941201_fa_edt.bmp","null","","","","","","","","","","",""
"image-keyboard-response","87","364739","0.0-6.0-1.41","63d89eb9781fd5479e5c175a","bdp_trlrn","Wed Mar 15 2023 21:18:13 GMT-0600 (Mountain Daylight Time)","1243476","Trustworthy,Untrustworthy","","1918","","","","rating","","trustrating_stim/white_mw060.bmp","5","","","","","","","","","","",""
"image-keyboard-response","88","364948","0.0-6.0-2.41","63d89eb9781fd5479e5c175a","bdp_trlrn","Wed Mar 15 2023 21:18:13 GMT-0600 (Mountain Daylight Time)","1243476","Trustworthy,Untrustworthy","","null","","","","ratingFB","","trustrating_stim/white_mw060.bmp","null","","","","","","","","","","",""
"image-keyboard-response","89","367004","0.0-6.0-1.42","63d89eb9781fd5479e5c175a","bdp_trlrn","Wed Mar 15 2023 21:18:13 GMT-0600 (Mountain Daylight Time)","1243476","Trustworthy,Untrustworthy","","1950","","","","rating","","trustrating_stim/white_mw084.bmp","6","","","","","","","","","","",""
"image-keyboard-response","90","367212","0.0-6.0-2.42","63d89eb9781fd5479e5c175a","bdp_trlrn","Wed Mar 15 2023 21:18:13 GMT-0600 (Mountain Daylight Time)","1243476","Trustworthy,Untrustworthy","","null","","","","ratingFB","","trustrating_stim/white_mw084.bmp","null","","","","","","","","","","",""
"image-keyboard-response","91","369727","0.0-6.0-1.43","63d89eb9781fd5479e5c175a","bdp_trlrn","Wed Mar 15 2023 21:18:13 GMT-0600 (Mountain Daylight Time)","1243476","Trustworthy,Untrustworthy","","2406","","","","rating","","trustrating_stim/white_00340_940422_fa_edt.bmp","4","","","","","","","","","","",""
"image-keyboard-response","92","369945","0.0-6.0-2.43","63d89eb9781fd5479e5c175a","bdp_trlrn","Wed Mar 15 2023 21:18:13 GMT-0600 (Mountain Daylight Time)","1243476","Trustworthy,Untrustworthy","","null","","","","ratingFB","","trustrating_stim/white_00340_940422_fa_edt.bmp","null","","","","","","","","","","",""
"image-keyboard-response","93","373009","0.0-6.0-1.44","63d89eb9781fd5479e5c175a","bdp_trlrn","Wed Mar 15 2023 21:18:13 GMT-0600 (Mountain Daylight Time)","1243476","Trustworthy,Untrustworthy","","2955","","","","rating","","trustrating_stim/white_mw035.bmp","6","","","","","","","","","","",""
"image-keyboard-response","94","373214","0.0-6.0-2.44","63d89eb9781fd5479e5c175a","bdp_trlrn","Wed Mar 15 2023 21:18:13 GMT-0600 (Mountain Daylight Time)","1243476","Trustworthy,Untrustworthy","","null","","","","ratingFB","","trustrating_stim/white_mw035.bmp","null","","","","","","","","","","",""
"image-keyboard-response","95","374715","0.0-6.0-1.45","63d89eb9781fd5479e5c175a","bdp_trlrn","Wed Mar 15 2023 21:18:13 GMT-0600 (Mountain Daylight Time)","1243476","Trustworthy,Untrustworthy","","1396","","","","rating","","trustrating_stim/white_mw097.bmp","3","","","","","","","","","","",""
"image-keyboard-response","96","374928","0.0-6.0-2.45","63d89eb9781fd5479e5c175a","bdp_trlrn","Wed Mar 15 2023 21:18:13 GMT-0600 (Mountain Daylight Time)","1243476","Trustworthy,Untrustworthy","","null","","","","ratingFB","","trustrating_stim/white_mw097.bmp","null","","","","","","","","","","",""
"image-keyboard-response","97","378607","0.0-6.0-1.46","63d89eb9781fd5479e5c175a","bdp_trlrn","Wed Mar 15 2023 21:18:13 GMT-0600 (Mountain Daylight Time)","1243476","Trustworthy,Untrustworthy","","3571","","","","rating","","trustrating_stim/white_00785_941205_fb_edt.bmp","4","","","","","","","","","","",""
"image-keyboard-response","98","378812","0.0-6.0-2.46","63d89eb9781fd5479e5c175a","bdp_trlrn","Wed Mar 15 2023 21:18:13 GMT-0600 (Mountain Daylight Time)","1243476","Trustworthy,Untrustworthy","","null","","","","ratingFB","","trustrating_stim/white_00785_941205_fb_edt.bmp","null","","","","","","","","","","",""
"image-keyboard-response","99","380351","0.0-6.0-1.47","63d89eb9781fd5479e5c175a","bdp_trlrn","Wed Mar 15 2023 21:18:13 GMT-0600 (Mountain Daylight Time)","1243476","Trustworthy,Untrustworthy","","1431","","","","rating","","trustrating_stim/white_mw089.bmp","7","","","","","","","","","","",""
"image-keyboard-response","100","380563","0.0-6.0-2.47","63d89eb9781fd5479e5c175a","bdp_trlrn","Wed Mar 15 2023 21:18:13 GMT-0600 (Mountain Daylight Time)","1243476","Trustworthy,Untrustworthy","","null","","","","ratingFB","","trustrating_stim/white_mw089.bmp","null","","","","","","","","","","",""
"image-keyboard-response","101","381953","0.0-6.0-1.48","63d89eb9781fd5479e5c175a","bdp_trlrn","Wed Mar 15 2023 21:18:13 GMT-0600 (Mountain Daylight Time)","1243476","Trustworthy,Untrustworthy","","1283","","","","rating","","trustrating_stim/white_00223_940128_fb_edt.bmp","4","","","","","","","","","","",""
"image-keyboard-response","102","382162","0.0-6.0-2.48","63d89eb9781fd5479e5c175a","bdp_trlrn","Wed Mar 15 2023 21:18:13 GMT-0600 (Mountain Daylight Time)","1243476","Trustworthy,Untrustworthy","","null","","","","ratingFB","","trustrating_stim/white_00223_940128_fb_edt.bmp","null","","","","","","","","","","",""
"image-keyboard-response","103","383996","0.0-6.0-1.49","63d89eb9781fd5479e5c175a","bdp_trlrn","Wed Mar 15 2023 21:18:13 GMT-0600 (Mountain Daylight Time)","1243476","Trustworthy,Untrustworthy","","1727","","","","rating","","trustrating_stim/white_00602_940928_fb_edt.bmp","8","","","","","","","","","","",""
"image-keyboard-response","104","384211","0.0-6.0-2.49","63d89eb9781fd5479e5c175a","bdp_trlrn","Wed Mar 15 2023 21:18:13 GMT-0600 (Mountain Daylight Time)","1243476","Trustworthy,Untrustworthy","","null","","","","ratingFB","","trustrating_stim/white_00602_940928_fb_edt.bmp","null","","","","","","","","","","",""
"image-keyboard-response","105","386288","0.0-6.0-1.50","63d89eb9781fd5479e5c175a","bdp_trlrn","Wed Mar 15 2023 21:18:13 GMT-0600 (Mountain Daylight Time)","1243476","Trustworthy,Untrustworthy","","1968","","","","rating","","trustrating_stim/white_00761_941201_fb_edt.bmp","4","","","","","","","","","","",""
"image-keyboard-response","106","386495","0.0-6.0-2.50","63d89eb9781fd5479e5c175a","bdp_trlrn","Wed Mar 15 2023 21:18:13 GMT-0600 (Mountain Daylight Time)","1243476","Trustworthy,Untrustworthy","","null","","","","ratingFB","","trustrating_stim/white_00761_941201_fb_edt.bmp","null","","","","","","","","","","",""
"image-keyboard-response","107","389346","0.0-6.0-1.51","63d89eb9781fd5479e5c175a","bdp_trlrn","Wed Mar 15 2023 21:18:13 GMT-0600 (Mountain Daylight Time)","1243476","Trustworthy,Untrustworthy","","2744","","","","rating","","trustrating_stim/white_mw033.bmp","7","","","","","","","","","","",""
"image-keyboard-response","108","389559","0.0-6.0-2.51","63d89eb9781fd5479e5c175a","bdp_trlrn","Wed Mar 15 2023 21:18:13 GMT-0600 (Mountain Daylight Time)","1243476","Trustworthy,Untrustworthy","","null","","","","ratingFB","","trustrating_stim/white_mw033.bmp","null","","","","","","","","","","",""
"image-keyboard-response","109","392237","0.0-6.0-1.52","63d89eb9781fd5479e5c175a","bdp_trlrn","Wed Mar 15 2023 21:18:13 GMT-0600 (Mountain Daylight Time)","1243476","Trustworthy,Untrustworthy","","2550","","","","rating","","trustrating_stim/white_mw049.bmp","6","","","","","","","","","","",""
"image-keyboard-response","110","392444","0.0-6.0-2.52","63d89eb9781fd5479e5c175a","bdp_trlrn","Wed Mar 15 2023 21:18:13 GMT-0600 (Mountain Daylight Time)","1243476","Trustworthy,Untrustworthy","","null","","","","ratingFB","","trustrating_stim/white_mw049.bmp","null","","","","","","","","","","",""
"image-keyboard-response","111","395143","0.0-6.0-1.53","63d89eb9781fd5479e5c175a","bdp_trlrn","Wed Mar 15 2023 21:18:13 GMT-0600 (Mountain Daylight Time)","1243476","Trustworthy,Untrustworthy","","2592","","","","rating","","trustrating_stim/white_00807_941205_fb_edt.bmp","4","","","","","","","","","","",""
"image-keyboard-response","112","395359","0.0-6.0-2.53","63d89eb9781fd5479e5c175a","bdp_trlrn","Wed Mar 15 2023 21:18:13 GMT-0600 (Mountain Daylight Time)","1243476","Trustworthy,Untrustworthy","","null","","","","ratingFB","","trustrating_stim/white_00807_941205_fb_edt.bmp","null","","","","","","","","","","",""
"image-keyboard-response","113","396984","0.0-6.0-1.54","63d89eb9781fd5479e5c175a","bdp_trlrn","Wed Mar 15 2023 21:18:13 GMT-0600 (Mountain Daylight Time)","1243476","Trustworthy,Untrustworthy","","1515","","","","rating","","trustrating_stim/white_00129_931230_fb_edt.bmp","7","","","","","","","","","","",""
"image-keyboard-response","114","397193","0.0-6.0-2.54","63d89eb9781fd5479e5c175a","bdp_trlrn","Wed Mar 15 2023 21:18:13 GMT-0600 (Mountain Daylight Time)","1243476","Trustworthy,Untrustworthy","","null","","","","ratingFB","","trustrating_stim/white_00129_931230_fb_edt.bmp","null","","","","","","","","","","",""
"image-keyboard-response","115","399159","0.0-6.0-1.55","63d89eb9781fd5479e5c175a","bdp_trlrn","Wed Mar 15 2023 21:18:13 GMT-0600 (Mountain Daylight Time)","1243476","Trustworthy,Untrustworthy","","1858","","","","rating","","trustrating_stim/white_00577_940928_fa_edt.bmp","3","","","","","","","","","","",""
"image-keyboard-response","116","399375","0.0-6.0-2.55","63d89eb9781fd5479e5c175a","bdp_trlrn","Wed Mar 15 2023 21:18:13 GMT-0600 (Mountain Daylight Time)","1243476","Trustworthy,Untrustworthy","","null","","","","ratingFB","","trustrating_stim/white_00577_940928_fa_edt.bmp","null","","","","","","","","","","",""
"image-keyboard-response","117","402594","0.0-6.0-1.56","63d89eb9781fd5479e5c175a","bdp_trlrn","Wed Mar 15 2023 21:18:13 GMT-0600 (Mountain Daylight Time)","1243476","Trustworthy,Untrustworthy","","3110","","","","rating","","trustrating_stim/white_00898_960530_fa_edt.bmp","7","","","","","","","","","","",""
"image-keyboard-response","118","402808","0.0-6.0-2.56","63d89eb9781fd5479e5c175a","bdp_trlrn","Wed Mar 15 2023 21:18:13 GMT-0600 (Mountain Daylight Time)","1243476","Trustworthy,Untrustworthy","","null","","","","ratingFB","","trustrating_stim/white_00898_960530_fa_edt.bmp","null","","","","","","","","","","",""
"image-keyboard-response","119","411888","0.0-6.0-1.57","63d89eb9781fd5479e5c175a","bdp_trlrn","Wed Mar 15 2023 21:18:13 GMT-0600 (Mountain Daylight Time)","1243476","Trustworthy,Untrustworthy","","8971","","","","rating","","trustrating_stim/white_mw046.bmp","6","","","","","","","","","","",""
"image-keyboard-response","120","412092","0.0-6.0-2.57","63d89eb9781fd5479e5c175a","bdp_trlrn","Wed Mar 15 2023 21:18:13 GMT-0600 (Mountain Daylight Time)","1243476","Trustworthy,Untrustworthy","","null","","","","ratingFB","","trustrating_stim/white_mw046.bmp","null","","","","","","","","","","",""
"image-keyboard-response","121","413630","0.0-6.0-1.58","63d89eb9781fd5479e5c175a","bdp_trlrn","Wed Mar 15 2023 21:18:13 GMT-0600 (Mountain Daylight Time)","1243476","Trustworthy,Untrustworthy","","1430","","","","rating","","trustrating_stim/white_mw071.bmp","5","","","","","","","","","","",""
"image-keyboard-response","122","413842","0.0-6.0-2.58","63d89eb9781fd5479e5c175a","bdp_trlrn","Wed Mar 15 2023 21:18:13 GMT-0600 (Mountain Daylight Time)","1243476","Trustworthy,Untrustworthy","","null","","","","ratingFB","","trustrating_stim/white_mw071.bmp","null","","","","","","","","","","",""
"image-keyboard-response","123","417950","0.0-6.0-1.59","63d89eb9781fd5479e5c175a","bdp_trlrn","Wed Mar 15 2023 21:18:13 GMT-0600 (Mountain Daylight Time)","1243476","Trustworthy,Untrustworthy","","4001","","","","rating","","trustrating_stim/white_00109_931230_fa_edt.bmp","6","","","","","","","","","","",""
"image-keyboard-response","124","418159","0.0-6.0-2.59","63d89eb9781fd5479e5c175a","bdp_trlrn","Wed Mar 15 2023 21:18:13 GMT-0600 (Mountain Daylight Time)","1243476","Trustworthy,Untrustworthy","","null","","","","ratingFB","","trustrating_stim/white_00109_931230_fa_edt.bmp","null","","","","","","","","","","",""
"instructions","125","420696","0.0-7.0","63d89eb9781fd5479e5c175a","bdp_trlrn","Wed Mar 15 2023 21:18:13 GMT-0600 (Mountain Daylight Time)","1243476","Trustworthy,Untrustworthy","[{""page_index"":0,""viewing_time"":2432}]","2432","","","","","","","","","","","","","","","","","",""
"instructions","126","648607","0.0-8.0","63d89eb9781fd5479e5c175a","bdp_trlrn","Wed Mar 15 2023 21:18:13 GMT-0600 (Mountain Daylight Time)","1243476","Trustworthy,Untrustworthy","[{""page_index"":0,""viewing_time"":52780},{""page_index"":1,""viewing_time"":19427},{""page_index"":2,""viewing_time"":14913},{""page_index"":3,""viewing_time"":18460},{""page_index"":4,""viewing_time"":17296},{""page_index"":5,""viewing_time"":22318},{""page_index"":6,""viewing_time"":58790},{""page_index"":7,""viewing_time"":23825}]","227809","","","","","","","","","","","","","","","","","",""
"html-keyboard-response","127","656875","0.0-9.0","63d89eb9781fd5479e5c175a","bdp_trlrn","Wed Mar 15 2023 21:18:13 GMT-0600 (Mountain Daylight Time)","1243476","Trustworthy,Untrustworthy","","8266","","","","","","<div class='header' style='text-align:left; position: absolute; top: 5%; left: 5%;'><small>Task 2 of 5</small></div><div class='instruxDiv'><p><strong>1) What is the minimum number of points you can choose to send to your partner?</strong></p><p>a) 0</p><p>b) 1</p><p>c) 5</p>","B","","","","","","","","","","",""
"html-keyboard-response","128","661582","0.0-10.0","63d89eb9781fd5479e5c175a","bdp_trlrn","Wed Mar 15 2023 21:18:13 GMT-0600 (Mountain Daylight Time)","1243476","Trustworthy,Untrustworthy","","4600","","","","","","<div class='header' style='text-align:left; position: absolute; top: 5%; left: 5%;'><small>Task 2 of 5</small></div><div class='instruxDiv'><p><strong>1) What is the minimum number of points you can choose to send to your partner?</strong></p><p>a) 0</p><p style='color:#00FF00'>b) 1</p><p>c) 5</p><h3 style='color:#00FF00'>Correct!</h3><h3 class='center-content'>The correct response is b).</h3><h3 class='center-content'>The minimum number of points you can choose to send to your partner is 1 point.</h3><p><em>Press SPACEBAR to continue</em></p></div>"," ","","","","","","","","","","",""
"html-keyboard-response","129","664261","0.0-11.0","63d89eb9781fd5479e5c175a","bdp_trlrn","Wed Mar 15 2023 21:18:13 GMT-0600 (Mountain Daylight Time)","1243476","Trustworthy,Untrustworthy","","2563","","","","","","<div class='header' style='text-align:left; position: absolute; top: 5%; left: 5%;'><small>Task 2 of 5</small></div><div class='instruxDiv'><p><strong>2) What is the maximum number of points you can choose to send to your partner?</strong></p><p>a) 8</p><p>b) 5</p><p>c) 3</p>","B","","","","","","","","","","",""
"html-keyboard-response","130","665759","0.0-12.0","63d89eb9781fd5479e5c175a","bdp_trlrn","Wed Mar 15 2023 21:18:13 GMT-0600 (Mountain Daylight Time)","1243476","Trustworthy,Untrustworthy","","1393","","","","","","<div class='header' style='text-align:left; position: absolute; top: 5%; left: 5%;'><small>Task 2 of 5</small></div><div class='instruxDiv'><p><strong>2) What is the maximum number of points you can choose to send to your partner?</strong></p><p>a) 8</p><p style='color:#00FF00'>b) 5</p><p>c) 3</p><h3 style='color:#00FF00'>Correct!</h3><h3 class='center-content'>The correct response is b).</h3><h3 class='center-content'>The maximum number of points you can choose to send to your partner is 5 points.</h3><p><em>Press SPACEBAR to continue</em></p></div>"," ","","","","","","","","","","",""
"html-keyboard-response","131","670616","0.0-13.0","63d89eb9781fd5479e5c175a","bdp_trlrn","Wed Mar 15 2023 21:18:13 GMT-0600 (Mountain Daylight Time)","1243476","Trustworthy,Untrustworthy","","4752","","","","","","<div class='header' style='text-align:left; position: absolute; top: 5%; left: 5%;'><small>Task 2 of 5</small></div><div class='instruxDiv'><p><strong>3) What happens to the amount of points you send to your partner?</strong></p><p>a) Nothing</p><p>b) It doubles</p><p>c) It quadruples</p>","C","","","","","","","","","","",""
"html-keyboard-response","132","671884","0.0-14.0","63d89eb9781fd5479e5c175a","bdp_trlrn","Wed Mar 15 2023 21:18:13 GMT-0600 (Mountain Daylight Time)","1243476","Trustworthy,Untrustworthy","","1152","","","","","","<div class='header' style='text-align:left; position: absolute; top: 5%; left: 5%;'><small>Task 2 of 5</small></div><div class='instruxDiv'><p><strong>3) What happens to the amount of points you send to your partner?</strong></p><p>a) Nothing</p><p>b) It doubles</p><p style='color:#00FF00'>c) It quadruples</p><h3 style='color:#00FF00'>Correct!</h3><h3 class='center-content'>The correct response is c).</h3><h3 class='center-content'>The amount of points you send to your partner quadruples.</h3><p><em>Press SPACEBAR to continue</em></p></div>"," ","","","","","","","","","","",""
"html-keyboard-response","133","683230","0.0-15.0","63d89eb9781fd5479e5c175a","bdp_trlrn","Wed Mar 15 2023 21:18:13 GMT-0600 (Mountain Daylight Time)","1243476","Trustworthy,Untrustworthy","","11233","","","","","","<div class='header' style='text-align:left; position: absolute; top: 5%; left: 5%;'><small>Task 2 of 5</small></div><div class='instruxDiv'><p><strong>4) If you decided to share 4 out of 5 points with your partner, and they decided to share half of the amount they received with you, how many points would you receive back from them on this round?</strong></p><p>a) 16</p><p>b) 0</p><p>c) 8</p>","C","","","","","","","","","","",""
"html-keyboard-response","134","686167","0.0-16.0","63d89eb9781fd5479e5c175a","bdp_trlrn","Wed Mar 15 2023 21:18:13 GMT-0600 (Mountain Daylight Time)","1243476","Trustworthy,Untrustworthy","","2833","","","","","","<div class='header' style='text-align:left; position: absolute; top: 5%; left: 5%;'><small>Task 2 of 5</small></div><div class='instruxDiv'><p><strong>4) If you decided to share 4 out of 5 points with your partner, and they decided to share half of the amount they received with you, how many points would you receive back from them on this round?</strong></p><p>a) 16</p><p>b) 0</p><p style='color:#00FF00'>c) 8</p><h3 style='color:#00FF00'>Correct!</h3><h3 class='center-content'>The correct response is c).</h3><h3 class='center-content'>If you shared 4 out of 5 points with your partner and they decided to share half of the amount they received with you, you would receive 8 points back (i.e. (4 x 4)/2 = 8).</h3><p><em>Press SPACEBAR to continue</em></p></div>"," ","","","","","","","","","","",""
"html-keyboard-response","135","691286","0.0-17.0","63d89eb9781fd5479e5c175a","bdp_trlrn","Wed Mar 15 2023 21:18:13 GMT-0600 (Mountain Daylight Time)","1243476","Trustworthy,Untrustworthy","","null","","","","","","<div class='header' style='text-align:left; position: absolute; top: 5%; left: 5%;'><small>Task 2 of 5</small></div><div class='instruxDiv'><p>Thank you for completing the quiz<p>These are the actual partners you will be interacting with in the next block:<p><div class='tc' align='center'><img class='introPic' src='trustrating_stim/white_mw063.bmp'><br><strong>Ethan</strong></div><div class='bl' align='center'><img class='introPic' src='trustrating_stim/white_00519_940519_fb_edt.bmp'><br><strong>Sebastian</strong></div><div class='br' align='center'><img class='introPic' src='trustrating_stim/white_mw053.bmp'><br><strong>Marcus</strong></div></div><p>Across <strong>66 rounds</strong> you will interact with each partner <strong>22 times</strong> (in random order).<p style='align:center; color:white'><font <em>Press SPACEBAR to continue</em></p>","null","","","","","","","","","","",""
"instructions","136","706956","0.0-18.0","63d89eb9781fd5479e5c175a","bdp_trlrn","Wed Mar 15 2023 21:18:13 GMT-0600 (Mountain Daylight Time)","1243476","Trustworthy,Untrustworthy","[{""page_index"":0,""viewing_time"":12237},{""page_index"":1,""viewing_time"":3432}]","15669","","","","","","","","","","","","","","","","","",""
"html-keyboard-response","137","720506","0.0-19.0-1.0","63d89eb9781fd5479e5c175a","bdp_trlrn","Wed Mar 15 2023 21:18:13 GMT-0600 (Mountain Daylight Time)","1243476","Trustworthy,Untrustworthy","","13440","","","","decision","","<div class='trialDiv'><img src='trustrating_stim/white_00519_940519_fb_edt.bmp'><br><font class='baseline'><strong>Sebastian</strong><p>Choose number of points to send.</font><div class='respPicDiv'><img src='img/responseButtonOffersNo0L.png' class='respPic'></div></div>","5","1","Sebastian","5","Shared","0.65,0.2","13","0.65","trustrating_stim/white_00519_940519_fb_edt.bmp","5","5","1"
"html-keyboard-response","138","720770","0.0-19.0-2.0","63d89eb9781fd5479e5c175a","bdp_trlrn","Wed Mar 15 2023 21:18:13 GMT-0600 (Mountain Daylight Time)","1243476","Trustworthy,Untrustworthy","","null","","","","decisionFB","","<div class='trialDiv'><img src='trustrating_stim/white_00519_940519_fb_edt.bmp'><br><font class='baseline'><strong>Sebastian</strong><p>Choose number of points to send.</font><div class='respPicDiv'><img src='img/responseButtonOffersNo0L5.png' class='respPic'></div></div>","null","1","Sebastian","5","Shared","0.65,0.2","13","0.65","trustrating_stim/white_00519_940519_fb_edt.bmp","5","0","1"
"html-keyboard-response","139","721785","0.0-19.0-3.0","63d89eb9781fd5479e5c175a","bdp_trlrn","Wed Mar 15 2023 21:18:13 GMT-0600 (Mountain Daylight Time)","1243476","Trustworthy,Untrustworthy","","null","","","","feedback","","<div class='trialDiv'><img src='trustrating_stim/white_00519_940519_fb_edt.bmp'><br><font class='baseline'><strong>Sebastian</strong><p>Received: <strong>20</strong></font> &nbsp; &nbsp; &nbsp; &nbsp; &nbsp; &nbsp;<font class='posOutcome'>Shared back: <strong>10</strong></font></font><div class='respPicDiv'><img src='img/responseButtonOffersNo0_wht.png' class='respPic'></div></div>","null","1","Sebastian","5","Shared","0.65,0.2","13","0.65","trustrating_stim/white_00519_940519_fb_edt.bmp","5","10","1"
"html-keyboard-response","140","759278","0.0-19.0-1.1","63d89eb9781fd5479e5c175a","bdp_trlrn","Wed Mar 15 2023 21:18:13 GMT-0600 (Mountain Daylight Time)","1243476","Trustworthy,Untrustworthy","","37491","","","","decision","","<div class='trialDiv'><img src='trustrating_stim/white_mw063.bmp'><br><font class='baseline'><strong>Ethan</strong><p>Choose number of points to send.</font><div class='respPicDiv'><img src='img/responseButtonOffersNo0L.png' class='respPic'></div></div>","5","1","Ethan","1","Kept","0.2,0.65","13","0.2","trustrating_stim/white_mw063.bmp","3","15","2"
"html-keyboard-response","141","759543","0.0-19.0-2.1","63d89eb9781fd5479e5c175a","bdp_trlrn","Wed Mar 15 2023 21:18:13 GMT-0600 (Mountain Daylight Time)","1243476","Trustworthy,Untrustworthy","","null","","","","decisionFB","","<div class='trialDiv'><img src='trustrating_stim/white_mw063.bmp'><br><font class='baseline'><strong>Ethan</strong><p>Choose number of points to send.</font><div class='respPicDiv'><img src='img/responseButtonOffersNo0L5.png' class='respPic'></div></div>","null","1","Ethan","1","Kept","0.2,0.65","13","0.2","trustrating_stim/white_mw063.bmp","3","10","2"
"html-keyboard-response","142","760560","0.0-19.0-3.1","63d89eb9781fd5479e5c175a","bdp_trlrn","Wed Mar 15 2023 21:18:13 GMT-0600 (Mountain Daylight Time)","1243476","Trustworthy,Untrustworthy","","null","","","","feedback","","<div class='trialDiv'><img src='trustrating_stim/white_mw063.bmp'><br><font class='baseline'><strong>Ethan</strong><p>Received: <strong>20</strong></font> &nbsp; &nbsp; &nbsp; &nbsp; &nbsp; &nbsp;<font class='negOutcome'>Shared back: <strong>0</strong></font></font><div class='respPicDiv'><img src='img/responseButtonOffersNo0_wht.png' class='respPic'></div></div>","null","1","Ethan","1","Kept","0.2,0.65","13","0.2","trustrating_stim/white_mw063.bmp","3","10","2"
"html-keyboard-response","143","765298","0.0-19.0-1.2","63d89eb9781fd5479e5c175a","bdp_trlrn","Wed Mar 15 2023 21:18:13 GMT-0600 (Mountain Daylight Time)","1243476","Trustworthy,Untrustworthy","","4738","","","","decision","","<div class='trialDiv'><img src='trustrating_stim/white_mw053.bmp'><br><font class='baseline'><strong>Marcus</strong><p>Choose number of points to send.</font><div class='respPicDiv'><img src='img/responseButtonOffersNo0L.png' class='respPic'></div></div>","5","1","Marcus","9","Kept","0.35,0.65","14","0.35","trustrating_stim/white_mw053.bmp","7.5","15","3"
"html-keyboard-response","144","765559","0.0-19.0-2.2","63d89eb9781fd5479e5c175a","bdp_trlrn","Wed Mar 15 2023 21:18:13 GMT-0600 (Mountain Daylight Time)","1243476","Trustworthy,Untrustworthy","","null","","","","decisionFB","","<div class='trialDiv'><img src='trustrating_stim/white_mw053.bmp'><br><font class='baseline'><strong>Marcus</strong><p>Choose number of points to send.</font><div class='respPicDiv'><img src='img/responseButtonOffersNo0L5.png' class='respPic'></div></div>","null","1","Marcus","9","Kept","0.35,0.65","14","0.35","trustrating_stim/white_mw053.bmp","7.5","10","3"
"html-keyboard-response","145","766576","0.0-19.0-3.2","63d89eb9781fd5479e5c175a","bdp_trlrn","Wed Mar 15 2023 21:18:13 GMT-0600 (Mountain Daylight Time)","1243476","Trustworthy,Untrustworthy","","null","","","","feedback","","<div class='trialDiv'><img src='trustrating_stim/white_mw053.bmp'><br><font class='baseline'><strong>Marcus</strong><p>Received: <strong>20</strong></font> &nbsp; &nbsp; &nbsp; &nbsp; &nbsp; &nbsp;<font class='negOutcome'>Shared back: <strong>0</strong></font></font><div class='respPicDiv'><img src='img/responseButtonOffersNo0_wht.png' class='respPic'></div></div>","null","1","Marcus","9","Kept","0.35,0.65","14","0.35","trustrating_stim/white_mw053.bmp","7.5","10","3"
"html-keyboard-response","146","773066","0.0-19.0-1.3","63d89eb9781fd5479e5c175a","bdp_trlrn","Wed Mar 15 2023 21:18:13 GMT-0600 (Mountain Daylight Time)","1243476","Trustworthy,Untrustworthy","","6488","","","","decision","","<div class='trialDiv'><img src='trustrating_stim/white_mw063.bmp'><br><font class='baseline'><strong>Ethan</strong><p>Choose number of points to send.</font><div class='respPicDiv'><img src='img/responseButtonOffersNo0L.png' class='respPic'></div></div>","2","2","Ethan","1","Shared","0.2,0.65","13","0.2","trustrating_stim/white_mw063.bmp","3","15","4"
"html-keyboard-response","147","773329","0.0-19.0-2.3","63d89eb9781fd5479e5c175a","bdp_trlrn","Wed Mar 15 2023 21:18:13 GMT-0600 (Mountain Daylight Time)","1243476","Trustworthy,Untrustworthy","","null","","","","decisionFB","","<div class='trialDiv'><img src='trustrating_stim/white_mw063.bmp'><br><font class='baseline'><strong>Ethan</strong><p>Choose number of points to send.</font><div class='respPicDiv'><img src='img/responseButtonOffersNo0L2.png' class='respPic'></div></div>","null","2","Ethan","1","Shared","0.2,0.65","13","0.2","trustrating_stim/white_mw063.bmp","3","13","4"
"html-keyboard-response","148","774342","0.0-19.0-3.3","63d89eb9781fd5479e5c175a","bdp_trlrn","Wed Mar 15 2023 21:18:13 GMT-0600 (Mountain Daylight Time)","1243476","Trustworthy,Untrustworthy","","null","","","","feedback","","<div class='trialDiv'><img src='trustrating_stim/white_mw063.bmp'><br><font class='baseline'><strong>Ethan</strong><p>Received: <strong>8</strong></font> &nbsp; &nbsp; &nbsp; &nbsp; &nbsp; &nbsp;<font class='posOutcome'>Shared back: <strong>4</strong></font></font><div class='respPicDiv'><img src='img/responseButtonOffersNo0_wht.png' class='respPic'></div></div>","null","2","Ethan","1","Shared","0.2,0.65","13","0.2","trustrating_stim/white_mw063.bmp","3","17","4"
"html-keyboard-response","149","778612","0.0-19.0-1.4","63d89eb9781fd5479e5c175a","bdp_trlrn","Wed Mar 15 2023 21:18:13 GMT-0600 (Mountain Daylight Time)","1243476","Trustworthy,Untrustworthy","","4268","","","","decision","","<div class='trialDiv'><img src='trustrating_stim/white_mw053.bmp'><br><font class='baseline'><strong>Marcus</strong><p>Choose number of points to send.</font><div class='respPicDiv'><img src='img/responseButtonOffersNo0L.png' class='respPic'></div></div>","2","2","Marcus","9","Shared","0.35,0.65","14","0.35","trustrating_stim/white_mw053.bmp","7.5","22","5"
"html-keyboard-response","150","778875","0.0-19.0-2.4","63d89eb9781fd5479e5c175a","bdp_trlrn","Wed Mar 15 2023 21:18:13 GMT-0600 (Mountain Daylight Time)","1243476","Trustworthy,Untrustworthy","","null","","","","decisionFB","","<div class='trialDiv'><img src='trustrating_stim/white_mw053.bmp'><br><font class='baseline'><strong>Marcus</strong><p>Choose number of points to send.</font><div class='respPicDiv'><img src='img/responseButtonOffersNo0L2.png' class='respPic'></div></div>","null","2","Marcus","9","Shared","0.35,0.65","14","0.35","trustrating_stim/white_mw053.bmp","7.5","20","5"
"html-keyboard-response","151","779893","0.0-19.0-3.4","63d89eb9781fd5479e5c175a","bdp_trlrn","Wed Mar 15 2023 21:18:13 GMT-0600 (Mountain Daylight Time)","1243476","Trustworthy,Untrustworthy","","null","","","","feedback","","<div class='trialDiv'><img src='trustrating_stim/white_mw053.bmp'><br><font class='baseline'><strong>Marcus</strong><p>Received: <strong>8</strong></font> &nbsp; &nbsp; &nbsp; &nbsp; &nbsp; &nbsp;<font class='posOutcome'>Shared back: <strong>4</strong></font></font><div class='respPicDiv'><img src='img/responseButtonOffersNo0_wht.png' class='respPic'></div></div>","null","2","Marcus","9","Shared","0.35,0.65","14","0.35","trustrating_stim/white_mw053.bmp","7.5","24","5"
"html-keyboard-response","152","782676","0.0-19.0-1.5","63d89eb9781fd5479e5c175a","bdp_trlrn","Wed Mar 15 2023 21:18:13 GMT-0600 (Mountain Daylight Time)","1243476","Trustworthy,Untrustworthy","","2781","","","","decision","","<div class='trialDiv'><img src='trustrating_stim/white_00519_940519_fb_edt.bmp'><br><font class='baseline'><strong>Sebastian</strong><p>Choose number of points to send.</font><div class='respPicDiv'><img src='img/responseButtonOffersNo0L.png' class='respPic'></div></div>","5","2","Sebastian","5","Shared","0.65,0.2","13","0.65","trustrating_stim/white_00519_940519_fb_edt.bmp","5","29","6"
"html-keyboard-response","153","782941","0.0-19.0-2.5","63d89eb9781fd5479e5c175a","bdp_trlrn","Wed Mar 15 2023 21:18:13 GMT-0600 (Mountain Daylight Time)","1243476","Trustworthy,Untrustworthy","","null","","","","decisionFB","","<div class='trialDiv'><img src='trustrating_stim/white_00519_940519_fb_edt.bmp'><br><font class='baseline'><strong>Sebastian</strong><p>Choose number of points to send.</font><div class='respPicDiv'><img src='img/responseButtonOffersNo0L5.png' class='respPic'></div></div>","null","2","Sebastian","5","Shared","0.65,0.2","13","0.65","trustrating_stim/white_00519_940519_fb_edt.bmp","5","24","6"
"html-keyboard-response","154","783959","0.0-19.0-3.5","63d89eb9781fd5479e5c175a","bdp_trlrn","Wed Mar 15 2023 21:18:13 GMT-0600 (Mountain Daylight Time)","1243476","Trustworthy,Untrustworthy","","null","","","","feedback","","<div class='trialDiv'><img src='trustrating_stim/white_00519_940519_fb_edt.bmp'><br><font class='baseline'><strong>Sebastian</strong><p>Received: <strong>20</strong></font> &nbsp; &nbsp; &nbsp; &nbsp; &nbsp; &nbsp;<font class='posOutcome'>Shared back: <strong>10</strong></font></font><div class='respPicDiv'><img src='img/responseButtonOffersNo0_wht.png' class='respPic'></div></div>","null","2","Sebastian","5","Shared","0.65,0.2","13","0.65","trustrating_stim/white_00519_940519_fb_edt.bmp","5","34","6"
"html-keyboard-response","155","789258","0.0-19.0-1.6","63d89eb9781fd5479e5c175a","bdp_trlrn","Wed Mar 15 2023 21:18:13 GMT-0600 (Mountain Daylight Time)","1243476","Trustworthy,Untrustworthy","","5297","","","","decision","","<div class='trialDiv'><img src='trustrating_stim/white_mw063.bmp'><br><font class='baseline'><strong>Ethan</strong><p>Choose number of points to send.</font><div class='respPicDiv'><img src='img/responseButtonOffersNo0L.png' class='respPic'></div></div>","4","3","Ethan","1","Kept","0.2,0.65","13","0.2","trustrating_stim/white_mw063.bmp","3","39","7"
"html-keyboard-response","156","789526","0.0-19.0-2.6","63d89eb9781fd5479e5c175a","bdp_trlrn","Wed Mar 15 2023 21:18:13 GMT-0600 (Mountain Daylight Time)","1243476","Trustworthy,Untrustworthy","","null","","","","decisionFB","","<div class='trialDiv'><img src='trustrating_stim/white_mw063.bmp'><br><font class='baseline'><strong>Ethan</strong><p>Choose number of points to send.</font><div class='respPicDiv'><img src='img/responseButtonOffersNo0L4.png' class='respPic'></div></div>","null","3","Ethan","1","Kept","0.2,0.65","13","0.2","trustrating_stim/white_mw063.bmp","3","35","7"
"html-keyboard-response","157","790541","0.0-19.0-3.6","63d89eb9781fd5479e5c175a","bdp_trlrn","Wed Mar 15 2023 21:18:13 GMT-0600 (Mountain Daylight Time)","1243476","Trustworthy,Untrustworthy","","null","","","","feedback","","<div class='trialDiv'><img src='trustrating_stim/white_mw063.bmp'><br><font class='baseline'><strong>Ethan</strong><p>Received: <strong>16</strong></font> &nbsp; &nbsp; &nbsp; &nbsp; &nbsp; &nbsp;<font class='negOutcome'>Shared back: <strong>0</strong></font></font><div class='respPicDiv'><img src='img/responseButtonOffersNo0_wht.png' class='respPic'></div></div>","null","3","Ethan","1","Kept","0.2,0.65","13","0.2","trustrating_stim/white_mw063.bmp","3","35","7"
"html-keyboard-response","158","792551","0.0-19.0-1.7","63d89eb9781fd5479e5c175a","bdp_trlrn","Wed Mar 15 2023 21:18:13 GMT-0600 (Mountain Daylight Time)","1243476","Trustworthy,Untrustworthy","","2008","","","","decision","","<div class='trialDiv'><img src='trustrating_stim/white_mw053.bmp'><br><font class='baseline'><strong>Marcus</strong><p>Choose number of points to send.</font><div class='respPicDiv'><img src='img/responseButtonOffersNo0L.png' class='respPic'></div></div>","4","3","Marcus","9","Shared","0.35,0.65","14","0.35","trustrating_stim/white_mw053.bmp","7.5","40","8"
"html-keyboard-response","159","792807","0.0-19.0-2.7","63d89eb9781fd5479e5c175a","bdp_trlrn","Wed Mar 15 2023 21:18:13 GMT-0600 (Mountain Daylight Time)","1243476","Trustworthy,Untrustworthy","","null","","","","decisionFB","","<div class='trialDiv'><img src='trustrating_stim/white_mw053.bmp'><br><font class='baseline'><strong>Marcus</strong><p>Choose number of points to send.</font><div class='respPicDiv'><img src='img/responseButtonOffersNo0L4.png' class='respPic'></div></div>","null","3","Marcus","9","Shared","0.35,0.65","14","0.35","trustrating_stim/white_mw053.bmp","7.5","36","8"
"html-keyboard-response","160","793823","0.0-19.0-3.7","63d89eb9781fd5479e5c175a","bdp_trlrn","Wed Mar 15 2023 21:18:13 GMT-0600 (Mountain Daylight Time)","1243476","Trustworthy,Untrustworthy","","null","","","","feedback","","<div class='trialDiv'><img src='trustrating_stim/white_mw053.bmp'><br><font class='baseline'><strong>Marcus</strong><p>Received: <strong>16</strong></font> &nbsp; &nbsp; &nbsp; &nbsp; &nbsp; &nbsp;<font class='posOutcome'>Shared back: <strong>8</strong></font></font><div class='respPicDiv'><img src='img/responseButtonOffersNo0_wht.png' class='respPic'></div></div>","null","3","Marcus","9","Shared","0.35,0.65","14","0.35","trustrating_stim/white_mw053.bmp","7.5","44","8"
"html-keyboard-response","161","796265","0.0-19.0-1.8","63d89eb9781fd5479e5c175a","bdp_trlrn","Wed Mar 15 2023 21:18:13 GMT-0600 (Mountain Daylight Time)","1243476","Trustworthy,Untrustworthy","","2440","","","","decision","","<div class='trialDiv'><img src='trustrating_stim/white_00519_940519_fb_edt.bmp'><br><font class='baseline'><strong>Sebastian</strong><p>Choose number of points to send.</font><div class='respPicDiv'><img src='img/responseButtonOffersNo0L.png' class='respPic'></div></div>","5","3","Sebastian","5","Shared","0.65,0.2","13","0.65","trustrating_stim/white_00519_940519_fb_edt.bmp","5","49","9"
"html-keyboard-response","162","796525","0.0-19.0-2.8","63d89eb9781fd5479e5c175a","bdp_trlrn","Wed Mar 15 2023 21:18:13 GMT-0600 (Mountain Daylight Time)","1243476","Trustworthy,Untrustworthy","","null","","","","decisionFB","","<div class='trialDiv'><img src='trustrating_stim/white_00519_940519_fb_edt.bmp'><br><font class='baseline'><strong>Sebastian</strong><p>Choose number of points to send.</font><div class='respPicDiv'><img src='img/responseButtonOffersNo0L5.png' class='respPic'></div></div>","null","3","Sebastian","5","Shared","0.65,0.2","13","0.65","trustrating_stim/white_00519_940519_fb_edt.bmp","5","44","9"
"html-keyboard-response","163","797540","0.0-19.0-3.8","63d89eb9781fd5479e5c175a","bdp_trlrn","Wed Mar 15 2023 21:18:13 GMT-0600 (Mountain Daylight Time)","1243476","Trustworthy,Untrustworthy","","null","","","","feedback","","<div class='trialDiv'><img src='trustrating_stim/white_00519_940519_fb_edt.bmp'><br><font class='baseline'><strong>Sebastian</strong><p>Received: <strong>20</strong></font> &nbsp; &nbsp; &nbsp; &nbsp; &nbsp; &nbsp;<font class='posOutcome'>Shared back: <strong>10</strong></font></font><div class='respPicDiv'><img src='img/responseButtonOffersNo0_wht.png' class='respPic'></div></div>","null","3","Sebastian","5","Shared","0.65,0.2","13","0.65","trustrating_stim/white_00519_940519_fb_edt.bmp","5","54","9"
"html-keyboard-response","164","804243","0.0-19.0-1.9","63d89eb9781fd5479e5c175a","bdp_trlrn","Wed Mar 15 2023 21:18:13 GMT-0600 (Mountain Daylight Time)","1243476","Trustworthy,Untrustworthy","","6700","","","","decision","","<div class='trialDiv'><img src='trustrating_stim/white_mw063.bmp'><br><font class='baseline'><strong>Ethan</strong><p>Choose number of points to send.</font><div class='respPicDiv'><img src='img/responseButtonOffersNo0L.png' class='respPic'></div></div>","3","4","Ethan","1","Kept","0.2,0.65","13","0.2","trustrating_stim/white_mw063.bmp","3","59","10"
"html-keyboard-response","165","804508","0.0-19.0-2.9","63d89eb9781fd5479e5c175a","bdp_trlrn","Wed Mar 15 2023 21:18:13 GMT-0600 (Mountain Daylight Time)","1243476","Trustworthy,Untrustworthy","","null","","","","decisionFB","","<div class='trialDiv'><img src='trustrating_stim/white_mw063.bmp'><br><font class='baseline'><strong>Ethan</strong><p>Choose number of points to send.</font><div class='respPicDiv'><img src='img/responseButtonOffersNo0L3.png' class='respPic'></div></div>","null","4","Ethan","1","Kept","0.2,0.65","13","0.2","trustrating_stim/white_mw063.bmp","3","56","10"
"html-keyboard-response","166","805523","0.0-19.0-3.9","63d89eb9781fd5479e5c175a","bdp_trlrn","Wed Mar 15 2023 21:18:13 GMT-0600 (Mountain Daylight Time)","1243476","Trustworthy,Untrustworthy","","null","","","","feedback","","<div class='trialDiv'><img src='trustrating_stim/white_mw063.bmp'><br><font class='baseline'><strong>Ethan</strong><p>Received: <strong>12</strong></font> &nbsp; &nbsp; &nbsp; &nbsp; &nbsp; &nbsp;<font class='negOutcome'>Shared back: <strong>0</strong></font></font><div class='respPicDiv'><img src='img/responseButtonOffersNo0_wht.png' class='respPic'></div></div>","null","4","Ethan","1","Kept","0.2,0.65","13","0.2","trustrating_stim/white_mw063.bmp","3","56","10"
"html-keyboard-response","167","807107","0.0-19.0-1.10","63d89eb9781fd5479e5c175a","bdp_trlrn","Wed Mar 15 2023 21:18:13 GMT-0600 (Mountain Daylight Time)","1243476","Trustworthy,Untrustworthy","","1583","","","","decision","","<div class='trialDiv'><img src='trustrating_stim/white_mw053.bmp'><br><font class='baseline'><strong>Marcus</strong><p>Choose number of points to send.</font><div class='respPicDiv'><img src='img/responseButtonOffersNo0L.png' class='respPic'></div></div>","4","4","Marcus","9","Shared","0.35,0.65","14","0.35","trustrating_stim/white_mw053.bmp","7.5","61","11"
"html-keyboard-response","168","807374","0.0-19.0-2.10","63d89eb9781fd5479e5c175a","bdp_trlrn","Wed Mar 15 2023 21:18:13 GMT-0600 (Mountain Daylight Time)","1243476","Trustworthy,Untrustworthy","","null","","","","decisionFB","","<div class='trialDiv'><img src='trustrating_stim/white_mw053.bmp'><br><font class='baseline'><strong>Marcus</strong><p>Choose number of points to send.</font><div class='respPicDiv'><img src='img/responseButtonOffersNo0L4.png' class='respPic'></div></div>","null","4","Marcus","9","Shared","0.35,0.65","14","0.35","trustrating_stim/white_mw053.bmp","7.5","57","11"
"html-keyboard-response","169","808389","0.0-19.0-3.10","63d89eb9781fd5479e5c175a","bdp_trlrn","Wed Mar 15 2023 21:18:13 GMT-0600 (Mountain Daylight Time)","1243476","Trustworthy,Untrustworthy","","null","","","","feedback","","<div class='trialDiv'><img src='trustrating_stim/white_mw053.bmp'><br><font class='baseline'><strong>Marcus</strong><p>Received: <strong>16</strong></font> &nbsp; &nbsp; &nbsp; &nbsp; &nbsp; &nbsp;<font class='posOutcome'>Shared back: <strong>8</strong></font></font><div class='respPicDiv'><img src='img/responseButtonOffersNo0_wht.png' class='respPic'></div></div>","null","4","Marcus","9","Shared","0.35,0.65","14","0.35","trustrating_stim/white_mw053.bmp","7.5","65","11"
"html-keyboard-response","170","810880","0.0-19.0-1.11","63d89eb9781fd5479e5c175a","bdp_trlrn","Wed Mar 15 2023 21:18:13 GMT-0600 (Mountain Daylight Time)","1243476","Trustworthy,Untrustworthy","","2488","","","","decision","","<div class='trialDiv'><img src='trustrating_stim/white_00519_940519_fb_edt.bmp'><br><font class='baseline'><strong>Sebastian</strong><p>Choose number of points to send.</font><div class='respPicDiv'><img src='img/responseButtonOffersNo0L.png' class='respPic'></div></div>","5","4","Sebastian","5","Kept","0.65,0.2","13","0.65","trustrating_stim/white_00519_940519_fb_edt.bmp","5","70","12"
"html-keyboard-response","171","811139","0.0-19.0-2.11","63d89eb9781fd5479e5c175a","bdp_trlrn","Wed Mar 15 2023 21:18:13 GMT-0600 (Mountain Daylight Time)","1243476","Trustworthy,Untrustworthy","","null","","","","decisionFB","","<div class='trialDiv'><img src='trustrating_stim/white_00519_940519_fb_edt.bmp'><br><font class='baseline'><strong>Sebastian</strong><p>Choose number of points to send.</font><div class='respPicDiv'><img src='img/responseButtonOffersNo0L5.png' class='respPic'></div></div>","null","4","Sebastian","5","Kept","0.65,0.2","13","0.65","trustrating_stim/white_00519_940519_fb_edt.bmp","5","65","12"
"html-keyboard-response","172","812156","0.0-19.0-3.11","63d89eb9781fd5479e5c175a","bdp_trlrn","Wed Mar 15 2023 21:18:13 GMT-0600 (Mountain Daylight Time)","1243476","Trustworthy,Untrustworthy","","null","","","","feedback","","<div class='trialDiv'><img src='trustrating_stim/white_00519_940519_fb_edt.bmp'><br><font class='baseline'><strong>Sebastian</strong><p>Received: <strong>20</strong></font> &nbsp; &nbsp; &nbsp; &nbsp; &nbsp; &nbsp;<font class='negOutcome'>Shared back: <strong>0</strong></font></font><div class='respPicDiv'><img src='img/responseButtonOffersNo0_wht.png' class='respPic'></div></div>","null","4","Sebastian","5","Kept","0.65,0.2","13","0.65","trustrating_stim/white_00519_940519_fb_edt.bmp","5","65","12"
"html-keyboard-response","173","818521","0.0-19.0-1.12","63d89eb9781fd5479e5c175a","bdp_trlrn","Wed Mar 15 2023 21:18:13 GMT-0600 (Mountain Daylight Time)","1243476","Trustworthy,Untrustworthy","","6363","","","","decision","","<div class='trialDiv'><img src='trustrating_stim/white_mw063.bmp'><br><font class='baseline'><strong>Ethan</strong><p>Choose number of points to send.</font><div class='respPicDiv'><img src='img/responseButtonOffersNo0L.png' class='respPic'></div></div>","3","5","Ethan","1","Kept","0.2,0.65","13","0.2","trustrating_stim/white_mw063.bmp","3","70","13"
"html-keyboard-response","174","818788","0.0-19.0-2.12","63d89eb9781fd5479e5c175a","bdp_trlrn","Wed Mar 15 2023 21:18:13 GMT-0600 (Mountain Daylight Time)","1243476","Trustworthy,Untrustworthy","","null","","","","decisionFB","","<div class='trialDiv'><img src='trustrating_stim/white_mw063.bmp'><br><font class='baseline'><strong>Ethan</strong><p>Choose number of points to send.</font><div class='respPicDiv'><img src='img/responseButtonOffersNo0L3.png' class='respPic'></div></div>","null","5","Ethan","1","Kept","0.2,0.65","13","0.2","trustrating_stim/white_mw063.bmp","3","67","13"
"html-keyboard-response","175","819804","0.0-19.0-3.12","63d89eb9781fd5479e5c175a","bdp_trlrn","Wed Mar 15 2023 21:18:13 GMT-0600 (Mountain Daylight Time)","1243476","Trustworthy,Untrustworthy","","null","","","","feedback","","<div class='trialDiv'><img src='trustrating_stim/white_mw063.bmp'><br><font class='baseline'><strong>Ethan</strong><p>Received: <strong>12</strong></font> &nbsp; &nbsp; &nbsp; &nbsp; &nbsp; &nbsp;<font class='negOutcome'>Shared back: <strong>0</strong></font></font><div class='respPicDiv'><img src='img/responseButtonOffersNo0_wht.png' class='respPic'></div></div>","null","5","Ethan","1","Kept","0.2,0.65","13","0.2","trustrating_stim/white_mw063.bmp","3","67","13"
"html-keyboard-response","176","821677","0.0-19.0-1.13","63d89eb9781fd5479e5c175a","bdp_trlrn","Wed Mar 15 2023 21:18:13 GMT-0600 (Mountain Daylight Time)","1243476","Trustworthy,Untrustworthy","","1872","","","","decision","","<div class='trialDiv'><img src='trustrating_stim/white_mw053.bmp'><br><font class='baseline'><strong>Marcus</strong><p>Choose number of points to send.</font><div class='respPicDiv'><img src='img/responseButtonOffersNo0L.png' class='respPic'></div></div>","4","5","Marcus","9","Shared","0.35,0.65","14","0.35","trustrating_stim/white_mw053.bmp","7.5","72","14"
"html-keyboard-response","177","821937","0.0-19.0-2.13","63d89eb9781fd5479e5c175a","bdp_trlrn","Wed Mar 15 2023 21:18:13 GMT-0600 (Mountain Daylight Time)","1243476","Trustworthy,Untrustworthy","","null","","","","decisionFB","","<div class='trialDiv'><img src='trustrating_stim/white_mw053.bmp'><br><font class='baseline'><strong>Marcus</strong><p>Choose number of points to send.</font><div class='respPicDiv'><img src='img/responseButtonOffersNo0L4.png' class='respPic'></div></div>","null","5","Marcus","9","Shared","0.35,0.65","14","0.35","trustrating_stim/white_mw053.bmp","7.5","68","14"
"html-keyboard-response","178","822954","0.0-19.0-3.13","63d89eb9781fd5479e5c175a","bdp_trlrn","Wed Mar 15 2023 21:18:13 GMT-0600 (Mountain Daylight Time)","1243476","Trustworthy,Untrustworthy","","null","","","","feedback","","<div class='trialDiv'><img src='trustrating_stim/white_mw053.bmp'><br><font class='baseline'><strong>Marcus</strong><p>Received: <strong>16</strong></font> &nbsp; &nbsp; &nbsp; &nbsp; &nbsp; &nbsp;<font class='posOutcome'>Shared back: <strong>8</strong></font></font><div class='respPicDiv'><img src='img/responseButtonOffersNo0_wht.png' class='respPic'></div></div>","null","5","Marcus","9","Shared","0.35,0.65","14","0.35","trustrating_stim/white_mw053.bmp","7.5","76","14"
"html-keyboard-response","179","824750","0.0-19.0-1.14","63d89eb9781fd5479e5c175a","bdp_trlrn","Wed Mar 15 2023 21:18:13 GMT-0600 (Mountain Daylight Time)","1243476","Trustworthy,Untrustworthy","","1793","","","","decision","","<div class='trialDiv'><img src='trustrating_stim/white_00519_940519_fb_edt.bmp'><br><font class='baseline'><strong>Sebastian</strong><p>Choose number of points to send.</font><div class='respPicDiv'><img src='img/responseButtonOffersNo0L.png' class='respPic'></div></div>","5","5","Sebastian","5","Shared","0.65,0.2","13","0.65","trustrating_stim/white_00519_940519_fb_edt.bmp","5","81","15"
"html-keyboard-response","180","825007","0.0-19.0-2.14","63d89eb9781fd5479e5c175a","bdp_trlrn","Wed Mar 15 2023 21:18:13 GMT-0600 (Mountain Daylight Time)","1243476","Trustworthy,Untrustworthy","","null","","","","decisionFB","","<div class='trialDiv'><img src='trustrating_stim/white_00519_940519_fb_edt.bmp'><br><font class='baseline'><strong>Sebastian</strong><p>Choose number of points to send.</font><div class='respPicDiv'><img src='img/responseButtonOffersNo0L5.png' class='respPic'></div></div>","null","5","Sebastian","5","Shared","0.65,0.2","13","0.65","trustrating_stim/white_00519_940519_fb_edt.bmp","5","76","15"
"html-keyboard-response","181","826020","0.0-19.0-3.14","63d89eb9781fd5479e5c175a","bdp_trlrn","Wed Mar 15 2023 21:18:13 GMT-0600 (Mountain Daylight Time)","1243476","Trustworthy,Untrustworthy","","null","","","","feedback","","<div class='trialDiv'><img src='trustrating_stim/white_00519_940519_fb_edt.bmp'><br><font class='baseline'><strong>Sebastian</strong><p>Received: <strong>20</strong></font> &nbsp; &nbsp; &nbsp; &nbsp; &nbsp; &nbsp;<font class='posOutcome'>Shared back: <strong>10</strong></font></font><div class='respPicDiv'><img src='img/responseButtonOffersNo0_wht.png' class='respPic'></div></div>","null","5","Sebastian","5","Shared","0.65,0.2","13","0.65","trustrating_stim/white_00519_940519_fb_edt.bmp","5","86","15"
"html-keyboard-response","182","829568","0.0-19.0-1.15","63d89eb9781fd5479e5c175a","bdp_trlrn","Wed Mar 15 2023 21:18:13 GMT-0600 (Mountain Daylight Time)","1243476","Trustworthy,Untrustworthy","","3547","","","","decision","","<div class='trialDiv'><img src='trustrating_stim/white_mw063.bmp'><br><font class='baseline'><strong>Ethan</strong><p>Choose number of points to send.</font><div class='respPicDiv'><img src='img/responseButtonOffersNo0L.png' class='respPic'></div></div>","5","6","Ethan","1","Kept","0.2,0.65","13","0.2","trustrating_stim/white_mw063.bmp","3","91","16"
"html-keyboard-response","183","829821","0.0-19.0-2.15","63d89eb9781fd5479e5c175a","bdp_trlrn","Wed Mar 15 2023 21:18:13 GMT-0600 (Mountain Daylight Time)","1243476","Trustworthy,Untrustworthy","","null","","","","decisionFB","","<div class='trialDiv'><img src='trustrating_stim/white_mw063.bmp'><br><font class='baseline'><strong>Ethan</strong><p>Choose number of points to send.</font><div class='respPicDiv'><img src='img/responseButtonOffersNo0L5.png' class='respPic'></div></div>","null","6","Ethan","1","Kept","0.2,0.65","13","0.2","trustrating_stim/white_mw063.bmp","3","86","16"
"html-keyboard-response","184","830836","0.0-19.0-3.15","63d89eb9781fd5479e5c175a","bdp_trlrn","Wed Mar 15 2023 21:18:13 GMT-0600 (Mountain Daylight Time)","1243476","Trustworthy,Untrustworthy","","null","","","","feedback","","<div class='trialDiv'><img src='trustrating_stim/white_mw063.bmp'><br><font class='baseline'><strong>Ethan</strong><p>Received: <strong>20</strong></font> &nbsp; &nbsp; &nbsp; &nbsp; &nbsp; &nbsp;<font class='negOutcome'>Shared back: <strong>0</strong></font></font><div class='respPicDiv'><img src='img/responseButtonOffersNo0_wht.png' class='respPic'></div></div>","null","6","Ethan","1","Kept","0.2,0.65","13","0.2","trustrating_stim/white_mw063.bmp","3","86","16"
"html-keyboard-response","185","832328","0.0-19.0-1.16","63d89eb9781fd5479e5c175a","bdp_trlrn","Wed Mar 15 2023 21:18:13 GMT-0600 (Mountain Daylight Time)","1243476","Trustworthy,Untrustworthy","","1491","","","","decision","","<div class='trialDiv'><img src='trustrating_stim/white_mw053.bmp'><br><font class='baseline'><strong>Marcus</strong><p>Choose number of points to send.</font><div class='respPicDiv'><img src='img/responseButtonOffersNo0L.png' class='respPic'></div></div>","4","6","Marcus","9","Shared","0.35,0.65","14","0.35","trustrating_stim/white_mw053.bmp","7.5","91","17"
"html-keyboard-response","186","832587","0.0-19.0-2.16","63d89eb9781fd5479e5c175a","bdp_trlrn","Wed Mar 15 2023 21:18:13 GMT-0600 (Mountain Daylight Time)","1243476","Trustworthy,Untrustworthy","","null","","","","decisionFB","","<div class='trialDiv'><img src='trustrating_stim/white_mw053.bmp'><br><font class='baseline'><strong>Marcus</strong><p>Choose number of points to send.</font><div class='respPicDiv'><img src='img/responseButtonOffersNo0L4.png' class='respPic'></div></div>","null","6","Marcus","9","Shared","0.35,0.65","14","0.35","trustrating_stim/white_mw053.bmp","7.5","87","17"
"html-keyboard-response","187","833603","0.0-19.0-3.16","63d89eb9781fd5479e5c175a","bdp_trlrn","Wed Mar 15 2023 21:18:13 GMT-0600 (Mountain Daylight Time)","1243476","Trustworthy,Untrustworthy","","null","","","","feedback","","<div class='trialDiv'><img src='trustrating_stim/white_mw053.bmp'><br><font class='baseline'><strong>Marcus</strong><p>Received: <strong>16</strong></font> &nbsp; &nbsp; &nbsp; &nbsp; &nbsp; &nbsp;<font class='posOutcome'>Shared back: <strong>8</strong></font></font><div class='respPicDiv'><img src='img/responseButtonOffersNo0_wht.png' class='respPic'></div></div>","null","6","Marcus","9","Shared","0.35,0.65","14","0.35","trustrating_stim/white_mw053.bmp","7.5","95","17"
"html-keyboard-response","188","834774","0.0-19.0-1.17","63d89eb9781fd5479e5c175a","bdp_trlrn","Wed Mar 15 2023 21:18:13 GMT-0600 (Mountain Daylight Time)","1243476","Trustworthy,Untrustworthy","","1170","","","","decision","","<div class='trialDiv'><img src='trustrating_stim/white_00519_940519_fb_edt.bmp'><br><font class='baseline'><strong>Sebastian</strong><p>Choose number of points to send.</font><div class='respPicDiv'><img src='img/responseButtonOffersNo0L.png' class='respPic'></div></div>","5","6","Sebastian","5","Kept","0.65,0.2","13","0.65","trustrating_stim/white_00519_940519_fb_edt.bmp","5","100","18"
"html-keyboard-response","189","835036","0.0-19.0-2.17","63d89eb9781fd5479e5c175a","bdp_trlrn","Wed Mar 15 2023 21:18:13 GMT-0600 (Mountain Daylight Time)","1243476","Trustworthy,Untrustworthy","","null","","","","decisionFB","","<div class='trialDiv'><img src='trustrating_stim/white_00519_940519_fb_edt.bmp'><br><font class='baseline'><strong>Sebastian</strong><p>Choose number of points to send.</font><div class='respPicDiv'><img src='img/responseButtonOffersNo0L5.png' class='respPic'></div></div>","null","6","Sebastian","5","Kept","0.65,0.2","13","0.65","trustrating_stim/white_00519_940519_fb_edt.bmp","5","95","18"
"html-keyboard-response","190","836053","0.0-19.0-3.17","63d89eb9781fd5479e5c175a","bdp_trlrn","Wed Mar 15 2023 21:18:13 GMT-0600 (Mountain Daylight Time)","1243476","Trustworthy,Untrustworthy","","null","","","","feedback","","<div class='trialDiv'><img src='trustrating_stim/white_00519_940519_fb_edt.bmp'><br><font class='baseline'><strong>Sebastian</strong><p>Received: <strong>20</strong></font> &nbsp; &nbsp; &nbsp; &nbsp; &nbsp; &nbsp;<font class='negOutcome'>Shared back: <strong>0</strong></font></font><div class='respPicDiv'><img src='img/responseButtonOffersNo0_wht.png' class='respPic'></div></div>","null","6","Sebastian","5","Kept","0.65,0.2","13","0.65","trustrating_stim/white_00519_940519_fb_edt.bmp","5","95","18"
"html-keyboard-response","191","843400","0.0-19.0-1.18","63d89eb9781fd5479e5c175a","bdp_trlrn","Wed Mar 15 2023 21:18:13 GMT-0600 (Mountain Daylight Time)","1243476","Trustworthy,Untrustworthy","","7346","","","","decision","","<div class='trialDiv'><img src='trustrating_stim/white_mw063.bmp'><br><font class='baseline'><strong>Ethan</strong><p>Choose number of points to send.</font><div class='respPicDiv'><img src='img/responseButtonOffersNo0L.png' class='respPic'></div></div>","3","7","Ethan","1","Shared","0.2,0.65","13","0.2","trustrating_stim/white_mw063.bmp","3","100","19"
"html-keyboard-response","192","843653","0.0-19.0-2.18","63d89eb9781fd5479e5c175a","bdp_trlrn","Wed Mar 15 2023 21:18:13 GMT-0600 (Mountain Daylight Time)","1243476","Trustworthy,Untrustworthy","","null","","","","decisionFB","","<div class='trialDiv'><img src='trustrating_stim/white_mw063.bmp'><br><font class='baseline'><strong>Ethan</strong><p>Choose number of points to send.</font><div class='respPicDiv'><img src='img/responseButtonOffersNo0L3.png' class='respPic'></div></div>","null","7","Ethan","1","Shared","0.2,0.65","13","0.2","trustrating_stim/white_mw063.bmp","3","97","19"
"html-keyboard-response","193","844668","0.0-19.0-3.18","63d89eb9781fd5479e5c175a","bdp_trlrn","Wed Mar 15 2023 21:18:13 GMT-0600 (Mountain Daylight Time)","1243476","Trustworthy,Untrustworthy","","null","","","","feedback","","<div class='trialDiv'><img src='trustrating_stim/white_mw063.bmp'><br><font class='baseline'><strong>Ethan</strong><p>Received: <strong>12</strong></font> &nbsp; &nbsp; &nbsp; &nbsp; &nbsp; &nbsp;<font class='posOutcome'>Shared back: <strong>6</strong></font></font><div class='respPicDiv'><img src='img/responseButtonOffersNo0_wht.png' class='respPic'></div></div>","null","7","Ethan","1","Shared","0.2,0.65","13","0.2","trustrating_stim/white_mw063.bmp","3","103","19"
"html-keyboard-response","194","845686","0.0-19.0-1.19","63d89eb9781fd5479e5c175a","bdp_trlrn","Wed Mar 15 2023 21:18:13 GMT-0600 (Mountain Daylight Time)","1243476","Trustworthy,Untrustworthy","","1017","","","","decision","","<div class='trialDiv'><img src='trustrating_stim/white_mw053.bmp'><br><font class='baseline'><strong>Marcus</strong><p>Choose number of points to send.</font><div class='respPicDiv'><img src='img/responseButtonOffersNo0L.png' class='respPic'></div></div>","4","7","Marcus","9","Kept","0.35,0.65","14","0.35","trustrating_stim/white_mw053.bmp","7.5","108","20"
"html-keyboard-response","195","845953","0.0-19.0-2.19","63d89eb9781fd5479e5c175a","bdp_trlrn","Wed Mar 15 2023 21:18:13 GMT-0600 (Mountain Daylight Time)","1243476","Trustworthy,Untrustworthy","","null","","","","decisionFB","","<div class='trialDiv'><img src='trustrating_stim/white_mw053.bmp'><br><font class='baseline'><strong>Marcus</strong><p>Choose number of points to send.</font><div class='respPicDiv'><img src='img/responseButtonOffersNo0L4.png' class='respPic'></div></div>","null","7","Marcus","9","Kept","0.35,0.65","14","0.35","trustrating_stim/white_mw053.bmp","7.5","104","20"
"html-keyboard-response","196","846969","0.0-19.0-3.19","63d89eb9781fd5479e5c175a","bdp_trlrn","Wed Mar 15 2023 21:18:13 GMT-0600 (Mountain Daylight Time)","1243476","Trustworthy,Untrustworthy","","null","","","","feedback","","<div class='trialDiv'><img src='trustrating_stim/white_mw053.bmp'><br><font class='baseline'><strong>Marcus</strong><p>Received: <strong>16</strong></font> &nbsp; &nbsp; &nbsp; &nbsp; &nbsp; &nbsp;<font class='negOutcome'>Shared back: <strong>0</strong></font></font><div class='respPicDiv'><img src='img/responseButtonOffersNo0_wht.png' class='respPic'></div></div>","null","7","Marcus","9","Kept","0.35,0.65","14","0.35","trustrating_stim/white_mw053.bmp","7.5","104","20"
"html-keyboard-response","197","849102","0.0-19.0-1.20","63d89eb9781fd5479e5c175a","bdp_trlrn","Wed Mar 15 2023 21:18:13 GMT-0600 (Mountain Daylight Time)","1243476","Trustworthy,Untrustworthy","","2131","","","","decision","","<div class='trialDiv'><img src='trustrating_stim/white_00519_940519_fb_edt.bmp'><br><font class='baseline'><strong>Sebastian</strong><p>Choose number of points to send.</font><div class='respPicDiv'><img src='img/responseButtonOffersNo0L.png' class='respPic'></div></div>","4","7","Sebastian","5","Shared","0.65,0.2","13","0.65","trustrating_stim/white_00519_940519_fb_edt.bmp","5","109","21"
"html-keyboard-response","198","849369","0.0-19.0-2.20","63d89eb9781fd5479e5c175a","bdp_trlrn","Wed Mar 15 2023 21:18:13 GMT-0600 (Mountain Daylight Time)","1243476","Trustworthy,Untrustworthy","","null","","","","decisionFB","","<div class='trialDiv'><img src='trustrating_stim/white_00519_940519_fb_edt.bmp'><br><font class='baseline'><strong>Sebastian</strong><p>Choose number of points to send.</font><div class='respPicDiv'><img src='img/responseButtonOffersNo0L4.png' class='respPic'></div></div>","null","7","Sebastian","5","Shared","0.65,0.2","13","0.65","trustrating_stim/white_00519_940519_fb_edt.bmp","5","105","21"
"html-keyboard-response","199","850385","0.0-19.0-3.20","63d89eb9781fd5479e5c175a","bdp_trlrn","Wed Mar 15 2023 21:18:13 GMT-0600 (Mountain Daylight Time)","1243476","Trustworthy,Untrustworthy","","null","","","","feedback","","<div class='trialDiv'><img src='trustrating_stim/white_00519_940519_fb_edt.bmp'><br><font class='baseline'><strong>Sebastian</strong><p>Received: <strong>16</strong></font> &nbsp; &nbsp; &nbsp; &nbsp; &nbsp; &nbsp;<font class='posOutcome'>Shared back: <strong>8</strong></font></font><div class='respPicDiv'><img src='img/responseButtonOffersNo0_wht.png' class='respPic'></div></div>","null","7","Sebastian","5","Shared","0.65,0.2","13","0.65","trustrating_stim/white_00519_940519_fb_edt.bmp","5","113","21"
"html-keyboard-response","200","853256","0.0-19.0-1.21","63d89eb9781fd5479e5c175a","bdp_trlrn","Wed Mar 15 2023 21:18:13 GMT-0600 (Mountain Daylight Time)","1243476","Trustworthy,Untrustworthy","","2868","","","","decision","","<div class='trialDiv'><img src='trustrating_stim/white_mw053.bmp'><br><font class='baseline'><strong>Marcus</strong><p>Choose number of points to send.</font><div class='respPicDiv'><img src='img/responseButtonOffersNo0L.png' class='respPic'></div></div>","4","8","Marcus","9","Kept","0.35,0.65","14","0.35","trustrating_stim/white_mw053.bmp","7.5","118","22"
"html-keyboard-response","201","853518","0.0-19.0-2.21","63d89eb9781fd5479e5c175a","bdp_trlrn","Wed Mar 15 2023 21:18:13 GMT-0600 (Mountain Daylight Time)","1243476","Trustworthy,Untrustworthy","","null","","","","decisionFB","","<div class='trialDiv'><img src='trustrating_stim/white_mw053.bmp'><br><font class='baseline'><strong>Marcus</strong><p>Choose number of points to send.</font><div class='respPicDiv'><img src='img/responseButtonOffersNo0L4.png' class='respPic'></div></div>","null","8","Marcus","9","Kept","0.35,0.65","14","0.35","trustrating_stim/white_mw053.bmp","7.5","114","22"
"html-keyboard-response","202","854536","0.0-19.0-3.21","63d89eb9781fd5479e5c175a","bdp_trlrn","Wed Mar 15 2023 21:18:13 GMT-0600 (Mountain Daylight Time)","1243476","Trustworthy,Untrustworthy","","null","","","","feedback","","<div class='trialDiv'><img src='trustrating_stim/white_mw053.bmp'><br><font class='baseline'><strong>Marcus</strong><p>Received: <strong>16</strong></font> &nbsp; &nbsp; &nbsp; &nbsp; &nbsp; &nbsp;<font class='negOutcome'>Shared back: <strong>0</strong></font></font><div class='respPicDiv'><img src='img/responseButtonOffersNo0_wht.png' class='respPic'></div></div>","null","8","Marcus","9","Kept","0.35,0.65","14","0.35","trustrating_stim/white_mw053.bmp","7.5","114","22"
"html-keyboard-response","203","858812","0.0-19.0-1.22","63d89eb9781fd5479e5c175a","bdp_trlrn","Wed Mar 15 2023 21:18:13 GMT-0600 (Mountain Daylight Time)","1243476","Trustworthy,Untrustworthy","","4273","","","","decision","","<div class='trialDiv'><img src='trustrating_stim/white_00519_940519_fb_edt.bmp'><br><font class='baseline'><strong>Sebastian</strong><p>Choose number of points to send.</font><div class='respPicDiv'><img src='img/responseButtonOffersNo0L.png' class='respPic'></div></div>","4","8","Sebastian","5","Kept","0.65,0.2","13","0.65","trustrating_stim/white_00519_940519_fb_edt.bmp","5","119","23"
"html-keyboard-response","204","859069","0.0-19.0-2.22","63d89eb9781fd5479e5c175a","bdp_trlrn","Wed Mar 15 2023 21:18:13 GMT-0600 (Mountain Daylight Time)","1243476","Trustworthy,Untrustworthy","","null","","","","decisionFB","","<div class='trialDiv'><img src='trustrating_stim/white_00519_940519_fb_edt.bmp'><br><font class='baseline'><strong>Sebastian</strong><p>Choose number of points to send.</font><div class='respPicDiv'><img src='img/responseButtonOffersNo0L4.png' class='respPic'></div></div>","null","8","Sebastian","5","Kept","0.65,0.2","13","0.65","trustrating_stim/white_00519_940519_fb_edt.bmp","5","115","23"
"html-keyboard-response","205","860084","0.0-19.0-3.22","63d89eb9781fd5479e5c175a","bdp_trlrn","Wed Mar 15 2023 21:18:13 GMT-0600 (Mountain Daylight Time)","1243476","Trustworthy,Untrustworthy","","null","","","","feedback","","<div class='trialDiv'><img src='trustrating_stim/white_00519_940519_fb_edt.bmp'><br><font class='baseline'><strong>Sebastian</strong><p>Received: <strong>16</strong></font> &nbsp; &nbsp; &nbsp; &nbsp; &nbsp; &nbsp;<font class='negOutcome'>Shared back: <strong>0</strong></font></font><div class='respPicDiv'><img src='img/responseButtonOffersNo0_wht.png' class='respPic'></div></div>","null","8","Sebastian","5","Kept","0.65,0.2","13","0.65","trustrating_stim/white_00519_940519_fb_edt.bmp","5","115","23"
"html-keyboard-response","206","862227","0.0-19.0-1.23","63d89eb9781fd5479e5c175a","bdp_trlrn","Wed Mar 15 2023 21:18:13 GMT-0600 (Mountain Daylight Time)","1243476","Trustworthy,Untrustworthy","","2140","","","","decision","","<div class='trialDiv'><img src='trustrating_stim/white_mw063.bmp'><br><font class='baseline'><strong>Ethan</strong><p>Choose number of points to send.</font><div class='respPicDiv'><img src='img/responseButtonOffersNo0L.png' class='respPic'></div></div>","3","8","Ethan","1","Kept","0.2,0.65","13","0.2","trustrating_stim/white_mw063.bmp","3","120","24"
"html-keyboard-response","207","862484","0.0-19.0-2.23","63d89eb9781fd5479e5c175a","bdp_trlrn","Wed Mar 15 2023 21:18:13 GMT-0600 (Mountain Daylight Time)","1243476","Trustworthy,Untrustworthy","","null","","","","decisionFB","","<div class='trialDiv'><img src='trustrating_stim/white_mw063.bmp'><br><font class='baseline'><strong>Ethan</strong><p>Choose number of points to send.</font><div class='respPicDiv'><img src='img/responseButtonOffersNo0L3.png' class='respPic'></div></div>","null","8","Ethan","1","Kept","0.2,0.65","13","0.2","trustrating_stim/white_mw063.bmp","3","117","24"
"html-keyboard-response","208","863500","0.0-19.0-3.23","63d89eb9781fd5479e5c175a","bdp_trlrn","Wed Mar 15 2023 21:18:13 GMT-0600 (Mountain Daylight Time)","1243476","Trustworthy,Untrustworthy","","null","","","","feedback","","<div class='trialDiv'><img src='trustrating_stim/white_mw063.bmp'><br><font class='baseline'><strong>Ethan</strong><p>Received: <strong>12</strong></font> &nbsp; &nbsp; &nbsp; &nbsp; &nbsp; &nbsp;<font class='negOutcome'>Shared back: <strong>0</strong></font></font><div class='respPicDiv'><img src='img/responseButtonOffersNo0_wht.png' class='respPic'></div></div>","null","8","Ethan","1","Kept","0.2,0.65","13","0.2","trustrating_stim/white_mw063.bmp","3","117","24"
"html-keyboard-response","209","866652","0.0-19.0-1.24","63d89eb9781fd5479e5c175a","bdp_trlrn","Wed Mar 15 2023 21:18:13 GMT-0600 (Mountain Daylight Time)","1243476","Trustworthy,Untrustworthy","","3150","","","","decision","","<div class='trialDiv'><img src='trustrating_stim/white_00519_940519_fb_edt.bmp'><br><font class='baseline'><strong>Sebastian</strong><p>Choose number of points to send.</font><div class='respPicDiv'><img src='img/responseButtonOffersNo0L.png' class='respPic'></div></div>","2","9","Sebastian","5","Shared","0.65,0.2","13","0.65","trustrating_stim/white_00519_940519_fb_edt.bmp","5","122","25"
"html-keyboard-response","210","866917","0.0-19.0-2.24","63d89eb9781fd5479e5c175a","bdp_trlrn","Wed Mar 15 2023 21:18:13 GMT-0600 (Mountain Daylight Time)","1243476","Trustworthy,Untrustworthy","","null","","","","decisionFB","","<div class='trialDiv'><img src='trustrating_stim/white_00519_940519_fb_edt.bmp'><br><font class='baseline'><strong>Sebastian</strong><p>Choose number of points to send.</font><div class='respPicDiv'><img src='img/responseButtonOffersNo0L2.png' class='respPic'></div></div>","null","9","Sebastian","5","Shared","0.65,0.2","13","0.65","trustrating_stim/white_00519_940519_fb_edt.bmp","5","120","25"
"html-keyboard-response","211","867933","0.0-19.0-3.24","63d89eb9781fd5479e5c175a","bdp_trlrn","Wed Mar 15 2023 21:18:13 GMT-0600 (Mountain Daylight Time)","1243476","Trustworthy,Untrustworthy","","null","","","","feedback","","<div class='trialDiv'><img src='trustrating_stim/white_00519_940519_fb_edt.bmp'><br><font class='baseline'><strong>Sebastian</strong><p>Received: <strong>8</strong></font> &nbsp; &nbsp; &nbsp; &nbsp; &nbsp; &nbsp;<font class='posOutcome'>Shared back: <strong>4</strong></font></font><div class='respPicDiv'><img src='img/responseButtonOffersNo0_wht.png' class='respPic'></div></div>","null","9","Sebastian","5","Shared","0.65,0.2","13","0.65","trustrating_stim/white_00519_940519_fb_edt.bmp","5","124","25"
"html-keyboard-response","212","869090","0.0-19.0-1.25","63d89eb9781fd5479e5c175a","bdp_trlrn","Wed Mar 15 2023 21:18:13 GMT-0600 (Mountain Daylight Time)","1243476","Trustworthy,Untrustworthy","","1154","","","","decision","","<div class='trialDiv'><img src='trustrating_stim/white_mw063.bmp'><br><font class='baseline'><strong>Ethan</strong><p>Choose number of points to send.</font><div class='respPicDiv'><img src='img/responseButtonOffersNo0L.png' class='respPic'></div></div>","2","9","Ethan","1","Kept","0.2,0.65","13","0.2","trustrating_stim/white_mw063.bmp","3","129","26"
"html-keyboard-response","213","869350","0.0-19.0-2.25","63d89eb9781fd5479e5c175a","bdp_trlrn","Wed Mar 15 2023 21:18:13 GMT-0600 (Mountain Daylight Time)","1243476","Trustworthy,Untrustworthy","","null","","","","decisionFB","","<div class='trialDiv'><img src='trustrating_stim/white_mw063.bmp'><br><font class='baseline'><strong>Ethan</strong><p>Choose number of points to send.</font><div class='respPicDiv'><img src='img/responseButtonOffersNo0L2.png' class='respPic'></div></div>","null","9","Ethan","1","Kept","0.2,0.65","13","0.2","trustrating_stim/white_mw063.bmp","3","127","26"
"html-keyboard-response","214","870367","0.0-19.0-3.25","63d89eb9781fd5479e5c175a","bdp_trlrn","Wed Mar 15 2023 21:18:13 GMT-0600 (Mountain Daylight Time)","1243476","Trustworthy,Untrustworthy","","null","","","","feedback","","<div class='trialDiv'><img src='trustrating_stim/white_mw063.bmp'><br><font class='baseline'><strong>Ethan</strong><p>Received: <strong>8</strong></font> &nbsp; &nbsp; &nbsp; &nbsp; &nbsp; &nbsp;<font class='negOutcome'>Shared back: <strong>0</strong></font></font><div class='respPicDiv'><img src='img/responseButtonOffersNo0_wht.png' class='respPic'></div></div>","null","9","Ethan","1","Kept","0.2,0.65","13","0.2","trustrating_stim/white_mw063.bmp","3","127","26"
"html-keyboard-response","215","872592","0.0-19.0-1.26","63d89eb9781fd5479e5c175a","bdp_trlrn","Wed Mar 15 2023 21:18:13 GMT-0600 (Mountain Daylight Time)","1243476","Trustworthy,Untrustworthy","","2225","","","","decision","","<div class='trialDiv'><img src='trustrating_stim/white_mw053.bmp'><br><font class='baseline'><strong>Marcus</strong><p>Choose number of points to send.</font><div class='respPicDiv'><img src='img/responseButtonOffersNo0L.png' class='respPic'></div></div>","2","9","Marcus","9","Shared","0.35,0.65","14","0.35","trustrating_stim/white_mw053.bmp","7.5","132","27"
"html-keyboard-response","216","872852","0.0-19.0-2.26","63d89eb9781fd5479e5c175a","bdp_trlrn","Wed Mar 15 2023 21:18:13 GMT-0600 (Mountain Daylight Time)","1243476","Trustworthy,Untrustworthy","","null","","","","decisionFB","","<div class='trialDiv'><img src='trustrating_stim/white_mw053.bmp'><br><font class='baseline'><strong>Marcus</strong><p>Choose number of points to send.</font><div class='respPicDiv'><img src='img/responseButtonOffersNo0L2.png' class='respPic'></div></div>","null","9","Marcus","9","Shared","0.35,0.65","14","0.35","trustrating_stim/white_mw053.bmp","7.5","130","27"
"html-keyboard-response","217","873867","0.0-19.0-3.26","63d89eb9781fd5479e5c175a","bdp_trlrn","Wed Mar 15 2023 21:18:13 GMT-0600 (Mountain Daylight Time)","1243476","Trustworthy,Untrustworthy","","null","","","","feedback","","<div class='trialDiv'><img src='trustrating_stim/white_mw053.bmp'><br><font class='baseline'><strong>Marcus</strong><p>Received: <strong>8</strong></font> &nbsp; &nbsp; &nbsp; &nbsp; &nbsp; &nbsp;<font class='posOutcome'>Shared back: <strong>4</strong></font></font><div class='respPicDiv'><img src='img/responseButtonOffersNo0_wht.png' class='respPic'></div></div>","null","9","Marcus","9","Shared","0.35,0.65","14","0.35","trustrating_stim/white_mw053.bmp","7.5","134","27"
"html-keyboard-response","218","875466","0.0-19.0-1.27","63d89eb9781fd5479e5c175a","bdp_trlrn","Wed Mar 15 2023 21:18:13 GMT-0600 (Mountain Daylight Time)","1243476","Trustworthy,Untrustworthy","","1596","","","","decision","","<div class='trialDiv'><img src='trustrating_stim/white_00519_940519_fb_edt.bmp'><br><font class='baseline'><strong>Sebastian</strong><p>Choose number of points to send.</font><div class='respPicDiv'><img src='img/responseButtonOffersNo0L.png' class='respPic'></div></div>","3","10","Sebastian","5","Shared","0.65,0.2","13","0.65","trustrating_stim/white_00519_940519_fb_edt.bmp","5","139","28"
"html-keyboard-response","219","875733","0.0-19.0-2.27","63d89eb9781fd5479e5c175a","bdp_trlrn","Wed Mar 15 2023 21:18:13 GMT-0600 (Mountain Daylight Time)","1243476","Trustworthy,Untrustworthy","","null","","","","decisionFB","","<div class='trialDiv'><img src='trustrating_stim/white_00519_940519_fb_edt.bmp'><br><font class='baseline'><strong>Sebastian</strong><p>Choose number of points to send.</font><div class='respPicDiv'><img src='img/responseButtonOffersNo0L3.png' class='respPic'></div></div>","null","10","Sebastian","5","Shared","0.65,0.2","13","0.65","trustrating_stim/white_00519_940519_fb_edt.bmp","5","136","28"
