"trial_type","trial_index","time_elapsed","internal_node_id","subject_id","task","startTime","totalTime","labels","view_history","rt","event","trial","time","trialtype","numBlurs","success","stimulus","key_press","aground","name","faceID","outcome","agenttype","agentswpt","agentcurrpshare","face","avgRating","point_total","round"
"pavlovia","0","8","0.0-0.0","5e03f8517f08edece67a3137","bdp_trlrn","Sun Mar 12 2023 23:56:18 GMT-0400 (Eastern Daylight Time)","1395240","Trustworthy,Untrustworthy","","","","","","","","","","","","","","","","","","","","",""
"instructions","1","16827","0.0-1.0","5e03f8517f08edece67a3137","bdp_trlrn","Sun Mar 12 2023 23:56:18 GMT-0400 (Eastern Daylight Time)","1395240","Trustworthy,Untrustworthy","[{""page_index"":0,""viewing_time"":16817}]","16818","","","","","","","","","","","","","","","","","","",""
"","","","","5e03f8517f08edece67a3137","bdp_trlrn","Sun Mar 12 2023 23:56:18 GMT-0400 (Eastern Daylight Time)","1395240","Trustworthy,Untrustworthy","","","blur","2","21760","blurevent","1","","","","","","","","","","","","","",""
"","","","","5e03f8517f08edece67a3137","bdp_trlrn","Sun Mar 12 2023 23:56:18 GMT-0400 (Eastern Daylight Time)","1395240","Trustworthy,Untrustworthy","","","focus","2","23424","focusevent","","","","","","","","","","","","","","",""
"","","","","5e03f8517f08edece67a3137","bdp_trlrn","Sun Mar 12 2023 23:56:18 GMT-0400 (Eastern Daylight Time)","1395240","Trustworthy,Untrustworthy","","","fullscreenenter","2","31396","fullscreenenter","","","","","","","","","","","","","","",""
"fullscreen","2","32317","0.0-2.0","5e03f8517f08edece67a3137","bdp_trlrn","Sun Mar 12 2023 23:56:18 GMT-0400 (Eastern Daylight Time)","1395240","Trustworthy,Untrustworthy","","","","","","","","true","","","","","","","","","","","","",""
"instructions","3","59864","0.0-4.0","5e03f8517f08edece67a3137","bdp_trlrn","Sun Mar 12 2023 23:56:18 GMT-0400 (Eastern Daylight Time)","1395240","Trustworthy,Untrustworthy","[{""page_index"":0,""viewing_time"":10144},{""page_index"":1,""viewing_time"":17400}]","27544","","","","","","","","","","","","","","","","","","",""
"instructions","4","62022","0.0-5.0","5e03f8517f08edece67a3137","bdp_trlrn","Sun Mar 12 2023 23:56:18 GMT-0400 (Eastern Daylight Time)","1395240","Trustworthy,Untrustworthy","[{""page_index"":0,""viewing_time"":2155}]","2156","","","","","","","","","","","","","","","","","","",""
"image-keyboard-response","5","64983","0.0-6.0-1.0","5e03f8517f08edece67a3137","bdp_trlrn","Sun Mar 12 2023 23:56:18 GMT-0400 (Eastern Daylight Time)","1395240","Trustworthy,Untrustworthy","","2844","","","","rating","","","trustrating_stim/white_mw071.bmp","4","","","","","","","","","","",""
"image-keyboard-response","6","65193","0.0-6.0-2.0","5e03f8517f08edece67a3137","bdp_trlrn","Sun Mar 12 2023 23:56:18 GMT-0400 (Eastern Daylight Time)","1395240","Trustworthy,Untrustworthy","","null","","","","ratingFB","","","trustrating_stim/white_mw071.bmp","null","","","","","","","","","","",""
"image-keyboard-response","7","67285","0.0-6.0-1.1","5e03f8517f08edece67a3137","bdp_trlrn","Sun Mar 12 2023 23:56:18 GMT-0400 (Eastern Daylight Time)","1395240","Trustworthy,Untrustworthy","","1987","","","","rating","","","trustrating_stim/white_00761_941201_fb_edt.bmp","6","","","","","","","","","","",""
"image-keyboard-response","8","67491","0.0-6.0-2.1","5e03f8517f08edece67a3137","bdp_trlrn","Sun Mar 12 2023 23:56:18 GMT-0400 (Eastern Daylight Time)","1395240","Trustworthy,Untrustworthy","","null","","","","ratingFB","","","trustrating_stim/white_00761_941201_fb_edt.bmp","null","","","","","","","","","","",""
"image-keyboard-response","9","69358","0.0-6.0-1.2","5e03f8517f08edece67a3137","bdp_trlrn","Sun Mar 12 2023 23:56:18 GMT-0400 (Eastern Daylight Time)","1395240","Trustworthy,Untrustworthy","","1761","","","","rating","","","trustrating_stim/white_00223_940128_fb_edt.bmp","5","","","","","","","","","","",""
"image-keyboard-response","10","69575","0.0-6.0-2.2","5e03f8517f08edece67a3137","bdp_trlrn","Sun Mar 12 2023 23:56:18 GMT-0400 (Eastern Daylight Time)","1395240","Trustworthy,Untrustworthy","","null","","","","ratingFB","","","trustrating_stim/white_00223_940128_fb_edt.bmp","null","","","","","","","","","","",""
"image-keyboard-response","11","70911","0.0-6.0-1.3","5e03f8517f08edece67a3137","bdp_trlrn","Sun Mar 12 2023 23:56:18 GMT-0400 (Eastern Daylight Time)","1395240","Trustworthy,Untrustworthy","","1230","","","","rating","","","trustrating_stim/white_mw033.bmp","7","","","","","","","","","","",""
"image-keyboard-response","12","71124","0.0-6.0-2.3","5e03f8517f08edece67a3137","bdp_trlrn","Sun Mar 12 2023 23:56:18 GMT-0400 (Eastern Daylight Time)","1395240","Trustworthy,Untrustworthy","","null","","","","ratingFB","","","trustrating_stim/white_mw033.bmp","null","","","","","","","","","","",""
"image-keyboard-response","13","73389","0.0-6.0-1.4","5e03f8517f08edece67a3137","bdp_trlrn","Sun Mar 12 2023 23:56:18 GMT-0400 (Eastern Daylight Time)","1395240","Trustworthy,Untrustworthy","","2158","","","","rating","","","trustrating_stim/white_00299_940422_fa_edt.bmp","7","","","","","","","","","","",""
"image-keyboard-response","14","73606","0.0-6.0-2.4","5e03f8517f08edece67a3137","bdp_trlrn","Sun Mar 12 2023 23:56:18 GMT-0400 (Eastern Daylight Time)","1395240","Trustworthy,Untrustworthy","","null","","","","ratingFB","","","trustrating_stim/white_00299_940422_fa_edt.bmp","null","","","","","","","","","","",""
"image-keyboard-response","15","75262","0.0-6.0-1.5","5e03f8517f08edece67a3137","bdp_trlrn","Sun Mar 12 2023 23:56:18 GMT-0400 (Eastern Daylight Time)","1395240","Trustworthy,Untrustworthy","","1548","","","","rating","","","trustrating_stim/white_00340_940422_fa_edt.bmp","4","","","","","","","","","","",""
"image-keyboard-response","16","75472","0.0-6.0-2.5","5e03f8517f08edece67a3137","bdp_trlrn","Sun Mar 12 2023 23:56:18 GMT-0400 (Eastern Daylight Time)","1395240","Trustworthy,Untrustworthy","","null","","","","ratingFB","","","trustrating_stim/white_00340_940422_fa_edt.bmp","null","","","","","","","","","","",""
"image-keyboard-response","17","77023","0.0-6.0-1.6","5e03f8517f08edece67a3137","bdp_trlrn","Sun Mar 12 2023 23:56:18 GMT-0400 (Eastern Daylight Time)","1395240","Trustworthy,Untrustworthy","","1443","","","","rating","","","trustrating_stim/white_mw097.bmp","2","","","","","","","","","","",""
"image-keyboard-response","18","77241","0.0-6.0-2.6","5e03f8517f08edece67a3137","bdp_trlrn","Sun Mar 12 2023 23:56:18 GMT-0400 (Eastern Daylight Time)","1395240","Trustworthy,Untrustworthy","","null","","","","ratingFB","","","trustrating_stim/white_mw097.bmp","null","","","","","","","","","","",""
"image-keyboard-response","19","79698","0.0-6.0-1.7","5e03f8517f08edece67a3137","bdp_trlrn","Sun Mar 12 2023 23:56:18 GMT-0400 (Eastern Daylight Time)","1395240","Trustworthy,Untrustworthy","","2353","","","","rating","","","trustrating_stim/white_00898_960530_fa_edt.bmp","6","","","","","","","","","","",""
"image-keyboard-response","20","79906","0.0-6.0-2.7","5e03f8517f08edece67a3137","bdp_trlrn","Sun Mar 12 2023 23:56:18 GMT-0400 (Eastern Daylight Time)","1395240","Trustworthy,Untrustworthy","","null","","","","ratingFB","","","trustrating_stim/white_00898_960530_fa_edt.bmp","null","","","","","","","","","","",""
"image-keyboard-response","21","81983","0.0-6.0-1.8","5e03f8517f08edece67a3137","bdp_trlrn","Sun Mar 12 2023 23:56:18 GMT-0400 (Eastern Daylight Time)","1395240","Trustworthy,Untrustworthy","","1970","","","","rating","","","trustrating_stim/white_mw099.bmp","6","","","","","","","","","","",""
"image-keyboard-response","22","82193","0.0-6.0-2.8","5e03f8517f08edece67a3137","bdp_trlrn","Sun Mar 12 2023 23:56:18 GMT-0400 (Eastern Daylight Time)","1395240","Trustworthy,Untrustworthy","","null","","","","ratingFB","","","trustrating_stim/white_mw099.bmp","null","","","","","","","","","","",""
"image-keyboard-response","23","84733","0.0-6.0-1.9","5e03f8517f08edece67a3137","bdp_trlrn","Sun Mar 12 2023 23:56:18 GMT-0400 (Eastern Daylight Time)","1395240","Trustworthy,Untrustworthy","","2423","","","","rating","","","trustrating_stim/white_00602_940928_fb_edt.bmp","5","","","","","","","","","","",""
"image-keyboard-response","24","84939","0.0-6.0-2.9","5e03f8517f08edece67a3137","bdp_trlrn","Sun Mar 12 2023 23:56:18 GMT-0400 (Eastern Daylight Time)","1395240","Trustworthy,Untrustworthy","","null","","","","ratingFB","","","trustrating_stim/white_00602_940928_fb_edt.bmp","null","","","","","","","","","","",""
"image-keyboard-response","25","87000","0.0-6.0-1.10","5e03f8517f08edece67a3137","bdp_trlrn","Sun Mar 12 2023 23:56:18 GMT-0400 (Eastern Daylight Time)","1395240","Trustworthy,Untrustworthy","","1955","","","","rating","","","trustrating_stim/white_mw063.bmp","4","","","","","","","","","","",""
"image-keyboard-response","26","87206","0.0-6.0-2.10","5e03f8517f08edece67a3137","bdp_trlrn","Sun Mar 12 2023 23:56:18 GMT-0400 (Eastern Daylight Time)","1395240","Trustworthy,Untrustworthy","","null","","","","ratingFB","","","trustrating_stim/white_mw063.bmp","null","","","","","","","","","","",""
"image-keyboard-response","27","90504","0.0-6.0-1.11","5e03f8517f08edece67a3137","bdp_trlrn","Sun Mar 12 2023 23:56:18 GMT-0400 (Eastern Daylight Time)","1395240","Trustworthy,Untrustworthy","","3193","","","","rating","","","trustrating_stim/white_00120_931230_fa_edt.bmp","7","","","","","","","","","","",""
"image-keyboard-response","28","90722","0.0-6.0-2.11","5e03f8517f08edece67a3137","bdp_trlrn","Sun Mar 12 2023 23:56:18 GMT-0400 (Eastern Daylight Time)","1395240","Trustworthy,Untrustworthy","","null","","","","ratingFB","","","trustrating_stim/white_00120_931230_fa_edt.bmp","null","","","","","","","","","","",""
"image-keyboard-response","29","93507","0.0-6.0-1.12","5e03f8517f08edece67a3137","bdp_trlrn","Sun Mar 12 2023 23:56:18 GMT-0400 (Eastern Daylight Time)","1395240","Trustworthy,Untrustworthy","","2679","","","","rating","","","trustrating_stim/white_mw056.bmp","6","","","","","","","","","","",""
"image-keyboard-response","30","93721","0.0-6.0-2.12","5e03f8517f08edece67a3137","bdp_trlrn","Sun Mar 12 2023 23:56:18 GMT-0400 (Eastern Daylight Time)","1395240","Trustworthy,Untrustworthy","","null","","","","ratingFB","","","trustrating_stim/white_mw056.bmp","null","","","","","","","","","","",""
"image-keyboard-response","31","97357","0.0-6.0-1.13","5e03f8517f08edece67a3137","bdp_trlrn","Sun Mar 12 2023 23:56:18 GMT-0400 (Eastern Daylight Time)","1395240","Trustworthy,Untrustworthy","","3530","","","","rating","","","trustrating_stim/white_mw084.bmp","7","","","","","","","","","","",""
"image-keyboard-response","32","97571","0.0-6.0-2.13","5e03f8517f08edece67a3137","bdp_trlrn","Sun Mar 12 2023 23:56:18 GMT-0400 (Eastern Daylight Time)","1395240","Trustworthy,Untrustworthy","","null","","","","ratingFB","","","trustrating_stim/white_mw084.bmp","null","","","","","","","","","","",""
"image-keyboard-response","33","102277","0.0-6.0-1.14","5e03f8517f08edece67a3137","bdp_trlrn","Sun Mar 12 2023 23:56:18 GMT-0400 (Eastern Daylight Time)","1395240","Trustworthy,Untrustworthy","","4602","","","","rating","","","trustrating_stim/white_mw035.bmp","6","","","","","","","","","","",""
"image-keyboard-response","34","102485","0.0-6.0-2.14","5e03f8517f08edece67a3137","bdp_trlrn","Sun Mar 12 2023 23:56:18 GMT-0400 (Eastern Daylight Time)","1395240","Trustworthy,Untrustworthy","","null","","","","ratingFB","","","trustrating_stim/white_mw035.bmp","null","","","","","","","","","","",""
"image-keyboard-response","35","111937","0.0-6.0-1.15","5e03f8517f08edece67a3137","bdp_trlrn","Sun Mar 12 2023 23:56:18 GMT-0400 (Eastern Daylight Time)","1395240","Trustworthy,Untrustworthy","","9335","","","","rating","","","trustrating_stim/white_00519_940519_fb_edt.bmp","7","","","","","","","","","","",""
"image-keyboard-response","36","112151","0.0-6.0-2.15","5e03f8517f08edece67a3137","bdp_trlrn","Sun Mar 12 2023 23:56:18 GMT-0400 (Eastern Daylight Time)","1395240","Trustworthy,Untrustworthy","","null","","","","ratingFB","","","trustrating_stim/white_00519_940519_fb_edt.bmp","null","","","","","","","","","","",""
"image-keyboard-response","37","119056","0.0-6.0-1.16","5e03f8517f08edece67a3137","bdp_trlrn","Sun Mar 12 2023 23:56:18 GMT-0400 (Eastern Daylight Time)","1395240","Trustworthy,Untrustworthy","","6797","","","","rating","","","trustrating_stim/white_00129_931230_fb_edt.bmp","4","","","","","","","","","","",""
"image-keyboard-response","38","119266","0.0-6.0-2.16","5e03f8517f08edece67a3137","bdp_trlrn","Sun Mar 12 2023 23:56:18 GMT-0400 (Eastern Daylight Time)","1395240","Trustworthy,Untrustworthy","","null","","","","ratingFB","","","trustrating_stim/white_00129_931230_fb_edt.bmp","null","","","","","","","","","","",""
"image-keyboard-response","39","122333","0.0-6.0-1.17","5e03f8517f08edece67a3137","bdp_trlrn","Sun Mar 12 2023 23:56:18 GMT-0400 (Eastern Daylight Time)","1395240","Trustworthy,Untrustworthy","","2962","","","","rating","","","trustrating_stim/white_00109_931230_fa_edt.bmp","5","","","","","","","","","","",""
"image-keyboard-response","40","122539","0.0-6.0-2.17","5e03f8517f08edece67a3137","bdp_trlrn","Sun Mar 12 2023 23:56:18 GMT-0400 (Eastern Daylight Time)","1395240","Trustworthy,Untrustworthy","","null","","","","ratingFB","","","trustrating_stim/white_00109_931230_fa_edt.bmp","null","","","","","","","","","","",""
"image-keyboard-response","41","129245","0.0-6.0-1.18","5e03f8517f08edece67a3137","bdp_trlrn","Sun Mar 12 2023 23:56:18 GMT-0400 (Eastern Daylight Time)","1395240","Trustworthy,Untrustworthy","","6601","","","","rating","","","trustrating_stim/white_00757_941201_fa_edt.bmp","7","","","","","","","","","","",""
"image-keyboard-response","42","129453","0.0-6.0-2.18","5e03f8517f08edece67a3137","bdp_trlrn","Sun Mar 12 2023 23:56:18 GMT-0400 (Eastern Daylight Time)","1395240","Trustworthy,Untrustworthy","","null","","","","ratingFB","","","trustrating_stim/white_00757_941201_fa_edt.bmp","null","","","","","","","","","","",""
"image-keyboard-response","43","133671","0.0-6.0-1.19","5e03f8517f08edece67a3137","bdp_trlrn","Sun Mar 12 2023 23:56:18 GMT-0400 (Eastern Daylight Time)","1395240","Trustworthy,Untrustworthy","","4113","","","","rating","","","trustrating_stim/white_mw060.bmp","8","","","","","","","","","","",""
"image-keyboard-response","44","133887","0.0-6.0-2.19","5e03f8517f08edece67a3137","bdp_trlrn","Sun Mar 12 2023 23:56:18 GMT-0400 (Eastern Daylight Time)","1395240","Trustworthy,Untrustworthy","","null","","","","ratingFB","","","trustrating_stim/white_mw060.bmp","null","","","","","","","","","","",""
"image-keyboard-response","45","137938","0.0-6.0-1.20","5e03f8517f08edece67a3137","bdp_trlrn","Sun Mar 12 2023 23:56:18 GMT-0400 (Eastern Daylight Time)","1395240","Trustworthy,Untrustworthy","","3946","","","","rating","","","trustrating_stim/white_mw046.bmp","6","","","","","","","","","","",""
"image-keyboard-response","46","138154","0.0-6.0-2.20","5e03f8517f08edece67a3137","bdp_trlrn","Sun Mar 12 2023 23:56:18 GMT-0400 (Eastern Daylight Time)","1395240","Trustworthy,Untrustworthy","","null","","","","ratingFB","","","trustrating_stim/white_mw046.bmp","null","","","","","","","","","","",""
"image-keyboard-response","47","140843","0.0-6.0-1.21","5e03f8517f08edece67a3137","bdp_trlrn","Sun Mar 12 2023 23:56:18 GMT-0400 (Eastern Daylight Time)","1395240","Trustworthy,Untrustworthy","","2586","","","","rating","","","trustrating_stim/white_mw066.bmp","7","","","","","","","","","","",""
"image-keyboard-response","48","141051","0.0-6.0-2.21","5e03f8517f08edece67a3137","bdp_trlrn","Sun Mar 12 2023 23:56:18 GMT-0400 (Eastern Daylight Time)","1395240","Trustworthy,Untrustworthy","","null","","","","ratingFB","","","trustrating_stim/white_mw066.bmp","null","","","","","","","","","","",""
"image-keyboard-response","49","145973","0.0-6.0-1.22","5e03f8517f08edece67a3137","bdp_trlrn","Sun Mar 12 2023 23:56:18 GMT-0400 (Eastern Daylight Time)","1395240","Trustworthy,Untrustworthy","","4815","","","","rating","","","trustrating_stim/white_mw049.bmp","5","","","","","","","","","","",""
"image-keyboard-response","50","146185","0.0-6.0-2.22","5e03f8517f08edece67a3137","bdp_trlrn","Sun Mar 12 2023 23:56:18 GMT-0400 (Eastern Daylight Time)","1395240","Trustworthy,Untrustworthy","","null","","","","ratingFB","","","trustrating_stim/white_mw049.bmp","null","","","","","","","","","","",""
"image-keyboard-response","51","148429","0.0-6.0-1.23","5e03f8517f08edece67a3137","bdp_trlrn","Sun Mar 12 2023 23:56:18 GMT-0400 (Eastern Daylight Time)","1395240","Trustworthy,Untrustworthy","","2140","","","","rating","","","trustrating_stim/white_mw089.bmp","5","","","","","","","","","","",""
"image-keyboard-response","52","148634","0.0-6.0-2.23","5e03f8517f08edece67a3137","bdp_trlrn","Sun Mar 12 2023 23:56:18 GMT-0400 (Eastern Daylight Time)","1395240","Trustworthy,Untrustworthy","","null","","","","ratingFB","","","trustrating_stim/white_mw089.bmp","null","","","","","","","","","","",""
"image-keyboard-response","53","150493","0.0-6.0-1.24","5e03f8517f08edece67a3137","bdp_trlrn","Sun Mar 12 2023 23:56:18 GMT-0400 (Eastern Daylight Time)","1395240","Trustworthy,Untrustworthy","","1755","","","","rating","","","trustrating_stim/white_mw048.bmp","2","","","","","","","","","","",""
"image-keyboard-response","54","150700","0.0-6.0-2.24","5e03f8517f08edece67a3137","bdp_trlrn","Sun Mar 12 2023 23:56:18 GMT-0400 (Eastern Daylight Time)","1395240","Trustworthy,Untrustworthy","","null","","","","ratingFB","","","trustrating_stim/white_mw048.bmp","null","","","","","","","","","","",""
"image-keyboard-response","55","153094","0.0-6.0-1.25","5e03f8517f08edece67a3137","bdp_trlrn","Sun Mar 12 2023 23:56:18 GMT-0400 (Eastern Daylight Time)","1395240","Trustworthy,Untrustworthy","","2286","","","","rating","","","trustrating_stim/white_00577_940928_fa_edt.bmp","3","","","","","","","","","","",""
"image-keyboard-response","56","153299","0.0-6.0-2.25","5e03f8517f08edece67a3137","bdp_trlrn","Sun Mar 12 2023 23:56:18 GMT-0400 (Eastern Daylight Time)","1395240","Trustworthy,Untrustworthy","","null","","","","ratingFB","","","trustrating_stim/white_00577_940928_fa_edt.bmp","null","","","","","","","","","","",""
"image-keyboard-response","57","155435","0.0-6.0-1.26","5e03f8517f08edece67a3137","bdp_trlrn","Sun Mar 12 2023 23:56:18 GMT-0400 (Eastern Daylight Time)","1395240","Trustworthy,Untrustworthy","","2027","","","","rating","","","trustrating_stim/white_00807_941205_fb_edt.bmp","4","","","","","","","","","","",""
"image-keyboard-response","58","155650","0.0-6.0-2.26","5e03f8517f08edece67a3137","bdp_trlrn","Sun Mar 12 2023 23:56:18 GMT-0400 (Eastern Daylight Time)","1395240","Trustworthy,Untrustworthy","","null","","","","ratingFB","","","trustrating_stim/white_00807_941205_fb_edt.bmp","null","","","","","","","","","","",""
"image-keyboard-response","59","157973","0.0-6.0-1.27","5e03f8517f08edece67a3137","bdp_trlrn","Sun Mar 12 2023 23:56:18 GMT-0400 (Eastern Daylight Time)","1395240","Trustworthy,Untrustworthy","","2212","","","","rating","","","trustrating_stim/white_00785_941205_fb_edt.bmp","4","","","","","","","","","","",""
"image-keyboard-response","60","158184","0.0-6.0-2.27","5e03f8517f08edece67a3137","bdp_trlrn","Sun Mar 12 2023 23:56:18 GMT-0400 (Eastern Daylight Time)","1395240","Trustworthy,Untrustworthy","","null","","","","ratingFB","","","trustrating_stim/white_00785_941205_fb_edt.bmp","null","","","","","","","","","","",""
"image-keyboard-response","61","160707","0.0-6.0-1.28","5e03f8517f08edece67a3137","bdp_trlrn","Sun Mar 12 2023 23:56:18 GMT-0400 (Eastern Daylight Time)","1395240","Trustworthy,Untrustworthy","","2403","","","","rating","","","trustrating_stim/white_00659_941121_fa_edt.bmp","2","","","","","","","","","","",""
"image-keyboard-response","62","160914","0.0-6.0-2.28","5e03f8517f08edece67a3137","bdp_trlrn","Sun Mar 12 2023 23:56:18 GMT-0400 (Eastern Daylight Time)","1395240","Trustworthy,Untrustworthy","","null","","","","ratingFB","","","trustrating_stim/white_00659_941121_fa_edt.bmp","null","","","","","","","","","","",""
"image-keyboard-response","63","168798","0.0-6.0-1.29","5e03f8517f08edece67a3137","bdp_trlrn","Sun Mar 12 2023 23:56:18 GMT-0400 (Eastern Daylight Time)","1395240","Trustworthy,Untrustworthy","","7778","","","","rating","","","trustrating_stim/white_mw053.bmp","6","","","","","","","","","","",""
"image-keyboard-response","64","169004","0.0-6.0-2.29","5e03f8517f08edece67a3137","bdp_trlrn","Sun Mar 12 2023 23:56:18 GMT-0400 (Eastern Daylight Time)","1395240","Trustworthy,Untrustworthy","","null","","","","ratingFB","","","trustrating_stim/white_mw053.bmp","null","","","","","","","","","","",""
"image-keyboard-response","65","172213","0.0-6.0-1.30","5e03f8517f08edece67a3137","bdp_trlrn","Sun Mar 12 2023 23:56:18 GMT-0400 (Eastern Daylight Time)","1395240","Trustworthy,Untrustworthy","","3095","","","","rating","","","trustrating_stim/white_00761_941201_fb_edt.bmp","4","","","","","","","","","","",""
"image-keyboard-response","66","172431","0.0-6.0-2.30","5e03f8517f08edece67a3137","bdp_trlrn","Sun Mar 12 2023 23:56:18 GMT-0400 (Eastern Daylight Time)","1395240","Trustworthy,Untrustworthy","","null","","","","ratingFB","","","trustrating_stim/white_00761_941201_fb_edt.bmp","null","","","","","","","","","","",""
"image-keyboard-response","67","179144","0.0-6.0-1.31","5e03f8517f08edece67a3137","bdp_trlrn","Sun Mar 12 2023 23:56:18 GMT-0400 (Eastern Daylight Time)","1395240","Trustworthy,Untrustworthy","","6591","","","","rating","","","trustrating_stim/white_mw053.bmp","5","","","","","","","","","","",""
"image-keyboard-response","68","179363","0.0-6.0-2.31","5e03f8517f08edece67a3137","bdp_trlrn","Sun Mar 12 2023 23:56:18 GMT-0400 (Eastern Daylight Time)","1395240","Trustworthy,Untrustworthy","","null","","","","ratingFB","","","trustrating_stim/white_mw053.bmp","null","","","","","","","","","","",""
"image-keyboard-response","69","181514","0.0-6.0-1.32","5e03f8517f08edece67a3137","bdp_trlrn","Sun Mar 12 2023 23:56:18 GMT-0400 (Eastern Daylight Time)","1395240","Trustworthy,Untrustworthy","","2029","","","","rating","","","trustrating_stim/white_00807_941205_fb_edt.bmp","6","","","","","","","","","","",""
"image-keyboard-response","70","181729","0.0-6.0-2.32","5e03f8517f08edece67a3137","bdp_trlrn","Sun Mar 12 2023 23:56:18 GMT-0400 (Eastern Daylight Time)","1395240","Trustworthy,Untrustworthy","","null","","","","ratingFB","","","trustrating_stim/white_00807_941205_fb_edt.bmp","null","","","","","","","","","","",""
"image-keyboard-response","71","185357","0.0-6.0-1.33","5e03f8517f08edece67a3137","bdp_trlrn","Sun Mar 12 2023 23:56:18 GMT-0400 (Eastern Daylight Time)","1395240","Trustworthy,Untrustworthy","","3507","","","","rating","","","trustrating_stim/white_00659_941121_fa_edt.bmp","7","","","","","","","","","","",""
"image-keyboard-response","72","185573","0.0-6.0-2.33","5e03f8517f08edece67a3137","bdp_trlrn","Sun Mar 12 2023 23:56:18 GMT-0400 (Eastern Daylight Time)","1395240","Trustworthy,Untrustworthy","","null","","","","ratingFB","","","trustrating_stim/white_00659_941121_fa_edt.bmp","null","","","","","","","","","","",""
"image-keyboard-response","73","187909","0.0-6.0-1.34","5e03f8517f08edece67a3137","bdp_trlrn","Sun Mar 12 2023 23:56:18 GMT-0400 (Eastern Daylight Time)","1395240","Trustworthy,Untrustworthy","","2216","","","","rating","","","trustrating_stim/white_mw089.bmp","8","","","","","","","","","","",""
"image-keyboard-response","74","188121","0.0-6.0-2.34","5e03f8517f08edece67a3137","bdp_trlrn","Sun Mar 12 2023 23:56:18 GMT-0400 (Eastern Daylight Time)","1395240","Trustworthy,Untrustworthy","","null","","","","ratingFB","","","trustrating_stim/white_mw089.bmp","null","","","","","","","","","","",""
"image-keyboard-response","75","191234","0.0-6.0-1.35","5e03f8517f08edece67a3137","bdp_trlrn","Sun Mar 12 2023 23:56:18 GMT-0400 (Eastern Daylight Time)","1395240","Trustworthy,Untrustworthy","","3006","","","","rating","","","trustrating_stim/white_mw063.bmp","8","","","","","","","","","","",""
"image-keyboard-response","76","191454","0.0-6.0-2.35","5e03f8517f08edece67a3137","bdp_trlrn","Sun Mar 12 2023 23:56:18 GMT-0400 (Eastern Daylight Time)","1395240","Trustworthy,Untrustworthy","","null","","","","ratingFB","","","trustrating_stim/white_mw063.bmp","null","","","","","","","","","","",""
"image-keyboard-response","77","193672","0.0-6.0-1.36","5e03f8517f08edece67a3137","bdp_trlrn","Sun Mar 12 2023 23:56:18 GMT-0400 (Eastern Daylight Time)","1395240","Trustworthy,Untrustworthy","","2095","","","","rating","","","trustrating_stim/white_mw049.bmp","4","","","","","","","","","","",""
"image-keyboard-response","78","193885","0.0-6.0-2.36","5e03f8517f08edece67a3137","bdp_trlrn","Sun Mar 12 2023 23:56:18 GMT-0400 (Eastern Daylight Time)","1395240","Trustworthy,Untrustworthy","","null","","","","ratingFB","","","trustrating_stim/white_mw049.bmp","null","","","","","","","","","","",""
"image-keyboard-response","79","198732","0.0-6.0-1.37","5e03f8517f08edece67a3137","bdp_trlrn","Sun Mar 12 2023 23:56:18 GMT-0400 (Eastern Daylight Time)","1395240","Trustworthy,Untrustworthy","","4741","","","","rating","","","trustrating_stim/white_00757_941201_fa_edt.bmp","6","","","","","","","","","","",""
"image-keyboard-response","80","198939","0.0-6.0-2.37","5e03f8517f08edece67a3137","bdp_trlrn","Sun Mar 12 2023 23:56:18 GMT-0400 (Eastern Daylight Time)","1395240","Trustworthy,Untrustworthy","","null","","","","ratingFB","","","trustrating_stim/white_00757_941201_fa_edt.bmp","null","","","","","","","","","","",""
"image-keyboard-response","81","203172","0.0-6.0-1.38","5e03f8517f08edece67a3137","bdp_trlrn","Sun Mar 12 2023 23:56:18 GMT-0400 (Eastern Daylight Time)","1395240","Trustworthy,Untrustworthy","","4110","","","","rating","","","trustrating_stim/white_00129_931230_fb_edt.bmp","4","","","","","","","","","","",""
"image-keyboard-response","82","203386","0.0-6.0-2.38","5e03f8517f08edece67a3137","bdp_trlrn","Sun Mar 12 2023 23:56:18 GMT-0400 (Eastern Daylight Time)","1395240","Trustworthy,Untrustworthy","","null","","","","ratingFB","","","trustrating_stim/white_00129_931230_fb_edt.bmp","null","","","","","","","","","","",""
"image-keyboard-response","83","204893","0.0-6.0-1.39","5e03f8517f08edece67a3137","bdp_trlrn","Sun Mar 12 2023 23:56:18 GMT-0400 (Eastern Daylight Time)","1395240","Trustworthy,Untrustworthy","","1386","","","","rating","","","trustrating_stim/white_00577_940928_fa_edt.bmp","7","","","","","","","","","","",""
"image-keyboard-response","84","205101","0.0-6.0-2.39","5e03f8517f08edece67a3137","bdp_trlrn","Sun Mar 12 2023 23:56:18 GMT-0400 (Eastern Daylight Time)","1395240","Trustworthy,Untrustworthy","","null","","","","ratingFB","","","trustrating_stim/white_00577_940928_fa_edt.bmp","null","","","","","","","","","","",""
"image-keyboard-response","85","210293","0.0-6.0-1.40","5e03f8517f08edece67a3137","bdp_trlrn","Sun Mar 12 2023 23:56:18 GMT-0400 (Eastern Daylight Time)","1395240","Trustworthy,Untrustworthy","","5087","","","","rating","","","trustrating_stim/white_mw097.bmp","8","","","","","","","","","","",""
"image-keyboard-response","86","210498","0.0-6.0-2.40","5e03f8517f08edece67a3137","bdp_trlrn","Sun Mar 12 2023 23:56:18 GMT-0400 (Eastern Daylight Time)","1395240","Trustworthy,Untrustworthy","","null","","","","ratingFB","","","trustrating_stim/white_mw097.bmp","null","","","","","","","","","","",""
"image-keyboard-response","87","216383","0.0-6.0-1.41","5e03f8517f08edece67a3137","bdp_trlrn","Sun Mar 12 2023 23:56:18 GMT-0400 (Eastern Daylight Time)","1395240","Trustworthy,Untrustworthy","","5777","","","","rating","","","trustrating_stim/white_mw066.bmp","7","","","","","","","","","","",""
"image-keyboard-response","88","216603","0.0-6.0-2.41","5e03f8517f08edece67a3137","bdp_trlrn","Sun Mar 12 2023 23:56:18 GMT-0400 (Eastern Daylight Time)","1395240","Trustworthy,Untrustworthy","","null","","","","ratingFB","","","trustrating_stim/white_mw066.bmp","null","","","","","","","","","","",""
"image-keyboard-response","89","219998","0.0-6.0-1.42","5e03f8517f08edece67a3137","bdp_trlrn","Sun Mar 12 2023 23:56:18 GMT-0400 (Eastern Daylight Time)","1395240","Trustworthy,Untrustworthy","","3260","","","","rating","","","trustrating_stim/white_00898_960530_fa_edt.bmp","4","","","","","","","","","","",""
"image-keyboard-response","90","220214","0.0-6.0-2.42","5e03f8517f08edece67a3137","bdp_trlrn","Sun Mar 12 2023 23:56:18 GMT-0400 (Eastern Daylight Time)","1395240","Trustworthy,Untrustworthy","","null","","","","ratingFB","","","trustrating_stim/white_00898_960530_fa_edt.bmp","null","","","","","","","","","","",""
"image-keyboard-response","91","223656","0.0-6.0-1.43","5e03f8517f08edece67a3137","bdp_trlrn","Sun Mar 12 2023 23:56:18 GMT-0400 (Eastern Daylight Time)","1395240","Trustworthy,Untrustworthy","","3334","","","","rating","","","trustrating_stim/white_00340_940422_fa_edt.bmp","9","","","","","","","","","","",""
"image-keyboard-response","92","223865","0.0-6.0-2.43","5e03f8517f08edece67a3137","bdp_trlrn","Sun Mar 12 2023 23:56:18 GMT-0400 (Eastern Daylight Time)","1395240","Trustworthy,Untrustworthy","","null","","","","ratingFB","","","trustrating_stim/white_00340_940422_fa_edt.bmp","null","","","","","","","","","","",""
"image-keyboard-response","93","226471","0.0-6.0-1.44","5e03f8517f08edece67a3137","bdp_trlrn","Sun Mar 12 2023 23:56:18 GMT-0400 (Eastern Daylight Time)","1395240","Trustworthy,Untrustworthy","","2485","","","","rating","","","trustrating_stim/white_mw035.bmp","6","","","","","","","","","","",""
"image-keyboard-response","94","226682","0.0-6.0-2.44","5e03f8517f08edece67a3137","bdp_trlrn","Sun Mar 12 2023 23:56:18 GMT-0400 (Eastern Daylight Time)","1395240","Trustworthy,Untrustworthy","","null","","","","ratingFB","","","trustrating_stim/white_mw035.bmp","null","","","","","","","","","","",""
"image-keyboard-response","95","228333","0.0-6.0-1.45","5e03f8517f08edece67a3137","bdp_trlrn","Sun Mar 12 2023 23:56:18 GMT-0400 (Eastern Daylight Time)","1395240","Trustworthy,Untrustworthy","","1531","","","","rating","","","trustrating_stim/white_mw046.bmp","5","","","","","","","","","","",""
"image-keyboard-response","96","228546","0.0-6.0-2.45","5e03f8517f08edece67a3137","bdp_trlrn","Sun Mar 12 2023 23:56:18 GMT-0400 (Eastern Daylight Time)","1395240","Trustworthy,Untrustworthy","","null","","","","ratingFB","","","trustrating_stim/white_mw046.bmp","null","","","","","","","","","","",""
"image-keyboard-response","97","229925","0.0-6.0-1.46","5e03f8517f08edece67a3137","bdp_trlrn","Sun Mar 12 2023 23:56:18 GMT-0400 (Eastern Daylight Time)","1395240","Trustworthy,Untrustworthy","","1271","","","","rating","","","trustrating_stim/white_mw056.bmp","6","","","","","","","","","","",""
"image-keyboard-response","98","230141","0.0-6.0-2.46","5e03f8517f08edece67a3137","bdp_trlrn","Sun Mar 12 2023 23:56:18 GMT-0400 (Eastern Daylight Time)","1395240","Trustworthy,Untrustworthy","","null","","","","ratingFB","","","trustrating_stim/white_mw056.bmp","null","","","","","","","","","","",""
"image-keyboard-response","99","232191","0.0-6.0-1.47","5e03f8517f08edece67a3137","bdp_trlrn","Sun Mar 12 2023 23:56:18 GMT-0400 (Eastern Daylight Time)","1395240","Trustworthy,Untrustworthy","","1937","","","","rating","","","trustrating_stim/white_00519_940519_fb_edt.bmp","7","","","","","","","","","","",""
"image-keyboard-response","100","232396","0.0-6.0-2.47","5e03f8517f08edece67a3137","bdp_trlrn","Sun Mar 12 2023 23:56:18 GMT-0400 (Eastern Daylight Time)","1395240","Trustworthy,Untrustworthy","","null","","","","ratingFB","","","trustrating_stim/white_00519_940519_fb_edt.bmp","null","","","","","","","","","","",""
"image-keyboard-response","101","233704","0.0-6.0-1.48","5e03f8517f08edece67a3137","bdp_trlrn","Sun Mar 12 2023 23:56:18 GMT-0400 (Eastern Daylight Time)","1395240","Trustworthy,Untrustworthy","","1201","","","","rating","","","trustrating_stim/white_00109_931230_fa_edt.bmp","4","","","","","","","","","","",""
"image-keyboard-response","102","233912","0.0-6.0-2.48","5e03f8517f08edece67a3137","bdp_trlrn","Sun Mar 12 2023 23:56:18 GMT-0400 (Eastern Daylight Time)","1395240","Trustworthy,Untrustworthy","","null","","","","ratingFB","","","trustrating_stim/white_00109_931230_fa_edt.bmp","null","","","","","","","","","","",""
"image-keyboard-response","103","235893","0.0-6.0-1.49","5e03f8517f08edece67a3137","bdp_trlrn","Sun Mar 12 2023 23:56:18 GMT-0400 (Eastern Daylight Time)","1395240","Trustworthy,Untrustworthy","","1873","","","","rating","","","trustrating_stim/white_00785_941205_fb_edt.bmp","6","","","","","","","","","","",""
"image-keyboard-response","104","236096","0.0-6.0-2.49","5e03f8517f08edece67a3137","bdp_trlrn","Sun Mar 12 2023 23:56:18 GMT-0400 (Eastern Daylight Time)","1395240","Trustworthy,Untrustworthy","","null","","","","ratingFB","","","trustrating_stim/white_00785_941205_fb_edt.bmp","null","","","","","","","","","","",""
"image-keyboard-response","105","237903","0.0-6.0-1.50","5e03f8517f08edece67a3137","bdp_trlrn","Sun Mar 12 2023 23:56:18 GMT-0400 (Eastern Daylight Time)","1395240","Trustworthy,Untrustworthy","","1686","","","","rating","","","trustrating_stim/white_mw060.bmp","9","","","","","","","","","","",""
"image-keyboard-response","106","238113","0.0-6.0-2.50","5e03f8517f08edece67a3137","bdp_trlrn","Sun Mar 12 2023 23:56:18 GMT-0400 (Eastern Daylight Time)","1395240","Trustworthy,Untrustworthy","","null","","","","ratingFB","","","trustrating_stim/white_mw060.bmp","null","","","","","","","","","","",""
"image-keyboard-response","107","241008","0.0-6.0-1.51","5e03f8517f08edece67a3137","bdp_trlrn","Sun Mar 12 2023 23:56:18 GMT-0400 (Eastern Daylight Time)","1395240","Trustworthy,Untrustworthy","","2774","","","","rating","","","trustrating_stim/white_00223_940128_fb_edt.bmp","7","","","","","","","","","","",""
"image-keyboard-response","108","241228","0.0-6.0-2.51","5e03f8517f08edece67a3137","bdp_trlrn","Sun Mar 12 2023 23:56:18 GMT-0400 (Eastern Daylight Time)","1395240","Trustworthy,Untrustworthy","","null","","","","ratingFB","","","trustrating_stim/white_00223_940128_fb_edt.bmp","null","","","","","","","","","","",""
"image-keyboard-response","109","244773","0.0-6.0-1.52","5e03f8517f08edece67a3137","bdp_trlrn","Sun Mar 12 2023 23:56:18 GMT-0400 (Eastern Daylight Time)","1395240","Trustworthy,Untrustworthy","","3439","","","","rating","","","trustrating_stim/white_mw071.bmp","8","","","","","","","","","","",""
"image-keyboard-response","110","244981","0.0-6.0-2.52","5e03f8517f08edece67a3137","bdp_trlrn","Sun Mar 12 2023 23:56:18 GMT-0400 (Eastern Daylight Time)","1395240","Trustworthy,Untrustworthy","","null","","","","ratingFB","","","trustrating_stim/white_mw071.bmp","null","","","","","","","","","","",""
"image-keyboard-response","111","247592","0.0-6.0-1.53","5e03f8517f08edece67a3137","bdp_trlrn","Sun Mar 12 2023 23:56:18 GMT-0400 (Eastern Daylight Time)","1395240","Trustworthy,Untrustworthy","","2492","","","","rating","","","trustrating_stim/white_mw084.bmp","6","","","","","","","","","","",""
"image-keyboard-response","112","247794","0.0-6.0-2.53","5e03f8517f08edece67a3137","bdp_trlrn","Sun Mar 12 2023 23:56:18 GMT-0400 (Eastern Daylight Time)","1395240","Trustworthy,Untrustworthy","","null","","","","ratingFB","","","trustrating_stim/white_mw084.bmp","null","","","","","","","","","","",""
"image-keyboard-response","113","252186","0.0-6.0-1.54","5e03f8517f08edece67a3137","bdp_trlrn","Sun Mar 12 2023 23:56:18 GMT-0400 (Eastern Daylight Time)","1395240","Trustworthy,Untrustworthy","","4269","","","","rating","","","trustrating_stim/white_mw099.bmp","6","","","","","","","","","","",""
"image-keyboard-response","114","252396","0.0-6.0-2.54","5e03f8517f08edece67a3137","bdp_trlrn","Sun Mar 12 2023 23:56:18 GMT-0400 (Eastern Daylight Time)","1395240","Trustworthy,Untrustworthy","","null","","","","ratingFB","","","trustrating_stim/white_mw099.bmp","null","","","","","","","","","","",""
"image-keyboard-response","115","253999","0.0-6.0-1.55","5e03f8517f08edece67a3137","bdp_trlrn","Sun Mar 12 2023 23:56:18 GMT-0400 (Eastern Daylight Time)","1395240","Trustworthy,Untrustworthy","","1485","","","","rating","","","trustrating_stim/white_00299_940422_fa_edt.bmp","5","","","","","","","","","","",""
"image-keyboard-response","116","254209","0.0-6.0-2.55","5e03f8517f08edece67a3137","bdp_trlrn","Sun Mar 12 2023 23:56:18 GMT-0400 (Eastern Daylight Time)","1395240","Trustworthy,Untrustworthy","","null","","","","ratingFB","","","trustrating_stim/white_00299_940422_fa_edt.bmp","null","","","","","","","","","","",""
"image-keyboard-response","117","256320","0.0-6.0-1.56","5e03f8517f08edece67a3137","bdp_trlrn","Sun Mar 12 2023 23:56:18 GMT-0400 (Eastern Daylight Time)","1395240","Trustworthy,Untrustworthy","","1990","","","","rating","","","trustrating_stim/white_mw048.bmp","6","","","","","","","","","","",""
"image-keyboard-response","118","256525","0.0-6.0-2.56","5e03f8517f08edece67a3137","bdp_trlrn","Sun Mar 12 2023 23:56:18 GMT-0400 (Eastern Daylight Time)","1395240","Trustworthy,Untrustworthy","","null","","","","ratingFB","","","trustrating_stim/white_mw048.bmp","null","","","","","","","","","","",""
"image-keyboard-response","119","258669","0.0-6.0-1.57","5e03f8517f08edece67a3137","bdp_trlrn","Sun Mar 12 2023 23:56:18 GMT-0400 (Eastern Daylight Time)","1395240","Trustworthy,Untrustworthy","","2036","","","","rating","","","trustrating_stim/white_00120_931230_fa_edt.bmp","5","","","","","","","","","","",""
"image-keyboard-response","120","258873","0.0-6.0-2.57","5e03f8517f08edece67a3137","bdp_trlrn","Sun Mar 12 2023 23:56:18 GMT-0400 (Eastern Daylight Time)","1395240","Trustworthy,Untrustworthy","","null","","","","ratingFB","","","trustrating_stim/white_00120_931230_fa_edt.bmp","null","","","","","","","","","","",""
"image-keyboard-response","121","261632","0.0-6.0-1.58","5e03f8517f08edece67a3137","bdp_trlrn","Sun Mar 12 2023 23:56:18 GMT-0400 (Eastern Daylight Time)","1395240","Trustworthy,Untrustworthy","","2651","","","","rating","","","trustrating_stim/white_mw033.bmp","6","","","","","","","","","","",""
"image-keyboard-response","122","261841","0.0-6.0-2.58","5e03f8517f08edece67a3137","bdp_trlrn","Sun Mar 12 2023 23:56:18 GMT-0400 (Eastern Daylight Time)","1395240","Trustworthy,Untrustworthy","","null","","","","ratingFB","","","trustrating_stim/white_mw033.bmp","null","","","","","","","","","","",""
"image-keyboard-response","123","265531","0.0-6.0-1.59","5e03f8517f08edece67a3137","bdp_trlrn","Sun Mar 12 2023 23:56:18 GMT-0400 (Eastern Daylight Time)","1395240","Trustworthy,Untrustworthy","","3566","","","","rating","","","trustrating_stim/white_00602_940928_fb_edt.bmp","4","","","","","","","","","","",""
"image-keyboard-response","124","265743","0.0-6.0-2.59","5e03f8517f08edece67a3137","bdp_trlrn","Sun Mar 12 2023 23:56:18 GMT-0400 (Eastern Daylight Time)","1395240","Trustworthy,Untrustworthy","","null","","","","ratingFB","","","trustrating_stim/white_00602_940928_fb_edt.bmp","null","","","","","","","","","","",""
"instructions","125","323974","0.0-7.0","5e03f8517f08edece67a3137","bdp_trlrn","Sun Mar 12 2023 23:56:18 GMT-0400 (Eastern Daylight Time)","1395240","Trustworthy,Untrustworthy","[{""page_index"":0,""viewing_time"":58111}]","58111","","","","","","","","","","","","","","","","","","",""
"instructions","126","539970","0.0-8.0","5e03f8517f08edece67a3137","bdp_trlrn","Sun Mar 12 2023 23:56:18 GMT-0400 (Eastern Daylight Time)","1395240","Trustworthy,Untrustworthy","[{""page_index"":0,""viewing_time"":38969},{""page_index"":1,""viewing_time"":39459},{""page_index"":2,""viewing_time"":13376},{""page_index"":3,""viewing_time"":28960},{""page_index"":4,""viewing_time"":21377},{""page_index"":5,""viewing_time"":23496},{""page_index"":6,""viewing_time"":44048},{""page_index"":7,""viewing_time"":6201}]","215887","","","","","","","","","","","","","","","","","","",""
"html-keyboard-response","127","584475","0.0-9.0","5e03f8517f08edece67a3137","bdp_trlrn","Sun Mar 12 2023 23:56:18 GMT-0400 (Eastern Daylight Time)","1395240","Trustworthy,Untrustworthy","","44501","","","","","","","<div class='header' style='text-align:left; position: absolute; top: 5%; left: 5%;'><small>Task 2 of 5</small></div><div class='instruxDiv'><p><strong>1) What is the minimum number of points you can choose to send to your partner?</strong></p><p>a) 0</p><p>b) 1</p><p>c) 5</p>","B","","","","","","","","","","",""
"html-keyboard-response","128","588318","0.0-10.0","5e03f8517f08edece67a3137","bdp_trlrn","Sun Mar 12 2023 23:56:18 GMT-0400 (Eastern Daylight Time)","1395240","Trustworthy,Untrustworthy","","3730","","","","","","","<div class='header' style='text-align:left; position: absolute; top: 5%; left: 5%;'><small>Task 2 of 5</small></div><div class='instruxDiv'><p><strong>1) What is the minimum number of points you can choose to send to your partner?</strong></p><p>a) 0</p><p style='color:#00FF00'>b) 1</p><p>c) 5</p><h3 style='color:#00FF00'>Correct!</h3><h3 class='center-content'>The correct response is b).</h3><h3 class='center-content'>The minimum number of points you can choose to send to your partner is 1 point.</h3><p><em>Press SPACEBAR to continue</em></p></div>"," ","","","","","","","","","","",""
"html-keyboard-response","129","599212","0.0-11.0","5e03f8517f08edece67a3137","bdp_trlrn","Sun Mar 12 2023 23:56:18 GMT-0400 (Eastern Daylight Time)","1395240","Trustworthy,Untrustworthy","","10788","","","","","","","<div class='header' style='text-align:left; position: absolute; top: 5%; left: 5%;'><small>Task 2 of 5</small></div><div class='instruxDiv'><p><strong>2) What is the maximum number of points you can choose to send to your partner?</strong></p><p>a) 8</p><p>b) 5</p><p>c) 3</p>","B","","","","","","","","","","",""
"html-keyboard-response","130","600821","0.0-12.0","5e03f8517f08edece67a3137","bdp_trlrn","Sun Mar 12 2023 23:56:18 GMT-0400 (Eastern Daylight Time)","1395240","Trustworthy,Untrustworthy","","1502","","","","","","","<div class='header' style='text-align:left; position: absolute; top: 5%; left: 5%;'><small>Task 2 of 5</small></div><div class='instruxDiv'><p><strong>2) What is the maximum number of points you can choose to send to your partner?</strong></p><p>a) 8</p><p style='color:#00FF00'>b) 5</p><p>c) 3</p><h3 style='color:#00FF00'>Correct!</h3><h3 class='center-content'>The correct response is b).</h3><h3 class='center-content'>The maximum number of points you can choose to send to your partner is 5 points.</h3><p><em>Press SPACEBAR to continue</em></p></div>"," ","","","","","","","","","","",""
"html-keyboard-response","131","611567","0.0-13.0","5e03f8517f08edece67a3137","bdp_trlrn","Sun Mar 12 2023 23:56:18 GMT-0400 (Eastern Daylight Time)","1395240","Trustworthy,Untrustworthy","","10644","","","","","","","<div class='header' style='text-align:left; position: absolute; top: 5%; left: 5%;'><small>Task 2 of 5</small></div><div class='instruxDiv'><p><strong>3) What happens to the amount of points you send to your partner?</strong></p><p>a) Nothing</p><p>b) It doubles</p><p>c) It quadruples</p>","C","","","","","","","","","","",""
"html-keyboard-response","132","612844","0.0-14.0","5e03f8517f08edece67a3137","bdp_trlrn","Sun Mar 12 2023 23:56:18 GMT-0400 (Eastern Daylight Time)","1395240","Trustworthy,Untrustworthy","","1169","","","","","","","<div class='header' style='text-align:left; position: absolute; top: 5%; left: 5%;'><small>Task 2 of 5</small></div><div class='instruxDiv'><p><strong>3) What happens to the amount of points you send to your partner?</strong></p><p>a) Nothing</p><p>b) It doubles</p><p style='color:#00FF00'>c) It quadruples</p><h3 style='color:#00FF00'>Correct!</h3><h3 class='center-content'>The correct response is c).</h3><h3 class='center-content'>The amount of points you send to your partner quadruples.</h3><p><em>Press SPACEBAR to continue</em></p></div>"," ","","","","","","","","","","",""
"html-keyboard-response","133","787000","0.0-15.0","5e03f8517f08edece67a3137","bdp_trlrn","Sun Mar 12 2023 23:56:18 GMT-0400 (Eastern Daylight Time)","1395240","Trustworthy,Untrustworthy","","174046","","","","","","","<div class='header' style='text-align:left; position: absolute; top: 5%; left: 5%;'><small>Task 2 of 5</small></div><div class='instruxDiv'><p><strong>4) If you decided to share 4 out of 5 points with your partner, and they decided to share half of the amount they received with you, how many points would you receive back from them on this round?</strong></p><p>a) 16</p><p>b) 0</p><p>c) 8</p>","C","","","","","","","","","","",""
"html-keyboard-response","134","788876","0.0-16.0","5e03f8517f08edece67a3137","bdp_trlrn","Sun Mar 12 2023 23:56:18 GMT-0400 (Eastern Daylight Time)","1395240","Trustworthy,Untrustworthy","","1769","","","","","","","<div class='header' style='text-align:left; position: absolute; top: 5%; left: 5%;'><small>Task 2 of 5</small></div><div class='instruxDiv'><p><strong>4) If you decided to share 4 out of 5 points with your partner, and they decided to share half of the amount they received with you, how many points would you receive back from them on this round?</strong></p><p>a) 16</p><p>b) 0</p><p style='color:#00FF00'>c) 8</p><h3 style='color:#00FF00'>Correct!</h3><h3 class='center-content'>The correct response is c).</h3><h3 class='center-content'>If you shared 4 out of 5 points with your partner and they decided to share half of the amount they received with you, you would receive 8 points back (i.e. (4 x 4)/2 = 8).</h3><p><em>Press SPACEBAR to continue</em></p></div>"," ","","","","","","","","","","",""
"html-keyboard-response","135","793997","0.0-17.0","5e03f8517f08edece67a3137","bdp_trlrn","Sun Mar 12 2023 23:56:18 GMT-0400 (Eastern Daylight Time)","1395240","Trustworthy,Untrustworthy","","null","","","","","","","<div class='header' style='text-align:left; position: absolute; top: 5%; left: 5%;'><small>Task 2 of 5</small></div><div class='instruxDiv'><p>Thank you for completing the quiz<p>These are the actual partners you will be interacting with in the next block:<p><div class='tc' align='center'><img class='introPic' src='trustrating_stim/white_00109_931230_fa_edt.bmp'><br><strong>Lucas</strong></div><div class='bl' align='center'><img class='introPic' src='trustrating_stim/white_mw053.bmp'><br><strong>Sean</strong></div><div class='br' align='center'><img class='introPic' src='trustrating_stim/white_00519_940519_fb_edt.bmp'><br><strong>Ethan</strong></div></div><p>Across <strong>66 rounds</strong> you will interact with each partner <strong>22 times</strong> (in random order).<p style='align:center; color:white'><font <em>Press SPACEBAR to continue</em></p>","null","","","","","","","","","","",""
"instructions","136","812949","0.0-18.0","5e03f8517f08edece67a3137","bdp_trlrn","Sun Mar 12 2023 23:56:18 GMT-0400 (Eastern Daylight Time)","1395240","Trustworthy,Untrustworthy","[{""page_index"":0,""viewing_time"":16143},{""page_index"":1,""viewing_time"":2806}]","18950","","","","","","","","","","","","","","","","","","",""
"html-keyboard-response","137","818404","0.0-19.0-1.0","5e03f8517f08edece67a3137","bdp_trlrn","Sun Mar 12 2023 23:56:18 GMT-0400 (Eastern Daylight Time)","1395240","Trustworthy,Untrustworthy","","5347","","","","decision","","","<div class='trialDiv'><img src='trustrating_stim/white_mw053.bmp'><br><font class='baseline'><strong>Sean</strong><p>Choose number of points to send.</font><div class='respPicDiv'><img src='img/responseButtonOffersNo0L.png' class='respPic'></div></div>","3","1","Sean","4","Kept","0.65,0.35","9","0.65","trustrating_stim/white_mw053.bmp","5.5","5","1"
"html-keyboard-response","138","818665","0.0-19.0-2.0","5e03f8517f08edece67a3137","bdp_trlrn","Sun Mar 12 2023 23:56:18 GMT-0400 (Eastern Daylight Time)","1395240","Trustworthy,Untrustworthy","","null","","","","decisionFB","","","<div class='trialDiv'><img src='trustrating_stim/white_mw053.bmp'><br><font class='baseline'><strong>Sean</strong><p>Choose number of points to send.</font><div class='respPicDiv'><img src='img/responseButtonOffersNo0L3.png' class='respPic'></div></div>","null","1","Sean","4","Kept","0.65,0.35","9","0.65","trustrating_stim/white_mw053.bmp","5.5","2","1"
"html-keyboard-response","139","819677","0.0-19.0-3.0","5e03f8517f08edece67a3137","bdp_trlrn","Sun Mar 12 2023 23:56:18 GMT-0400 (Eastern Daylight Time)","1395240","Trustworthy,Untrustworthy","","null","","","","feedback","","","<div class='trialDiv'><img src='trustrating_stim/white_mw053.bmp'><br><font class='baseline'><strong>Sean</strong><p>Received: <strong>12</strong></font> &nbsp; &nbsp; &nbsp; &nbsp; &nbsp; &nbsp;<font class='negOutcome'>Shared back: <strong>0</strong></font></font><div class='respPicDiv'><img src='img/responseButtonOffersNo0_wht.png' class='respPic'></div></div>","null","1","Sean","4","Kept","0.65,0.35","9","0.65","trustrating_stim/white_mw053.bmp","5.5","2","1"
"html-keyboard-response","140","827279","0.0-19.0-1.1","5e03f8517f08edece67a3137","bdp_trlrn","Sun Mar 12 2023 23:56:18 GMT-0400 (Eastern Daylight Time)","1395240","Trustworthy,Untrustworthy","","7598","","","","decision","","","<div class='trialDiv'><img src='trustrating_stim/white_00519_940519_fb_edt.bmp'><br><font class='baseline'><strong>Ethan</strong><p>Choose number of points to send.</font><div class='respPicDiv'><img src='img/responseButtonOffersNo0L.png' class='respPic'></div></div>","2","1","Ethan","10","Kept","0.2,0.65","12","0.2","trustrating_stim/white_00519_940519_fb_edt.bmp","7","7","2"
"html-keyboard-response","141","827545","0.0-19.0-2.1","5e03f8517f08edece67a3137","bdp_trlrn","Sun Mar 12 2023 23:56:18 GMT-0400 (Eastern Daylight Time)","1395240","Trustworthy,Untrustworthy","","null","","","","decisionFB","","","<div class='trialDiv'><img src='trustrating_stim/white_00519_940519_fb_edt.bmp'><br><font class='baseline'><strong>Ethan</strong><p>Choose number of points to send.</font><div class='respPicDiv'><img src='img/responseButtonOffersNo0L2.png' class='respPic'></div></div>","null","1","Ethan","10","Kept","0.2,0.65","12","0.2","trustrating_stim/white_00519_940519_fb_edt.bmp","7","5","2"
"html-keyboard-response","142","828556","0.0-19.0-3.1","5e03f8517f08edece67a3137","bdp_trlrn","Sun Mar 12 2023 23:56:18 GMT-0400 (Eastern Daylight Time)","1395240","Trustworthy,Untrustworthy","","null","","","","feedback","","","<div class='trialDiv'><img src='trustrating_stim/white_00519_940519_fb_edt.bmp'><br><font class='baseline'><strong>Ethan</strong><p>Received: <strong>8</strong></font> &nbsp; &nbsp; &nbsp; &nbsp; &nbsp; &nbsp;<font class='negOutcome'>Shared back: <strong>0</strong></font></font><div class='respPicDiv'><img src='img/responseButtonOffersNo0_wht.png' class='respPic'></div></div>","null","1","Ethan","10","Kept","0.2,0.65","12","0.2","trustrating_stim/white_00519_940519_fb_edt.bmp","7","5","2"
"html-keyboard-response","143","835332","0.0-19.0-1.2","5e03f8517f08edece67a3137","bdp_trlrn","Sun Mar 12 2023 23:56:18 GMT-0400 (Eastern Daylight Time)","1395240","Trustworthy,Untrustworthy","","6774","","","","decision","","","<div class='trialDiv'><img src='trustrating_stim/white_00109_931230_fa_edt.bmp'><br><font class='baseline'><strong>Lucas</strong><p>Choose number of points to send.</font><div class='respPicDiv'><img src='img/responseButtonOffersNo0L.png' class='respPic'></div></div>","2","1","Lucas","3","Shared","0.65,0.2","12","0.65","trustrating_stim/white_00109_931230_fa_edt.bmp","4.5","10","3"
"html-keyboard-response","144","835595","0.0-19.0-2.2","5e03f8517f08edece67a3137","bdp_trlrn","Sun Mar 12 2023 23:56:18 GMT-0400 (Eastern Daylight Time)","1395240","Trustworthy,Untrustworthy","","null","","","","decisionFB","","","<div class='trialDiv'><img src='trustrating_stim/white_00109_931230_fa_edt.bmp'><br><font class='baseline'><strong>Lucas</strong><p>Choose number of points to send.</font><div class='respPicDiv'><img src='img/responseButtonOffersNo0L2.png' class='respPic'></div></div>","null","1","Lucas","3","Shared","0.65,0.2","12","0.65","trustrating_stim/white_00109_931230_fa_edt.bmp","4.5","8","3"
"html-keyboard-response","145","836605","0.0-19.0-3.2","5e03f8517f08edece67a3137","bdp_trlrn","Sun Mar 12 2023 23:56:18 GMT-0400 (Eastern Daylight Time)","1395240","Trustworthy,Untrustworthy","","null","","","","feedback","","","<div class='trialDiv'><img src='trustrating_stim/white_00109_931230_fa_edt.bmp'><br><font class='baseline'><strong>Lucas</strong><p>Received: <strong>8</strong></font> &nbsp; &nbsp; &nbsp; &nbsp; &nbsp; &nbsp;<font class='posOutcome'>Shared back: <strong>4</strong></font></font><div class='respPicDiv'><img src='img/responseButtonOffersNo0_wht.png' class='respPic'></div></div>","null","1","Lucas","3","Shared","0.65,0.2","12","0.65","trustrating_stim/white_00109_931230_fa_edt.bmp","4.5","12","3"
"html-keyboard-response","146","843128","0.0-19.0-1.3","5e03f8517f08edece67a3137","bdp_trlrn","Sun Mar 12 2023 23:56:18 GMT-0400 (Eastern Daylight Time)","1395240","Trustworthy,Untrustworthy","","6520","","","","decision","","","<div class='trialDiv'><img src='trustrating_stim/white_mw053.bmp'><br><font class='baseline'><strong>Sean</strong><p>Choose number of points to send.</font><div class='respPicDiv'><img src='img/responseButtonOffersNo0L.png' class='respPic'></div></div>","2","2","Sean","4","Kept","0.65,0.35","9","0.65","trustrating_stim/white_mw053.bmp","5.5","17","4"
"html-keyboard-response","147","843392","0.0-19.0-2.3","5e03f8517f08edece67a3137","bdp_trlrn","Sun Mar 12 2023 23:56:18 GMT-0400 (Eastern Daylight Time)","1395240","Trustworthy,Untrustworthy","","null","","","","decisionFB","","","<div class='trialDiv'><img src='trustrating_stim/white_mw053.bmp'><br><font class='baseline'><strong>Sean</strong><p>Choose number of points to send.</font><div class='respPicDiv'><img src='img/responseButtonOffersNo0L2.png' class='respPic'></div></div>","null","2","Sean","4","Kept","0.65,0.35","9","0.65","trustrating_stim/white_mw053.bmp","5.5","15","4"
"html-keyboard-response","148","844402","0.0-19.0-3.3","5e03f8517f08edece67a3137","bdp_trlrn","Sun Mar 12 2023 23:56:18 GMT-0400 (Eastern Daylight Time)","1395240","Trustworthy,Untrustworthy","","null","","","","feedback","","","<div class='trialDiv'><img src='trustrating_stim/white_mw053.bmp'><br><font class='baseline'><strong>Sean</strong><p>Received: <strong>8</strong></font> &nbsp; &nbsp; &nbsp; &nbsp; &nbsp; &nbsp;<font class='negOutcome'>Shared back: <strong>0</strong></font></font><div class='respPicDiv'><img src='img/responseButtonOffersNo0_wht.png' class='respPic'></div></div>","null","2","Sean","4","Kept","0.65,0.35","9","0.65","trustrating_stim/white_mw053.bmp","5.5","15","4"
"html-keyboard-response","149","847310","0.0-19.0-1.4","5e03f8517f08edece67a3137","bdp_trlrn","Sun Mar 12 2023 23:56:18 GMT-0400 (Eastern Daylight Time)","1395240","Trustworthy,Untrustworthy","","2906","","","","decision","","","<div class='trialDiv'><img src='trustrating_stim/white_00109_931230_fa_edt.bmp'><br><font class='baseline'><strong>Lucas</strong><p>Choose number of points to send.</font><div class='respPicDiv'><img src='img/responseButtonOffersNo0L.png' class='respPic'></div></div>","4","2","Lucas","3","Shared","0.65,0.2","12","0.65","trustrating_stim/white_00109_931230_fa_edt.bmp","4.5","20","5"
"html-keyboard-response","150","847567","0.0-19.0-2.4","5e03f8517f08edece67a3137","bdp_trlrn","Sun Mar 12 2023 23:56:18 GMT-0400 (Eastern Daylight Time)","1395240","Trustworthy,Untrustworthy","","null","","","","decisionFB","","","<div class='trialDiv'><img src='trustrating_stim/white_00109_931230_fa_edt.bmp'><br><font class='baseline'><strong>Lucas</strong><p>Choose number of points to send.</font><div class='respPicDiv'><img src='img/responseButtonOffersNo0L4.png' class='respPic'></div></div>","null","2","Lucas","3","Shared","0.65,0.2","12","0.65","trustrating_stim/white_00109_931230_fa_edt.bmp","4.5","16","5"
"html-keyboard-response","151","848583","0.0-19.0-3.4","5e03f8517f08edece67a3137","bdp_trlrn","Sun Mar 12 2023 23:56:18 GMT-0400 (Eastern Daylight Time)","1395240","Trustworthy,Untrustworthy","","null","","","","feedback","","","<div class='trialDiv'><img src='trustrating_stim/white_00109_931230_fa_edt.bmp'><br><font class='baseline'><strong>Lucas</strong><p>Received: <strong>16</strong></font> &nbsp; &nbsp; &nbsp; &nbsp; &nbsp; &nbsp;<font class='posOutcome'>Shared back: <strong>8</strong></font></font><div class='respPicDiv'><img src='img/responseButtonOffersNo0_wht.png' class='respPic'></div></div>","null","2","Lucas","3","Shared","0.65,0.2","12","0.65","trustrating_stim/white_00109_931230_fa_edt.bmp","4.5","24","5"
"html-keyboard-response","152","849998","0.0-19.0-1.5","5e03f8517f08edece67a3137","bdp_trlrn","Sun Mar 12 2023 23:56:18 GMT-0400 (Eastern Daylight Time)","1395240","Trustworthy,Untrustworthy","","1412","","","","decision","","","<div class='trialDiv'><img src='trustrating_stim/white_00519_940519_fb_edt.bmp'><br><font class='baseline'><strong>Ethan</strong><p>Choose number of points to send.</font><div class='respPicDiv'><img src='img/responseButtonOffersNo0L.png' class='respPic'></div></div>","1","2","Ethan","10","Kept","0.2,0.65","12","0.2","trustrating_stim/white_00519_940519_fb_edt.bmp","7","29","6"
"html-keyboard-response","153","850263","0.0-19.0-2.5","5e03f8517f08edece67a3137","bdp_trlrn","Sun Mar 12 2023 23:56:18 GMT-0400 (Eastern Daylight Time)","1395240","Trustworthy,Untrustworthy","","null","","","","decisionFB","","","<div class='trialDiv'><img src='trustrating_stim/white_00519_940519_fb_edt.bmp'><br><font class='baseline'><strong>Ethan</strong><p>Choose number of points to send.</font><div class='respPicDiv'><img src='img/responseButtonOffersNo0L1.png' class='respPic'></div></div>","null","2","Ethan","10","Kept","0.2,0.65","12","0.2","trustrating_stim/white_00519_940519_fb_edt.bmp","7","28","6"
"html-keyboard-response","154","851280","0.0-19.0-3.5","5e03f8517f08edece67a3137","bdp_trlrn","Sun Mar 12 2023 23:56:18 GMT-0400 (Eastern Daylight Time)","1395240","Trustworthy,Untrustworthy","","null","","","","feedback","","","<div class='trialDiv'><img src='trustrating_stim/white_00519_940519_fb_edt.bmp'><br><font class='baseline'><strong>Ethan</strong><p>Received: <strong>4</strong></font> &nbsp; &nbsp; &nbsp; &nbsp; &nbsp; &nbsp;<font class='negOutcome'>Shared back: <strong>0</strong></font></font><div class='respPicDiv'><img src='img/responseButtonOffersNo0_wht.png' class='respPic'></div></div>","null","2","Ethan","10","Kept","0.2,0.65","12","0.2","trustrating_stim/white_00519_940519_fb_edt.bmp","7","28","6"
"html-keyboard-response","155","855122","0.0-19.0-1.6","5e03f8517f08edece67a3137","bdp_trlrn","Sun Mar 12 2023 23:56:18 GMT-0400 (Eastern Daylight Time)","1395240","Trustworthy,Untrustworthy","","3839","","","","decision","","","<div class='trialDiv'><img src='trustrating_stim/white_00109_931230_fa_edt.bmp'><br><font class='baseline'><strong>Lucas</strong><p>Choose number of points to send.</font><div class='respPicDiv'><img src='img/responseButtonOffersNo0L.png' class='respPic'></div></div>","1","3","Lucas","3","Shared","0.65,0.2","12","0.65","trustrating_stim/white_00109_931230_fa_edt.bmp","4.5","33","7"
"html-keyboard-response","156","855380","0.0-19.0-2.6","5e03f8517f08edece67a3137","bdp_trlrn","Sun Mar 12 2023 23:56:18 GMT-0400 (Eastern Daylight Time)","1395240","Trustworthy,Untrustworthy","","null","","","","decisionFB","","","<div class='trialDiv'><img src='trustrating_stim/white_00109_931230_fa_edt.bmp'><br><font class='baseline'><strong>Lucas</strong><p>Choose number of points to send.</font><div class='respPicDiv'><img src='img/responseButtonOffersNo0L1.png' class='respPic'></div></div>","null","3","Lucas","3","Shared","0.65,0.2","12","0.65","trustrating_stim/white_00109_931230_fa_edt.bmp","4.5","32","7"
"html-keyboard-response","157","856394","0.0-19.0-3.6","5e03f8517f08edece67a3137","bdp_trlrn","Sun Mar 12 2023 23:56:18 GMT-0400 (Eastern Daylight Time)","1395240","Trustworthy,Untrustworthy","","null","","","","feedback","","","<div class='trialDiv'><img src='trustrating_stim/white_00109_931230_fa_edt.bmp'><br><font class='baseline'><strong>Lucas</strong><p>Received: <strong>4</strong></font> &nbsp; &nbsp; &nbsp; &nbsp; &nbsp; &nbsp;<font class='posOutcome'>Shared back: <strong>2</strong></font></font><div class='respPicDiv'><img src='img/responseButtonOffersNo0_wht.png' class='respPic'></div></div>","null","3","Lucas","3","Shared","0.65,0.2","12","0.65","trustrating_stim/white_00109_931230_fa_edt.bmp","4.5","34","7"
"html-keyboard-response","158","863734","0.0-19.0-1.7","5e03f8517f08edece67a3137","bdp_trlrn","Sun Mar 12 2023 23:56:18 GMT-0400 (Eastern Daylight Time)","1395240","Trustworthy,Untrustworthy","","7337","","","","decision","","","<div class='trialDiv'><img src='trustrating_stim/white_mw053.bmp'><br><font class='baseline'><strong>Sean</strong><p>Choose number of points to send.</font><div class='respPicDiv'><img src='img/responseButtonOffersNo0L.png' class='respPic'></div></div>","1","3","Sean","4","Shared","0.65,0.35","9","0.65","trustrating_stim/white_mw053.bmp","5.5","39","8"
"html-keyboard-response","159","864000","0.0-19.0-2.7","5e03f8517f08edece67a3137","bdp_trlrn","Sun Mar 12 2023 23:56:18 GMT-0400 (Eastern Daylight Time)","1395240","Trustworthy,Untrustworthy","","null","","","","decisionFB","","","<div class='trialDiv'><img src='trustrating_stim/white_mw053.bmp'><br><font class='baseline'><strong>Sean</strong><p>Choose number of points to send.</font><div class='respPicDiv'><img src='img/responseButtonOffersNo0L1.png' class='respPic'></div></div>","null","3","Sean","4","Shared","0.65,0.35","9","0.65","trustrating_stim/white_mw053.bmp","5.5","38","8"
"html-keyboard-response","160","865010","0.0-19.0-3.7","5e03f8517f08edece67a3137","bdp_trlrn","Sun Mar 12 2023 23:56:18 GMT-0400 (Eastern Daylight Time)","1395240","Trustworthy,Untrustworthy","","null","","","","feedback","","","<div class='trialDiv'><img src='trustrating_stim/white_mw053.bmp'><br><font class='baseline'><strong>Sean</strong><p>Received: <strong>4</strong></font> &nbsp; &nbsp; &nbsp; &nbsp; &nbsp; &nbsp;<font class='posOutcome'>Shared back: <strong>2</strong></font></font><div class='respPicDiv'><img src='img/responseButtonOffersNo0_wht.png' class='respPic'></div></div>","null","3","Sean","4","Shared","0.65,0.35","9","0.65","trustrating_stim/white_mw053.bmp","5.5","40","8"
"html-keyboard-response","161","867392","0.0-19.0-1.8","5e03f8517f08edece67a3137","bdp_trlrn","Sun Mar 12 2023 23:56:18 GMT-0400 (Eastern Daylight Time)","1395240","Trustworthy,Untrustworthy","","2380","","","","decision","","","<div class='trialDiv'><img src='trustrating_stim/white_00519_940519_fb_edt.bmp'><br><font class='baseline'><strong>Ethan</strong><p>Choose number of points to send.</font><div class='respPicDiv'><img src='img/responseButtonOffersNo0L.png' class='respPic'></div></div>","1","3","Ethan","10","Kept","0.2,0.65","12","0.2","trustrating_stim/white_00519_940519_fb_edt.bmp","7","45","9"
"html-keyboard-response","162","867661","0.0-19.0-2.8","5e03f8517f08edece67a3137","bdp_trlrn","Sun Mar 12 2023 23:56:18 GMT-0400 (Eastern Daylight Time)","1395240","Trustworthy,Untrustworthy","","null","","","","decisionFB","","","<div class='trialDiv'><img src='trustrating_stim/white_00519_940519_fb_edt.bmp'><br><font class='baseline'><strong>Ethan</strong><p>Choose number of points to send.</font><div class='respPicDiv'><img src='img/responseButtonOffersNo0L1.png' class='respPic'></div></div>","null","3","Ethan","10","Kept","0.2,0.65","12","0.2","trustrating_stim/white_00519_940519_fb_edt.bmp","7","44","9"
"html-keyboard-response","163","868675","0.0-19.0-3.8","5e03f8517f08edece67a3137","bdp_trlrn","Sun Mar 12 2023 23:56:18 GMT-0400 (Eastern Daylight Time)","1395240","Trustworthy,Untrustworthy","","null","","","","feedback","","","<div class='trialDiv'><img src='trustrating_stim/white_00519_940519_fb_edt.bmp'><br><font class='baseline'><strong>Ethan</strong><p>Received: <strong>4</strong></font> &nbsp; &nbsp; &nbsp; &nbsp; &nbsp; &nbsp;<font class='negOutcome'>Shared back: <strong>0</strong></font></font><div class='respPicDiv'><img src='img/responseButtonOffersNo0_wht.png' class='respPic'></div></div>","null","3","Ethan","10","Kept","0.2,0.65","12","0.2","trustrating_stim/white_00519_940519_fb_edt.bmp","7","44","9"
"html-keyboard-response","164","870902","0.0-19.0-1.9","5e03f8517f08edece67a3137","bdp_trlrn","Sun Mar 12 2023 23:56:18 GMT-0400 (Eastern Daylight Time)","1395240","Trustworthy,Untrustworthy","","2224","","","","decision","","","<div class='trialDiv'><img src='trustrating_stim/white_00109_931230_fa_edt.bmp'><br><font class='baseline'><strong>Lucas</strong><p>Choose number of points to send.</font><div class='respPicDiv'><img src='img/responseButtonOffersNo0L.png' class='respPic'></div></div>","4","4","Lucas","3","Shared","0.65,0.2","12","0.65","trustrating_stim/white_00109_931230_fa_edt.bmp","4.5","49","10"
"html-keyboard-response","165","871159","0.0-19.0-2.9","5e03f8517f08edece67a3137","bdp_trlrn","Sun Mar 12 2023 23:56:18 GMT-0400 (Eastern Daylight Time)","1395240","Trustworthy,Untrustworthy","","null","","","","decisionFB","","","<div class='trialDiv'><img src='trustrating_stim/white_00109_931230_fa_edt.bmp'><br><font class='baseline'><strong>Lucas</strong><p>Choose number of points to send.</font><div class='respPicDiv'><img src='img/responseButtonOffersNo0L4.png' class='respPic'></div></div>","null","4","Lucas","3","Shared","0.65,0.2","12","0.65","trustrating_stim/white_00109_931230_fa_edt.bmp","4.5","45","10"
"html-keyboard-response","166","872171","0.0-19.0-3.9","5e03f8517f08edece67a3137","bdp_trlrn","Sun Mar 12 2023 23:56:18 GMT-0400 (Eastern Daylight Time)","1395240","Trustworthy,Untrustworthy","","null","","","","feedback","","","<div class='trialDiv'><img src='trustrating_stim/white_00109_931230_fa_edt.bmp'><br><font class='baseline'><strong>Lucas</strong><p>Received: <strong>16</strong></font> &nbsp; &nbsp; &nbsp; &nbsp; &nbsp; &nbsp;<font class='posOutcome'>Shared back: <strong>8</strong></font></font><div class='respPicDiv'><img src='img/responseButtonOffersNo0_wht.png' class='respPic'></div></div>","null","4","Lucas","3","Shared","0.65,0.2","12","0.65","trustrating_stim/white_00109_931230_fa_edt.bmp","4.5","53","10"
"html-keyboard-response","167","874689","0.0-19.0-1.10","5e03f8517f08edece67a3137","bdp_trlrn","Sun Mar 12 2023 23:56:18 GMT-0400 (Eastern Daylight Time)","1395240","Trustworthy,Untrustworthy","","2515","","","","decision","","","<div class='trialDiv'><img src='trustrating_stim/white_mw053.bmp'><br><font class='baseline'><strong>Sean</strong><p>Choose number of points to send.</font><div class='respPicDiv'><img src='img/responseButtonOffersNo0L.png' class='respPic'></div></div>","2","4","Sean","4","Kept","0.65,0.35","9","0.65","trustrating_stim/white_mw053.bmp","5.5","58","11"
"html-keyboard-response","168","874945","0.0-19.0-2.10","5e03f8517f08edece67a3137","bdp_trlrn","Sun Mar 12 2023 23:56:18 GMT-0400 (Eastern Daylight Time)","1395240","Trustworthy,Untrustworthy","","null","","","","decisionFB","","","<div class='trialDiv'><img src='trustrating_stim/white_mw053.bmp'><br><font class='baseline'><strong>Sean</strong><p>Choose number of points to send.</font><div class='respPicDiv'><img src='img/responseButtonOffersNo0L2.png' class='respPic'></div></div>","null","4","Sean","4","Kept","0.65,0.35","9","0.65","trustrating_stim/white_mw053.bmp","5.5","56","11"
"html-keyboard-response","169","875960","0.0-19.0-3.10","5e03f8517f08edece67a3137","bdp_trlrn","Sun Mar 12 2023 23:56:18 GMT-0400 (Eastern Daylight Time)","1395240","Trustworthy,Untrustworthy","","null","","","","feedback","","","<div class='trialDiv'><img src='trustrating_stim/white_mw053.bmp'><br><font class='baseline'><strong>Sean</strong><p>Received: <strong>8</strong></font> &nbsp; &nbsp; &nbsp; &nbsp; &nbsp; &nbsp;<font class='negOutcome'>Shared back: <strong>0</strong></font></font><div class='respPicDiv'><img src='img/responseButtonOffersNo0_wht.png' class='respPic'></div></div>","null","4","Sean","4","Kept","0.65,0.35","9","0.65","trustrating_stim/white_mw053.bmp","5.5","56","11"
"html-keyboard-response","170","878993","0.0-19.0-1.11","5e03f8517f08edece67a3137","bdp_trlrn","Sun Mar 12 2023 23:56:18 GMT-0400 (Eastern Daylight Time)","1395240","Trustworthy,Untrustworthy","","3031","","","","decision","","","<div class='trialDiv'><img src='trustrating_stim/white_00519_940519_fb_edt.bmp'><br><font class='baseline'><strong>Ethan</strong><p>Choose number of points to send.</font><div class='respPicDiv'><img src='img/responseButtonOffersNo0L.png' class='respPic'></div></div>","1","4","Ethan","10","Kept","0.2,0.65","12","0.2","trustrating_stim/white_00519_940519_fb_edt.bmp","7","61","12"
"html-keyboard-response","171","879259","0.0-19.0-2.11","5e03f8517f08edece67a3137","bdp_trlrn","Sun Mar 12 2023 23:56:18 GMT-0400 (Eastern Daylight Time)","1395240","Trustworthy,Untrustworthy","","null","","","","decisionFB","","","<div class='trialDiv'><img src='trustrating_stim/white_00519_940519_fb_edt.bmp'><br><font class='baseline'><strong>Ethan</strong><p>Choose number of points to send.</font><div class='respPicDiv'><img src='img/responseButtonOffersNo0L1.png' class='respPic'></div></div>","null","4","Ethan","10","Kept","0.2,0.65","12","0.2","trustrating_stim/white_00519_940519_fb_edt.bmp","7","60","12"
"html-keyboard-response","172","880274","0.0-19.0-3.11","5e03f8517f08edece67a3137","bdp_trlrn","Sun Mar 12 2023 23:56:18 GMT-0400 (Eastern Daylight Time)","1395240","Trustworthy,Untrustworthy","","null","","","","feedback","","","<div class='trialDiv'><img src='trustrating_stim/white_00519_940519_fb_edt.bmp'><br><font class='baseline'><strong>Ethan</strong><p>Received: <strong>4</strong></font> &nbsp; &nbsp; &nbsp; &nbsp; &nbsp; &nbsp;<font class='negOutcome'>Shared back: <strong>0</strong></font></font><div class='respPicDiv'><img src='img/responseButtonOffersNo0_wht.png' class='respPic'></div></div>","null","4","Ethan","10","Kept","0.2,0.65","12","0.2","trustrating_stim/white_00519_940519_fb_edt.bmp","7","60","12"
"html-keyboard-response","173","884167","0.0-19.0-1.12","5e03f8517f08edece67a3137","bdp_trlrn","Sun Mar 12 2023 23:56:18 GMT-0400 (Eastern Daylight Time)","1395240","Trustworthy,Untrustworthy","","3889","","","","decision","","","<div class='trialDiv'><img src='trustrating_stim/white_00109_931230_fa_edt.bmp'><br><font class='baseline'><strong>Lucas</strong><p>Choose number of points to send.</font><div class='respPicDiv'><img src='img/responseButtonOffersNo0L.png' class='respPic'></div></div>","4","5","Lucas","3","Shared","0.65,0.2","12","0.65","trustrating_stim/white_00109_931230_fa_edt.bmp","4.5","65","13"
"html-keyboard-response","174","884424","0.0-19.0-2.12","5e03f8517f08edece67a3137","bdp_trlrn","Sun Mar 12 2023 23:56:18 GMT-0400 (Eastern Daylight Time)","1395240","Trustworthy,Untrustworthy","","null","","","","decisionFB","","","<div class='trialDiv'><img src='trustrating_stim/white_00109_931230_fa_edt.bmp'><br><font class='baseline'><strong>Lucas</strong><p>Choose number of points to send.</font><div class='respPicDiv'><img src='img/responseButtonOffersNo0L4.png' class='respPic'></div></div>","null","5","Lucas","3","Shared","0.65,0.2","12","0.65","trustrating_stim/white_00109_931230_fa_edt.bmp","4.5","61","13"
"html-keyboard-response","175","885438","0.0-19.0-3.12","5e03f8517f08edece67a3137","bdp_trlrn","Sun Mar 12 2023 23:56:18 GMT-0400 (Eastern Daylight Time)","1395240","Trustworthy,Untrustworthy","","null","","","","feedback","","","<div class='trialDiv'><img src='trustrating_stim/white_00109_931230_fa_edt.bmp'><br><font class='baseline'><strong>Lucas</strong><p>Received: <strong>16</strong></font> &nbsp; &nbsp; &nbsp; &nbsp; &nbsp; &nbsp;<font class='posOutcome'>Shared back: <strong>8</strong></font></font><div class='respPicDiv'><img src='img/responseButtonOffersNo0_wht.png' class='respPic'></div></div>","null","5","Lucas","3","Shared","0.65,0.2","12","0.65","trustrating_stim/white_00109_931230_fa_edt.bmp","4.5","69","13"
"html-keyboard-response","176","888326","0.0-19.0-1.13","5e03f8517f08edece67a3137","bdp_trlrn","Sun Mar 12 2023 23:56:18 GMT-0400 (Eastern Daylight Time)","1395240","Trustworthy,Untrustworthy","","2884","","","","decision","","","<div class='trialDiv'><img src='trustrating_stim/white_mw053.bmp'><br><font class='baseline'><strong>Sean</strong><p>Choose number of points to send.</font><div class='respPicDiv'><img src='img/responseButtonOffersNo0L.png' class='respPic'></div></div>","2","5","Sean","4","Kept","0.65,0.35","9","0.65","trustrating_stim/white_mw053.bmp","5.5","74","14"
"html-keyboard-response","177","888591","0.0-19.0-2.13","5e03f8517f08edece67a3137","bdp_trlrn","Sun Mar 12 2023 23:56:18 GMT-0400 (Eastern Daylight Time)","1395240","Trustworthy,Untrustworthy","","null","","","","decisionFB","","","<div class='trialDiv'><img src='trustrating_stim/white_mw053.bmp'><br><font class='baseline'><strong>Sean</strong><p>Choose number of points to send.</font><div class='respPicDiv'><img src='img/responseButtonOffersNo0L2.png' class='respPic'></div></div>","null","5","Sean","4","Kept","0.65,0.35","9","0.65","trustrating_stim/white_mw053.bmp","5.5","72","14"
"html-keyboard-response","178","889605","0.0-19.0-3.13","5e03f8517f08edece67a3137","bdp_trlrn","Sun Mar 12 2023 23:56:18 GMT-0400 (Eastern Daylight Time)","1395240","Trustworthy,Untrustworthy","","null","","","","feedback","","","<div class='trialDiv'><img src='trustrating_stim/white_mw053.bmp'><br><font class='baseline'><strong>Sean</strong><p>Received: <strong>8</strong></font> &nbsp; &nbsp; &nbsp; &nbsp; &nbsp; &nbsp;<font class='negOutcome'>Shared back: <strong>0</strong></font></font><div class='respPicDiv'><img src='img/responseButtonOffersNo0_wht.png' class='respPic'></div></div>","null","5","Sean","4","Kept","0.65,0.35","9","0.65","trustrating_stim/white_mw053.bmp","5.5","72","14"
"html-keyboard-response","179","891240","0.0-19.0-1.14","5e03f8517f08edece67a3137","bdp_trlrn","Sun Mar 12 2023 23:56:18 GMT-0400 (Eastern Daylight Time)","1395240","Trustworthy,Untrustworthy","","1632","","","","decision","","","<div class='trialDiv'><img src='trustrating_stim/white_00519_940519_fb_edt.bmp'><br><font class='baseline'><strong>Ethan</strong><p>Choose number of points to send.</font><div class='respPicDiv'><img src='img/responseButtonOffersNo0L.png' class='respPic'></div></div>","1","5","Ethan","10","Kept","0.2,0.65","12","0.2","trustrating_stim/white_00519_940519_fb_edt.bmp","7","77","15"
"html-keyboard-response","180","891507","0.0-19.0-2.14","5e03f8517f08edece67a3137","bdp_trlrn","Sun Mar 12 2023 23:56:18 GMT-0400 (Eastern Daylight Time)","1395240","Trustworthy,Untrustworthy","","null","","","","decisionFB","","","<div class='trialDiv'><img src='trustrating_stim/white_00519_940519_fb_edt.bmp'><br><font class='baseline'><strong>Ethan</strong><p>Choose number of points to send.</font><div class='respPicDiv'><img src='img/responseButtonOffersNo0L1.png' class='respPic'></div></div>","null","5","Ethan","10","Kept","0.2,0.65","12","0.2","trustrating_stim/white_00519_940519_fb_edt.bmp","7","76","15"
"html-keyboard-response","181","892519","0.0-19.0-3.14","5e03f8517f08edece67a3137","bdp_trlrn","Sun Mar 12 2023 23:56:18 GMT-0400 (Eastern Daylight Time)","1395240","Trustworthy,Untrustworthy","","null","","","","feedback","","","<div class='trialDiv'><img src='trustrating_stim/white_00519_940519_fb_edt.bmp'><br><font class='baseline'><strong>Ethan</strong><p>Received: <strong>4</strong></font> &nbsp; &nbsp; &nbsp; &nbsp; &nbsp; &nbsp;<font class='negOutcome'>Shared back: <strong>0</strong></font></font><div class='respPicDiv'><img src='img/responseButtonOffersNo0_wht.png' class='respPic'></div></div>","null","5","Ethan","10","Kept","0.2,0.65","12","0.2","trustrating_stim/white_00519_940519_fb_edt.bmp","7","76","15"
"html-keyboard-response","182","895961","0.0-19.0-1.15","5e03f8517f08edece67a3137","bdp_trlrn","Sun Mar 12 2023 23:56:18 GMT-0400 (Eastern Daylight Time)","1395240","Trustworthy,Untrustworthy","","3439","","","","decision","","","<div class='trialDiv'><img src='trustrating_stim/white_00109_931230_fa_edt.bmp'><br><font class='baseline'><strong>Lucas</strong><p>Choose number of points to send.</font><div class='respPicDiv'><img src='img/responseButtonOffersNo0L.png' class='respPic'></div></div>","5","6","Lucas","3","Kept","0.65,0.2","12","0.65","trustrating_stim/white_00109_931230_fa_edt.bmp","4.5","81","16"
"html-keyboard-response","183","896225","0.0-19.0-2.15","5e03f8517f08edece67a3137","bdp_trlrn","Sun Mar 12 2023 23:56:18 GMT-0400 (Eastern Daylight Time)","1395240","Trustworthy,Untrustworthy","","null","","","","decisionFB","","","<div class='trialDiv'><img src='trustrating_stim/white_00109_931230_fa_edt.bmp'><br><font class='baseline'><strong>Lucas</strong><p>Choose number of points to send.</font><div class='respPicDiv'><img src='img/responseButtonOffersNo0L5.png' class='respPic'></div></div>","null","6","Lucas","3","Kept","0.65,0.2","12","0.65","trustrating_stim/white_00109_931230_fa_edt.bmp","4.5","76","16"
"html-keyboard-response","184","897238","0.0-19.0-3.15","5e03f8517f08edece67a3137","bdp_trlrn","Sun Mar 12 2023 23:56:18 GMT-0400 (Eastern Daylight Time)","1395240","Trustworthy,Untrustworthy","","null","","","","feedback","","","<div class='trialDiv'><img src='trustrating_stim/white_00109_931230_fa_edt.bmp'><br><font class='baseline'><strong>Lucas</strong><p>Received: <strong>20</strong></font> &nbsp; &nbsp; &nbsp; &nbsp; &nbsp; &nbsp;<font class='negOutcome'>Shared back: <strong>0</strong></font></font><div class='respPicDiv'><img src='img/responseButtonOffersNo0_wht.png' class='respPic'></div></div>","null","6","Lucas","3","Kept","0.65,0.2","12","0.65","trustrating_stim/white_00109_931230_fa_edt.bmp","4.5","76","16"
"html-keyboard-response","185","903304","0.0-19.0-1.16","5e03f8517f08edece67a3137","bdp_trlrn","Sun Mar 12 2023 23:56:18 GMT-0400 (Eastern Daylight Time)","1395240","Trustworthy,Untrustworthy","","6063","","","","decision","","","<div class='trialDiv'><img src='trustrating_stim/white_00519_940519_fb_edt.bmp'><br><font class='baseline'><strong>Ethan</strong><p>Choose number of points to send.</font><div class='respPicDiv'><img src='img/responseButtonOffersNo0L.png' class='respPic'></div></div>","1","6","Ethan","10","Kept","0.2,0.65","12","0.2","trustrating_stim/white_00519_940519_fb_edt.bmp","7","81","17"
"html-keyboard-response","186","903569","0.0-19.0-2.16","5e03f8517f08edece67a3137","bdp_trlrn","Sun Mar 12 2023 23:56:18 GMT-0400 (Eastern Daylight Time)","1395240","Trustworthy,Untrustworthy","","null","","","","decisionFB","","","<div class='trialDiv'><img src='trustrating_stim/white_00519_940519_fb_edt.bmp'><br><font class='baseline'><strong>Ethan</strong><p>Choose number of points to send.</font><div class='respPicDiv'><img src='img/responseButtonOffersNo0L1.png' class='respPic'></div></div>","null","6","Ethan","10","Kept","0.2,0.65","12","0.2","trustrating_stim/white_00519_940519_fb_edt.bmp","7","80","17"
"html-keyboard-response","187","904585","0.0-19.0-3.16","5e03f8517f08edece67a3137","bdp_trlrn","Sun Mar 12 2023 23:56:18 GMT-0400 (Eastern Daylight Time)","1395240","Trustworthy,Untrustworthy","","null","","","","feedback","","","<div class='trialDiv'><img src='trustrating_stim/white_00519_940519_fb_edt.bmp'><br><font class='baseline'><strong>Ethan</strong><p>Received: <strong>4</strong></font> &nbsp; &nbsp; &nbsp; &nbsp; &nbsp; &nbsp;<font class='negOutcome'>Shared back: <strong>0</strong></font></font><div class='respPicDiv'><img src='img/responseButtonOffersNo0_wht.png' class='respPic'></div></div>","null","6","Ethan","10","Kept","0.2,0.65","12","0.2","trustrating_stim/white_00519_940519_fb_edt.bmp","7","80","17"
"html-keyboard-response","188","906926","0.0-19.0-1.17","5e03f8517f08edece67a3137","bdp_trlrn","Sun Mar 12 2023 23:56:18 GMT-0400 (Eastern Daylight Time)","1395240","Trustworthy,Untrustworthy","","2338","","","","decision","","","<div class='trialDiv'><img src='trustrating_stim/white_mw053.bmp'><br><font class='baseline'><strong>Sean</strong><p>Choose number of points to send.</font><div class='respPicDiv'><img src='img/responseButtonOffersNo0L.png' class='respPic'></div></div>","1","6","Sean","4","Shared","0.65,0.35","9","0.65","trustrating_stim/white_mw053.bmp","5.5","85","18"
"html-keyboard-response","189","907190","0.0-19.0-2.17","5e03f8517f08edece67a3137","bdp_trlrn","Sun Mar 12 2023 23:56:18 GMT-0400 (Eastern Daylight Time)","1395240","Trustworthy,Untrustworthy","","null","","","","decisionFB","","","<div class='trialDiv'><img src='trustrating_stim/white_mw053.bmp'><br><font class='baseline'><strong>Sean</strong><p>Choose number of points to send.</font><div class='respPicDiv'><img src='img/responseButtonOffersNo0L1.png' class='respPic'></div></div>","null","6","Sean","4","Shared","0.65,0.35","9","0.65","trustrating_stim/white_mw053.bmp","5.5","84","18"
"html-keyboard-response","190","908212","0.0-19.0-3.17","5e03f8517f08edece67a3137","bdp_trlrn","Sun Mar 12 2023 23:56:18 GMT-0400 (Eastern Daylight Time)","1395240","Trustworthy,Untrustworthy","","null","","","","feedback","","","<div class='trialDiv'><img src='trustrating_stim/white_mw053.bmp'><br><font class='baseline'><strong>Sean</strong><p>Received: <strong>4</strong></font> &nbsp; &nbsp; &nbsp; &nbsp; &nbsp; &nbsp;<font class='posOutcome'>Shared back: <strong>2</strong></font></font><div class='respPicDiv'><img src='img/responseButtonOffersNo0_wht.png' class='respPic'></div></div>","null","6","Sean","4","Shared","0.65,0.35","9","0.65","trustrating_stim/white_mw053.bmp","5.5","86","18"
"html-keyboard-response","191","909513","0.0-19.0-1.18","5e03f8517f08edece67a3137","bdp_trlrn","Sun Mar 12 2023 23:56:18 GMT-0400 (Eastern Daylight Time)","1395240","Trustworthy,Untrustworthy","","1298","","","","decision","","","<div class='trialDiv'><img src='trustrating_stim/white_00109_931230_fa_edt.bmp'><br><font class='baseline'><strong>Lucas</strong><p>Choose number of points to send.</font><div class='respPicDiv'><img src='img/responseButtonOffersNo0L.png' class='respPic'></div></div>","4","7","Lucas","3","Shared","0.65,0.2","12","0.65","trustrating_stim/white_00109_931230_fa_edt.bmp","4.5","91","19"
"html-keyboard-response","192","909777","0.0-19.0-2.18","5e03f8517f08edece67a3137","bdp_trlrn","Sun Mar 12 2023 23:56:18 GMT-0400 (Eastern Daylight Time)","1395240","Trustworthy,Untrustworthy","","null","","","","decisionFB","","","<div class='trialDiv'><img src='trustrating_stim/white_00109_931230_fa_edt.bmp'><br><font class='baseline'><strong>Lucas</strong><p>Choose number of points to send.</font><div class='respPicDiv'><img src='img/responseButtonOffersNo0L4.png' class='respPic'></div></div>","null","7","Lucas","3","Shared","0.65,0.2","12","0.65","trustrating_stim/white_00109_931230_fa_edt.bmp","4.5","87","19"
"html-keyboard-response","193","910793","0.0-19.0-3.18","5e03f8517f08edece67a3137","bdp_trlrn","Sun Mar 12 2023 23:56:18 GMT-0400 (Eastern Daylight Time)","1395240","Trustworthy,Untrustworthy","","null","","","","feedback","","","<div class='trialDiv'><img src='trustrating_stim/white_00109_931230_fa_edt.bmp'><br><font class='baseline'><strong>Lucas</strong><p>Received: <strong>16</strong></font> &nbsp; &nbsp; &nbsp; &nbsp; &nbsp; &nbsp;<font class='posOutcome'>Shared back: <strong>8</strong></font></font><div class='respPicDiv'><img src='img/responseButtonOffersNo0_wht.png' class='respPic'></div></div>","null","7","Lucas","3","Shared","0.65,0.2","12","0.65","trustrating_stim/white_00109_931230_fa_edt.bmp","4.5","95","19"
"html-keyboard-response","194","912598","0.0-19.0-1.19","5e03f8517f08edece67a3137","bdp_trlrn","Sun Mar 12 2023 23:56:18 GMT-0400 (Eastern Daylight Time)","1395240","Trustworthy,Untrustworthy","","1802","","","","decision","","","<div class='trialDiv'><img src='trustrating_stim/white_00519_940519_fb_edt.bmp'><br><font class='baseline'><strong>Ethan</strong><p>Choose number of points to send.</font><div class='respPicDiv'><img src='img/responseButtonOffersNo0L.png' class='respPic'></div></div>","1","7","Ethan","10","Shared","0.2,0.65","12","0.2","trustrating_stim/white_00519_940519_fb_edt.bmp","7","100","20"
"html-keyboard-response","195","912861","0.0-19.0-2.19","5e03f8517f08edece67a3137","bdp_trlrn","Sun Mar 12 2023 23:56:18 GMT-0400 (Eastern Daylight Time)","1395240","Trustworthy,Untrustworthy","","null","","","","decisionFB","","","<div class='trialDiv'><img src='trustrating_stim/white_00519_940519_fb_edt.bmp'><br><font class='baseline'><strong>Ethan</strong><p>Choose number of points to send.</font><div class='respPicDiv'><img src='img/responseButtonOffersNo0L1.png' class='respPic'></div></div>","null","7","Ethan","10","Shared","0.2,0.65","12","0.2","trustrating_stim/white_00519_940519_fb_edt.bmp","7","99","20"
"html-keyboard-response","196","913875","0.0-19.0-3.19","5e03f8517f08edece67a3137","bdp_trlrn","Sun Mar 12 2023 23:56:18 GMT-0400 (Eastern Daylight Time)","1395240","Trustworthy,Untrustworthy","","null","","","","feedback","","","<div class='trialDiv'><img src='trustrating_stim/white_00519_940519_fb_edt.bmp'><br><font class='baseline'><strong>Ethan</strong><p>Received: <strong>4</strong></font> &nbsp; &nbsp; &nbsp; &nbsp; &nbsp; &nbsp;<font class='posOutcome'>Shared back: <strong>2</strong></font></font><div class='respPicDiv'><img src='img/responseButtonOffersNo0_wht.png' class='respPic'></div></div>","null","7","Ethan","10","Shared","0.2,0.65","12","0.2","trustrating_stim/white_00519_940519_fb_edt.bmp","7","101","20"
"html-keyboard-response","197","916275","0.0-19.0-1.20","5e03f8517f08edece67a3137","bdp_trlrn","Sun Mar 12 2023 23:56:18 GMT-0400 (Eastern Daylight Time)","1395240","Trustworthy,Untrustworthy","","2397","","","","decision","","","<div class='trialDiv'><img src='trustrating_stim/white_mw053.bmp'><br><font class='baseline'><strong>Sean</strong><p>Choose number of points to send.</font><div class='respPicDiv'><img src='img/responseButtonOffersNo0L.png' class='respPic'></div></div>","3","7","Sean","4","Shared","0.65,0.35","9","0.65","trustrating_stim/white_mw053.bmp","5.5","106","21"
"html-keyboard-response","198","916543","0.0-19.0-2.20","5e03f8517f08edece67a3137","bdp_trlrn","Sun Mar 12 2023 23:56:18 GMT-0400 (Eastern Daylight Time)","1395240","Trustworthy,Untrustworthy","","null","","","","decisionFB","","","<div class='trialDiv'><img src='trustrating_stim/white_mw053.bmp'><br><font class='baseline'><strong>Sean</strong><p>Choose number of points to send.</font><div class='respPicDiv'><img src='img/responseButtonOffersNo0L3.png' class='respPic'></div></div>","null","7","Sean","4","Shared","0.65,0.35","9","0.65","trustrating_stim/white_mw053.bmp","5.5","103","21"
"html-keyboard-response","199","917558","0.0-19.0-3.20","5e03f8517f08edece67a3137","bdp_trlrn","Sun Mar 12 2023 23:56:18 GMT-0400 (Eastern Daylight Time)","1395240","Trustworthy,Untrustworthy","","null","","","","feedback","","","<div class='trialDiv'><img src='trustrating_stim/white_mw053.bmp'><br><font class='baseline'><strong>Sean</strong><p>Received: <strong>12</strong></font> &nbsp; &nbsp; &nbsp; &nbsp; &nbsp; &nbsp;<font class='posOutcome'>Shared back: <strong>6</strong></font></font><div class='respPicDiv'><img src='img/responseButtonOffersNo0_wht.png' class='respPic'></div></div>","null","7","Sean","4","Shared","0.65,0.35","9","0.65","trustrating_stim/white_mw053.bmp","5.5","109","21"
"html-keyboard-response","200","920070","0.0-19.0-1.21","5e03f8517f08edece67a3137","bdp_trlrn","Sun Mar 12 2023 23:56:18 GMT-0400 (Eastern Daylight Time)","1395240","Trustworthy,Untrustworthy","","2508","","","","decision","","","<div class='trialDiv'><img src='trustrating_stim/white_00109_931230_fa_edt.bmp'><br><font class='baseline'><strong>Lucas</strong><p>Choose number of points to send.</font><div class='respPicDiv'><img src='img/responseButtonOffersNo0L.png' class='respPic'></div></div>","4","8","Lucas","3","Shared","0.65,0.2","12","0.65","trustrating_stim/white_00109_931230_fa_edt.bmp","4.5","114","22"
"html-keyboard-response","201","920331","0.0-19.0-2.21","5e03f8517f08edece67a3137","bdp_trlrn","Sun Mar 12 2023 23:56:18 GMT-0400 (Eastern Daylight Time)","1395240","Trustworthy,Untrustworthy","","null","","","","decisionFB","","","<div class='trialDiv'><img src='trustrating_stim/white_00109_931230_fa_edt.bmp'><br><font class='baseline'><strong>Lucas</strong><p>Choose number of points to send.</font><div class='respPicDiv'><img src='img/responseButtonOffersNo0L4.png' class='respPic'></div></div>","null","8","Lucas","3","Shared","0.65,0.2","12","0.65","trustrating_stim/white_00109_931230_fa_edt.bmp","4.5","110","22"
"html-keyboard-response","202","921342","0.0-19.0-3.21","5e03f8517f08edece67a3137","bdp_trlrn","Sun Mar 12 2023 23:56:18 GMT-0400 (Eastern Daylight Time)","1395240","Trustworthy,Untrustworthy","","null","","","","feedback","","","<div class='trialDiv'><img src='trustrating_stim/white_00109_931230_fa_edt.bmp'><br><font class='baseline'><strong>Lucas</strong><p>Received: <strong>16</strong></font> &nbsp; &nbsp; &nbsp; &nbsp; &nbsp; &nbsp;<font class='posOutcome'>Shared back: <strong>8</strong></font></font><div class='respPicDiv'><img src='img/responseButtonOffersNo0_wht.png' class='respPic'></div></div>","null","8","Lucas","3","Shared","0.65,0.2","12","0.65","trustrating_stim/white_00109_931230_fa_edt.bmp","4.5","118","22"
"html-keyboard-response","203","923870","0.0-19.0-1.22","5e03f8517f08edece67a3137","bdp_trlrn","Sun Mar 12 2023 23:56:18 GMT-0400 (Eastern Daylight Time)","1395240","Trustworthy,Untrustworthy","","2525","","","","decision","","","<div class='trialDiv'><img src='trustrating_stim/white_mw053.bmp'><br><font class='baseline'><strong>Sean</strong><p>Choose number of points to send.</font><div class='respPicDiv'><img src='img/responseButtonOffersNo0L.png' class='respPic'></div></div>","2","8","Sean","4","Shared","0.65,0.35","9","0.65","trustrating_stim/white_mw053.bmp","5.5","123","23"
"html-keyboard-response","204","924128","0.0-19.0-2.22","5e03f8517f08edece67a3137","bdp_trlrn","Sun Mar 12 2023 23:56:18 GMT-0400 (Eastern Daylight Time)","1395240","Trustworthy,Untrustworthy","","null","","","","decisionFB","","","<div class='trialDiv'><img src='trustrating_stim/white_mw053.bmp'><br><font class='baseline'><strong>Sean</strong><p>Choose number of points to send.</font><div class='respPicDiv'><img src='img/responseButtonOffersNo0L2.png' class='respPic'></div></div>","null","8","Sean","4","Shared","0.65,0.35","9","0.65","trustrating_stim/white_mw053.bmp","5.5","121","23"
"html-keyboard-response","205","925140","0.0-19.0-3.22","5e03f8517f08edece67a3137","bdp_trlrn","Sun Mar 12 2023 23:56:18 GMT-0400 (Eastern Daylight Time)","1395240","Trustworthy,Untrustworthy","","null","","","","feedback","","","<div class='trialDiv'><img src='trustrating_stim/white_mw053.bmp'><br><font class='baseline'><strong>Sean</strong><p>Received: <strong>8</strong></font> &nbsp; &nbsp; &nbsp; &nbsp; &nbsp; &nbsp;<font class='posOutcome'>Shared back: <strong>4</strong></font></font><div class='respPicDiv'><img src='img/responseButtonOffersNo0_wht.png' class='respPic'></div></div>","null","8","Sean","4","Shared","0.65,0.35","9","0.65","trustrating_stim/white_mw053.bmp","5.5","125","23"
"html-keyboard-response","206","926920","0.0-19.0-1.23","5e03f8517f08edece67a3137","bdp_trlrn","Sun Mar 12 2023 23:56:18 GMT-0400 (Eastern Daylight Time)","1395240","Trustworthy,Untrustworthy","","1776","","","","decision","","","<div class='trialDiv'><img src='trustrating_stim/white_00519_940519_fb_edt.bmp'><br><font class='baseline'><strong>Ethan</strong><p>Choose number of points to send.</font><div class='respPicDiv'><img src='img/responseButtonOffersNo0L.png' class='respPic'></div></div>","2","8","Ethan","10","Kept","0.2,0.65","12","0.2","trustrating_stim/white_00519_940519_fb_edt.bmp","7","130","24"
"html-keyboard-response","207","927174","0.0-19.0-2.23","5e03f8517f08edece67a3137","bdp_trlrn","Sun Mar 12 2023 23:56:18 GMT-0400 (Eastern Daylight Time)","1395240","Trustworthy,Untrustworthy","","null","","","","decisionFB","","","<div class='trialDiv'><img src='trustrating_stim/white_00519_940519_fb_edt.bmp'><br><font class='baseline'><strong>Ethan</strong><p>Choose number of points to send.</font><div class='respPicDiv'><img src='img/responseButtonOffersNo0L2.png' class='respPic'></div></div>","null","8","Ethan","10","Kept","0.2,0.65","12","0.2","trustrating_stim/white_00519_940519_fb_edt.bmp","7","128","24"
"html-keyboard-response","208","928189","0.0-19.0-3.23","5e03f8517f08edece67a3137","bdp_trlrn","Sun Mar 12 2023 23:56:18 GMT-0400 (Eastern Daylight Time)","1395240","Trustworthy,Untrustworthy","","null","","","","feedback","","","<div class='trialDiv'><img src='trustrating_stim/white_00519_940519_fb_edt.bmp'><br><font class='baseline'><strong>Ethan</strong><p>Received: <strong>8</strong></font> &nbsp; &nbsp; &nbsp; &nbsp; &nbsp; &nbsp;<font class='negOutcome'>Shared back: <strong>0</strong></font></font><div class='respPicDiv'><img src='img/responseButtonOffersNo0_wht.png' class='respPic'></div></div>","null","8","Ethan","10","Kept","0.2,0.65","12","0.2","trustrating_stim/white_00519_940519_fb_edt.bmp","7","128","24"
"html-keyboard-response","209","929798","0.0-19.0-1.24","5e03f8517f08edece67a3137","bdp_trlrn","Sun Mar 12 2023 23:56:18 GMT-0400 (Eastern Daylight Time)","1395240","Trustworthy,Untrustworthy","","1606","","","","decision","","","<div class='trialDiv'><img src='trustrating_stim/white_mw053.bmp'><br><font class='baseline'><strong>Sean</strong><p>Choose number of points to send.</font><div class='respPicDiv'><img src='img/responseButtonOffersNo0L.png' class='respPic'></div></div>","3","9","Sean","4","Shared","0.65,0.35","9","0.65","trustrating_stim/white_mw053.bmp","5.5","133","25"
"html-keyboard-response","210","930058","0.0-19.0-2.24","5e03f8517f08edece67a3137","bdp_trlrn","Sun Mar 12 2023 23:56:18 GMT-0400 (Eastern Daylight Time)","1395240","Trustworthy,Untrustworthy","","null","","","","decisionFB","","","<div class='trialDiv'><img src='trustrating_stim/white_mw053.bmp'><br><font class='baseline'><strong>Sean</strong><p>Choose number of points to send.</font><div class='respPicDiv'><img src='img/responseButtonOffersNo0L3.png' class='respPic'></div></div>","null","9","Sean","4","Shared","0.65,0.35","9","0.65","trustrating_stim/white_mw053.bmp","5.5","130","25"
"html-keyboard-response","211","931073","0.0-19.0-3.24","5e03f8517f08edece67a3137","bdp_trlrn","Sun Mar 12 2023 23:56:18 GMT-0400 (Eastern Daylight Time)","1395240","Trustworthy,Untrustworthy","","null","","","","feedback","","","<div class='trialDiv'><img src='trustrating_stim/white_mw053.bmp'><br><font class='baseline'><strong>Sean</strong><p>Received: <strong>12</strong></font> &nbsp; &nbsp; &nbsp; &nbsp; &nbsp; &nbsp;<font class='posOutcome'>Shared back: <strong>6</strong></font></font><div class='respPicDiv'><img src='img/responseButtonOffersNo0_wht.png' class='respPic'></div></div>","null","9","Sean","4","Shared","0.65,0.35","9","0.65","trustrating_stim/white_mw053.bmp","5.5","136","25"
"html-keyboard-response","212","932358","0.0-19.0-1.25","5e03f8517f08edece67a3137","bdp_trlrn","Sun Mar 12 2023 23:56:18 GMT-0400 (Eastern Daylight Time)","1395240","Trustworthy,Untrustworthy","","1282","","","","decision","","","<div class='trialDiv'><img src='trustrating_stim/white_00519_940519_fb_edt.bmp'><br><font class='baseline'><strong>Ethan</strong><p>Choose number of points to send.</font><div class='respPicDiv'><img src='img/responseButtonOffersNo0L.png' class='respPic'></div></div>","1","9","Ethan","10","Kept","0.2,0.65","12","0.2","trustrating_stim/white_00519_940519_fb_edt.bmp","7","141","26"
"html-keyboard-response","213","932623","0.0-19.0-2.25","5e03f8517f08edece67a3137","bdp_trlrn","Sun Mar 12 2023 23:56:18 GMT-0400 (Eastern Daylight Time)","1395240","Trustworthy,Untrustworthy","","null","","","","decisionFB","","","<div class='trialDiv'><img src='trustrating_stim/white_00519_940519_fb_edt.bmp'><br><font class='baseline'><strong>Ethan</strong><p>Choose number of points to send.</font><div class='respPicDiv'><img src='img/responseButtonOffersNo0L1.png' class='respPic'></div></div>","null","9","Ethan","10","Kept","0.2,0.65","12","0.2","trustrating_stim/white_00519_940519_fb_edt.bmp","7","140","26"
"html-keyboard-response","214","933639","0.0-19.0-3.25","5e03f8517f08edece67a3137","bdp_trlrn","Sun Mar 12 2023 23:56:18 GMT-0400 (Eastern Daylight Time)","1395240","Trustworthy,Untrustworthy","","null","","","","feedback","","","<div class='trialDiv'><img src='trustrating_stim/white_00519_940519_fb_edt.bmp'><br><font class='baseline'><strong>Ethan</strong><p>Received: <strong>4</strong></font> &nbsp; &nbsp; &nbsp; &nbsp; &nbsp; &nbsp;<font class='negOutcome'>Shared back: <strong>0</strong></font></font><div class='respPicDiv'><img src='img/responseButtonOffersNo0_wht.png' class='respPic'></div></div>","null","9","Ethan","10","Kept","0.2,0.65","12","0.2","trustrating_stim/white_00519_940519_fb_edt.bmp","7","140","26"
"html-keyboard-response","215","935542","0.0-19.0-1.26","5e03f8517f08edece67a3137","bdp_trlrn","Sun Mar 12 2023 23:56:18 GMT-0400 (Eastern Daylight Time)","1395240","Trustworthy,Untrustworthy","","1900","","","","decision","","","<div class='trialDiv'><img src='trustrating_stim/white_00109_931230_fa_edt.bmp'><br><font class='baseline'><strong>Lucas</strong><p>Choose number of points to send.</font><div class='respPicDiv'><img src='img/responseButtonOffersNo0L.png' class='respPic'></div></div>","4","9","Lucas","3","Shared","0.65,0.2","12","0.65","trustrating_stim/white_00109_931230_fa_edt.bmp","4.5","145","27"
"html-keyboard-response","216","935806","0.0-19.0-2.26","5e03f8517f08edece67a3137","bdp_trlrn","Sun Mar 12 2023 23:56:18 GMT-0400 (Eastern Daylight Time)","1395240","Trustworthy,Untrustworthy","","null","","","","decisionFB","","","<div class='trialDiv'><img src='trustrating_stim/white_00109_931230_fa_edt.bmp'><br><font class='baseline'><strong>Lucas</strong><p>Choose number of points to send.</font><div class='respPicDiv'><img src='img/responseButtonOffersNo0L4.png' class='respPic'></div></div>","null","9","Lucas","3","Shared","0.65,0.2","12","0.65","trustrating_stim/white_00109_931230_fa_edt.bmp","4.5","141","27"
"html-keyboard-response","217","936823","0.0-19.0-3.26","5e03f8517f08edece67a3137","bdp_trlrn","Sun Mar 12 2023 23:56:18 GMT-0400 (Eastern Daylight Time)","1395240","Trustworthy,Untrustworthy","","null","","","","feedback","","","<div class='trialDiv'><img src='trustrating_stim/white_00109_931230_fa_edt.bmp'><br><font class='baseline'><strong>Lucas</strong><p>Received: <strong>16</strong></font> &nbsp; &nbsp; &nbsp; &nbsp; &nbsp; &nbsp;<font class='posOutcome'>Shared back: <strong>8</strong></font></font><div class='respPicDiv'><img src='img/responseButtonOffersNo0_wht.png' class='respPic'></div></div>","null","9","Lucas","3","Shared","0.65,0.2","12","0.65","trustrating_stim/white_00109_931230_fa_edt.bmp","4.5","149","27"
