"event","trial","time","trialtype","subject_id","task","startTime","totalTime","labels","trial_type","trial_index","time_elapsed","internal_node_id","view_history","rt","success","stimulus","key_press","aground","name","faceID","outcome","agenttype","agentswpt","agentcurrpshare","face","avgRating","point_total","round"
"focus","0","0","focusevent","594936ad4152bf0001bfd5cd","bdp_trlrn","Fri Mar 10 2023 14:55:24 GMT-0500 (Eastern Standard Time)","676363","Trustworthy,Untrustworthy","","","","","","","","","","","","","","","","","","","",""
"focus","0","0","focusevent","594936ad4152bf0001bfd5cd","bdp_trlrn","Fri Mar 10 2023 14:55:24 GMT-0500 (Eastern Standard Time)","676363","Trustworthy,Untrustworthy","","","","","","","","","","","","","","","","","","","",""
"","","","","594936ad4152bf0001bfd5cd","bdp_trlrn","Fri Mar 10 2023 14:55:24 GMT-0500 (Eastern Standard Time)","676363","Trustworthy,Untrustworthy","pavlovia","0","2","0.0-0.0","","","","","","","","","","","","","","","",""
"","","","","594936ad4152bf0001bfd5cd","bdp_trlrn","Fri Mar 10 2023 14:55:24 GMT-0500 (Eastern Standard Time)","676363","Trustworthy,Untrustworthy","instructions","1","8630","0.0-1.0","[{""page_index"":0,""viewing_time"":8627}]","8628","","","","","","","","","","","","","",""
"fullscreenenter","2","11573","fullscreenenter","594936ad4152bf0001bfd5cd","bdp_trlrn","Fri Mar 10 2023 14:55:24 GMT-0500 (Eastern Standard Time)","676363","Trustworthy,Untrustworthy","","","","","","","","","","","","","","","","","","","",""
"","","","","594936ad4152bf0001bfd5cd","bdp_trlrn","Fri Mar 10 2023 14:55:24 GMT-0500 (Eastern Standard Time)","676363","Trustworthy,Untrustworthy","fullscreen","2","12560","0.0-2.0","","","true","","","","","","","","","","","","",""
"","","","","594936ad4152bf0001bfd5cd","bdp_trlrn","Fri Mar 10 2023 14:55:24 GMT-0500 (Eastern Standard Time)","676363","Trustworthy,Untrustworthy","instructions","3","23043","0.0-4.0","[{""page_index"":0,""viewing_time"":7731},{""page_index"":1,""viewing_time"":2750}]","10481","","","","","","","","","","","","","",""
"","","","","594936ad4152bf0001bfd5cd","bdp_trlrn","Fri Mar 10 2023 14:55:24 GMT-0500 (Eastern Standard Time)","676363","Trustworthy,Untrustworthy","instructions","4","24284","0.0-5.0","[{""page_index"":0,""viewing_time"":1240}]","1240","","","","","","","","","","","","","",""
"","","","rating","594936ad4152bf0001bfd5cd","bdp_trlrn","Fri Mar 10 2023 14:55:24 GMT-0500 (Eastern Standard Time)","676363","Trustworthy,Untrustworthy","image-keyboard-response","5","26394","0.0-6.0-1.0","","2000","","trustrating_stim/white_mw033.bmp","5","","","","","","","","","","",""
"","","","ratingFB","594936ad4152bf0001bfd5cd","bdp_trlrn","Fri Mar 10 2023 14:55:24 GMT-0500 (Eastern Standard Time)","676363","Trustworthy,Untrustworthy","image-keyboard-response","6","26610","0.0-6.0-2.0","","null","","trustrating_stim/white_mw033.bmp","null","","","","","","","","","","",""
"","","","rating","594936ad4152bf0001bfd5cd","bdp_trlrn","Fri Mar 10 2023 14:55:24 GMT-0500 (Eastern Standard Time)","676363","Trustworthy,Untrustworthy","image-keyboard-response","7","29788","0.0-6.0-1.1","","3068","","trustrating_stim/white_00761_941201_fb_edt.bmp","5","","","","","","","","","","",""
"","","","ratingFB","594936ad4152bf0001bfd5cd","bdp_trlrn","Fri Mar 10 2023 14:55:24 GMT-0500 (Eastern Standard Time)","676363","Trustworthy,Untrustworthy","image-keyboard-response","8","29996","0.0-6.0-2.1","","null","","trustrating_stim/white_00761_941201_fb_edt.bmp","null","","","","","","","","","","",""
"","","","rating","594936ad4152bf0001bfd5cd","bdp_trlrn","Fri Mar 10 2023 14:55:24 GMT-0500 (Eastern Standard Time)","676363","Trustworthy,Untrustworthy","image-keyboard-response","9","34348","0.0-6.0-1.2","","4243","","trustrating_stim/white_00577_940928_fa_edt.bmp","5","","","","","","","","","","",""
"","","","ratingFB","594936ad4152bf0001bfd5cd","bdp_trlrn","Fri Mar 10 2023 14:55:24 GMT-0500 (Eastern Standard Time)","676363","Trustworthy,Untrustworthy","image-keyboard-response","10","34562","0.0-6.0-2.2","","null","","trustrating_stim/white_00577_940928_fa_edt.bmp","null","","","","","","","","","","",""
"","","","rating","594936ad4152bf0001bfd5cd","bdp_trlrn","Fri Mar 10 2023 14:55:24 GMT-0500 (Eastern Standard Time)","676363","Trustworthy,Untrustworthy","image-keyboard-response","11","37520","0.0-6.0-1.3","","2857","","trustrating_stim/white_00299_940422_fa_edt.bmp","5","","","","","","","","","","",""
"","","","ratingFB","594936ad4152bf0001bfd5cd","bdp_trlrn","Fri Mar 10 2023 14:55:24 GMT-0500 (Eastern Standard Time)","676363","Trustworthy,Untrustworthy","image-keyboard-response","12","37726","0.0-6.0-2.3","","null","","trustrating_stim/white_00299_940422_fa_edt.bmp","null","","","","","","","","","","",""
"","","","rating","594936ad4152bf0001bfd5cd","bdp_trlrn","Fri Mar 10 2023 14:55:24 GMT-0500 (Eastern Standard Time)","676363","Trustworthy,Untrustworthy","image-keyboard-response","13","40139","0.0-6.0-1.4","","2303","","trustrating_stim/white_mw099.bmp","5","","","","","","","","","","",""
"","","","ratingFB","594936ad4152bf0001bfd5cd","bdp_trlrn","Fri Mar 10 2023 14:55:24 GMT-0500 (Eastern Standard Time)","676363","Trustworthy,Untrustworthy","image-keyboard-response","14","40348","0.0-6.0-2.4","","null","","trustrating_stim/white_mw099.bmp","null","","","","","","","","","","",""
"","","","rating","594936ad4152bf0001bfd5cd","bdp_trlrn","Fri Mar 10 2023 14:55:24 GMT-0500 (Eastern Standard Time)","676363","Trustworthy,Untrustworthy","image-keyboard-response","15","43515","0.0-6.0-1.5","","3057","","trustrating_stim/white_00898_960530_fa_edt.bmp","5","","","","","","","","","","",""
"","","","ratingFB","594936ad4152bf0001bfd5cd","bdp_trlrn","Fri Mar 10 2023 14:55:24 GMT-0500 (Eastern Standard Time)","676363","Trustworthy,Untrustworthy","image-keyboard-response","16","43718","0.0-6.0-2.5","","null","","trustrating_stim/white_00898_960530_fa_edt.bmp","null","","","","","","","","","","",""
"","","","rating","594936ad4152bf0001bfd5cd","bdp_trlrn","Fri Mar 10 2023 14:55:24 GMT-0500 (Eastern Standard Time)","676363","Trustworthy,Untrustworthy","image-keyboard-response","17","47853","0.0-6.0-1.6","","4033","","trustrating_stim/white_mw048.bmp","4","","","","","","","","","","",""
"","","","ratingFB","594936ad4152bf0001bfd5cd","bdp_trlrn","Fri Mar 10 2023 14:55:24 GMT-0500 (Eastern Standard Time)","676363","Trustworthy,Untrustworthy","image-keyboard-response","18","48061","0.0-6.0-2.6","","null","","trustrating_stim/white_mw048.bmp","null","","","","","","","","","","",""
"","","","rating","594936ad4152bf0001bfd5cd","bdp_trlrn","Fri Mar 10 2023 14:55:24 GMT-0500 (Eastern Standard Time)","676363","Trustworthy,Untrustworthy","image-keyboard-response","19","50960","0.0-6.0-1.7","","2792","","trustrating_stim/white_00757_941201_fa_edt.bmp","5","","","","","","","","","","",""
"","","","ratingFB","594936ad4152bf0001bfd5cd","bdp_trlrn","Fri Mar 10 2023 14:55:24 GMT-0500 (Eastern Standard Time)","676363","Trustworthy,Untrustworthy","image-keyboard-response","20","51169","0.0-6.0-2.7","","null","","trustrating_stim/white_00757_941201_fa_edt.bmp","null","","","","","","","","","","",""
"","","","rating","594936ad4152bf0001bfd5cd","bdp_trlrn","Fri Mar 10 2023 14:55:24 GMT-0500 (Eastern Standard Time)","676363","Trustworthy,Untrustworthy","image-keyboard-response","21","58778","0.0-6.0-1.8","","7507","","trustrating_stim/white_00120_931230_fa_edt.bmp","6","","","","","","","","","","",""
"","","","ratingFB","594936ad4152bf0001bfd5cd","bdp_trlrn","Fri Mar 10 2023 14:55:24 GMT-0500 (Eastern Standard Time)","676363","Trustworthy,Untrustworthy","image-keyboard-response","22","58991","0.0-6.0-2.8","","null","","trustrating_stim/white_00120_931230_fa_edt.bmp","null","","","","","","","","","","",""
"","","","rating","594936ad4152bf0001bfd5cd","bdp_trlrn","Fri Mar 10 2023 14:55:24 GMT-0500 (Eastern Standard Time)","676363","Trustworthy,Untrustworthy","image-keyboard-response","23","61368","0.0-6.0-1.9","","2275","","trustrating_stim/white_mw084.bmp","5","","","","","","","","","","",""
"","","","ratingFB","594936ad4152bf0001bfd5cd","bdp_trlrn","Fri Mar 10 2023 14:55:24 GMT-0500 (Eastern Standard Time)","676363","Trustworthy,Untrustworthy","image-keyboard-response","24","61584","0.0-6.0-2.9","","null","","trustrating_stim/white_mw084.bmp","null","","","","","","","","","","",""
"","","","rating","594936ad4152bf0001bfd5cd","bdp_trlrn","Fri Mar 10 2023 14:55:24 GMT-0500 (Eastern Standard Time)","676363","Trustworthy,Untrustworthy","image-keyboard-response","25","64859","0.0-6.0-1.10","","3174","","trustrating_stim/white_00340_940422_fa_edt.bmp","4","","","","","","","","","","",""
"","","","ratingFB","594936ad4152bf0001bfd5cd","bdp_trlrn","Fri Mar 10 2023 14:55:24 GMT-0500 (Eastern Standard Time)","676363","Trustworthy,Untrustworthy","image-keyboard-response","26","65070","0.0-6.0-2.10","","null","","trustrating_stim/white_00340_940422_fa_edt.bmp","null","","","","","","","","","","",""
"","","","rating","594936ad4152bf0001bfd5cd","bdp_trlrn","Fri Mar 10 2023 14:55:24 GMT-0500 (Eastern Standard Time)","676363","Trustworthy,Untrustworthy","image-keyboard-response","27","66780","0.0-6.0-1.11","","1608","","trustrating_stim/white_00129_931230_fb_edt.bmp","5","","","","","","","","","","",""
"","","","ratingFB","594936ad4152bf0001bfd5cd","bdp_trlrn","Fri Mar 10 2023 14:55:24 GMT-0500 (Eastern Standard Time)","676363","Trustworthy,Untrustworthy","image-keyboard-response","28","66989","0.0-6.0-2.11","","null","","trustrating_stim/white_00129_931230_fb_edt.bmp","null","","","","","","","","","","",""
"","","","rating","594936ad4152bf0001bfd5cd","bdp_trlrn","Fri Mar 10 2023 14:55:24 GMT-0500 (Eastern Standard Time)","676363","Trustworthy,Untrustworthy","image-keyboard-response","29","68344","0.0-6.0-1.12","","1247","","trustrating_stim/white_00223_940128_fb_edt.bmp","5","","","","","","","","","","",""
"","","","ratingFB","594936ad4152bf0001bfd5cd","bdp_trlrn","Fri Mar 10 2023 14:55:24 GMT-0500 (Eastern Standard Time)","676363","Trustworthy,Untrustworthy","image-keyboard-response","30","68556","0.0-6.0-2.12","","null","","trustrating_stim/white_00223_940128_fb_edt.bmp","null","","","","","","","","","","",""
"","","","rating","594936ad4152bf0001bfd5cd","bdp_trlrn","Fri Mar 10 2023 14:55:24 GMT-0500 (Eastern Standard Time)","676363","Trustworthy,Untrustworthy","image-keyboard-response","31","70615","0.0-6.0-1.13","","1950","","trustrating_stim/white_00785_941205_fb_edt.bmp","5","","","","","","","","","","",""
"","","","ratingFB","594936ad4152bf0001bfd5cd","bdp_trlrn","Fri Mar 10 2023 14:55:24 GMT-0500 (Eastern Standard Time)","676363","Trustworthy,Untrustworthy","image-keyboard-response","32","70818","0.0-6.0-2.13","","null","","trustrating_stim/white_00785_941205_fb_edt.bmp","null","","","","","","","","","","",""
"","","","rating","594936ad4152bf0001bfd5cd","bdp_trlrn","Fri Mar 10 2023 14:55:24 GMT-0500 (Eastern Standard Time)","676363","Trustworthy,Untrustworthy","image-keyboard-response","33","72716","0.0-6.0-1.14","","1790","","trustrating_stim/white_mw066.bmp","5","","","","","","","","","","",""
"","","","ratingFB","594936ad4152bf0001bfd5cd","bdp_trlrn","Fri Mar 10 2023 14:55:24 GMT-0500 (Eastern Standard Time)","676363","Trustworthy,Untrustworthy","image-keyboard-response","34","72920","0.0-6.0-2.14","","null","","trustrating_stim/white_mw066.bmp","null","","","","","","","","","","",""
"","","","rating","594936ad4152bf0001bfd5cd","bdp_trlrn","Fri Mar 10 2023 14:55:24 GMT-0500 (Eastern Standard Time)","676363","Trustworthy,Untrustworthy","image-keyboard-response","35","74404","0.0-6.0-1.15","","1374","","trustrating_stim/white_mw053.bmp","5","","","","","","","","","","",""
"","","","ratingFB","594936ad4152bf0001bfd5cd","bdp_trlrn","Fri Mar 10 2023 14:55:24 GMT-0500 (Eastern Standard Time)","676363","Trustworthy,Untrustworthy","image-keyboard-response","36","74615","0.0-6.0-2.15","","null","","trustrating_stim/white_mw053.bmp","null","","","","","","","","","","",""
"","","","rating","594936ad4152bf0001bfd5cd","bdp_trlrn","Fri Mar 10 2023 14:55:24 GMT-0500 (Eastern Standard Time)","676363","Trustworthy,Untrustworthy","image-keyboard-response","37","76025","0.0-6.0-1.16","","1308","","trustrating_stim/white_mw060.bmp","4","","","","","","","","","","",""
"","","","ratingFB","594936ad4152bf0001bfd5cd","bdp_trlrn","Fri Mar 10 2023 14:55:24 GMT-0500 (Eastern Standard Time)","676363","Trustworthy,Untrustworthy","image-keyboard-response","38","76232","0.0-6.0-2.16","","null","","trustrating_stim/white_mw060.bmp","null","","","","","","","","","","",""
"","","","rating","594936ad4152bf0001bfd5cd","bdp_trlrn","Fri Mar 10 2023 14:55:24 GMT-0500 (Eastern Standard Time)","676363","Trustworthy,Untrustworthy","image-keyboard-response","39","79283","0.0-6.0-1.17","","2950","","trustrating_stim/white_mw097.bmp","4","","","","","","","","","","",""
"","","","ratingFB","594936ad4152bf0001bfd5cd","bdp_trlrn","Fri Mar 10 2023 14:55:24 GMT-0500 (Eastern Standard Time)","676363","Trustworthy,Untrustworthy","image-keyboard-response","40","79500","0.0-6.0-2.17","","null","","trustrating_stim/white_mw097.bmp","null","","","","","","","","","","",""
"","","","rating","594936ad4152bf0001bfd5cd","bdp_trlrn","Fri Mar 10 2023 14:55:24 GMT-0500 (Eastern Standard Time)","676363","Trustworthy,Untrustworthy","image-keyboard-response","41","82185","0.0-6.0-1.18","","2577","","trustrating_stim/white_00519_940519_fb_edt.bmp","5","","","","","","","","","","",""
"","","","ratingFB","594936ad4152bf0001bfd5cd","bdp_trlrn","Fri Mar 10 2023 14:55:24 GMT-0500 (Eastern Standard Time)","676363","Trustworthy,Untrustworthy","image-keyboard-response","42","82402","0.0-6.0-2.18","","null","","trustrating_stim/white_00519_940519_fb_edt.bmp","null","","","","","","","","","","",""
"","","","rating","594936ad4152bf0001bfd5cd","bdp_trlrn","Fri Mar 10 2023 14:55:24 GMT-0500 (Eastern Standard Time)","676363","Trustworthy,Untrustworthy","image-keyboard-response","43","84399","0.0-6.0-1.19","","1890","","trustrating_stim/white_00807_941205_fb_edt.bmp","5","","","","","","","","","","",""
"","","","ratingFB","594936ad4152bf0001bfd5cd","bdp_trlrn","Fri Mar 10 2023 14:55:24 GMT-0500 (Eastern Standard Time)","676363","Trustworthy,Untrustworthy","image-keyboard-response","44","84602","0.0-6.0-2.19","","null","","trustrating_stim/white_00807_941205_fb_edt.bmp","null","","","","","","","","","","",""
"","","","rating","594936ad4152bf0001bfd5cd","bdp_trlrn","Fri Mar 10 2023 14:55:24 GMT-0500 (Eastern Standard Time)","676363","Trustworthy,Untrustworthy","image-keyboard-response","45","86022","0.0-6.0-1.20","","1312","","trustrating_stim/white_mw056.bmp","5","","","","","","","","","","",""
"","","","ratingFB","594936ad4152bf0001bfd5cd","bdp_trlrn","Fri Mar 10 2023 14:55:24 GMT-0500 (Eastern Standard Time)","676363","Trustworthy,Untrustworthy","image-keyboard-response","46","86229","0.0-6.0-2.20","","null","","trustrating_stim/white_mw056.bmp","null","","","","","","","","","","",""
"","","","rating","594936ad4152bf0001bfd5cd","bdp_trlrn","Fri Mar 10 2023 14:55:24 GMT-0500 (Eastern Standard Time)","676363","Trustworthy,Untrustworthy","image-keyboard-response","47","89025","0.0-6.0-1.21","","2695","","trustrating_stim/white_mw049.bmp","5","","","","","","","","","","",""
"","","","ratingFB","594936ad4152bf0001bfd5cd","bdp_trlrn","Fri Mar 10 2023 14:55:24 GMT-0500 (Eastern Standard Time)","676363","Trustworthy,Untrustworthy","image-keyboard-response","48","89229","0.0-6.0-2.21","","null","","trustrating_stim/white_mw049.bmp","null","","","","","","","","","","",""
"","","","rating","594936ad4152bf0001bfd5cd","bdp_trlrn","Fri Mar 10 2023 14:55:24 GMT-0500 (Eastern Standard Time)","676363","Trustworthy,Untrustworthy","image-keyboard-response","49","90395","0.0-6.0-1.22","","1057","","trustrating_stim/white_mw089.bmp","5","","","","","","","","","","",""
"","","","ratingFB","594936ad4152bf0001bfd5cd","bdp_trlrn","Fri Mar 10 2023 14:55:24 GMT-0500 (Eastern Standard Time)","676363","Trustworthy,Untrustworthy","image-keyboard-response","50","90610","0.0-6.0-2.22","","null","","trustrating_stim/white_mw089.bmp","null","","","","","","","","","","",""
"","","","rating","594936ad4152bf0001bfd5cd","bdp_trlrn","Fri Mar 10 2023 14:55:24 GMT-0500 (Eastern Standard Time)","676363","Trustworthy,Untrustworthy","image-keyboard-response","51","92222","0.0-6.0-1.23","","1511","","trustrating_stim/white_00602_940928_fb_edt.bmp","5","","","","","","","","","","",""
"","","","ratingFB","594936ad4152bf0001bfd5cd","bdp_trlrn","Fri Mar 10 2023 14:55:24 GMT-0500 (Eastern Standard Time)","676363","Trustworthy,Untrustworthy","image-keyboard-response","52","92425","0.0-6.0-2.23","","null","","trustrating_stim/white_00602_940928_fb_edt.bmp","null","","","","","","","","","","",""
"","","","rating","594936ad4152bf0001bfd5cd","bdp_trlrn","Fri Mar 10 2023 14:55:24 GMT-0500 (Eastern Standard Time)","676363","Trustworthy,Untrustworthy","image-keyboard-response","53","93900","0.0-6.0-1.24","","1366","","trustrating_stim/white_mw035.bmp","5","","","","","","","","","","",""
"","","","ratingFB","594936ad4152bf0001bfd5cd","bdp_trlrn","Fri Mar 10 2023 14:55:24 GMT-0500 (Eastern Standard Time)","676363","Trustworthy,Untrustworthy","image-keyboard-response","54","94106","0.0-6.0-2.24","","null","","trustrating_stim/white_mw035.bmp","null","","","","","","","","","","",""
"","","","rating","594936ad4152bf0001bfd5cd","bdp_trlrn","Fri Mar 10 2023 14:55:24 GMT-0500 (Eastern Standard Time)","676363","Trustworthy,Untrustworthy","image-keyboard-response","55","95967","0.0-6.0-1.25","","1752","","trustrating_stim/white_mw046.bmp","5","","","","","","","","","","",""
"","","","ratingFB","594936ad4152bf0001bfd5cd","bdp_trlrn","Fri Mar 10 2023 14:55:24 GMT-0500 (Eastern Standard Time)","676363","Trustworthy,Untrustworthy","image-keyboard-response","56","96172","0.0-6.0-2.25","","null","","trustrating_stim/white_mw046.bmp","null","","","","","","","","","","",""
"","","","rating","594936ad4152bf0001bfd5cd","bdp_trlrn","Fri Mar 10 2023 14:55:24 GMT-0500 (Eastern Standard Time)","676363","Trustworthy,Untrustworthy","image-keyboard-response","57","97432","0.0-6.0-1.26","","1152","","trustrating_stim/white_00659_941121_fa_edt.bmp","4","","","","","","","","","","",""
"","","","ratingFB","594936ad4152bf0001bfd5cd","bdp_trlrn","Fri Mar 10 2023 14:55:24 GMT-0500 (Eastern Standard Time)","676363","Trustworthy,Untrustworthy","image-keyboard-response","58","97634","0.0-6.0-2.26","","null","","trustrating_stim/white_00659_941121_fa_edt.bmp","null","","","","","","","","","","",""
"","","","rating","594936ad4152bf0001bfd5cd","bdp_trlrn","Fri Mar 10 2023 14:55:24 GMT-0500 (Eastern Standard Time)","676363","Trustworthy,Untrustworthy","image-keyboard-response","59","100695","0.0-6.0-1.27","","2953","","trustrating_stim/white_mw071.bmp","4","","","","","","","","","","",""
"","","","ratingFB","594936ad4152bf0001bfd5cd","bdp_trlrn","Fri Mar 10 2023 14:55:24 GMT-0500 (Eastern Standard Time)","676363","Trustworthy,Untrustworthy","image-keyboard-response","60","100909","0.0-6.0-2.27","","null","","trustrating_stim/white_mw071.bmp","null","","","","","","","","","","",""
"","","","rating","594936ad4152bf0001bfd5cd","bdp_trlrn","Fri Mar 10 2023 14:55:24 GMT-0500 (Eastern Standard Time)","676363","Trustworthy,Untrustworthy","image-keyboard-response","61","102664","0.0-6.0-1.28","","1646","","trustrating_stim/white_mw063.bmp","4","","","","","","","","","","",""
"","","","ratingFB","594936ad4152bf0001bfd5cd","bdp_trlrn","Fri Mar 10 2023 14:55:24 GMT-0500 (Eastern Standard Time)","676363","Trustworthy,Untrustworthy","image-keyboard-response","62","102873","0.0-6.0-2.28","","null","","trustrating_stim/white_mw063.bmp","null","","","","","","","","","","",""
"","","","rating","594936ad4152bf0001bfd5cd","bdp_trlrn","Fri Mar 10 2023 14:55:24 GMT-0500 (Eastern Standard Time)","676363","Trustworthy,Untrustworthy","image-keyboard-response","63","104226","0.0-6.0-1.29","","1245","","trustrating_stim/white_00109_931230_fa_edt.bmp","5","","","","","","","","","","",""
"","","","ratingFB","594936ad4152bf0001bfd5cd","bdp_trlrn","Fri Mar 10 2023 14:55:24 GMT-0500 (Eastern Standard Time)","676363","Trustworthy,Untrustworthy","image-keyboard-response","64","104433","0.0-6.0-2.29","","null","","trustrating_stim/white_00109_931230_fa_edt.bmp","null","","","","","","","","","","",""
"","","","rating","594936ad4152bf0001bfd5cd","bdp_trlrn","Fri Mar 10 2023 14:55:24 GMT-0500 (Eastern Standard Time)","676363","Trustworthy,Untrustworthy","image-keyboard-response","65","107815","0.0-6.0-1.30","","3273","","trustrating_stim/white_00577_940928_fa_edt.bmp","5","","","","","","","","","","",""
"","","","ratingFB","594936ad4152bf0001bfd5cd","bdp_trlrn","Fri Mar 10 2023 14:55:24 GMT-0500 (Eastern Standard Time)","676363","Trustworthy,Untrustworthy","image-keyboard-response","66","108020","0.0-6.0-2.30","","null","","trustrating_stim/white_00577_940928_fa_edt.bmp","null","","","","","","","","","","",""
"","","","rating","594936ad4152bf0001bfd5cd","bdp_trlrn","Fri Mar 10 2023 14:55:24 GMT-0500 (Eastern Standard Time)","676363","Trustworthy,Untrustworthy","image-keyboard-response","67","109498","0.0-6.0-1.31","","1370","","trustrating_stim/white_00519_940519_fb_edt.bmp","5","","","","","","","","","","",""
"","","","ratingFB","594936ad4152bf0001bfd5cd","bdp_trlrn","Fri Mar 10 2023 14:55:24 GMT-0500 (Eastern Standard Time)","676363","Trustworthy,Untrustworthy","image-keyboard-response","68","109700","0.0-6.0-2.31","","null","","trustrating_stim/white_00519_940519_fb_edt.bmp","null","","","","","","","","","","",""
"","","","rating","594936ad4152bf0001bfd5cd","bdp_trlrn","Fri Mar 10 2023 14:55:24 GMT-0500 (Eastern Standard Time)","676363","Trustworthy,Untrustworthy","image-keyboard-response","69","110804","0.0-6.0-1.32","","996","","trustrating_stim/white_mw066.bmp","5","","","","","","","","","","",""
"","","","ratingFB","594936ad4152bf0001bfd5cd","bdp_trlrn","Fri Mar 10 2023 14:55:24 GMT-0500 (Eastern Standard Time)","676363","Trustworthy,Untrustworthy","image-keyboard-response","70","111011","0.0-6.0-2.32","","null","","trustrating_stim/white_mw066.bmp","null","","","","","","","","","","",""
"","","","rating","594936ad4152bf0001bfd5cd","bdp_trlrn","Fri Mar 10 2023 14:55:24 GMT-0500 (Eastern Standard Time)","676363","Trustworthy,Untrustworthy","image-keyboard-response","71","112108","0.0-6.0-1.33","","989","","trustrating_stim/white_mw035.bmp","5","","","","","","","","","","",""
"","","","ratingFB","594936ad4152bf0001bfd5cd","bdp_trlrn","Fri Mar 10 2023 14:55:24 GMT-0500 (Eastern Standard Time)","676363","Trustworthy,Untrustworthy","image-keyboard-response","72","112320","0.0-6.0-2.33","","null","","trustrating_stim/white_mw035.bmp","null","","","","","","","","","","",""
"","","","rating","594936ad4152bf0001bfd5cd","bdp_trlrn","Fri Mar 10 2023 14:55:24 GMT-0500 (Eastern Standard Time)","676363","Trustworthy,Untrustworthy","image-keyboard-response","73","113249","0.0-6.0-1.34","","827","","trustrating_stim/white_mw060.bmp","4","","","","","","","","","","",""
"","","","ratingFB","594936ad4152bf0001bfd5cd","bdp_trlrn","Fri Mar 10 2023 14:55:24 GMT-0500 (Eastern Standard Time)","676363","Trustworthy,Untrustworthy","image-keyboard-response","74","113460","0.0-6.0-2.34","","null","","trustrating_stim/white_mw060.bmp","null","","","","","","","","","","",""
"","","","rating","594936ad4152bf0001bfd5cd","bdp_trlrn","Fri Mar 10 2023 14:55:24 GMT-0500 (Eastern Standard Time)","676363","Trustworthy,Untrustworthy","image-keyboard-response","75","115262","0.0-6.0-1.35","","1693","","trustrating_stim/white_mw056.bmp","5","","","","","","","","","","",""
"","","","ratingFB","594936ad4152bf0001bfd5cd","bdp_trlrn","Fri Mar 10 2023 14:55:24 GMT-0500 (Eastern Standard Time)","676363","Trustworthy,Untrustworthy","image-keyboard-response","76","115478","0.0-6.0-2.35","","null","","trustrating_stim/white_mw056.bmp","null","","","","","","","","","","",""
"","","","rating","594936ad4152bf0001bfd5cd","bdp_trlrn","Fri Mar 10 2023 14:55:24 GMT-0500 (Eastern Standard Time)","676363","Trustworthy,Untrustworthy","image-keyboard-response","77","116520","0.0-6.0-1.36","","940","","trustrating_stim/white_mw053.bmp","5","","","","","","","","","","",""
"","","","ratingFB","594936ad4152bf0001bfd5cd","bdp_trlrn","Fri Mar 10 2023 14:55:24 GMT-0500 (Eastern Standard Time)","676363","Trustworthy,Untrustworthy","image-keyboard-response","78","116726","0.0-6.0-2.36","","null","","trustrating_stim/white_mw053.bmp","null","","","","","","","","","","",""
"","","","rating","594936ad4152bf0001bfd5cd","bdp_trlrn","Fri Mar 10 2023 14:55:24 GMT-0500 (Eastern Standard Time)","676363","Trustworthy,Untrustworthy","image-keyboard-response","79","118608","0.0-6.0-1.37","","1781","","trustrating_stim/white_00120_931230_fa_edt.bmp","6","","","","","","","","","","",""
"","","","ratingFB","594936ad4152bf0001bfd5cd","bdp_trlrn","Fri Mar 10 2023 14:55:24 GMT-0500 (Eastern Standard Time)","676363","Trustworthy,Untrustworthy","image-keyboard-response","80","118818","0.0-6.0-2.37","","null","","trustrating_stim/white_00120_931230_fa_edt.bmp","null","","","","","","","","","","",""
"","","","rating","594936ad4152bf0001bfd5cd","bdp_trlrn","Fri Mar 10 2023 14:55:24 GMT-0500 (Eastern Standard Time)","676363","Trustworthy,Untrustworthy","image-keyboard-response","81","120435","0.0-6.0-1.38","","1508","","trustrating_stim/white_mw033.bmp","5","","","","","","","","","","",""
"","","","ratingFB","594936ad4152bf0001bfd5cd","bdp_trlrn","Fri Mar 10 2023 14:55:24 GMT-0500 (Eastern Standard Time)","676363","Trustworthy,Untrustworthy","image-keyboard-response","82","120636","0.0-6.0-2.38","","null","","trustrating_stim/white_mw033.bmp","null","","","","","","","","","","",""
"","","","rating","594936ad4152bf0001bfd5cd","bdp_trlrn","Fri Mar 10 2023 14:55:24 GMT-0500 (Eastern Standard Time)","676363","Trustworthy,Untrustworthy","image-keyboard-response","83","122144","0.0-6.0-1.39","","1406","","trustrating_stim/white_mw089.bmp","5","","","","","","","","","","",""
"","","","ratingFB","594936ad4152bf0001bfd5cd","bdp_trlrn","Fri Mar 10 2023 14:55:24 GMT-0500 (Eastern Standard Time)","676363","Trustworthy,Untrustworthy","image-keyboard-response","84","122347","0.0-6.0-2.39","","null","","trustrating_stim/white_mw089.bmp","null","","","","","","","","","","",""
"","","","rating","594936ad4152bf0001bfd5cd","bdp_trlrn","Fri Mar 10 2023 14:55:24 GMT-0500 (Eastern Standard Time)","676363","Trustworthy,Untrustworthy","image-keyboard-response","85","123390","0.0-6.0-1.40","","936","","trustrating_stim/white_mw048.bmp","4","","","","","","","","","","",""
"","","","ratingFB","594936ad4152bf0001bfd5cd","bdp_trlrn","Fri Mar 10 2023 14:55:24 GMT-0500 (Eastern Standard Time)","676363","Trustworthy,Untrustworthy","image-keyboard-response","86","123593","0.0-6.0-2.40","","null","","trustrating_stim/white_mw048.bmp","null","","","","","","","","","","",""
"","","","rating","594936ad4152bf0001bfd5cd","bdp_trlrn","Fri Mar 10 2023 14:55:24 GMT-0500 (Eastern Standard Time)","676363","Trustworthy,Untrustworthy","image-keyboard-response","87","125187","0.0-6.0-1.41","","1486","","trustrating_stim/white_mw071.bmp","4","","","","","","","","","","",""
"","","","ratingFB","594936ad4152bf0001bfd5cd","bdp_trlrn","Fri Mar 10 2023 14:55:24 GMT-0500 (Eastern Standard Time)","676363","Trustworthy,Untrustworthy","image-keyboard-response","88","125391","0.0-6.0-2.41","","null","","trustrating_stim/white_mw071.bmp","null","","","","","","","","","","",""
"","","","rating","594936ad4152bf0001bfd5cd","bdp_trlrn","Fri Mar 10 2023 14:55:24 GMT-0500 (Eastern Standard Time)","676363","Trustworthy,Untrustworthy","image-keyboard-response","89","126336","0.0-6.0-1.42","","844","","trustrating_stim/white_00109_931230_fa_edt.bmp","5","","","","","","","","","","",""
"","","","ratingFB","594936ad4152bf0001bfd5cd","bdp_trlrn","Fri Mar 10 2023 14:55:24 GMT-0500 (Eastern Standard Time)","676363","Trustworthy,Untrustworthy","image-keyboard-response","90","126544","0.0-6.0-2.42","","null","","trustrating_stim/white_00109_931230_fa_edt.bmp","null","","","","","","","","","","",""
"","","","rating","594936ad4152bf0001bfd5cd","bdp_trlrn","Fri Mar 10 2023 14:55:24 GMT-0500 (Eastern Standard Time)","676363","Trustworthy,Untrustworthy","image-keyboard-response","91","130424","0.0-6.0-1.43","","3771","","trustrating_stim/white_00129_931230_fb_edt.bmp","5","","","","","","","","","","",""
"","","","ratingFB","594936ad4152bf0001bfd5cd","bdp_trlrn","Fri Mar 10 2023 14:55:24 GMT-0500 (Eastern Standard Time)","676363","Trustworthy,Untrustworthy","image-keyboard-response","92","130631","0.0-6.0-2.43","","null","","trustrating_stim/white_00129_931230_fb_edt.bmp","null","","","","","","","","","","",""
"","","","rating","594936ad4152bf0001bfd5cd","bdp_trlrn","Fri Mar 10 2023 14:55:24 GMT-0500 (Eastern Standard Time)","676363","Trustworthy,Untrustworthy","image-keyboard-response","93","131620","0.0-6.0-1.44","","880","","trustrating_stim/white_00340_940422_fa_edt.bmp","4","","","","","","","","","","",""
"","","","ratingFB","594936ad4152bf0001bfd5cd","bdp_trlrn","Fri Mar 10 2023 14:55:24 GMT-0500 (Eastern Standard Time)","676363","Trustworthy,Untrustworthy","image-keyboard-response","94","131834","0.0-6.0-2.44","","null","","trustrating_stim/white_00340_940422_fa_edt.bmp","null","","","","","","","","","","",""
"","","","rating","594936ad4152bf0001bfd5cd","bdp_trlrn","Fri Mar 10 2023 14:55:24 GMT-0500 (Eastern Standard Time)","676363","Trustworthy,Untrustworthy","image-keyboard-response","95","132932","0.0-6.0-1.45","","989","","trustrating_stim/white_mw084.bmp","5","","","","","","","","","","",""
"","","","ratingFB","594936ad4152bf0001bfd5cd","bdp_trlrn","Fri Mar 10 2023 14:55:24 GMT-0500 (Eastern Standard Time)","676363","Trustworthy,Untrustworthy","image-keyboard-response","96","133143","0.0-6.0-2.45","","null","","trustrating_stim/white_mw084.bmp","null","","","","","","","","","","",""
"","","","rating","594936ad4152bf0001bfd5cd","bdp_trlrn","Fri Mar 10 2023 14:55:24 GMT-0500 (Eastern Standard Time)","676363","Trustworthy,Untrustworthy","image-keyboard-response","97","134166","0.0-6.0-1.46","","920","","trustrating_stim/white_mw046.bmp","5","","","","","","","","","","",""
"","","","ratingFB","594936ad4152bf0001bfd5cd","bdp_trlrn","Fri Mar 10 2023 14:55:24 GMT-0500 (Eastern Standard Time)","676363","Trustworthy,Untrustworthy","image-keyboard-response","98","134374","0.0-6.0-2.46","","null","","trustrating_stim/white_mw046.bmp","null","","","","","","","","","","",""
"","","","rating","594936ad4152bf0001bfd5cd","bdp_trlrn","Fri Mar 10 2023 14:55:24 GMT-0500 (Eastern Standard Time)","676363","Trustworthy,Untrustworthy","image-keyboard-response","99","135387","0.0-6.0-1.47","","906","","trustrating_stim/white_00807_941205_fb_edt.bmp","5","","","","","","","","","","",""
"","","","ratingFB","594936ad4152bf0001bfd5cd","bdp_trlrn","Fri Mar 10 2023 14:55:24 GMT-0500 (Eastern Standard Time)","676363","Trustworthy,Untrustworthy","image-keyboard-response","100","135592","0.0-6.0-2.47","","null","","trustrating_stim/white_00807_941205_fb_edt.bmp","null","","","","","","","","","","",""
"","","","rating","594936ad4152bf0001bfd5cd","bdp_trlrn","Fri Mar 10 2023 14:55:24 GMT-0500 (Eastern Standard Time)","676363","Trustworthy,Untrustworthy","image-keyboard-response","101","136777","0.0-6.0-1.48","","1075","","trustrating_stim/white_mw063.bmp","4","","","","","","","","","","",""
"","","","ratingFB","594936ad4152bf0001bfd5cd","bdp_trlrn","Fri Mar 10 2023 14:55:24 GMT-0500 (Eastern Standard Time)","676363","Trustworthy,Untrustworthy","image-keyboard-response","102","136981","0.0-6.0-2.48","","null","","trustrating_stim/white_mw063.bmp","null","","","","","","","","","","",""
"","","","rating","594936ad4152bf0001bfd5cd","bdp_trlrn","Fri Mar 10 2023 14:55:24 GMT-0500 (Eastern Standard Time)","676363","Trustworthy,Untrustworthy","image-keyboard-response","103","139875","0.0-6.0-1.49","","2784","","trustrating_stim/white_00602_940928_fb_edt.bmp","6","","","","","","","","","","",""
"","","","ratingFB","594936ad4152bf0001bfd5cd","bdp_trlrn","Fri Mar 10 2023 14:55:24 GMT-0500 (Eastern Standard Time)","676363","Trustworthy,Untrustworthy","image-keyboard-response","104","140091","0.0-6.0-2.49","","null","","trustrating_stim/white_00602_940928_fb_edt.bmp","null","","","","","","","","","","",""
"","","","rating","594936ad4152bf0001bfd5cd","bdp_trlrn","Fri Mar 10 2023 14:55:24 GMT-0500 (Eastern Standard Time)","676363","Trustworthy,Untrustworthy","image-keyboard-response","105","141239","0.0-6.0-1.50","","1045","","trustrating_stim/white_mw097.bmp","4","","","","","","","","","","",""
"","","","ratingFB","594936ad4152bf0001bfd5cd","bdp_trlrn","Fri Mar 10 2023 14:55:24 GMT-0500 (Eastern Standard Time)","676363","Trustworthy,Untrustworthy","image-keyboard-response","106","141448","0.0-6.0-2.50","","null","","trustrating_stim/white_mw097.bmp","null","","","","","","","","","","",""
"","","","rating","594936ad4152bf0001bfd5cd","bdp_trlrn","Fri Mar 10 2023 14:55:24 GMT-0500 (Eastern Standard Time)","676363","Trustworthy,Untrustworthy","image-keyboard-response","107","142355","0.0-6.0-1.51","","798","","trustrating_stim/white_00898_960530_fa_edt.bmp","5","","","","","","","","","","",""
"","","","ratingFB","594936ad4152bf0001bfd5cd","bdp_trlrn","Fri Mar 10 2023 14:55:24 GMT-0500 (Eastern Standard Time)","676363","Trustworthy,Untrustworthy","image-keyboard-response","108","142571","0.0-6.0-2.51","","null","","trustrating_stim/white_00898_960530_fa_edt.bmp","null","","","","","","","","","","",""
"","","","rating","594936ad4152bf0001bfd5cd","bdp_trlrn","Fri Mar 10 2023 14:55:24 GMT-0500 (Eastern Standard Time)","676363","Trustworthy,Untrustworthy","image-keyboard-response","109","143519","0.0-6.0-1.52","","841","","trustrating_stim/white_00785_941205_fb_edt.bmp","5","","","","","","","","","","",""
"","","","ratingFB","594936ad4152bf0001bfd5cd","bdp_trlrn","Fri Mar 10 2023 14:55:24 GMT-0500 (Eastern Standard Time)","676363","Trustworthy,Untrustworthy","image-keyboard-response","110","143723","0.0-6.0-2.52","","null","","trustrating_stim/white_00785_941205_fb_edt.bmp","null","","","","","","","","","","",""
"","","","rating","594936ad4152bf0001bfd5cd","bdp_trlrn","Fri Mar 10 2023 14:55:24 GMT-0500 (Eastern Standard Time)","676363","Trustworthy,Untrustworthy","image-keyboard-response","111","144862","0.0-6.0-1.53","","1037","","trustrating_stim/white_00757_941201_fa_edt.bmp","4","","","","","","","","","","",""
"","","","ratingFB","594936ad4152bf0001bfd5cd","bdp_trlrn","Fri Mar 10 2023 14:55:24 GMT-0500 (Eastern Standard Time)","676363","Trustworthy,Untrustworthy","image-keyboard-response","112","145065","0.0-6.0-2.53","","null","","trustrating_stim/white_00757_941201_fa_edt.bmp","null","","","","","","","","","","",""
"","","","rating","594936ad4152bf0001bfd5cd","bdp_trlrn","Fri Mar 10 2023 14:55:24 GMT-0500 (Eastern Standard Time)","676363","Trustworthy,Untrustworthy","image-keyboard-response","113","150048","0.0-6.0-1.54","","4874","","trustrating_stim/white_00299_940422_fa_edt.bmp","5","","","","","","","","","","",""
"","","","ratingFB","594936ad4152bf0001bfd5cd","bdp_trlrn","Fri Mar 10 2023 14:55:24 GMT-0500 (Eastern Standard Time)","676363","Trustworthy,Untrustworthy","image-keyboard-response","114","150263","0.0-6.0-2.54","","null","","trustrating_stim/white_00299_940422_fa_edt.bmp","null","","","","","","","","","","",""
"","","","rating","594936ad4152bf0001bfd5cd","bdp_trlrn","Fri Mar 10 2023 14:55:24 GMT-0500 (Eastern Standard Time)","676363","Trustworthy,Untrustworthy","image-keyboard-response","115","151464","0.0-6.0-1.55","","1093","","trustrating_stim/white_mw099.bmp","5","","","","","","","","","","",""
"","","","ratingFB","594936ad4152bf0001bfd5cd","bdp_trlrn","Fri Mar 10 2023 14:55:24 GMT-0500 (Eastern Standard Time)","676363","Trustworthy,Untrustworthy","image-keyboard-response","116","151679","0.0-6.0-2.55","","null","","trustrating_stim/white_mw099.bmp","null","","","","","","","","","","",""
"","","","rating","594936ad4152bf0001bfd5cd","bdp_trlrn","Fri Mar 10 2023 14:55:24 GMT-0500 (Eastern Standard Time)","676363","Trustworthy,Untrustworthy","image-keyboard-response","117","152760","0.0-6.0-1.56","","971","","trustrating_stim/white_mw049.bmp","5","","","","","","","","","","",""
"","","","ratingFB","594936ad4152bf0001bfd5cd","bdp_trlrn","Fri Mar 10 2023 14:55:24 GMT-0500 (Eastern Standard Time)","676363","Trustworthy,Untrustworthy","image-keyboard-response","118","152963","0.0-6.0-2.56","","null","","trustrating_stim/white_mw049.bmp","null","","","","","","","","","","",""
"","","","rating","594936ad4152bf0001bfd5cd","bdp_trlrn","Fri Mar 10 2023 14:55:24 GMT-0500 (Eastern Standard Time)","676363","Trustworthy,Untrustworthy","image-keyboard-response","119","154133","0.0-6.0-1.57","","1060","","trustrating_stim/white_00761_941201_fb_edt.bmp","5","","","","","","","","","","",""
"","","","ratingFB","594936ad4152bf0001bfd5cd","bdp_trlrn","Fri Mar 10 2023 14:55:24 GMT-0500 (Eastern Standard Time)","676363","Trustworthy,Untrustworthy","image-keyboard-response","120","154334","0.0-6.0-2.57","","null","","trustrating_stim/white_00761_941201_fb_edt.bmp","null","","","","","","","","","","",""
"","","","rating","594936ad4152bf0001bfd5cd","bdp_trlrn","Fri Mar 10 2023 14:55:24 GMT-0500 (Eastern Standard Time)","676363","Trustworthy,Untrustworthy","image-keyboard-response","121","156375","0.0-6.0-1.58","","1935","","trustrating_stim/white_00223_940128_fb_edt.bmp","5","","","","","","","","","","",""
"","","","ratingFB","594936ad4152bf0001bfd5cd","bdp_trlrn","Fri Mar 10 2023 14:55:24 GMT-0500 (Eastern Standard Time)","676363","Trustworthy,Untrustworthy","image-keyboard-response","122","156581","0.0-6.0-2.58","","null","","trustrating_stim/white_00223_940128_fb_edt.bmp","null","","","","","","","","","","",""
"","","","rating","594936ad4152bf0001bfd5cd","bdp_trlrn","Fri Mar 10 2023 14:55:24 GMT-0500 (Eastern Standard Time)","676363","Trustworthy,Untrustworthy","image-keyboard-response","123","158047","0.0-6.0-1.59","","1358","","trustrating_stim/white_00659_941121_fa_edt.bmp","4","","","","","","","","","","",""
"","","","ratingFB","594936ad4152bf0001bfd5cd","bdp_trlrn","Fri Mar 10 2023 14:55:24 GMT-0500 (Eastern Standard Time)","676363","Trustworthy,Untrustworthy","image-keyboard-response","124","158260","0.0-6.0-2.59","","null","","trustrating_stim/white_00659_941121_fa_edt.bmp","null","","","","","","","","","","",""
"","","","","594936ad4152bf0001bfd5cd","bdp_trlrn","Fri Mar 10 2023 14:55:24 GMT-0500 (Eastern Standard Time)","676363","Trustworthy,Untrustworthy","instructions","125","160226","0.0-7.0","[{""page_index"":0,""viewing_time"":1858}]","1858","","","","","","","","","","","","","",""
"","","","","594936ad4152bf0001bfd5cd","bdp_trlrn","Fri Mar 10 2023 14:55:24 GMT-0500 (Eastern Standard Time)","676363","Trustworthy,Untrustworthy","instructions","126","239745","0.0-8.0","[{""page_index"":0,""viewing_time"":1095},{""page_index"":1,""viewing_time"":27904},{""page_index"":2,""viewing_time"":13384},{""page_index"":3,""viewing_time"":8637},{""page_index"":4,""viewing_time"":8746},{""page_index"":5,""viewing_time"":7462},{""page_index"":6,""viewing_time"":10540},{""page_index"":7,""viewing_time"":1642}]","79410","","","","","","","","","","","","","",""
"","","","","594936ad4152bf0001bfd5cd","bdp_trlrn","Fri Mar 10 2023 14:55:24 GMT-0500 (Eastern Standard Time)","676363","Trustworthy,Untrustworthy","html-keyboard-response","127","244208","0.0-9.0","","4460","","<div class='header' style='text-align:left; position: absolute; top: 5%; left: 5%;'><small>Task 2 of 5</small></div><div class='instruxDiv'><p><strong>1) What is the minimum number of points you can choose to send to your partner?</strong></p><p>a) 0</p><p>b) 1</p><p>c) 5</p>","A","","","","","","","","","","",""
"","","","","594936ad4152bf0001bfd5cd","bdp_trlrn","Fri Mar 10 2023 14:55:24 GMT-0500 (Eastern Standard Time)","676363","Trustworthy,Untrustworthy","html-keyboard-response","128","246809","0.0-10.0","","2487","","<div class='header' style='text-align:left; position: absolute; top: 5%; left: 5%;'><small>Task 2 of 5</small></div><div class='instruxDiv'><p><strong>1) What is the minimum number of points you can choose to send to your partner?</strong></p><p style='color:#FF0000'>a) 0</p><p>b) 1</p><p>c) 5</p><h3 style='color:#FF0000'>Incorrect!</h3><h3 class='center-content'>The correct response is b).</h3><h3 class='center-content'>The minimum number of points you can choose to send to your partner is 1 point.</h3><p><em>Press SPACEBAR to continue</em></p></div>"," ","","","","","","","","","","",""
"","","","","594936ad4152bf0001bfd5cd","bdp_trlrn","Fri Mar 10 2023 14:55:24 GMT-0500 (Eastern Standard Time)","676363","Trustworthy,Untrustworthy","html-keyboard-response","129","252884","0.0-11.0","","5968","","<div class='header' style='text-align:left; position: absolute; top: 5%; left: 5%;'><small>Task 2 of 5</small></div><div class='instruxDiv'><p><strong>2) What is the maximum number of points you can choose to send to your partner?</strong></p><p>a) 8</p><p>b) 5</p><p>c) 3</p>","B","","","","","","","","","","",""
"","","","","594936ad4152bf0001bfd5cd","bdp_trlrn","Fri Mar 10 2023 14:55:24 GMT-0500 (Eastern Standard Time)","676363","Trustworthy,Untrustworthy","html-keyboard-response","130","254446","0.0-12.0","","1446","","<div class='header' style='text-align:left; position: absolute; top: 5%; left: 5%;'><small>Task 2 of 5</small></div><div class='instruxDiv'><p><strong>2) What is the maximum number of points you can choose to send to your partner?</strong></p><p>a) 8</p><p style='color:#00FF00'>b) 5</p><p>c) 3</p><h3 style='color:#00FF00'>Correct!</h3><h3 class='center-content'>The correct response is b).</h3><h3 class='center-content'>The maximum number of points you can choose to send to your partner is 5 points.</h3><p><em>Press SPACEBAR to continue</em></p></div>"," ","","","","","","","","","","",""
"","","","","594936ad4152bf0001bfd5cd","bdp_trlrn","Fri Mar 10 2023 14:55:24 GMT-0500 (Eastern Standard Time)","676363","Trustworthy,Untrustworthy","html-keyboard-response","131","257943","0.0-13.0","","3393","","<div class='header' style='text-align:left; position: absolute; top: 5%; left: 5%;'><small>Task 2 of 5</small></div><div class='instruxDiv'><p><strong>3) What happens to the amount of points you send to your partner?</strong></p><p>a) Nothing</p><p>b) It doubles</p><p>c) It quadruples</p>","C","","","","","","","","","","",""
"","","","","594936ad4152bf0001bfd5cd","bdp_trlrn","Fri Mar 10 2023 14:55:24 GMT-0500 (Eastern Standard Time)","676363","Trustworthy,Untrustworthy","html-keyboard-response","132","259157","0.0-14.0","","1096","","<div class='header' style='text-align:left; position: absolute; top: 5%; left: 5%;'><small>Task 2 of 5</small></div><div class='instruxDiv'><p><strong>3) What happens to the amount of points you send to your partner?</strong></p><p>a) Nothing</p><p>b) It doubles</p><p style='color:#00FF00'>c) It quadruples</p><h3 style='color:#00FF00'>Correct!</h3><h3 class='center-content'>The correct response is c).</h3><h3 class='center-content'>The amount of points you send to your partner quadruples.</h3><p><em>Press SPACEBAR to continue</em></p></div>"," ","","","","","","","","","","",""
"","","","","594936ad4152bf0001bfd5cd","bdp_trlrn","Fri Mar 10 2023 14:55:24 GMT-0500 (Eastern Standard Time)","676363","Trustworthy,Untrustworthy","html-keyboard-response","133","276745","0.0-15.0","","17474","","<div class='header' style='text-align:left; position: absolute; top: 5%; left: 5%;'><small>Task 2 of 5</small></div><div class='instruxDiv'><p><strong>4) If you decided to share 4 out of 5 points with your partner, and they decided to share half of the amount they received with you, how many points would you receive back from them on this round?</strong></p><p>a) 16</p><p>b) 0</p><p>c) 8</p>","C","","","","","","","","","","",""
"","","","","594936ad4152bf0001bfd5cd","bdp_trlrn","Fri Mar 10 2023 14:55:24 GMT-0500 (Eastern Standard Time)","676363","Trustworthy,Untrustworthy","html-keyboard-response","134","278554","0.0-16.0","","1695","","<div class='header' style='text-align:left; position: absolute; top: 5%; left: 5%;'><small>Task 2 of 5</small></div><div class='instruxDiv'><p><strong>4) If you decided to share 4 out of 5 points with your partner, and they decided to share half of the amount they received with you, how many points would you receive back from them on this round?</strong></p><p>a) 16</p><p>b) 0</p><p style='color:#00FF00'>c) 8</p><h3 style='color:#00FF00'>Correct!</h3><h3 class='center-content'>The correct response is c).</h3><h3 class='center-content'>If you shared 4 out of 5 points with your partner and they decided to share half of the amount they received with you, you would receive 8 points back (i.e. (4 x 4)/2 = 8).</h3><p><em>Press SPACEBAR to continue</em></p></div>"," ","","","","","","","","","","",""
"","","","","594936ad4152bf0001bfd5cd","bdp_trlrn","Fri Mar 10 2023 14:55:24 GMT-0500 (Eastern Standard Time)","676363","Trustworthy,Untrustworthy","html-keyboard-response","135","283662","0.0-17.0","","null","","<div class='header' style='text-align:left; position: absolute; top: 5%; left: 5%;'><small>Task 2 of 5</small></div><div class='instruxDiv'><p>Thank you for completing the quiz<p>These are the actual partners you will be interacting with in the next block:<p><div class='tc' align='center'><img class='introPic' src='trustrating_stim/white_mw097.bmp'><br><strong>Evan</strong></div><div class='bl' align='center'><img class='introPic' src='trustrating_stim/white_00761_941201_fb_edt.bmp'><br><strong>Caleb</strong></div><div class='br' align='center'><img class='introPic' src='trustrating_stim/white_00807_941205_fb_edt.bmp'><br><strong>Timothy</strong></div></div><p>Across <strong>66 rounds</strong> you will interact with each partner <strong>22 times</strong> (in random order).<p style='align:center; color:white'><font <em>Press SPACEBAR to continue</em></p>","null","","","","","","","","","","",""
"","","","","594936ad4152bf0001bfd5cd","bdp_trlrn","Fri Mar 10 2023 14:55:24 GMT-0500 (Eastern Standard Time)","676363","Trustworthy,Untrustworthy","instructions","136","302585","0.0-18.0","[{""page_index"":0,""viewing_time"":8397},{""page_index"":1,""viewing_time"":10525}]","18922","","","","","","","","","","","","","",""
"","","","decision","594936ad4152bf0001bfd5cd","bdp_trlrn","Fri Mar 10 2023 14:55:24 GMT-0500 (Eastern Standard Time)","676363","Trustworthy,Untrustworthy","html-keyboard-response","137","305117","0.0-19.0-1.0","","2404","","<div class='trialDiv'><img src='trustrating_stim/white_00761_941201_fb_edt.bmp'><br><font class='baseline'><strong>Caleb</strong><p>Choose number of points to send.</font><div class='respPicDiv'><img src='img/responseButtonOffersNo0L.png' class='respPic'></div></div>","3","1","Caleb","5","Shared","0.65,0.2","9","0.65","trustrating_stim/white_00761_941201_fb_edt.bmp","5","5","1"
"","","","decisionFB","594936ad4152bf0001bfd5cd","bdp_trlrn","Fri Mar 10 2023 14:55:24 GMT-0500 (Eastern Standard Time)","676363","Trustworthy,Untrustworthy","html-keyboard-response","138","305371","0.0-19.0-2.0","","null","","<div class='trialDiv'><img src='trustrating_stim/white_00761_941201_fb_edt.bmp'><br><font class='baseline'><strong>Caleb</strong><p>Choose number of points to send.</font><div class='respPicDiv'><img src='img/responseButtonOffersNo0L3.png' class='respPic'></div></div>","null","1","Caleb","5","Shared","0.65,0.2","9","0.65","trustrating_stim/white_00761_941201_fb_edt.bmp","5","2","1"
"","","","feedback","594936ad4152bf0001bfd5cd","bdp_trlrn","Fri Mar 10 2023 14:55:24 GMT-0500 (Eastern Standard Time)","676363","Trustworthy,Untrustworthy","html-keyboard-response","139","306385","0.0-19.0-3.0","","null","","<div class='trialDiv'><img src='trustrating_stim/white_00761_941201_fb_edt.bmp'><br><font class='baseline'><strong>Caleb</strong><p>Received: <strong>12</strong></font> &nbsp; &nbsp; &nbsp; &nbsp; &nbsp; &nbsp;<font class='posOutcome'>Shared back: <strong>6</strong></font></font><div class='respPicDiv'><img src='img/responseButtonOffersNo0_wht.png' class='respPic'></div></div>","null","1","Caleb","5","Shared","0.65,0.2","9","0.65","trustrating_stim/white_00761_941201_fb_edt.bmp","5","8","1"
"","","","decision","594936ad4152bf0001bfd5cd","bdp_trlrn","Fri Mar 10 2023 14:55:24 GMT-0500 (Eastern Standard Time)","676363","Trustworthy,Untrustworthy","html-keyboard-response","140","308805","0.0-19.0-1.1","","2418","","<div class='trialDiv'><img src='trustrating_stim/white_00807_941205_fb_edt.bmp'><br><font class='baseline'><strong>Timothy</strong><p>Choose number of points to send.</font><div class='respPicDiv'><img src='img/responseButtonOffersNo0L.png' class='respPic'></div></div>","3","1","Timothy","9","Kept","0.35,0.8","9","0.35","trustrating_stim/white_00807_941205_fb_edt.bmp","5","13","2"
"","","","decisionFB","594936ad4152bf0001bfd5cd","bdp_trlrn","Fri Mar 10 2023 14:55:24 GMT-0500 (Eastern Standard Time)","676363","Trustworthy,Untrustworthy","html-keyboard-response","141","309070","0.0-19.0-2.1","","null","","<div class='trialDiv'><img src='trustrating_stim/white_00807_941205_fb_edt.bmp'><br><font class='baseline'><strong>Timothy</strong><p>Choose number of points to send.</font><div class='respPicDiv'><img src='img/responseButtonOffersNo0L3.png' class='respPic'></div></div>","null","1","Timothy","9","Kept","0.35,0.8","9","0.35","trustrating_stim/white_00807_941205_fb_edt.bmp","5","10","2"
"","","","feedback","594936ad4152bf0001bfd5cd","bdp_trlrn","Fri Mar 10 2023 14:55:24 GMT-0500 (Eastern Standard Time)","676363","Trustworthy,Untrustworthy","html-keyboard-response","142","310072","0.0-19.0-3.1","","null","","<div class='trialDiv'><img src='trustrating_stim/white_00807_941205_fb_edt.bmp'><br><font class='baseline'><strong>Timothy</strong><p>Received: <strong>12</strong></font> &nbsp; &nbsp; &nbsp; &nbsp; &nbsp; &nbsp;<font class='negOutcome'>Shared back: <strong>0</strong></font></font><div class='respPicDiv'><img src='img/responseButtonOffersNo0_wht.png' class='respPic'></div></div>","null","1","Timothy","9","Kept","0.35,0.8","9","0.35","trustrating_stim/white_00807_941205_fb_edt.bmp","5","10","2"
"","","","decision","594936ad4152bf0001bfd5cd","bdp_trlrn","Fri Mar 10 2023 14:55:24 GMT-0500 (Eastern Standard Time)","676363","Trustworthy,Untrustworthy","html-keyboard-response","143","311753","0.0-19.0-1.2","","1681","","<div class='trialDiv'><img src='trustrating_stim/white_mw097.bmp'><br><font class='baseline'><strong>Evan</strong><p>Choose number of points to send.</font><div class='respPicDiv'><img src='img/responseButtonOffersNo0L.png' class='respPic'></div></div>","3","1","Evan","2","Kept","0.2,0.8","12","0.2","trustrating_stim/white_mw097.bmp","4","15","3"
"","","","decisionFB","594936ad4152bf0001bfd5cd","bdp_trlrn","Fri Mar 10 2023 14:55:24 GMT-0500 (Eastern Standard Time)","676363","Trustworthy,Untrustworthy","html-keyboard-response","144","312006","0.0-19.0-2.2","","null","","<div class='trialDiv'><img src='trustrating_stim/white_mw097.bmp'><br><font class='baseline'><strong>Evan</strong><p>Choose number of points to send.</font><div class='respPicDiv'><img src='img/responseButtonOffersNo0L3.png' class='respPic'></div></div>","null","1","Evan","2","Kept","0.2,0.8","12","0.2","trustrating_stim/white_mw097.bmp","4","12","3"
"","","","feedback","594936ad4152bf0001bfd5cd","bdp_trlrn","Fri Mar 10 2023 14:55:24 GMT-0500 (Eastern Standard Time)","676363","Trustworthy,Untrustworthy","html-keyboard-response","145","313009","0.0-19.0-3.2","","null","","<div class='trialDiv'><img src='trustrating_stim/white_mw097.bmp'><br><font class='baseline'><strong>Evan</strong><p>Received: <strong>12</strong></font> &nbsp; &nbsp; &nbsp; &nbsp; &nbsp; &nbsp;<font class='negOutcome'>Shared back: <strong>0</strong></font></font><div class='respPicDiv'><img src='img/responseButtonOffersNo0_wht.png' class='respPic'></div></div>","null","1","Evan","2","Kept","0.2,0.8","12","0.2","trustrating_stim/white_mw097.bmp","4","12","3"
"","","","decision","594936ad4152bf0001bfd5cd","bdp_trlrn","Fri Mar 10 2023 14:55:24 GMT-0500 (Eastern Standard Time)","676363","Trustworthy,Untrustworthy","html-keyboard-response","146","314715","0.0-19.0-1.3","","1706","","<div class='trialDiv'><img src='trustrating_stim/white_00807_941205_fb_edt.bmp'><br><font class='baseline'><strong>Timothy</strong><p>Choose number of points to send.</font><div class='respPicDiv'><img src='img/responseButtonOffersNo0L.png' class='respPic'></div></div>","1","2","Timothy","9","Shared","0.35,0.8","9","0.35","trustrating_stim/white_00807_941205_fb_edt.bmp","5","17","4"
"","","","decisionFB","594936ad4152bf0001bfd5cd","bdp_trlrn","Fri Mar 10 2023 14:55:24 GMT-0500 (Eastern Standard Time)","676363","Trustworthy,Untrustworthy","html-keyboard-response","147","314978","0.0-19.0-2.3","","null","","<div class='trialDiv'><img src='trustrating_stim/white_00807_941205_fb_edt.bmp'><br><font class='baseline'><strong>Timothy</strong><p>Choose number of points to send.</font><div class='respPicDiv'><img src='img/responseButtonOffersNo0L1.png' class='respPic'></div></div>","null","2","Timothy","9","Shared","0.35,0.8","9","0.35","trustrating_stim/white_00807_941205_fb_edt.bmp","5","16","4"
"","","","feedback","594936ad4152bf0001bfd5cd","bdp_trlrn","Fri Mar 10 2023 14:55:24 GMT-0500 (Eastern Standard Time)","676363","Trustworthy,Untrustworthy","html-keyboard-response","148","315980","0.0-19.0-3.3","","null","","<div class='trialDiv'><img src='trustrating_stim/white_00807_941205_fb_edt.bmp'><br><font class='baseline'><strong>Timothy</strong><p>Received: <strong>4</strong></font> &nbsp; &nbsp; &nbsp; &nbsp; &nbsp; &nbsp;<font class='posOutcome'>Shared back: <strong>2</strong></font></font><div class='respPicDiv'><img src='img/responseButtonOffersNo0_wht.png' class='respPic'></div></div>","null","2","Timothy","9","Shared","0.35,0.8","9","0.35","trustrating_stim/white_00807_941205_fb_edt.bmp","5","18","4"
"","","","decision","594936ad4152bf0001bfd5cd","bdp_trlrn","Fri Mar 10 2023 14:55:24 GMT-0500 (Eastern Standard Time)","676363","Trustworthy,Untrustworthy","html-keyboard-response","149","317124","0.0-19.0-1.4","","1143","","<div class='trialDiv'><img src='trustrating_stim/white_mw097.bmp'><br><font class='baseline'><strong>Evan</strong><p>Choose number of points to send.</font><div class='respPicDiv'><img src='img/responseButtonOffersNo0L.png' class='respPic'></div></div>","1","2","Evan","2","Kept","0.2,0.8","12","0.2","trustrating_stim/white_mw097.bmp","4","23","5"
"","","","decisionFB","594936ad4152bf0001bfd5cd","bdp_trlrn","Fri Mar 10 2023 14:55:24 GMT-0500 (Eastern Standard Time)","676363","Trustworthy,Untrustworthy","html-keyboard-response","150","317380","0.0-19.0-2.4","","null","","<div class='trialDiv'><img src='trustrating_stim/white_mw097.bmp'><br><font class='baseline'><strong>Evan</strong><p>Choose number of points to send.</font><div class='respPicDiv'><img src='img/responseButtonOffersNo0L1.png' class='respPic'></div></div>","null","2","Evan","2","Kept","0.2,0.8","12","0.2","trustrating_stim/white_mw097.bmp","4","22","5"
"","","","feedback","594936ad4152bf0001bfd5cd","bdp_trlrn","Fri Mar 10 2023 14:55:24 GMT-0500 (Eastern Standard Time)","676363","Trustworthy,Untrustworthy","html-keyboard-response","151","318396","0.0-19.0-3.4","","null","","<div class='trialDiv'><img src='trustrating_stim/white_mw097.bmp'><br><font class='baseline'><strong>Evan</strong><p>Received: <strong>4</strong></font> &nbsp; &nbsp; &nbsp; &nbsp; &nbsp; &nbsp;<font class='negOutcome'>Shared back: <strong>0</strong></font></font><div class='respPicDiv'><img src='img/responseButtonOffersNo0_wht.png' class='respPic'></div></div>","null","2","Evan","2","Kept","0.2,0.8","12","0.2","trustrating_stim/white_mw097.bmp","4","22","5"
"","","","decision","594936ad4152bf0001bfd5cd","bdp_trlrn","Fri Mar 10 2023 14:55:24 GMT-0500 (Eastern Standard Time)","676363","Trustworthy,Untrustworthy","html-keyboard-response","152","322936","0.0-19.0-1.5","","4538","","<div class='trialDiv'><img src='trustrating_stim/white_00761_941201_fb_edt.bmp'><br><font class='baseline'><strong>Caleb</strong><p>Choose number of points to send.</font><div class='respPicDiv'><img src='img/responseButtonOffersNo0L.png' class='respPic'></div></div>","5","2","Caleb","5","Kept","0.65,0.2","9","0.65","trustrating_stim/white_00761_941201_fb_edt.bmp","5","27","6"
"","","","decisionFB","594936ad4152bf0001bfd5cd","bdp_trlrn","Fri Mar 10 2023 14:55:24 GMT-0500 (Eastern Standard Time)","676363","Trustworthy,Untrustworthy","html-keyboard-response","153","323193","0.0-19.0-2.5","","null","","<div class='trialDiv'><img src='trustrating_stim/white_00761_941201_fb_edt.bmp'><br><font class='baseline'><strong>Caleb</strong><p>Choose number of points to send.</font><div class='respPicDiv'><img src='img/responseButtonOffersNo0L5.png' class='respPic'></div></div>","null","2","Caleb","5","Kept","0.65,0.2","9","0.65","trustrating_stim/white_00761_941201_fb_edt.bmp","5","22","6"
"","","","feedback","594936ad4152bf0001bfd5cd","bdp_trlrn","Fri Mar 10 2023 14:55:24 GMT-0500 (Eastern Standard Time)","676363","Trustworthy,Untrustworthy","html-keyboard-response","154","324209","0.0-19.0-3.5","","null","","<div class='trialDiv'><img src='trustrating_stim/white_00761_941201_fb_edt.bmp'><br><font class='baseline'><strong>Caleb</strong><p>Received: <strong>20</strong></font> &nbsp; &nbsp; &nbsp; &nbsp; &nbsp; &nbsp;<font class='negOutcome'>Shared back: <strong>0</strong></font></font><div class='respPicDiv'><img src='img/responseButtonOffersNo0_wht.png' class='respPic'></div></div>","null","2","Caleb","5","Kept","0.65,0.2","9","0.65","trustrating_stim/white_00761_941201_fb_edt.bmp","5","22","6"
"","","","decision","594936ad4152bf0001bfd5cd","bdp_trlrn","Fri Mar 10 2023 14:55:24 GMT-0500 (Eastern Standard Time)","676363","Trustworthy,Untrustworthy","html-keyboard-response","155","328204","0.0-19.0-1.6","","3993","","<div class='trialDiv'><img src='trustrating_stim/white_00807_941205_fb_edt.bmp'><br><font class='baseline'><strong>Timothy</strong><p>Choose number of points to send.</font><div class='respPicDiv'><img src='img/responseButtonOffersNo0L.png' class='respPic'></div></div>","2","3","Timothy","9","Kept","0.35,0.8","9","0.35","trustrating_stim/white_00807_941205_fb_edt.bmp","5","27","7"
"","","","decisionFB","594936ad4152bf0001bfd5cd","bdp_trlrn","Fri Mar 10 2023 14:55:24 GMT-0500 (Eastern Standard Time)","676363","Trustworthy,Untrustworthy","html-keyboard-response","156","328471","0.0-19.0-2.6","","null","","<div class='trialDiv'><img src='trustrating_stim/white_00807_941205_fb_edt.bmp'><br><font class='baseline'><strong>Timothy</strong><p>Choose number of points to send.</font><div class='respPicDiv'><img src='img/responseButtonOffersNo0L2.png' class='respPic'></div></div>","null","3","Timothy","9","Kept","0.35,0.8","9","0.35","trustrating_stim/white_00807_941205_fb_edt.bmp","5","25","7"
"","","","feedback","594936ad4152bf0001bfd5cd","bdp_trlrn","Fri Mar 10 2023 14:55:24 GMT-0500 (Eastern Standard Time)","676363","Trustworthy,Untrustworthy","html-keyboard-response","157","329486","0.0-19.0-3.6","","null","","<div class='trialDiv'><img src='trustrating_stim/white_00807_941205_fb_edt.bmp'><br><font class='baseline'><strong>Timothy</strong><p>Received: <strong>8</strong></font> &nbsp; &nbsp; &nbsp; &nbsp; &nbsp; &nbsp;<font class='negOutcome'>Shared back: <strong>0</strong></font></font><div class='respPicDiv'><img src='img/responseButtonOffersNo0_wht.png' class='respPic'></div></div>","null","3","Timothy","9","Kept","0.35,0.8","9","0.35","trustrating_stim/white_00807_941205_fb_edt.bmp","5","25","7"
"","","","decision","594936ad4152bf0001bfd5cd","bdp_trlrn","Fri Mar 10 2023 14:55:24 GMT-0500 (Eastern Standard Time)","676363","Trustworthy,Untrustworthy","html-keyboard-response","158","330891","0.0-19.0-1.7","","1405","","<div class='trialDiv'><img src='trustrating_stim/white_mw097.bmp'><br><font class='baseline'><strong>Evan</strong><p>Choose number of points to send.</font><div class='respPicDiv'><img src='img/responseButtonOffersNo0L.png' class='respPic'></div></div>","1","3","Evan","2","Kept","0.2,0.8","12","0.2","trustrating_stim/white_mw097.bmp","4","30","8"
"","","","decisionFB","594936ad4152bf0001bfd5cd","bdp_trlrn","Fri Mar 10 2023 14:55:24 GMT-0500 (Eastern Standard Time)","676363","Trustworthy,Untrustworthy","html-keyboard-response","159","331148","0.0-19.0-2.7","","null","","<div class='trialDiv'><img src='trustrating_stim/white_mw097.bmp'><br><font class='baseline'><strong>Evan</strong><p>Choose number of points to send.</font><div class='respPicDiv'><img src='img/responseButtonOffersNo0L1.png' class='respPic'></div></div>","null","3","Evan","2","Kept","0.2,0.8","12","0.2","trustrating_stim/white_mw097.bmp","4","29","8"
"","","","feedback","594936ad4152bf0001bfd5cd","bdp_trlrn","Fri Mar 10 2023 14:55:24 GMT-0500 (Eastern Standard Time)","676363","Trustworthy,Untrustworthy","html-keyboard-response","160","332164","0.0-19.0-3.7","","null","","<div class='trialDiv'><img src='trustrating_stim/white_mw097.bmp'><br><font class='baseline'><strong>Evan</strong><p>Received: <strong>4</strong></font> &nbsp; &nbsp; &nbsp; &nbsp; &nbsp; &nbsp;<font class='negOutcome'>Shared back: <strong>0</strong></font></font><div class='respPicDiv'><img src='img/responseButtonOffersNo0_wht.png' class='respPic'></div></div>","null","3","Evan","2","Kept","0.2,0.8","12","0.2","trustrating_stim/white_mw097.bmp","4","29","8"
"","","","decision","594936ad4152bf0001bfd5cd","bdp_trlrn","Fri Mar 10 2023 14:55:24 GMT-0500 (Eastern Standard Time)","676363","Trustworthy,Untrustworthy","html-keyboard-response","161","333706","0.0-19.0-1.8","","1540","","<div class='trialDiv'><img src='trustrating_stim/white_00761_941201_fb_edt.bmp'><br><font class='baseline'><strong>Caleb</strong><p>Choose number of points to send.</font><div class='respPicDiv'><img src='img/responseButtonOffersNo0L.png' class='respPic'></div></div>","2","3","Caleb","5","Kept","0.65,0.2","9","0.65","trustrating_stim/white_00761_941201_fb_edt.bmp","5","34","9"
"","","","decisionFB","594936ad4152bf0001bfd5cd","bdp_trlrn","Fri Mar 10 2023 14:55:24 GMT-0500 (Eastern Standard Time)","676363","Trustworthy,Untrustworthy","html-keyboard-response","162","333967","0.0-19.0-2.8","","null","","<div class='trialDiv'><img src='trustrating_stim/white_00761_941201_fb_edt.bmp'><br><font class='baseline'><strong>Caleb</strong><p>Choose number of points to send.</font><div class='respPicDiv'><img src='img/responseButtonOffersNo0L2.png' class='respPic'></div></div>","null","3","Caleb","5","Kept","0.65,0.2","9","0.65","trustrating_stim/white_00761_941201_fb_edt.bmp","5","32","9"
"","","","feedback","594936ad4152bf0001bfd5cd","bdp_trlrn","Fri Mar 10 2023 14:55:24 GMT-0500 (Eastern Standard Time)","676363","Trustworthy,Untrustworthy","html-keyboard-response","163","334981","0.0-19.0-3.8","","null","","<div class='trialDiv'><img src='trustrating_stim/white_00761_941201_fb_edt.bmp'><br><font class='baseline'><strong>Caleb</strong><p>Received: <strong>8</strong></font> &nbsp; &nbsp; &nbsp; &nbsp; &nbsp; &nbsp;<font class='negOutcome'>Shared back: <strong>0</strong></font></font><div class='respPicDiv'><img src='img/responseButtonOffersNo0_wht.png' class='respPic'></div></div>","null","3","Caleb","5","Kept","0.65,0.2","9","0.65","trustrating_stim/white_00761_941201_fb_edt.bmp","5","32","9"
"","","","decision","594936ad4152bf0001bfd5cd","bdp_trlrn","Fri Mar 10 2023 14:55:24 GMT-0500 (Eastern Standard Time)","676363","Trustworthy,Untrustworthy","html-keyboard-response","164","337437","0.0-19.0-1.9","","2455","","<div class='trialDiv'><img src='trustrating_stim/white_00807_941205_fb_edt.bmp'><br><font class='baseline'><strong>Timothy</strong><p>Choose number of points to send.</font><div class='respPicDiv'><img src='img/responseButtonOffersNo0L.png' class='respPic'></div></div>","2","4","Timothy","9","Shared","0.35,0.8","9","0.35","trustrating_stim/white_00807_941205_fb_edt.bmp","5","37","10"
"","","","decisionFB","594936ad4152bf0001bfd5cd","bdp_trlrn","Fri Mar 10 2023 14:55:24 GMT-0500 (Eastern Standard Time)","676363","Trustworthy,Untrustworthy","html-keyboard-response","165","337703","0.0-19.0-2.9","","null","","<div class='trialDiv'><img src='trustrating_stim/white_00807_941205_fb_edt.bmp'><br><font class='baseline'><strong>Timothy</strong><p>Choose number of points to send.</font><div class='respPicDiv'><img src='img/responseButtonOffersNo0L2.png' class='respPic'></div></div>","null","4","Timothy","9","Shared","0.35,0.8","9","0.35","trustrating_stim/white_00807_941205_fb_edt.bmp","5","35","10"
"","","","feedback","594936ad4152bf0001bfd5cd","bdp_trlrn","Fri Mar 10 2023 14:55:24 GMT-0500 (Eastern Standard Time)","676363","Trustworthy,Untrustworthy","html-keyboard-response","166","338716","0.0-19.0-3.9","","null","","<div class='trialDiv'><img src='trustrating_stim/white_00807_941205_fb_edt.bmp'><br><font class='baseline'><strong>Timothy</strong><p>Received: <strong>8</strong></font> &nbsp; &nbsp; &nbsp; &nbsp; &nbsp; &nbsp;<font class='posOutcome'>Shared back: <strong>4</strong></font></font><div class='respPicDiv'><img src='img/responseButtonOffersNo0_wht.png' class='respPic'></div></div>","null","4","Timothy","9","Shared","0.35,0.8","9","0.35","trustrating_stim/white_00807_941205_fb_edt.bmp","5","39","10"
"","","","decision","594936ad4152bf0001bfd5cd","bdp_trlrn","Fri Mar 10 2023 14:55:24 GMT-0500 (Eastern Standard Time)","676363","Trustworthy,Untrustworthy","html-keyboard-response","167","339849","0.0-19.0-1.10","","1130","","<div class='trialDiv'><img src='trustrating_stim/white_00761_941201_fb_edt.bmp'><br><font class='baseline'><strong>Caleb</strong><p>Choose number of points to send.</font><div class='respPicDiv'><img src='img/responseButtonOffersNo0L.png' class='respPic'></div></div>","1","4","Caleb","5","Shared","0.65,0.2","9","0.65","trustrating_stim/white_00761_941201_fb_edt.bmp","5","44","11"
"","","","decisionFB","594936ad4152bf0001bfd5cd","bdp_trlrn","Fri Mar 10 2023 14:55:24 GMT-0500 (Eastern Standard Time)","676363","Trustworthy,Untrustworthy","html-keyboard-response","168","340106","0.0-19.0-2.10","","null","","<div class='trialDiv'><img src='trustrating_stim/white_00761_941201_fb_edt.bmp'><br><font class='baseline'><strong>Caleb</strong><p>Choose number of points to send.</font><div class='respPicDiv'><img src='img/responseButtonOffersNo0L1.png' class='respPic'></div></div>","null","4","Caleb","5","Shared","0.65,0.2","9","0.65","trustrating_stim/white_00761_941201_fb_edt.bmp","5","43","11"
"","","","feedback","594936ad4152bf0001bfd5cd","bdp_trlrn","Fri Mar 10 2023 14:55:24 GMT-0500 (Eastern Standard Time)","676363","Trustworthy,Untrustworthy","html-keyboard-response","169","341123","0.0-19.0-3.10","","null","","<div class='trialDiv'><img src='trustrating_stim/white_00761_941201_fb_edt.bmp'><br><font class='baseline'><strong>Caleb</strong><p>Received: <strong>4</strong></font> &nbsp; &nbsp; &nbsp; &nbsp; &nbsp; &nbsp;<font class='posOutcome'>Shared back: <strong>2</strong></font></font><div class='respPicDiv'><img src='img/responseButtonOffersNo0_wht.png' class='respPic'></div></div>","null","4","Caleb","5","Shared","0.65,0.2","9","0.65","trustrating_stim/white_00761_941201_fb_edt.bmp","5","45","11"
"","","","decision","594936ad4152bf0001bfd5cd","bdp_trlrn","Fri Mar 10 2023 14:55:24 GMT-0500 (Eastern Standard Time)","676363","Trustworthy,Untrustworthy","html-keyboard-response","170","342646","0.0-19.0-1.11","","1523","","<div class='trialDiv'><img src='trustrating_stim/white_mw097.bmp'><br><font class='baseline'><strong>Evan</strong><p>Choose number of points to send.</font><div class='respPicDiv'><img src='img/responseButtonOffersNo0L.png' class='respPic'></div></div>","1","4","Evan","2","Kept","0.2,0.8","12","0.2","trustrating_stim/white_mw097.bmp","4","50","12"
"","","","decisionFB","594936ad4152bf0001bfd5cd","bdp_trlrn","Fri Mar 10 2023 14:55:24 GMT-0500 (Eastern Standard Time)","676363","Trustworthy,Untrustworthy","html-keyboard-response","171","342908","0.0-19.0-2.11","","null","","<div class='trialDiv'><img src='trustrating_stim/white_mw097.bmp'><br><font class='baseline'><strong>Evan</strong><p>Choose number of points to send.</font><div class='respPicDiv'><img src='img/responseButtonOffersNo0L1.png' class='respPic'></div></div>","null","4","Evan","2","Kept","0.2,0.8","12","0.2","trustrating_stim/white_mw097.bmp","4","49","12"
"","","","feedback","594936ad4152bf0001bfd5cd","bdp_trlrn","Fri Mar 10 2023 14:55:24 GMT-0500 (Eastern Standard Time)","676363","Trustworthy,Untrustworthy","html-keyboard-response","172","343924","0.0-19.0-3.11","","null","","<div class='trialDiv'><img src='trustrating_stim/white_mw097.bmp'><br><font class='baseline'><strong>Evan</strong><p>Received: <strong>4</strong></font> &nbsp; &nbsp; &nbsp; &nbsp; &nbsp; &nbsp;<font class='negOutcome'>Shared back: <strong>0</strong></font></font><div class='respPicDiv'><img src='img/responseButtonOffersNo0_wht.png' class='respPic'></div></div>","null","4","Evan","2","Kept","0.2,0.8","12","0.2","trustrating_stim/white_mw097.bmp","4","49","12"
"","","","decision","594936ad4152bf0001bfd5cd","bdp_trlrn","Fri Mar 10 2023 14:55:24 GMT-0500 (Eastern Standard Time)","676363","Trustworthy,Untrustworthy","html-keyboard-response","173","345045","0.0-19.0-1.12","","1120","","<div class='trialDiv'><img src='trustrating_stim/white_00807_941205_fb_edt.bmp'><br><font class='baseline'><strong>Timothy</strong><p>Choose number of points to send.</font><div class='respPicDiv'><img src='img/responseButtonOffersNo0L.png' class='respPic'></div></div>","3","5","Timothy","9","Kept","0.35,0.8","9","0.35","trustrating_stim/white_00807_941205_fb_edt.bmp","5","54","13"
"","","","decisionFB","594936ad4152bf0001bfd5cd","bdp_trlrn","Fri Mar 10 2023 14:55:24 GMT-0500 (Eastern Standard Time)","676363","Trustworthy,Untrustworthy","html-keyboard-response","174","345311","0.0-19.0-2.12","","null","","<div class='trialDiv'><img src='trustrating_stim/white_00807_941205_fb_edt.bmp'><br><font class='baseline'><strong>Timothy</strong><p>Choose number of points to send.</font><div class='respPicDiv'><img src='img/responseButtonOffersNo0L3.png' class='respPic'></div></div>","null","5","Timothy","9","Kept","0.35,0.8","9","0.35","trustrating_stim/white_00807_941205_fb_edt.bmp","5","51","13"
"","","","feedback","594936ad4152bf0001bfd5cd","bdp_trlrn","Fri Mar 10 2023 14:55:24 GMT-0500 (Eastern Standard Time)","676363","Trustworthy,Untrustworthy","html-keyboard-response","175","346327","0.0-19.0-3.12","","null","","<div class='trialDiv'><img src='trustrating_stim/white_00807_941205_fb_edt.bmp'><br><font class='baseline'><strong>Timothy</strong><p>Received: <strong>12</strong></font> &nbsp; &nbsp; &nbsp; &nbsp; &nbsp; &nbsp;<font class='negOutcome'>Shared back: <strong>0</strong></font></font><div class='respPicDiv'><img src='img/responseButtonOffersNo0_wht.png' class='respPic'></div></div>","null","5","Timothy","9","Kept","0.35,0.8","9","0.35","trustrating_stim/white_00807_941205_fb_edt.bmp","5","51","13"
"","","","decision","594936ad4152bf0001bfd5cd","bdp_trlrn","Fri Mar 10 2023 14:55:24 GMT-0500 (Eastern Standard Time)","676363","Trustworthy,Untrustworthy","html-keyboard-response","176","347298","0.0-19.0-1.13","","970","","<div class='trialDiv'><img src='trustrating_stim/white_00761_941201_fb_edt.bmp'><br><font class='baseline'><strong>Caleb</strong><p>Choose number of points to send.</font><div class='respPicDiv'><img src='img/responseButtonOffersNo0L.png' class='respPic'></div></div>","2","5","Caleb","5","Shared","0.65,0.2","9","0.65","trustrating_stim/white_00761_941201_fb_edt.bmp","5","56","14"
"","","","decisionFB","594936ad4152bf0001bfd5cd","bdp_trlrn","Fri Mar 10 2023 14:55:24 GMT-0500 (Eastern Standard Time)","676363","Trustworthy,Untrustworthy","html-keyboard-response","177","347557","0.0-19.0-2.13","","null","","<div class='trialDiv'><img src='trustrating_stim/white_00761_941201_fb_edt.bmp'><br><font class='baseline'><strong>Caleb</strong><p>Choose number of points to send.</font><div class='respPicDiv'><img src='img/responseButtonOffersNo0L2.png' class='respPic'></div></div>","null","5","Caleb","5","Shared","0.65,0.2","9","0.65","trustrating_stim/white_00761_941201_fb_edt.bmp","5","54","14"
"","","","feedback","594936ad4152bf0001bfd5cd","bdp_trlrn","Fri Mar 10 2023 14:55:24 GMT-0500 (Eastern Standard Time)","676363","Trustworthy,Untrustworthy","html-keyboard-response","178","348572","0.0-19.0-3.13","","null","","<div class='trialDiv'><img src='trustrating_stim/white_00761_941201_fb_edt.bmp'><br><font class='baseline'><strong>Caleb</strong><p>Received: <strong>8</strong></font> &nbsp; &nbsp; &nbsp; &nbsp; &nbsp; &nbsp;<font class='posOutcome'>Shared back: <strong>4</strong></font></font><div class='respPicDiv'><img src='img/responseButtonOffersNo0_wht.png' class='respPic'></div></div>","null","5","Caleb","5","Shared","0.65,0.2","9","0.65","trustrating_stim/white_00761_941201_fb_edt.bmp","5","58","14"
"","","","decision","594936ad4152bf0001bfd5cd","bdp_trlrn","Fri Mar 10 2023 14:55:24 GMT-0500 (Eastern Standard Time)","676363","Trustworthy,Untrustworthy","html-keyboard-response","179","349363","0.0-19.0-1.14","","791","","<div class='trialDiv'><img src='trustrating_stim/white_mw097.bmp'><br><font class='baseline'><strong>Evan</strong><p>Choose number of points to send.</font><div class='respPicDiv'><img src='img/responseButtonOffersNo0L.png' class='respPic'></div></div>","1","5","Evan","2","Kept","0.2,0.8","12","0.2","trustrating_stim/white_mw097.bmp","4","63","15"
"","","","decisionFB","594936ad4152bf0001bfd5cd","bdp_trlrn","Fri Mar 10 2023 14:55:24 GMT-0500 (Eastern Standard Time)","676363","Trustworthy,Untrustworthy","html-keyboard-response","180","349621","0.0-19.0-2.14","","null","","<div class='trialDiv'><img src='trustrating_stim/white_mw097.bmp'><br><font class='baseline'><strong>Evan</strong><p>Choose number of points to send.</font><div class='respPicDiv'><img src='img/responseButtonOffersNo0L1.png' class='respPic'></div></div>","null","5","Evan","2","Kept","0.2,0.8","12","0.2","trustrating_stim/white_mw097.bmp","4","62","15"
"","","","feedback","594936ad4152bf0001bfd5cd","bdp_trlrn","Fri Mar 10 2023 14:55:24 GMT-0500 (Eastern Standard Time)","676363","Trustworthy,Untrustworthy","html-keyboard-response","181","350633","0.0-19.0-3.14","","null","","<div class='trialDiv'><img src='trustrating_stim/white_mw097.bmp'><br><font class='baseline'><strong>Evan</strong><p>Received: <strong>4</strong></font> &nbsp; &nbsp; &nbsp; &nbsp; &nbsp; &nbsp;<font class='negOutcome'>Shared back: <strong>0</strong></font></font><div class='respPicDiv'><img src='img/responseButtonOffersNo0_wht.png' class='respPic'></div></div>","null","5","Evan","2","Kept","0.2,0.8","12","0.2","trustrating_stim/white_mw097.bmp","4","62","15"
"","","","decision","594936ad4152bf0001bfd5cd","bdp_trlrn","Fri Mar 10 2023 14:55:24 GMT-0500 (Eastern Standard Time)","676363","Trustworthy,Untrustworthy","html-keyboard-response","182","352531","0.0-19.0-1.15","","1897","","<div class='trialDiv'><img src='trustrating_stim/white_00807_941205_fb_edt.bmp'><br><font class='baseline'><strong>Timothy</strong><p>Choose number of points to send.</font><div class='respPicDiv'><img src='img/responseButtonOffersNo0L.png' class='respPic'></div></div>","2","6","Timothy","9","Kept","0.35,0.8","9","0.35","trustrating_stim/white_00807_941205_fb_edt.bmp","5","67","16"
"","","","decisionFB","594936ad4152bf0001bfd5cd","bdp_trlrn","Fri Mar 10 2023 14:55:24 GMT-0500 (Eastern Standard Time)","676363","Trustworthy,Untrustworthy","html-keyboard-response","183","352791","0.0-19.0-2.15","","null","","<div class='trialDiv'><img src='trustrating_stim/white_00807_941205_fb_edt.bmp'><br><font class='baseline'><strong>Timothy</strong><p>Choose number of points to send.</font><div class='respPicDiv'><img src='img/responseButtonOffersNo0L2.png' class='respPic'></div></div>","null","6","Timothy","9","Kept","0.35,0.8","9","0.35","trustrating_stim/white_00807_941205_fb_edt.bmp","5","65","16"
"","","","feedback","594936ad4152bf0001bfd5cd","bdp_trlrn","Fri Mar 10 2023 14:55:24 GMT-0500 (Eastern Standard Time)","676363","Trustworthy,Untrustworthy","html-keyboard-response","184","353805","0.0-19.0-3.15","","null","","<div class='trialDiv'><img src='trustrating_stim/white_00807_941205_fb_edt.bmp'><br><font class='baseline'><strong>Timothy</strong><p>Received: <strong>8</strong></font> &nbsp; &nbsp; &nbsp; &nbsp; &nbsp; &nbsp;<font class='negOutcome'>Shared back: <strong>0</strong></font></font><div class='respPicDiv'><img src='img/responseButtonOffersNo0_wht.png' class='respPic'></div></div>","null","6","Timothy","9","Kept","0.35,0.8","9","0.35","trustrating_stim/white_00807_941205_fb_edt.bmp","5","65","16"
"","","","decision","594936ad4152bf0001bfd5cd","bdp_trlrn","Fri Mar 10 2023 14:55:24 GMT-0500 (Eastern Standard Time)","676363","Trustworthy,Untrustworthy","html-keyboard-response","185","354705","0.0-19.0-1.16","","897","","<div class='trialDiv'><img src='trustrating_stim/white_mw097.bmp'><br><font class='baseline'><strong>Evan</strong><p>Choose number of points to send.</font><div class='respPicDiv'><img src='img/responseButtonOffersNo0L.png' class='respPic'></div></div>","1","6","Evan","2","Kept","0.2,0.8","12","0.2","trustrating_stim/white_mw097.bmp","4","70","17"
"","","","decisionFB","594936ad4152bf0001bfd5cd","bdp_trlrn","Fri Mar 10 2023 14:55:24 GMT-0500 (Eastern Standard Time)","676363","Trustworthy,Untrustworthy","html-keyboard-response","186","354961","0.0-19.0-2.16","","null","","<div class='trialDiv'><img src='trustrating_stim/white_mw097.bmp'><br><font class='baseline'><strong>Evan</strong><p>Choose number of points to send.</font><div class='respPicDiv'><img src='img/responseButtonOffersNo0L1.png' class='respPic'></div></div>","null","6","Evan","2","Kept","0.2,0.8","12","0.2","trustrating_stim/white_mw097.bmp","4","69","17"
"","","","feedback","594936ad4152bf0001bfd5cd","bdp_trlrn","Fri Mar 10 2023 14:55:24 GMT-0500 (Eastern Standard Time)","676363","Trustworthy,Untrustworthy","html-keyboard-response","187","355978","0.0-19.0-3.16","","null","","<div class='trialDiv'><img src='trustrating_stim/white_mw097.bmp'><br><font class='baseline'><strong>Evan</strong><p>Received: <strong>4</strong></font> &nbsp; &nbsp; &nbsp; &nbsp; &nbsp; &nbsp;<font class='negOutcome'>Shared back: <strong>0</strong></font></font><div class='respPicDiv'><img src='img/responseButtonOffersNo0_wht.png' class='respPic'></div></div>","null","6","Evan","2","Kept","0.2,0.8","12","0.2","trustrating_stim/white_mw097.bmp","4","69","17"
"","","","decision","594936ad4152bf0001bfd5cd","bdp_trlrn","Fri Mar 10 2023 14:55:24 GMT-0500 (Eastern Standard Time)","676363","Trustworthy,Untrustworthy","html-keyboard-response","188","357338","0.0-19.0-1.17","","1360","","<div class='trialDiv'><img src='trustrating_stim/white_00761_941201_fb_edt.bmp'><br><font class='baseline'><strong>Caleb</strong><p>Choose number of points to send.</font><div class='respPicDiv'><img src='img/responseButtonOffersNo0L.png' class='respPic'></div></div>","3","6","Caleb","5","Shared","0.65,0.2","9","0.65","trustrating_stim/white_00761_941201_fb_edt.bmp","5","74","18"
"","","","decisionFB","594936ad4152bf0001bfd5cd","bdp_trlrn","Fri Mar 10 2023 14:55:24 GMT-0500 (Eastern Standard Time)","676363","Trustworthy,Untrustworthy","html-keyboard-response","189","357592","0.0-19.0-2.17","","null","","<div class='trialDiv'><img src='trustrating_stim/white_00761_941201_fb_edt.bmp'><br><font class='baseline'><strong>Caleb</strong><p>Choose number of points to send.</font><div class='respPicDiv'><img src='img/responseButtonOffersNo0L3.png' class='respPic'></div></div>","null","6","Caleb","5","Shared","0.65,0.2","9","0.65","trustrating_stim/white_00761_941201_fb_edt.bmp","5","71","18"
"","","","feedback","594936ad4152bf0001bfd5cd","bdp_trlrn","Fri Mar 10 2023 14:55:24 GMT-0500 (Eastern Standard Time)","676363","Trustworthy,Untrustworthy","html-keyboard-response","190","358606","0.0-19.0-3.17","","null","","<div class='trialDiv'><img src='trustrating_stim/white_00761_941201_fb_edt.bmp'><br><font class='baseline'><strong>Caleb</strong><p>Received: <strong>12</strong></font> &nbsp; &nbsp; &nbsp; &nbsp; &nbsp; &nbsp;<font class='posOutcome'>Shared back: <strong>6</strong></font></font><div class='respPicDiv'><img src='img/responseButtonOffersNo0_wht.png' class='respPic'></div></div>","null","6","Caleb","5","Shared","0.65,0.2","9","0.65","trustrating_stim/white_00761_941201_fb_edt.bmp","5","77","18"
"","","","decision","594936ad4152bf0001bfd5cd","bdp_trlrn","Fri Mar 10 2023 14:55:24 GMT-0500 (Eastern Standard Time)","676363","Trustworthy,Untrustworthy","html-keyboard-response","191","360738","0.0-19.0-1.18","","2132","","<div class='trialDiv'><img src='trustrating_stim/white_00807_941205_fb_edt.bmp'><br><font class='baseline'><strong>Timothy</strong><p>Choose number of points to send.</font><div class='respPicDiv'><img src='img/responseButtonOffersNo0L.png' class='respPic'></div></div>","2","7","Timothy","9","Kept","0.35,0.8","9","0.35","trustrating_stim/white_00807_941205_fb_edt.bmp","5","82","19"
"","","","decisionFB","594936ad4152bf0001bfd5cd","bdp_trlrn","Fri Mar 10 2023 14:55:24 GMT-0500 (Eastern Standard Time)","676363","Trustworthy,Untrustworthy","html-keyboard-response","192","360994","0.0-19.0-2.18","","null","","<div class='trialDiv'><img src='trustrating_stim/white_00807_941205_fb_edt.bmp'><br><font class='baseline'><strong>Timothy</strong><p>Choose number of points to send.</font><div class='respPicDiv'><img src='img/responseButtonOffersNo0L2.png' class='respPic'></div></div>","null","7","Timothy","9","Kept","0.35,0.8","9","0.35","trustrating_stim/white_00807_941205_fb_edt.bmp","5","80","19"
"","","","feedback","594936ad4152bf0001bfd5cd","bdp_trlrn","Fri Mar 10 2023 14:55:24 GMT-0500 (Eastern Standard Time)","676363","Trustworthy,Untrustworthy","html-keyboard-response","193","362010","0.0-19.0-3.18","","null","","<div class='trialDiv'><img src='trustrating_stim/white_00807_941205_fb_edt.bmp'><br><font class='baseline'><strong>Timothy</strong><p>Received: <strong>8</strong></font> &nbsp; &nbsp; &nbsp; &nbsp; &nbsp; &nbsp;<font class='negOutcome'>Shared back: <strong>0</strong></font></font><div class='respPicDiv'><img src='img/responseButtonOffersNo0_wht.png' class='respPic'></div></div>","null","7","Timothy","9","Kept","0.35,0.8","9","0.35","trustrating_stim/white_00807_941205_fb_edt.bmp","5","80","19"
"","","","decision","594936ad4152bf0001bfd5cd","bdp_trlrn","Fri Mar 10 2023 14:55:24 GMT-0500 (Eastern Standard Time)","676363","Trustworthy,Untrustworthy","html-keyboard-response","194","363093","0.0-19.0-1.19","","1082","","<div class='trialDiv'><img src='trustrating_stim/white_mw097.bmp'><br><font class='baseline'><strong>Evan</strong><p>Choose number of points to send.</font><div class='respPicDiv'><img src='img/responseButtonOffersNo0L.png' class='respPic'></div></div>","1","7","Evan","2","Kept","0.2,0.8","12","0.2","trustrating_stim/white_mw097.bmp","4","85","20"
"","","","decisionFB","594936ad4152bf0001bfd5cd","bdp_trlrn","Fri Mar 10 2023 14:55:24 GMT-0500 (Eastern Standard Time)","676363","Trustworthy,Untrustworthy","html-keyboard-response","195","363349","0.0-19.0-2.19","","null","","<div class='trialDiv'><img src='trustrating_stim/white_mw097.bmp'><br><font class='baseline'><strong>Evan</strong><p>Choose number of points to send.</font><div class='respPicDiv'><img src='img/responseButtonOffersNo0L1.png' class='respPic'></div></div>","null","7","Evan","2","Kept","0.2,0.8","12","0.2","trustrating_stim/white_mw097.bmp","4","84","20"
"","","","feedback","594936ad4152bf0001bfd5cd","bdp_trlrn","Fri Mar 10 2023 14:55:24 GMT-0500 (Eastern Standard Time)","676363","Trustworthy,Untrustworthy","html-keyboard-response","196","364366","0.0-19.0-3.19","","null","","<div class='trialDiv'><img src='trustrating_stim/white_mw097.bmp'><br><font class='baseline'><strong>Evan</strong><p>Received: <strong>4</strong></font> &nbsp; &nbsp; &nbsp; &nbsp; &nbsp; &nbsp;<font class='negOutcome'>Shared back: <strong>0</strong></font></font><div class='respPicDiv'><img src='img/responseButtonOffersNo0_wht.png' class='respPic'></div></div>","null","7","Evan","2","Kept","0.2,0.8","12","0.2","trustrating_stim/white_mw097.bmp","4","84","20"
"","","","decision","594936ad4152bf0001bfd5cd","bdp_trlrn","Fri Mar 10 2023 14:55:24 GMT-0500 (Eastern Standard Time)","676363","Trustworthy,Untrustworthy","html-keyboard-response","197","365497","0.0-19.0-1.20","","1129","","<div class='trialDiv'><img src='trustrating_stim/white_00761_941201_fb_edt.bmp'><br><font class='baseline'><strong>Caleb</strong><p>Choose number of points to send.</font><div class='respPicDiv'><img src='img/responseButtonOffersNo0L.png' class='respPic'></div></div>","3","7","Caleb","5","Shared","0.65,0.2","9","0.65","trustrating_stim/white_00761_941201_fb_edt.bmp","5","89","21"
"","","","decisionFB","594936ad4152bf0001bfd5cd","bdp_trlrn","Fri Mar 10 2023 14:55:24 GMT-0500 (Eastern Standard Time)","676363","Trustworthy,Untrustworthy","html-keyboard-response","198","365752","0.0-19.0-2.20","","null","","<div class='trialDiv'><img src='trustrating_stim/white_00761_941201_fb_edt.bmp'><br><font class='baseline'><strong>Caleb</strong><p>Choose number of points to send.</font><div class='respPicDiv'><img src='img/responseButtonOffersNo0L3.png' class='respPic'></div></div>","null","7","Caleb","5","Shared","0.65,0.2","9","0.65","trustrating_stim/white_00761_941201_fb_edt.bmp","5","86","21"
"","","","feedback","594936ad4152bf0001bfd5cd","bdp_trlrn","Fri Mar 10 2023 14:55:24 GMT-0500 (Eastern Standard Time)","676363","Trustworthy,Untrustworthy","html-keyboard-response","199","366764","0.0-19.0-3.20","","null","","<div class='trialDiv'><img src='trustrating_stim/white_00761_941201_fb_edt.bmp'><br><font class='baseline'><strong>Caleb</strong><p>Received: <strong>12</strong></font> &nbsp; &nbsp; &nbsp; &nbsp; &nbsp; &nbsp;<font class='posOutcome'>Shared back: <strong>6</strong></font></font><div class='respPicDiv'><img src='img/responseButtonOffersNo0_wht.png' class='respPic'></div></div>","null","7","Caleb","5","Shared","0.65,0.2","9","0.65","trustrating_stim/white_00761_941201_fb_edt.bmp","5","92","21"
"","","","decision","594936ad4152bf0001bfd5cd","bdp_trlrn","Fri Mar 10 2023 14:55:24 GMT-0500 (Eastern Standard Time)","676363","Trustworthy,Untrustworthy","html-keyboard-response","200","367671","0.0-19.0-1.21","","906","","<div class='trialDiv'><img src='trustrating_stim/white_mw097.bmp'><br><font class='baseline'><strong>Evan</strong><p>Choose number of points to send.</font><div class='respPicDiv'><img src='img/responseButtonOffersNo0L.png' class='respPic'></div></div>","1","8","Evan","2","Shared","0.2,0.8","12","0.2","trustrating_stim/white_mw097.bmp","4","97","22"
"","","","decisionFB","594936ad4152bf0001bfd5cd","bdp_trlrn","Fri Mar 10 2023 14:55:24 GMT-0500 (Eastern Standard Time)","676363","Trustworthy,Untrustworthy","html-keyboard-response","201","367932","0.0-19.0-2.21","","null","","<div class='trialDiv'><img src='trustrating_stim/white_mw097.bmp'><br><font class='baseline'><strong>Evan</strong><p>Choose number of points to send.</font><div class='respPicDiv'><img src='img/responseButtonOffersNo0L1.png' class='respPic'></div></div>","null","8","Evan","2","Shared","0.2,0.8","12","0.2","trustrating_stim/white_mw097.bmp","4","96","22"
"","","","feedback","594936ad4152bf0001bfd5cd","bdp_trlrn","Fri Mar 10 2023 14:55:24 GMT-0500 (Eastern Standard Time)","676363","Trustworthy,Untrustworthy","html-keyboard-response","202","368948","0.0-19.0-3.21","","null","","<div class='trialDiv'><img src='trustrating_stim/white_mw097.bmp'><br><font class='baseline'><strong>Evan</strong><p>Received: <strong>4</strong></font> &nbsp; &nbsp; &nbsp; &nbsp; &nbsp; &nbsp;<font class='posOutcome'>Shared back: <strong>2</strong></font></font><div class='respPicDiv'><img src='img/responseButtonOffersNo0_wht.png' class='respPic'></div></div>","null","8","Evan","2","Shared","0.2,0.8","12","0.2","trustrating_stim/white_mw097.bmp","4","98","22"
"","","","decision","594936ad4152bf0001bfd5cd","bdp_trlrn","Fri Mar 10 2023 14:55:24 GMT-0500 (Eastern Standard Time)","676363","Trustworthy,Untrustworthy","html-keyboard-response","203","370576","0.0-19.0-1.22","","1626","","<div class='trialDiv'><img src='trustrating_stim/white_00761_941201_fb_edt.bmp'><br><font class='baseline'><strong>Caleb</strong><p>Choose number of points to send.</font><div class='respPicDiv'><img src='img/responseButtonOffersNo0L.png' class='respPic'></div></div>","4","8","Caleb","5","Shared","0.65,0.2","9","0.65","trustrating_stim/white_00761_941201_fb_edt.bmp","5","103","23"
"","","","decisionFB","594936ad4152bf0001bfd5cd","bdp_trlrn","Fri Mar 10 2023 14:55:24 GMT-0500 (Eastern Standard Time)","676363","Trustworthy,Untrustworthy","html-keyboard-response","204","370840","0.0-19.0-2.22","","null","","<div class='trialDiv'><img src='trustrating_stim/white_00761_941201_fb_edt.bmp'><br><font class='baseline'><strong>Caleb</strong><p>Choose number of points to send.</font><div class='respPicDiv'><img src='img/responseButtonOffersNo0L4.png' class='respPic'></div></div>","null","8","Caleb","5","Shared","0.65,0.2","9","0.65","trustrating_stim/white_00761_941201_fb_edt.bmp","5","99","23"
"","","","feedback","594936ad4152bf0001bfd5cd","bdp_trlrn","Fri Mar 10 2023 14:55:24 GMT-0500 (Eastern Standard Time)","676363","Trustworthy,Untrustworthy","html-keyboard-response","205","371844","0.0-19.0-3.22","","null","","<div class='trialDiv'><img src='trustrating_stim/white_00761_941201_fb_edt.bmp'><br><font class='baseline'><strong>Caleb</strong><p>Received: <strong>16</strong></font> &nbsp; &nbsp; &nbsp; &nbsp; &nbsp; &nbsp;<font class='posOutcome'>Shared back: <strong>8</strong></font></font><div class='respPicDiv'><img src='img/responseButtonOffersNo0_wht.png' class='respPic'></div></div>","null","8","Caleb","5","Shared","0.65,0.2","9","0.65","trustrating_stim/white_00761_941201_fb_edt.bmp","5","107","23"
"","","","decision","594936ad4152bf0001bfd5cd","bdp_trlrn","Fri Mar 10 2023 14:55:24 GMT-0500 (Eastern Standard Time)","676363","Trustworthy,Untrustworthy","html-keyboard-response","206","373629","0.0-19.0-1.23","","1784","","<div class='trialDiv'><img src='trustrating_stim/white_00807_941205_fb_edt.bmp'><br><font class='baseline'><strong>Timothy</strong><p>Choose number of points to send.</font><div class='respPicDiv'><img src='img/responseButtonOffersNo0L.png' class='respPic'></div></div>","2","8","Timothy","9","Kept","0.35,0.8","9","0.35","trustrating_stim/white_00807_941205_fb_edt.bmp","5","112","24"
"","","","decisionFB","594936ad4152bf0001bfd5cd","bdp_trlrn","Fri Mar 10 2023 14:55:24 GMT-0500 (Eastern Standard Time)","676363","Trustworthy,Untrustworthy","html-keyboard-response","207","373892","0.0-19.0-2.23","","null","","<div class='trialDiv'><img src='trustrating_stim/white_00807_941205_fb_edt.bmp'><br><font class='baseline'><strong>Timothy</strong><p>Choose number of points to send.</font><div class='respPicDiv'><img src='img/responseButtonOffersNo0L2.png' class='respPic'></div></div>","null","8","Timothy","9","Kept","0.35,0.8","9","0.35","trustrating_stim/white_00807_941205_fb_edt.bmp","5","110","24"
"","","","feedback","594936ad4152bf0001bfd5cd","bdp_trlrn","Fri Mar 10 2023 14:55:24 GMT-0500 (Eastern Standard Time)","676363","Trustworthy,Untrustworthy","html-keyboard-response","208","374906","0.0-19.0-3.23","","null","","<div class='trialDiv'><img src='trustrating_stim/white_00807_941205_fb_edt.bmp'><br><font class='baseline'><strong>Timothy</strong><p>Received: <strong>8</strong></font> &nbsp; &nbsp; &nbsp; &nbsp; &nbsp; &nbsp;<font class='negOutcome'>Shared back: <strong>0</strong></font></font><div class='respPicDiv'><img src='img/responseButtonOffersNo0_wht.png' class='respPic'></div></div>","null","8","Timothy","9","Kept","0.35,0.8","9","0.35","trustrating_stim/white_00807_941205_fb_edt.bmp","5","110","24"
"","","","decision","594936ad4152bf0001bfd5cd","bdp_trlrn","Fri Mar 10 2023 14:55:24 GMT-0500 (Eastern Standard Time)","676363","Trustworthy,Untrustworthy","html-keyboard-response","209","375818","0.0-19.0-1.24","","912","","<div class='trialDiv'><img src='trustrating_stim/white_mw097.bmp'><br><font class='baseline'><strong>Evan</strong><p>Choose number of points to send.</font><div class='respPicDiv'><img src='img/responseButtonOffersNo0L.png' class='respPic'></div></div>","1","9","Evan","2","Kept","0.2,0.8","12","0.2","trustrating_stim/white_mw097.bmp","4","115","25"
"","","","decisionFB","594936ad4152bf0001bfd5cd","bdp_trlrn","Fri Mar 10 2023 14:55:24 GMT-0500 (Eastern Standard Time)","676363","Trustworthy,Untrustworthy","html-keyboard-response","210","376078","0.0-19.0-2.24","","null","","<div class='trialDiv'><img src='trustrating_stim/white_mw097.bmp'><br><font class='baseline'><strong>Evan</strong><p>Choose number of points to send.</font><div class='respPicDiv'><img src='img/responseButtonOffersNo0L1.png' class='respPic'></div></div>","null","9","Evan","2","Kept","0.2,0.8","12","0.2","trustrating_stim/white_mw097.bmp","4","114","25"
"","","","feedback","594936ad4152bf0001bfd5cd","bdp_trlrn","Fri Mar 10 2023 14:55:24 GMT-0500 (Eastern Standard Time)","676363","Trustworthy,Untrustworthy","html-keyboard-response","211","377094","0.0-19.0-3.24","","null","","<div class='trialDiv'><img src='trustrating_stim/white_mw097.bmp'><br><font class='baseline'><strong>Evan</strong><p>Received: <strong>4</strong></font> &nbsp; &nbsp; &nbsp; &nbsp; &nbsp; &nbsp;<font class='negOutcome'>Shared back: <strong>0</strong></font></font><div class='respPicDiv'><img src='img/responseButtonOffersNo0_wht.png' class='respPic'></div></div>","null","9","Evan","2","Kept","0.2,0.8","12","0.2","trustrating_stim/white_mw097.bmp","4","114","25"
"","","","decision","594936ad4152bf0001bfd5cd","bdp_trlrn","Fri Mar 10 2023 14:55:24 GMT-0500 (Eastern Standard Time)","676363","Trustworthy,Untrustworthy","html-keyboard-response","212","377930","0.0-19.0-1.25","","836","","<div class='trialDiv'><img src='trustrating_stim/white_00807_941205_fb_edt.bmp'><br><font class='baseline'><strong>Timothy</strong><p>Choose number of points to send.</font><div class='respPicDiv'><img src='img/responseButtonOffersNo0L.png' class='respPic'></div></div>","1","9","Timothy","9","Kept","0.35,0.8","9","0.35","trustrating_stim/white_00807_941205_fb_edt.bmp","5","119","26"
"","","","decisionFB","594936ad4152bf0001bfd5cd","bdp_trlrn","Fri Mar 10 2023 14:55:24 GMT-0500 (Eastern Standard Time)","676363","Trustworthy,Untrustworthy","html-keyboard-response","213","378186","0.0-19.0-2.25","","null","","<div class='trialDiv'><img src='trustrating_stim/white_00807_941205_fb_edt.bmp'><br><font class='baseline'><strong>Timothy</strong><p>Choose number of points to send.</font><div class='respPicDiv'><img src='img/responseButtonOffersNo0L1.png' class='respPic'></div></div>","null","9","Timothy","9","Kept","0.35,0.8","9","0.35","trustrating_stim/white_00807_941205_fb_edt.bmp","5","118","26"
"","","","feedback","594936ad4152bf0001bfd5cd","bdp_trlrn","Fri Mar 10 2023 14:55:24 GMT-0500 (Eastern Standard Time)","676363","Trustworthy,Untrustworthy","html-keyboard-response","214","379201","0.0-19.0-3.25","","null","","<div class='trialDiv'><img src='trustrating_stim/white_00807_941205_fb_edt.bmp'><br><font class='baseline'><strong>Timothy</strong><p>Received: <strong>4</strong></font> &nbsp; &nbsp; &nbsp; &nbsp; &nbsp; &nbsp;<font class='negOutcome'>Shared back: <strong>0</strong></font></font><div class='respPicDiv'><img src='img/responseButtonOffersNo0_wht.png' class='respPic'></div></div>","null","9","Timothy","9","Kept","0.35,0.8","9","0.35","trustrating_stim/white_00807_941205_fb_edt.bmp","5","118","26"
"","","","decision","594936ad4152bf0001bfd5cd","bdp_trlrn","Fri Mar 10 2023 14:55:24 GMT-0500 (Eastern Standard Time)","676363","Trustworthy,Untrustworthy","html-keyboard-response","215","380221","0.0-19.0-1.26","","1020","","<div class='trialDiv'><img src='trustrating_stim/white_00761_941201_fb_edt.bmp'><br><font class='baseline'><strong>Caleb</strong><p>Choose number of points to send.</font><div class='respPicDiv'><img src='img/responseButtonOffersNo0L.png' class='respPic'></div></div>","3","9","Caleb","5","Kept","0.65,0.2","9","0.65","trustrating_stim/white_00761_941201_fb_edt.bmp","5","123","27"
"","","","decisionFB","594936ad4152bf0001bfd5cd","bdp_trlrn","Fri Mar 10 2023 14:55:24 GMT-0500 (Eastern Standard Time)","676363","Trustworthy,Untrustworthy","html-keyboard-response","216","380478","0.0-19.0-2.26","","null","","<div class='trialDiv'><img src='trustrating_stim/white_00761_941201_fb_edt.bmp'><br><font class='baseline'><strong>Caleb</strong><p>Choose number of points to send.</font><div class='respPicDiv'><img src='img/responseButtonOffersNo0L3.png' class='respPic'></div></div>","null","9","Caleb","5","Kept","0.65,0.2","9","0.65","trustrating_stim/white_00761_941201_fb_edt.bmp","5","120","27"
"","","","feedback","594936ad4152bf0001bfd5cd","bdp_trlrn","Fri Mar 10 2023 14:55:24 GMT-0500 (Eastern Standard Time)","676363","Trustworthy,Untrustworthy","html-keyboard-response","217","381481","0.0-19.0-3.26","","null","","<div class='trialDiv'><img src='trustrating_stim/white_00761_941201_fb_edt.bmp'><br><font class='baseline'><strong>Caleb</strong><p>Received: <strong>12</strong></font> &nbsp; &nbsp; &nbsp; &nbsp; &nbsp; &nbsp;<font class='negOutcome'>Shared back: <strong>0</strong></font></font><div class='respPicDiv'><img src='img/responseButtonOffersNo0_wht.png' class='respPic'></div></div>","null","9","Caleb","5","Kept","0.65,0.2","9","0.65","trustrating_stim/white_00761_941201_fb_edt.bmp","5","120","27"
"","","","decision","594936ad4152bf0001bfd5cd","bdp_trlrn","Fri Mar 10 2023 14:55:24 GMT-0500 (Eastern Standard Time)","676363","Trustworthy,Untrustworthy","html-keyboard-response","218","382198","0.0-19.0-1.27","","716","","<div class='trialDiv'><img src='trustrating_stim/white_00807_941205_fb_edt.bmp'><br><font class='baseline'><strong>Timothy</strong><p>Choose number of points to send.</font><div class='respPicDiv'><img src='img/responseButtonOffersNo0L.png' class='respPic'></div></div>","1","10","Timothy","9","Kept","0.35,0.8","9","0.35","trustrating_stim/white_00807_941205_fb_edt.bmp","5","125","28"
"","","","decisionFB","594936ad4152bf0001bfd5cd","bdp_trlrn","Fri Mar 10 2023 14:55:24 GMT-0500 (Eastern Standard Time)","676363","Trustworthy,Untrustworthy","html-keyboard-response","219","382450","0.0-19.0-2.27","","null","","<div class='trialDiv'><img src='trustrating_stim/white_00807_941205_fb_edt.bmp'><br><font class='baseline'><strong>Timothy</strong><p>Choose number of points to send.</font><div class='respPicDiv'><img src='img/responseButtonOffersNo0L1.png' class='respPic'></div></div>","null","10","Timothy","9","Kept","0.35,0.8","9","0.35","trustrating_stim/white_00807_941205_fb_edt.bmp","5","124","28"
