"trial_type","trial_index","time_elapsed","internal_node_id","subject_id","task","startTime","totalTime","labels","view_history","rt","event","trial","time","trialtype","success","stimulus","key_press","aground","name","faceID","outcome","agenttype","agentswpt","agentcurrpshare","face","avgRating","point_total","round"
"pavlovia","0","2","0.0-0.0","6400dc45648545e7ca8f35a6","bdp_trlrn","Sat Apr 08 2023 11:47:06 GMT-0400 (Eastern Daylight Time)","467976","Untrustworthy,Trustworthy","","","","","","","","","","","","","","","","","","","",""
"instructions","1","2870","0.0-1.0","6400dc45648545e7ca8f35a6","bdp_trlrn","Sat Apr 08 2023 11:47:06 GMT-0400 (Eastern Daylight Time)","467976","Untrustworthy,Trustworthy","[{""page_index"":0,""viewing_time"":2868}]","2868","","","","","","","","","","","","","","","","","",""
"","","","","6400dc45648545e7ca8f35a6","bdp_trlrn","Sat Apr 08 2023 11:47:06 GMT-0400 (Eastern Daylight Time)","467976","Untrustworthy,Trustworthy","","","fullscreenenter","2","5032","fullscreenenter","","","","","","","","","","","","","",""
"fullscreen","2","6030","0.0-2.0","6400dc45648545e7ca8f35a6","bdp_trlrn","Sat Apr 08 2023 11:47:06 GMT-0400 (Eastern Daylight Time)","467976","Untrustworthy,Trustworthy","","","","","","","true","","","","","","","","","","","","",""
"instructions","3","12739","0.0-4.0","6400dc45648545e7ca8f35a6","bdp_trlrn","Sat Apr 08 2023 11:47:06 GMT-0400 (Eastern Daylight Time)","467976","Untrustworthy,Trustworthy","[{""page_index"":0,""viewing_time"":5633},{""page_index"":1,""viewing_time"":1075}]","6708","","","","","","","","","","","","","","","","","",""
"instructions","4","13746","0.0-5.0","6400dc45648545e7ca8f35a6","bdp_trlrn","Sat Apr 08 2023 11:47:06 GMT-0400 (Eastern Daylight Time)","467976","Untrustworthy,Trustworthy","[{""page_index"":0,""viewing_time"":1007}]","1007","","","","","","","","","","","","","","","","","",""
"image-keyboard-response","5","17182","0.0-6.0-1.0","6400dc45648545e7ca8f35a6","bdp_trlrn","Sat Apr 08 2023 11:47:06 GMT-0400 (Eastern Daylight Time)","467976","Untrustworthy,Trustworthy","","3330","","","","rating","","trustrating_stim/white_mw084.bmp","5","","","","","","","","","","",""
"image-keyboard-response","6","17393","0.0-6.0-2.0","6400dc45648545e7ca8f35a6","bdp_trlrn","Sat Apr 08 2023 11:47:06 GMT-0400 (Eastern Daylight Time)","467976","Untrustworthy,Trustworthy","","null","","","","ratingFB","","trustrating_stim/white_mw084.bmp","null","","","","","","","","","","",""
"image-keyboard-response","7","18356","0.0-6.0-1.1","6400dc45648545e7ca8f35a6","bdp_trlrn","Sat Apr 08 2023 11:47:06 GMT-0400 (Eastern Daylight Time)","467976","Untrustworthy,Trustworthy","","852","","","","rating","","trustrating_stim/white_mw063.bmp","5","","","","","","","","","","",""
"image-keyboard-response","8","18565","0.0-6.0-2.1","6400dc45648545e7ca8f35a6","bdp_trlrn","Sat Apr 08 2023 11:47:06 GMT-0400 (Eastern Daylight Time)","467976","Untrustworthy,Trustworthy","","null","","","","ratingFB","","trustrating_stim/white_mw063.bmp","null","","","","","","","","","","",""
"image-keyboard-response","9","19380","0.0-6.0-1.2","6400dc45648545e7ca8f35a6","bdp_trlrn","Sat Apr 08 2023 11:47:06 GMT-0400 (Eastern Daylight Time)","467976","Untrustworthy,Trustworthy","","704","","","","rating","","trustrating_stim/white_mw071.bmp","5","","","","","","","","","","",""
"image-keyboard-response","10","19591","0.0-6.0-2.2","6400dc45648545e7ca8f35a6","bdp_trlrn","Sat Apr 08 2023 11:47:06 GMT-0400 (Eastern Daylight Time)","467976","Untrustworthy,Trustworthy","","null","","","","ratingFB","","trustrating_stim/white_mw071.bmp","null","","","","","","","","","","",""
"image-keyboard-response","11","20256","0.0-6.0-1.3","6400dc45648545e7ca8f35a6","bdp_trlrn","Sat Apr 08 2023 11:47:06 GMT-0400 (Eastern Daylight Time)","467976","Untrustworthy,Trustworthy","","564","","","","rating","","trustrating_stim/white_00577_940928_fa_edt.bmp","5","","","","","","","","","","",""
"image-keyboard-response","12","20466","0.0-6.0-2.3","6400dc45648545e7ca8f35a6","bdp_trlrn","Sat Apr 08 2023 11:47:06 GMT-0400 (Eastern Daylight Time)","467976","Untrustworthy,Trustworthy","","null","","","","ratingFB","","trustrating_stim/white_00577_940928_fa_edt.bmp","null","","","","","","","","","","",""
"image-keyboard-response","13","21654","0.0-6.0-1.4","6400dc45648545e7ca8f35a6","bdp_trlrn","Sat Apr 08 2023 11:47:06 GMT-0400 (Eastern Daylight Time)","467976","Untrustworthy,Trustworthy","","1086","","","","rating","","trustrating_stim/white_mw048.bmp","5","","","","","","","","","","",""
"image-keyboard-response","14","21860","0.0-6.0-2.4","6400dc45648545e7ca8f35a6","bdp_trlrn","Sat Apr 08 2023 11:47:06 GMT-0400 (Eastern Daylight Time)","467976","Untrustworthy,Trustworthy","","null","","","","ratingFB","","trustrating_stim/white_mw048.bmp","null","","","","","","","","","","",""
"image-keyboard-response","15","22480","0.0-6.0-1.5","6400dc45648545e7ca8f35a6","bdp_trlrn","Sat Apr 08 2023 11:47:06 GMT-0400 (Eastern Daylight Time)","467976","Untrustworthy,Trustworthy","","519","","","","rating","","trustrating_stim/white_mw033.bmp","5","","","","","","","","","","",""
"image-keyboard-response","16","22690","0.0-6.0-2.5","6400dc45648545e7ca8f35a6","bdp_trlrn","Sat Apr 08 2023 11:47:06 GMT-0400 (Eastern Daylight Time)","467976","Untrustworthy,Trustworthy","","null","","","","ratingFB","","trustrating_stim/white_mw033.bmp","null","","","","","","","","","","",""
"image-keyboard-response","17","23692","0.0-6.0-1.6","6400dc45648545e7ca8f35a6","bdp_trlrn","Sat Apr 08 2023 11:47:06 GMT-0400 (Eastern Daylight Time)","467976","Untrustworthy,Trustworthy","","901","","","","rating","","trustrating_stim/white_mw053.bmp","5","","","","","","","","","","",""
"image-keyboard-response","18","23901","0.0-6.0-2.6","6400dc45648545e7ca8f35a6","bdp_trlrn","Sat Apr 08 2023 11:47:06 GMT-0400 (Eastern Daylight Time)","467976","Untrustworthy,Trustworthy","","null","","","","ratingFB","","trustrating_stim/white_mw053.bmp","null","","","","","","","","","","",""
"image-keyboard-response","19","24422","0.0-6.0-1.7","6400dc45648545e7ca8f35a6","bdp_trlrn","Sat Apr 08 2023 11:47:06 GMT-0400 (Eastern Daylight Time)","467976","Untrustworthy,Trustworthy","","420","","","","rating","","trustrating_stim/white_mw099.bmp","5","","","","","","","","","","",""
"image-keyboard-response","20","24636","0.0-6.0-2.7","6400dc45648545e7ca8f35a6","bdp_trlrn","Sat Apr 08 2023 11:47:06 GMT-0400 (Eastern Daylight Time)","467976","Untrustworthy,Trustworthy","","null","","","","ratingFB","","trustrating_stim/white_mw099.bmp","null","","","","","","","","","","",""
"image-keyboard-response","21","25120","0.0-6.0-1.8","6400dc45648545e7ca8f35a6","bdp_trlrn","Sat Apr 08 2023 11:47:06 GMT-0400 (Eastern Daylight Time)","467976","Untrustworthy,Trustworthy","","382","","","","rating","","trustrating_stim/white_00757_941201_fa_edt.bmp","5","","","","","","","","","","",""
"image-keyboard-response","22","25326","0.0-6.0-2.8","6400dc45648545e7ca8f35a6","bdp_trlrn","Sat Apr 08 2023 11:47:06 GMT-0400 (Eastern Daylight Time)","467976","Untrustworthy,Trustworthy","","null","","","","ratingFB","","trustrating_stim/white_00757_941201_fa_edt.bmp","null","","","","","","","","","","",""
"image-keyboard-response","23","25782","0.0-6.0-1.9","6400dc45648545e7ca8f35a6","bdp_trlrn","Sat Apr 08 2023 11:47:06 GMT-0400 (Eastern Daylight Time)","467976","Untrustworthy,Trustworthy","","347","","","","rating","","trustrating_stim/white_mw035.bmp","5","","","","","","","","","","",""
"image-keyboard-response","24","25999","0.0-6.0-2.9","6400dc45648545e7ca8f35a6","bdp_trlrn","Sat Apr 08 2023 11:47:06 GMT-0400 (Eastern Daylight Time)","467976","Untrustworthy,Trustworthy","","null","","","","ratingFB","","trustrating_stim/white_mw035.bmp","null","","","","","","","","","","",""
"image-keyboard-response","25","26430","0.0-6.0-1.10","6400dc45648545e7ca8f35a6","bdp_trlrn","Sat Apr 08 2023 11:47:06 GMT-0400 (Eastern Daylight Time)","467976","Untrustworthy,Trustworthy","","330","","","","rating","","trustrating_stim/white_00785_941205_fb_edt.bmp","5","","","","","","","","","","",""
"image-keyboard-response","26","26640","0.0-6.0-2.10","6400dc45648545e7ca8f35a6","bdp_trlrn","Sat Apr 08 2023 11:47:06 GMT-0400 (Eastern Daylight Time)","467976","Untrustworthy,Trustworthy","","null","","","","ratingFB","","trustrating_stim/white_00785_941205_fb_edt.bmp","null","","","","","","","","","","",""
"image-keyboard-response","27","27146","0.0-6.0-1.11","6400dc45648545e7ca8f35a6","bdp_trlrn","Sat Apr 08 2023 11:47:06 GMT-0400 (Eastern Daylight Time)","467976","Untrustworthy,Trustworthy","","393","","","","rating","","trustrating_stim/white_00807_941205_fb_edt.bmp","5","","","","","","","","","","",""
"image-keyboard-response","28","27348","0.0-6.0-2.11","6400dc45648545e7ca8f35a6","bdp_trlrn","Sat Apr 08 2023 11:47:06 GMT-0400 (Eastern Daylight Time)","467976","Untrustworthy,Trustworthy","","null","","","","ratingFB","","trustrating_stim/white_00807_941205_fb_edt.bmp","null","","","","","","","","","","",""
"image-keyboard-response","29","27984","0.0-6.0-1.12","6400dc45648545e7ca8f35a6","bdp_trlrn","Sat Apr 08 2023 11:47:06 GMT-0400 (Eastern Daylight Time)","467976","Untrustworthy,Trustworthy","","534","","","","rating","","trustrating_stim/white_00898_960530_fa_edt.bmp","5","","","","","","","","","","",""
"image-keyboard-response","30","28191","0.0-6.0-2.12","6400dc45648545e7ca8f35a6","bdp_trlrn","Sat Apr 08 2023 11:47:06 GMT-0400 (Eastern Daylight Time)","467976","Untrustworthy,Trustworthy","","null","","","","ratingFB","","trustrating_stim/white_00898_960530_fa_edt.bmp","null","","","","","","","","","","",""
"image-keyboard-response","31","29044","0.0-6.0-1.13","6400dc45648545e7ca8f35a6","bdp_trlrn","Sat Apr 08 2023 11:47:06 GMT-0400 (Eastern Daylight Time)","467976","Untrustworthy,Trustworthy","","743","","","","rating","","trustrating_stim/white_00519_940519_fb_edt.bmp","5","","","","","","","","","","",""
"image-keyboard-response","32","29254","0.0-6.0-2.13","6400dc45648545e7ca8f35a6","bdp_trlrn","Sat Apr 08 2023 11:47:06 GMT-0400 (Eastern Daylight Time)","467976","Untrustworthy,Trustworthy","","null","","","","ratingFB","","trustrating_stim/white_00519_940519_fb_edt.bmp","null","","","","","","","","","","",""
"image-keyboard-response","33","29698","0.0-6.0-1.14","6400dc45648545e7ca8f35a6","bdp_trlrn","Sat Apr 08 2023 11:47:06 GMT-0400 (Eastern Daylight Time)","467976","Untrustworthy,Trustworthy","","333","","","","rating","","trustrating_stim/white_mw089.bmp","5","","","","","","","","","","",""
"image-keyboard-response","34","29900","0.0-6.0-2.14","6400dc45648545e7ca8f35a6","bdp_trlrn","Sat Apr 08 2023 11:47:06 GMT-0400 (Eastern Daylight Time)","467976","Untrustworthy,Trustworthy","","null","","","","ratingFB","","trustrating_stim/white_mw089.bmp","null","","","","","","","","","","",""
"image-keyboard-response","35","30266","0.0-6.0-1.15","6400dc45648545e7ca8f35a6","bdp_trlrn","Sat Apr 08 2023 11:47:06 GMT-0400 (Eastern Daylight Time)","467976","Untrustworthy,Trustworthy","","264","","","","rating","","trustrating_stim/white_mw097.bmp","5","","","","","","","","","","",""
"image-keyboard-response","36","30467","0.0-6.0-2.15","6400dc45648545e7ca8f35a6","bdp_trlrn","Sat Apr 08 2023 11:47:06 GMT-0400 (Eastern Daylight Time)","467976","Untrustworthy,Trustworthy","","null","","","","ratingFB","","trustrating_stim/white_mw097.bmp","null","","","","","","","","","","",""
"image-keyboard-response","37","30866","0.0-6.0-1.16","6400dc45648545e7ca8f35a6","bdp_trlrn","Sat Apr 08 2023 11:47:06 GMT-0400 (Eastern Daylight Time)","467976","Untrustworthy,Trustworthy","","297","","","","rating","","trustrating_stim/white_00340_940422_fa_edt.bmp","5","","","","","","","","","","",""
"image-keyboard-response","38","31068","0.0-6.0-2.16","6400dc45648545e7ca8f35a6","bdp_trlrn","Sat Apr 08 2023 11:47:06 GMT-0400 (Eastern Daylight Time)","467976","Untrustworthy,Trustworthy","","null","","","","ratingFB","","trustrating_stim/white_00340_940422_fa_edt.bmp","null","","","","","","","","","","",""
"image-keyboard-response","39","31404","0.0-6.0-1.17","6400dc45648545e7ca8f35a6","bdp_trlrn","Sat Apr 08 2023 11:47:06 GMT-0400 (Eastern Daylight Time)","467976","Untrustworthy,Trustworthy","","235","","","","rating","","trustrating_stim/white_00120_931230_fa_edt.bmp","5","","","","","","","","","","",""
"image-keyboard-response","40","31606","0.0-6.0-2.17","6400dc45648545e7ca8f35a6","bdp_trlrn","Sat Apr 08 2023 11:47:06 GMT-0400 (Eastern Daylight Time)","467976","Untrustworthy,Trustworthy","","null","","","","ratingFB","","trustrating_stim/white_00120_931230_fa_edt.bmp","null","","","","","","","","","","",""
"image-keyboard-response","41","31928","0.0-6.0-1.18","6400dc45648545e7ca8f35a6","bdp_trlrn","Sat Apr 08 2023 11:47:06 GMT-0400 (Eastern Daylight Time)","467976","Untrustworthy,Trustworthy","","220","","","","rating","","trustrating_stim/white_mw060.bmp","5","","","","","","","","","","",""
"image-keyboard-response","42","32129","0.0-6.0-2.18","6400dc45648545e7ca8f35a6","bdp_trlrn","Sat Apr 08 2023 11:47:06 GMT-0400 (Eastern Daylight Time)","467976","Untrustworthy,Trustworthy","","null","","","","ratingFB","","trustrating_stim/white_mw060.bmp","null","","","","","","","","","","",""
"image-keyboard-response","43","32450","0.0-6.0-1.19","6400dc45648545e7ca8f35a6","bdp_trlrn","Sat Apr 08 2023 11:47:06 GMT-0400 (Eastern Daylight Time)","467976","Untrustworthy,Trustworthy","","220","","","","rating","","trustrating_stim/white_00129_931230_fb_edt.bmp","5","","","","","","","","","","",""
"image-keyboard-response","44","32651","0.0-6.0-2.19","6400dc45648545e7ca8f35a6","bdp_trlrn","Sat Apr 08 2023 11:47:06 GMT-0400 (Eastern Daylight Time)","467976","Untrustworthy,Trustworthy","","null","","","","ratingFB","","trustrating_stim/white_00129_931230_fb_edt.bmp","null","","","","","","","","","","",""
"image-keyboard-response","45","33036","0.0-6.0-1.20","6400dc45648545e7ca8f35a6","bdp_trlrn","Sat Apr 08 2023 11:47:06 GMT-0400 (Eastern Daylight Time)","467976","Untrustworthy,Trustworthy","","284","","","","rating","","trustrating_stim/white_mw046.bmp","5","","","","","","","","","","",""
"image-keyboard-response","46","33238","0.0-6.0-2.20","6400dc45648545e7ca8f35a6","bdp_trlrn","Sat Apr 08 2023 11:47:06 GMT-0400 (Eastern Daylight Time)","467976","Untrustworthy,Trustworthy","","null","","","","ratingFB","","trustrating_stim/white_mw046.bmp","null","","","","","","","","","","",""
"image-keyboard-response","47","33538","0.0-6.0-1.21","6400dc45648545e7ca8f35a6","bdp_trlrn","Sat Apr 08 2023 11:47:06 GMT-0400 (Eastern Daylight Time)","467976","Untrustworthy,Trustworthy","","199","","","","rating","","trustrating_stim/white_mw049.bmp","5","","","","","","","","","","",""
"image-keyboard-response","48","33739","0.0-6.0-2.21","6400dc45648545e7ca8f35a6","bdp_trlrn","Sat Apr 08 2023 11:47:06 GMT-0400 (Eastern Daylight Time)","467976","Untrustworthy,Trustworthy","","null","","","","ratingFB","","trustrating_stim/white_mw049.bmp","null","","","","","","","","","","",""
"image-keyboard-response","49","34068","0.0-6.0-1.22","6400dc45648545e7ca8f35a6","bdp_trlrn","Sat Apr 08 2023 11:47:06 GMT-0400 (Eastern Daylight Time)","467976","Untrustworthy,Trustworthy","","227","","","","rating","","trustrating_stim/white_00602_940928_fb_edt.bmp","5","","","","","","","","","","",""
"image-keyboard-response","50","34269","0.0-6.0-2.22","6400dc45648545e7ca8f35a6","bdp_trlrn","Sat Apr 08 2023 11:47:06 GMT-0400 (Eastern Daylight Time)","467976","Untrustworthy,Trustworthy","","null","","","","ratingFB","","trustrating_stim/white_00602_940928_fb_edt.bmp","null","","","","","","","","","","",""
"image-keyboard-response","51","34680","0.0-6.0-1.23","6400dc45648545e7ca8f35a6","bdp_trlrn","Sat Apr 08 2023 11:47:06 GMT-0400 (Eastern Daylight Time)","467976","Untrustworthy,Trustworthy","","309","","","","rating","","trustrating_stim/white_00659_941121_fa_edt.bmp","5","","","","","","","","","","",""
"image-keyboard-response","52","34881","0.0-6.0-2.23","6400dc45648545e7ca8f35a6","bdp_trlrn","Sat Apr 08 2023 11:47:06 GMT-0400 (Eastern Daylight Time)","467976","Untrustworthy,Trustworthy","","null","","","","ratingFB","","trustrating_stim/white_00659_941121_fa_edt.bmp","null","","","","","","","","","","",""
"image-keyboard-response","53","35288","0.0-6.0-1.24","6400dc45648545e7ca8f35a6","bdp_trlrn","Sat Apr 08 2023 11:47:06 GMT-0400 (Eastern Daylight Time)","467976","Untrustworthy,Trustworthy","","305","","","","rating","","trustrating_stim/white_00223_940128_fb_edt.bmp","5","","","","","","","","","","",""
"image-keyboard-response","54","35490","0.0-6.0-2.24","6400dc45648545e7ca8f35a6","bdp_trlrn","Sat Apr 08 2023 11:47:06 GMT-0400 (Eastern Daylight Time)","467976","Untrustworthy,Trustworthy","","null","","","","ratingFB","","trustrating_stim/white_00223_940128_fb_edt.bmp","null","","","","","","","","","","",""
"image-keyboard-response","55","36120","0.0-6.0-1.25","6400dc45648545e7ca8f35a6","bdp_trlrn","Sat Apr 08 2023 11:47:06 GMT-0400 (Eastern Daylight Time)","467976","Untrustworthy,Trustworthy","","528","","","","rating","","trustrating_stim/white_mw066.bmp","5","","","","","","","","","","",""
"image-keyboard-response","56","36322","0.0-6.0-2.25","6400dc45648545e7ca8f35a6","bdp_trlrn","Sat Apr 08 2023 11:47:06 GMT-0400 (Eastern Daylight Time)","467976","Untrustworthy,Trustworthy","","null","","","","ratingFB","","trustrating_stim/white_mw066.bmp","null","","","","","","","","","","",""
"image-keyboard-response","57","37040","0.0-6.0-1.26","6400dc45648545e7ca8f35a6","bdp_trlrn","Sat Apr 08 2023 11:47:06 GMT-0400 (Eastern Daylight Time)","467976","Untrustworthy,Trustworthy","","617","","","","rating","","trustrating_stim/white_00761_941201_fb_edt.bmp","5","","","","","","","","","","",""
"image-keyboard-response","58","37242","0.0-6.0-2.26","6400dc45648545e7ca8f35a6","bdp_trlrn","Sat Apr 08 2023 11:47:06 GMT-0400 (Eastern Daylight Time)","467976","Untrustworthy,Trustworthy","","null","","","","ratingFB","","trustrating_stim/white_00761_941201_fb_edt.bmp","null","","","","","","","","","","",""
"image-keyboard-response","59","37728","0.0-6.0-1.27","6400dc45648545e7ca8f35a6","bdp_trlrn","Sat Apr 08 2023 11:47:06 GMT-0400 (Eastern Daylight Time)","467976","Untrustworthy,Trustworthy","","384","","","","rating","","trustrating_stim/white_00299_940422_fa_edt.bmp","5","","","","","","","","","","",""
"image-keyboard-response","60","37929","0.0-6.0-2.27","6400dc45648545e7ca8f35a6","bdp_trlrn","Sat Apr 08 2023 11:47:06 GMT-0400 (Eastern Daylight Time)","467976","Untrustworthy,Trustworthy","","null","","","","ratingFB","","trustrating_stim/white_00299_940422_fa_edt.bmp","null","","","","","","","","","","",""
"image-keyboard-response","61","38368","0.0-6.0-1.28","6400dc45648545e7ca8f35a6","bdp_trlrn","Sat Apr 08 2023 11:47:06 GMT-0400 (Eastern Daylight Time)","467976","Untrustworthy,Trustworthy","","337","","","","rating","","trustrating_stim/white_00109_931230_fa_edt.bmp","5","","","","","","","","","","",""
"image-keyboard-response","62","38569","0.0-6.0-2.28","6400dc45648545e7ca8f35a6","bdp_trlrn","Sat Apr 08 2023 11:47:06 GMT-0400 (Eastern Daylight Time)","467976","Untrustworthy,Trustworthy","","null","","","","ratingFB","","trustrating_stim/white_00109_931230_fa_edt.bmp","null","","","","","","","","","","",""
"image-keyboard-response","63","38858","0.0-6.0-1.29","6400dc45648545e7ca8f35a6","bdp_trlrn","Sat Apr 08 2023 11:47:06 GMT-0400 (Eastern Daylight Time)","467976","Untrustworthy,Trustworthy","","187","","","","rating","","trustrating_stim/white_mw056.bmp","5","","","","","","","","","","",""
"image-keyboard-response","64","39060","0.0-6.0-2.29","6400dc45648545e7ca8f35a6","bdp_trlrn","Sat Apr 08 2023 11:47:06 GMT-0400 (Eastern Daylight Time)","467976","Untrustworthy,Trustworthy","","null","","","","ratingFB","","trustrating_stim/white_mw056.bmp","null","","","","","","","","","","",""
"image-keyboard-response","65","39472","0.0-6.0-1.30","6400dc45648545e7ca8f35a6","bdp_trlrn","Sat Apr 08 2023 11:47:06 GMT-0400 (Eastern Daylight Time)","467976","Untrustworthy,Trustworthy","","307","","","","rating","","trustrating_stim/white_00577_940928_fa_edt.bmp","5","","","","","","","","","","",""
"image-keyboard-response","66","39673","0.0-6.0-2.30","6400dc45648545e7ca8f35a6","bdp_trlrn","Sat Apr 08 2023 11:47:06 GMT-0400 (Eastern Daylight Time)","467976","Untrustworthy,Trustworthy","","null","","","","ratingFB","","trustrating_stim/white_00577_940928_fa_edt.bmp","null","","","","","","","","","","",""
"image-keyboard-response","67","39954","0.0-6.0-1.31","6400dc45648545e7ca8f35a6","bdp_trlrn","Sat Apr 08 2023 11:47:06 GMT-0400 (Eastern Daylight Time)","467976","Untrustworthy,Trustworthy","","180","","","","rating","","trustrating_stim/white_00120_931230_fa_edt.bmp","5","","","","","","","","","","",""
"image-keyboard-response","68","40156","0.0-6.0-2.31","6400dc45648545e7ca8f35a6","bdp_trlrn","Sat Apr 08 2023 11:47:06 GMT-0400 (Eastern Daylight Time)","467976","Untrustworthy,Trustworthy","","null","","","","ratingFB","","trustrating_stim/white_00120_931230_fa_edt.bmp","null","","","","","","","","","","",""
"image-keyboard-response","69","40390","0.0-6.0-1.32","6400dc45648545e7ca8f35a6","bdp_trlrn","Sat Apr 08 2023 11:47:06 GMT-0400 (Eastern Daylight Time)","467976","Untrustworthy,Trustworthy","","134","","","","rating","","trustrating_stim/white_00340_940422_fa_edt.bmp","5","","","","","","","","","","",""
"image-keyboard-response","70","40591","0.0-6.0-2.32","6400dc45648545e7ca8f35a6","bdp_trlrn","Sat Apr 08 2023 11:47:06 GMT-0400 (Eastern Daylight Time)","467976","Untrustworthy,Trustworthy","","null","","","","ratingFB","","trustrating_stim/white_00340_940422_fa_edt.bmp","null","","","","","","","","","","",""
"image-keyboard-response","71","40838","0.0-6.0-1.33","6400dc45648545e7ca8f35a6","bdp_trlrn","Sat Apr 08 2023 11:47:06 GMT-0400 (Eastern Daylight Time)","467976","Untrustworthy,Trustworthy","","138","","","","rating","","trustrating_stim/white_mw049.bmp","5","","","","","","","","","","",""
"image-keyboard-response","72","41040","0.0-6.0-2.33","6400dc45648545e7ca8f35a6","bdp_trlrn","Sat Apr 08 2023 11:47:06 GMT-0400 (Eastern Daylight Time)","467976","Untrustworthy,Trustworthy","","null","","","","ratingFB","","trustrating_stim/white_mw049.bmp","null","","","","","","","","","","",""
"image-keyboard-response","73","41248","0.0-6.0-1.34","6400dc45648545e7ca8f35a6","bdp_trlrn","Sat Apr 08 2023 11:47:06 GMT-0400 (Eastern Daylight Time)","467976","Untrustworthy,Trustworthy","","107","","","","rating","","trustrating_stim/white_00807_941205_fb_edt.bmp","5","","","","","","","","","","",""
"image-keyboard-response","74","41450","0.0-6.0-2.34","6400dc45648545e7ca8f35a6","bdp_trlrn","Sat Apr 08 2023 11:47:06 GMT-0400 (Eastern Daylight Time)","467976","Untrustworthy,Trustworthy","","null","","","","ratingFB","","trustrating_stim/white_00807_941205_fb_edt.bmp","null","","","","","","","","","","",""
"image-keyboard-response","75","41686","0.0-6.0-1.35","6400dc45648545e7ca8f35a6","bdp_trlrn","Sat Apr 08 2023 11:47:06 GMT-0400 (Eastern Daylight Time)","467976","Untrustworthy,Trustworthy","","135","","","","rating","","trustrating_stim/white_mw033.bmp","5","","","","","","","","","","",""
"image-keyboard-response","76","41887","0.0-6.0-2.35","6400dc45648545e7ca8f35a6","bdp_trlrn","Sat Apr 08 2023 11:47:06 GMT-0400 (Eastern Daylight Time)","467976","Untrustworthy,Trustworthy","","null","","","","ratingFB","","trustrating_stim/white_mw033.bmp","null","","","","","","","","","","",""
"image-keyboard-response","77","42148","0.0-6.0-1.36","6400dc45648545e7ca8f35a6","bdp_trlrn","Sat Apr 08 2023 11:47:06 GMT-0400 (Eastern Daylight Time)","467976","Untrustworthy,Trustworthy","","159","","","","rating","","trustrating_stim/white_00129_931230_fb_edt.bmp","5","","","","","","","","","","",""
"image-keyboard-response","78","42350","0.0-6.0-2.36","6400dc45648545e7ca8f35a6","bdp_trlrn","Sat Apr 08 2023 11:47:06 GMT-0400 (Eastern Daylight Time)","467976","Untrustworthy,Trustworthy","","null","","","","ratingFB","","trustrating_stim/white_00129_931230_fb_edt.bmp","null","","","","","","","","","","",""
"image-keyboard-response","79","42554","0.0-6.0-1.37","6400dc45648545e7ca8f35a6","bdp_trlrn","Sat Apr 08 2023 11:47:06 GMT-0400 (Eastern Daylight Time)","467976","Untrustworthy,Trustworthy","","103","","","","rating","","trustrating_stim/white_mw035.bmp","5","","","","","","","","","","",""
"image-keyboard-response","80","42756","0.0-6.0-2.37","6400dc45648545e7ca8f35a6","bdp_trlrn","Sat Apr 08 2023 11:47:06 GMT-0400 (Eastern Daylight Time)","467976","Untrustworthy,Trustworthy","","null","","","","ratingFB","","trustrating_stim/white_mw035.bmp","null","","","","","","","","","","",""
"image-keyboard-response","81","42904","0.0-6.0-1.38","6400dc45648545e7ca8f35a6","bdp_trlrn","Sat Apr 08 2023 11:47:06 GMT-0400 (Eastern Daylight Time)","467976","Untrustworthy,Trustworthy","","48","","","","rating","","trustrating_stim/white_00299_940422_fa_edt.bmp","5","","","","","","","","","","",""
"image-keyboard-response","82","43106","0.0-6.0-2.38","6400dc45648545e7ca8f35a6","bdp_trlrn","Sat Apr 08 2023 11:47:06 GMT-0400 (Eastern Daylight Time)","467976","Untrustworthy,Trustworthy","","null","","","","ratingFB","","trustrating_stim/white_00299_940422_fa_edt.bmp","null","","","","","","","","","","",""
"image-keyboard-response","83","43430","0.0-6.0-1.39","6400dc45648545e7ca8f35a6","bdp_trlrn","Sat Apr 08 2023 11:47:06 GMT-0400 (Eastern Daylight Time)","467976","Untrustworthy,Trustworthy","","223","","","","rating","","trustrating_stim/white_00898_960530_fa_edt.bmp","5","","","","","","","","","","",""
"image-keyboard-response","84","43632","0.0-6.0-2.39","6400dc45648545e7ca8f35a6","bdp_trlrn","Sat Apr 08 2023 11:47:06 GMT-0400 (Eastern Daylight Time)","467976","Untrustworthy,Trustworthy","","null","","","","ratingFB","","trustrating_stim/white_00898_960530_fa_edt.bmp","null","","","","","","","","","","",""
"image-keyboard-response","85","43890","0.0-6.0-1.40","6400dc45648545e7ca8f35a6","bdp_trlrn","Sat Apr 08 2023 11:47:06 GMT-0400 (Eastern Daylight Time)","467976","Untrustworthy,Trustworthy","","156","","","","rating","","trustrating_stim/white_mw063.bmp","5","","","","","","","","","","",""
"image-keyboard-response","86","44092","0.0-6.0-2.40","6400dc45648545e7ca8f35a6","bdp_trlrn","Sat Apr 08 2023 11:47:06 GMT-0400 (Eastern Daylight Time)","467976","Untrustworthy,Trustworthy","","null","","","","ratingFB","","trustrating_stim/white_mw063.bmp","null","","","","","","","","","","",""
"image-keyboard-response","87","44342","0.0-6.0-1.41","6400dc45648545e7ca8f35a6","bdp_trlrn","Sat Apr 08 2023 11:47:06 GMT-0400 (Eastern Daylight Time)","467976","Untrustworthy,Trustworthy","","148","","","","rating","","trustrating_stim/white_00761_941201_fb_edt.bmp","5","","","","","","","","","","",""
"image-keyboard-response","88","44543","0.0-6.0-2.41","6400dc45648545e7ca8f35a6","bdp_trlrn","Sat Apr 08 2023 11:47:06 GMT-0400 (Eastern Daylight Time)","467976","Untrustworthy,Trustworthy","","null","","","","ratingFB","","trustrating_stim/white_00761_941201_fb_edt.bmp","null","","","","","","","","","","",""
"image-keyboard-response","89","44808","0.0-6.0-1.42","6400dc45648545e7ca8f35a6","bdp_trlrn","Sat Apr 08 2023 11:47:06 GMT-0400 (Eastern Daylight Time)","467976","Untrustworthy,Trustworthy","","164","","","","rating","","trustrating_stim/white_mw084.bmp","5","","","","","","","","","","",""
"image-keyboard-response","90","45009","0.0-6.0-2.42","6400dc45648545e7ca8f35a6","bdp_trlrn","Sat Apr 08 2023 11:47:06 GMT-0400 (Eastern Daylight Time)","467976","Untrustworthy,Trustworthy","","null","","","","ratingFB","","trustrating_stim/white_mw084.bmp","null","","","","","","","","","","",""
"image-keyboard-response","91","45246","0.0-6.0-1.43","6400dc45648545e7ca8f35a6","bdp_trlrn","Sat Apr 08 2023 11:47:06 GMT-0400 (Eastern Daylight Time)","467976","Untrustworthy,Trustworthy","","135","","","","rating","","trustrating_stim/white_mw048.bmp","5","","","","","","","","","","",""
"image-keyboard-response","92","45447","0.0-6.0-2.43","6400dc45648545e7ca8f35a6","bdp_trlrn","Sat Apr 08 2023 11:47:06 GMT-0400 (Eastern Daylight Time)","467976","Untrustworthy,Trustworthy","","null","","","","ratingFB","","trustrating_stim/white_mw048.bmp","null","","","","","","","","","","",""
"image-keyboard-response","93","45624","0.0-6.0-1.44","6400dc45648545e7ca8f35a6","bdp_trlrn","Sat Apr 08 2023 11:47:06 GMT-0400 (Eastern Daylight Time)","467976","Untrustworthy,Trustworthy","","61","","","","rating","","trustrating_stim/white_00519_940519_fb_edt.bmp","5","","","","","","","","","","",""
"image-keyboard-response","94","45825","0.0-6.0-2.44","6400dc45648545e7ca8f35a6","bdp_trlrn","Sat Apr 08 2023 11:47:06 GMT-0400 (Eastern Daylight Time)","467976","Untrustworthy,Trustworthy","","null","","","","ratingFB","","trustrating_stim/white_00519_940519_fb_edt.bmp","null","","","","","","","","","","",""
"image-keyboard-response","95","46034","0.0-6.0-1.45","6400dc45648545e7ca8f35a6","bdp_trlrn","Sat Apr 08 2023 11:47:06 GMT-0400 (Eastern Daylight Time)","467976","Untrustworthy,Trustworthy","","108","","","","rating","","trustrating_stim/white_00659_941121_fa_edt.bmp","5","","","","","","","","","","",""
"image-keyboard-response","96","46240","0.0-6.0-2.45","6400dc45648545e7ca8f35a6","bdp_trlrn","Sat Apr 08 2023 11:47:06 GMT-0400 (Eastern Daylight Time)","467976","Untrustworthy,Trustworthy","","null","","","","ratingFB","","trustrating_stim/white_00659_941121_fa_edt.bmp","null","","","","","","","","","","",""
"image-keyboard-response","97","46426","0.0-6.0-1.46","6400dc45648545e7ca8f35a6","bdp_trlrn","Sat Apr 08 2023 11:47:06 GMT-0400 (Eastern Daylight Time)","467976","Untrustworthy,Trustworthy","","85","","","","rating","","trustrating_stim/white_00602_940928_fb_edt.bmp","5","","","","","","","","","","",""
"image-keyboard-response","98","46627","0.0-6.0-2.46","6400dc45648545e7ca8f35a6","bdp_trlrn","Sat Apr 08 2023 11:47:06 GMT-0400 (Eastern Daylight Time)","467976","Untrustworthy,Trustworthy","","null","","","","ratingFB","","trustrating_stim/white_00602_940928_fb_edt.bmp","null","","","","","","","","","","",""
"image-keyboard-response","99","46828","0.0-6.0-1.47","6400dc45648545e7ca8f35a6","bdp_trlrn","Sat Apr 08 2023 11:47:06 GMT-0400 (Eastern Daylight Time)","467976","Untrustworthy,Trustworthy","","100","","","","rating","","trustrating_stim/white_mw060.bmp","5","","","","","","","","","","",""
"image-keyboard-response","100","47030","0.0-6.0-2.47","6400dc45648545e7ca8f35a6","bdp_trlrn","Sat Apr 08 2023 11:47:06 GMT-0400 (Eastern Daylight Time)","467976","Untrustworthy,Trustworthy","","null","","","","ratingFB","","trustrating_stim/white_mw060.bmp","null","","","","","","","","","","",""
"image-keyboard-response","101","47226","0.0-6.0-1.48","6400dc45648545e7ca8f35a6","bdp_trlrn","Sat Apr 08 2023 11:47:06 GMT-0400 (Eastern Daylight Time)","467976","Untrustworthy,Trustworthy","","95","","","","rating","","trustrating_stim/white_00109_931230_fa_edt.bmp","5","","","","","","","","","","",""
"image-keyboard-response","102","47428","0.0-6.0-2.48","6400dc45648545e7ca8f35a6","bdp_trlrn","Sat Apr 08 2023 11:47:06 GMT-0400 (Eastern Daylight Time)","467976","Untrustworthy,Trustworthy","","null","","","","ratingFB","","trustrating_stim/white_00109_931230_fa_edt.bmp","null","","","","","","","","","","",""
"image-keyboard-response","103","47628","0.0-6.0-1.49","6400dc45648545e7ca8f35a6","bdp_trlrn","Sat Apr 08 2023 11:47:06 GMT-0400 (Eastern Daylight Time)","467976","Untrustworthy,Trustworthy","","99","","","","rating","","trustrating_stim/white_mw097.bmp","5","","","","","","","","","","",""
"image-keyboard-response","104","47843","0.0-6.0-2.49","6400dc45648545e7ca8f35a6","bdp_trlrn","Sat Apr 08 2023 11:47:06 GMT-0400 (Eastern Daylight Time)","467976","Untrustworthy,Trustworthy","","null","","","","ratingFB","","trustrating_stim/white_mw097.bmp","null","","","","","","","","","","",""
"image-keyboard-response","105","48024","0.0-6.0-1.50","6400dc45648545e7ca8f35a6","bdp_trlrn","Sat Apr 08 2023 11:47:06 GMT-0400 (Eastern Daylight Time)","467976","Untrustworthy,Trustworthy","","80","","","","rating","","trustrating_stim/white_mw046.bmp","5","","","","","","","","","","",""
"image-keyboard-response","106","48226","0.0-6.0-2.50","6400dc45648545e7ca8f35a6","bdp_trlrn","Sat Apr 08 2023 11:47:06 GMT-0400 (Eastern Daylight Time)","467976","Untrustworthy,Trustworthy","","null","","","","ratingFB","","trustrating_stim/white_mw046.bmp","null","","","","","","","","","","",""
"image-keyboard-response","107","48428","0.0-6.0-1.51","6400dc45648545e7ca8f35a6","bdp_trlrn","Sat Apr 08 2023 11:47:06 GMT-0400 (Eastern Daylight Time)","467976","Untrustworthy,Trustworthy","","101","","","","rating","","trustrating_stim/white_mw071.bmp","5","","","","","","","","","","",""
"image-keyboard-response","108","48629","0.0-6.0-2.51","6400dc45648545e7ca8f35a6","bdp_trlrn","Sat Apr 08 2023 11:47:06 GMT-0400 (Eastern Daylight Time)","467976","Untrustworthy,Trustworthy","","null","","","","ratingFB","","trustrating_stim/white_mw071.bmp","null","","","","","","","","","","",""
"image-keyboard-response","109","48836","0.0-6.0-1.52","6400dc45648545e7ca8f35a6","bdp_trlrn","Sat Apr 08 2023 11:47:06 GMT-0400 (Eastern Daylight Time)","467976","Untrustworthy,Trustworthy","","105","","","","rating","","trustrating_stim/white_00785_941205_fb_edt.bmp","5","","","","","","","","","","",""
"image-keyboard-response","110","49038","0.0-6.0-2.52","6400dc45648545e7ca8f35a6","bdp_trlrn","Sat Apr 08 2023 11:47:06 GMT-0400 (Eastern Daylight Time)","467976","Untrustworthy,Trustworthy","","null","","","","ratingFB","","trustrating_stim/white_00785_941205_fb_edt.bmp","null","","","","","","","","","","",""
"image-keyboard-response","111","49268","0.0-6.0-1.53","6400dc45648545e7ca8f35a6","bdp_trlrn","Sat Apr 08 2023 11:47:06 GMT-0400 (Eastern Daylight Time)","467976","Untrustworthy,Trustworthy","","130","","","","rating","","trustrating_stim/white_00223_940128_fb_edt.bmp","5","","","","","","","","","","",""
"image-keyboard-response","112","49469","0.0-6.0-2.53","6400dc45648545e7ca8f35a6","bdp_trlrn","Sat Apr 08 2023 11:47:06 GMT-0400 (Eastern Daylight Time)","467976","Untrustworthy,Trustworthy","","null","","","","ratingFB","","trustrating_stim/white_00223_940128_fb_edt.bmp","null","","","","","","","","","","",""
"image-keyboard-response","113","49646","0.0-6.0-1.54","6400dc45648545e7ca8f35a6","bdp_trlrn","Sat Apr 08 2023 11:47:06 GMT-0400 (Eastern Daylight Time)","467976","Untrustworthy,Trustworthy","","75","","","","rating","","trustrating_stim/white_mw056.bmp","5","","","","","","","","","","",""
"image-keyboard-response","114","49848","0.0-6.0-2.54","6400dc45648545e7ca8f35a6","bdp_trlrn","Sat Apr 08 2023 11:47:06 GMT-0400 (Eastern Daylight Time)","467976","Untrustworthy,Trustworthy","","null","","","","ratingFB","","trustrating_stim/white_mw056.bmp","null","","","","","","","","","","",""
"image-keyboard-response","115","50062","0.0-6.0-1.55","6400dc45648545e7ca8f35a6","bdp_trlrn","Sat Apr 08 2023 11:47:06 GMT-0400 (Eastern Daylight Time)","467976","Untrustworthy,Trustworthy","","113","","","","rating","","trustrating_stim/white_mw089.bmp","5","","","","","","","","","","",""
"image-keyboard-response","116","50264","0.0-6.0-2.55","6400dc45648545e7ca8f35a6","bdp_trlrn","Sat Apr 08 2023 11:47:06 GMT-0400 (Eastern Daylight Time)","467976","Untrustworthy,Trustworthy","","null","","","","ratingFB","","trustrating_stim/white_mw089.bmp","null","","","","","","","","","","",""
"image-keyboard-response","117","50460","0.0-6.0-1.56","6400dc45648545e7ca8f35a6","bdp_trlrn","Sat Apr 08 2023 11:47:06 GMT-0400 (Eastern Daylight Time)","467976","Untrustworthy,Trustworthy","","95","","","","rating","","trustrating_stim/white_mw099.bmp","5","","","","","","","","","","",""
"image-keyboard-response","118","50661","0.0-6.0-2.56","6400dc45648545e7ca8f35a6","bdp_trlrn","Sat Apr 08 2023 11:47:06 GMT-0400 (Eastern Daylight Time)","467976","Untrustworthy,Trustworthy","","null","","","","ratingFB","","trustrating_stim/white_mw099.bmp","null","","","","","","","","","","",""
"image-keyboard-response","119","50927","0.0-6.0-1.57","6400dc45648545e7ca8f35a6","bdp_trlrn","Sat Apr 08 2023 11:47:06 GMT-0400 (Eastern Daylight Time)","467976","Untrustworthy,Trustworthy","","163","","","","rating","","trustrating_stim/white_00757_941201_fa_edt.bmp","5","","","","","","","","","","",""
"image-keyboard-response","120","51127","0.0-6.0-2.57","6400dc45648545e7ca8f35a6","bdp_trlrn","Sat Apr 08 2023 11:47:06 GMT-0400 (Eastern Daylight Time)","467976","Untrustworthy,Trustworthy","","null","","","","ratingFB","","trustrating_stim/white_00757_941201_fa_edt.bmp","null","","","","","","","","","","",""
"image-keyboard-response","121","51254","0.0-6.0-1.58","6400dc45648545e7ca8f35a6","bdp_trlrn","Sat Apr 08 2023 11:47:06 GMT-0400 (Eastern Daylight Time)","467976","Untrustworthy,Trustworthy","","13","","","","rating","","trustrating_stim/white_mw066.bmp","5","","","","","","","","","","",""
"image-keyboard-response","122","51454","0.0-6.0-2.58","6400dc45648545e7ca8f35a6","bdp_trlrn","Sat Apr 08 2023 11:47:06 GMT-0400 (Eastern Daylight Time)","467976","Untrustworthy,Trustworthy","","null","","","","ratingFB","","trustrating_stim/white_mw066.bmp","null","","","","","","","","","","",""
"image-keyboard-response","123","51786","0.0-6.0-1.59","6400dc45648545e7ca8f35a6","bdp_trlrn","Sat Apr 08 2023 11:47:06 GMT-0400 (Eastern Daylight Time)","467976","Untrustworthy,Trustworthy","","230","","","","rating","","trustrating_stim/white_mw053.bmp","5","","","","","","","","","","",""
"image-keyboard-response","124","51987","0.0-6.0-2.59","6400dc45648545e7ca8f35a6","bdp_trlrn","Sat Apr 08 2023 11:47:06 GMT-0400 (Eastern Daylight Time)","467976","Untrustworthy,Trustworthy","","null","","","","ratingFB","","trustrating_stim/white_mw053.bmp","null","","","","","","","","","","",""
"instructions","125","53578","0.0-7.0","6400dc45648545e7ca8f35a6","bdp_trlrn","Sat Apr 08 2023 11:47:06 GMT-0400 (Eastern Daylight Time)","467976","Untrustworthy,Trustworthy","[{""page_index"":0,""viewing_time"":1489}]","1489","","","","","","","","","","","","","","","","","",""
"instructions","126","129883","0.0-8.0","6400dc45648545e7ca8f35a6","bdp_trlrn","Sat Apr 08 2023 11:47:06 GMT-0400 (Eastern Daylight Time)","467976","Untrustworthy,Trustworthy","[{""page_index"":0,""viewing_time"":15684},{""page_index"":1,""viewing_time"":9995},{""page_index"":2,""viewing_time"":5021},{""page_index"":3,""viewing_time"":16744},{""page_index"":4,""viewing_time"":2328},{""page_index"":5,""viewing_time"":12634},{""page_index"":6,""viewing_time"":10164},{""page_index"":7,""viewing_time"":3634}]","76204","","","","","","","","","","","","","","","","","",""
"html-keyboard-response","127","132709","0.0-9.0","6400dc45648545e7ca8f35a6","bdp_trlrn","Sat Apr 08 2023 11:47:06 GMT-0400 (Eastern Daylight Time)","467976","Untrustworthy,Trustworthy","","2826","","","","","","<div class='header' style='text-align:left; position: absolute; top: 5%; left: 5%;'><small>Task 3 of 5</small></div><div class='instruxDiv'><p><strong>1) What is the minimum number of points you can choose to send to your partner?</strong></p><p>a) 0</p><p>b) 1</p><p>c) 5</p>","C","","","","","","","","","","",""
"html-keyboard-response","128","141659","0.0-10.0","6400dc45648545e7ca8f35a6","bdp_trlrn","Sat Apr 08 2023 11:47:06 GMT-0400 (Eastern Daylight Time)","467976","Untrustworthy,Trustworthy","","8849","","","","","","<div class='header' style='text-align:left; position: absolute; top: 5%; left: 5%;'><small>Task 3 of 5</small></div><div class='instruxDiv'><p><strong>1) What is the minimum number of points you can choose to send to your partner?</strong></p><p>a) 1</p><p>b) 1</p><p style='color:#FF0000'>c) 5</p><h3 style='color:#FF0000'>Incorrect!</h3><h3 class='center-content'>The correct response is b).</h3><h3 class='center-content'>The minimum number of points you can choose to send to your partner is 1 point.</h3><p><em>Press SPACEBAR to continue</em></p></div>"," ","","","","","","","","","","",""
"html-keyboard-response","129","149647","0.0-11.0","6400dc45648545e7ca8f35a6","bdp_trlrn","Sat Apr 08 2023 11:47:06 GMT-0400 (Eastern Daylight Time)","467976","Untrustworthy,Trustworthy","","7886","","","","","","<div class='header' style='text-align:left; position: absolute; top: 5%; left: 5%;'><small>Task 3 of 5</small></div><div class='instruxDiv'><p><strong>2) What is the maximum number of points you can choose to send to your partner?</strong></p><p>a) 8</p><p>b) 5</p><p>c) 3</p>","B","","","","","","","","","","",""
"html-keyboard-response","130","151743","0.0-12.0","6400dc45648545e7ca8f35a6","bdp_trlrn","Sat Apr 08 2023 11:47:06 GMT-0400 (Eastern Daylight Time)","467976","Untrustworthy,Trustworthy","","1995","","","","","","<div class='header' style='text-align:left; position: absolute; top: 5%; left: 5%;'><small>Task 3 of 5</small></div><div class='instruxDiv'><p><strong>2) What is the maximum number of points you can choose to send to your partner?</strong></p><p>a) 8</p><p style='color:#00FF00'>b) 5</p><p>c) 3</p><h3 style='color:#00FF00'>Correct!</h3><h3 class='center-content'>The correct response is b).</h3><h3 class='center-content'>The maximum number of points you can choose to send to your partner is 5 points.</h3><p><em>Press SPACEBAR to continue</em></p></div>"," ","","","","","","","","","","",""
"html-keyboard-response","131","156501","0.0-13.0","6400dc45648545e7ca8f35a6","bdp_trlrn","Sat Apr 08 2023 11:47:06 GMT-0400 (Eastern Daylight Time)","467976","Untrustworthy,Trustworthy","","4656","","","","","","<div class='header' style='text-align:left; position: absolute; top: 5%; left: 5%;'><small>Task 3 of 5</small></div><div class='instruxDiv'><p><strong>3) What happens to the amount of points you send to your partner?</strong></p><p>a) Nothing</p><p>b) It doubles</p><p>c) It quadruples</p>","C","","","","","","","","","","",""
"html-keyboard-response","132","158149","0.0-14.0","6400dc45648545e7ca8f35a6","bdp_trlrn","Sat Apr 08 2023 11:47:06 GMT-0400 (Eastern Daylight Time)","467976","Untrustworthy,Trustworthy","","1547","","","","","","<div class='header' style='text-align:left; position: absolute; top: 5%; left: 5%;'><small>Task 3 of 5</small></div><div class='instruxDiv'><p><strong>3) What happens to the amount of points you send to your partner?</strong></p><p>a) Nothing</p><p>b) It doubles</p><p style='color:#00FF00'>c) It quadruples</p><h3 style='color:#00FF00'>Correct!</h3><h3 class='center-content'>The correct response is c).</h3><h3 class='center-content'>The amount of points you send to your partner quadruples.</h3><p><em>Press SPACEBAR to continue</em></p></div>"," ","","","","","","","","","","",""
"html-keyboard-response","133","165348","0.0-15.0","6400dc45648545e7ca8f35a6","bdp_trlrn","Sat Apr 08 2023 11:47:06 GMT-0400 (Eastern Daylight Time)","467976","Untrustworthy,Trustworthy","","7097","","","","","","<div class='header' style='text-align:left; position: absolute; top: 5%; left: 5%;'><small>Task 3 of 5</small></div><div class='instruxDiv'><p><strong>4) If you decided to share 4 out of 5 points with your partner, and they decided to share half of the amount they received with you, how many points would you receive back from them on this round?</strong></p><p>a) 16</p><p>b) 0</p><p>c) 8</p>","C","","","","","","","","","","",""
"html-keyboard-response","134","167121","0.0-16.0","6400dc45648545e7ca8f35a6","bdp_trlrn","Sat Apr 08 2023 11:47:06 GMT-0400 (Eastern Daylight Time)","467976","Untrustworthy,Trustworthy","","1672","","","","","","<div class='header' style='text-align:left; position: absolute; top: 5%; left: 5%;'><small>Task 3 of 5</small></div><div class='instruxDiv'><p><strong>4) If you decided to share 4 out of 5 points with your partner, and they decided to share half of the amount they received with you, how many points would you receive back from them on this round?</strong></p><p>a) 16</p><p>b) 0</p><p style='color:#00FF00'>c) 8</p><h3 style='color:#00FF00'>Correct!</h3><h3 class='center-content'>The correct response is c).</h3><h3 class='center-content'>If you shared 4 out of 5 points with your partner and they decided to share half of the amount they received with you, you would receive 8 points back (i.e. (4 x 4)/2 = 8).</h3><p><em>Press SPACEBAR to continue</em></p></div>"," ","","","","","","","","","","",""
"html-keyboard-response","135","172224","0.0-17.0","6400dc45648545e7ca8f35a6","bdp_trlrn","Sat Apr 08 2023 11:47:06 GMT-0400 (Eastern Daylight Time)","467976","Untrustworthy,Trustworthy","","null","","","","","","<div class='header' style='text-align:left; position: absolute; top: 5%; left: 5%;'><small>Task 3 of 5</small></div><div class='instruxDiv'><p>Thank you for completing the quiz<p>These are the actual partners you will be interacting with in the next block:<p><div class='tc' align='center'><img class='introPic' src='trustrating_stim/white_mw097.bmp'><br><strong>Gavin</strong></div><div class='bl' align='center'><img class='introPic' src='trustrating_stim/white_00109_931230_fa_edt.bmp'><br><strong>Michael</strong></div><div class='br' align='center'><img class='introPic' src='trustrating_stim/white_mw053.bmp'><br><strong>Evan</strong></div></div><p>Across <strong>66 rounds</strong> you will interact with each partner <strong>22 times</strong> (in random order).<p style='align:center; color:white'><font <em>Press SPACEBAR to continue</em></p>","null","","","","","","","","","","",""
"instructions","136","184877","0.0-18.0","6400dc45648545e7ca8f35a6","bdp_trlrn","Sat Apr 08 2023 11:47:06 GMT-0400 (Eastern Daylight Time)","467976","Untrustworthy,Trustworthy","[{""page_index"":0,""viewing_time"":1240},{""page_index"":1,""viewing_time"":11412}]","12652","","","","","","","","","","","","","","","","","",""
"html-keyboard-response","137","211083","0.0-19.0-1.0","6400dc45648545e7ca8f35a6","bdp_trlrn","Sat Apr 08 2023 11:47:06 GMT-0400 (Eastern Daylight Time)","467976","Untrustworthy,Trustworthy","","26104","","","","decision","","<div class='trialDiv'><img src='trustrating_stim/white_mw097.bmp'><br><font class='baseline'><strong>Gavin</strong><p>Choose number of points to send.</font><div class='respPicDiv'><img src='img/responseButtonOffersNo0L.png' class='respPic'></div></div>","3","1","Gavin","1","Kept","0.35,0.8","10","0.35","trustrating_stim/white_mw097.bmp","5","5","1"
"html-keyboard-response","138","211337","0.0-19.0-2.0","6400dc45648545e7ca8f35a6","bdp_trlrn","Sat Apr 08 2023 11:47:06 GMT-0400 (Eastern Daylight Time)","467976","Untrustworthy,Trustworthy","","null","","","","decisionFB","","<div class='trialDiv'><img src='trustrating_stim/white_mw097.bmp'><br><font class='baseline'><strong>Gavin</strong><p>Choose number of points to send.</font><div class='respPicDiv'><img src='img/responseButtonOffersNo0L3.png' class='respPic'></div></div>","null","1","Gavin","1","Kept","0.35,0.8","10","0.35","trustrating_stim/white_mw097.bmp","5","2","1"
"html-keyboard-response","139","212339","0.0-19.0-3.0","6400dc45648545e7ca8f35a6","bdp_trlrn","Sat Apr 08 2023 11:47:06 GMT-0400 (Eastern Daylight Time)","467976","Untrustworthy,Trustworthy","","null","","","","feedback","","<div class='trialDiv'><img src='trustrating_stim/white_mw097.bmp'><br><font class='baseline'><strong>Gavin</strong><p>Received: <strong>12</strong></font> &nbsp; &nbsp; &nbsp; &nbsp; &nbsp; &nbsp;<font class='negOutcome'>Shared back: <strong>0</strong></font></font><div class='respPicDiv'><img src='img/responseButtonOffersNo0_wht.png' class='respPic'></div></div>","null","1","Gavin","1","Kept","0.35,0.8","10","0.35","trustrating_stim/white_mw097.bmp","5","2","1"
"html-keyboard-response","140","213766","0.0-19.0-1.1","6400dc45648545e7ca8f35a6","bdp_trlrn","Sat Apr 08 2023 11:47:06 GMT-0400 (Eastern Daylight Time)","467976","Untrustworthy,Trustworthy","","1427","","","","decision","","<div class='trialDiv'><img src='trustrating_stim/white_mw053.bmp'><br><font class='baseline'><strong>Evan</strong><p>Choose number of points to send.</font><div class='respPicDiv'><img src='img/responseButtonOffersNo0L.png' class='respPic'></div></div>","3","1","Evan","10","Kept","0.2,0.8","9","0.2","trustrating_stim/white_mw053.bmp","5","7","2"
"html-keyboard-response","141","214017","0.0-19.0-2.1","6400dc45648545e7ca8f35a6","bdp_trlrn","Sat Apr 08 2023 11:47:06 GMT-0400 (Eastern Daylight Time)","467976","Untrustworthy,Trustworthy","","null","","","","decisionFB","","<div class='trialDiv'><img src='trustrating_stim/white_mw053.bmp'><br><font class='baseline'><strong>Evan</strong><p>Choose number of points to send.</font><div class='respPicDiv'><img src='img/responseButtonOffersNo0L3.png' class='respPic'></div></div>","null","1","Evan","10","Kept","0.2,0.8","9","0.2","trustrating_stim/white_mw053.bmp","5","4","2"
"html-keyboard-response","142","215023","0.0-19.0-3.1","6400dc45648545e7ca8f35a6","bdp_trlrn","Sat Apr 08 2023 11:47:06 GMT-0400 (Eastern Daylight Time)","467976","Untrustworthy,Trustworthy","","null","","","","feedback","","<div class='trialDiv'><img src='trustrating_stim/white_mw053.bmp'><br><font class='baseline'><strong>Evan</strong><p>Received: <strong>12</strong></font> &nbsp; &nbsp; &nbsp; &nbsp; &nbsp; &nbsp;<font class='negOutcome'>Shared back: <strong>0</strong></font></font><div class='respPicDiv'><img src='img/responseButtonOffersNo0_wht.png' class='respPic'></div></div>","null","1","Evan","10","Kept","0.2,0.8","9","0.2","trustrating_stim/white_mw053.bmp","5","4","2"
"html-keyboard-response","143","217158","0.0-19.0-1.2","6400dc45648545e7ca8f35a6","bdp_trlrn","Sat Apr 08 2023 11:47:06 GMT-0400 (Eastern Daylight Time)","467976","Untrustworthy,Trustworthy","","2134","","","","decision","","<div class='trialDiv'><img src='trustrating_stim/white_00109_931230_fa_edt.bmp'><br><font class='baseline'><strong>Michael</strong><p>Choose number of points to send.</font><div class='respPicDiv'><img src='img/responseButtonOffersNo0L.png' class='respPic'></div></div>","3","1","Michael","4","Shared","0.8,0.35","8","0.8","trustrating_stim/white_00109_931230_fa_edt.bmp","5","9","3"
"html-keyboard-response","144","217410","0.0-19.0-2.2","6400dc45648545e7ca8f35a6","bdp_trlrn","Sat Apr 08 2023 11:47:06 GMT-0400 (Eastern Daylight Time)","467976","Untrustworthy,Trustworthy","","null","","","","decisionFB","","<div class='trialDiv'><img src='trustrating_stim/white_00109_931230_fa_edt.bmp'><br><font class='baseline'><strong>Michael</strong><p>Choose number of points to send.</font><div class='respPicDiv'><img src='img/responseButtonOffersNo0L3.png' class='respPic'></div></div>","null","1","Michael","4","Shared","0.8,0.35","8","0.8","trustrating_stim/white_00109_931230_fa_edt.bmp","5","6","3"
"html-keyboard-response","145","218413","0.0-19.0-3.2","6400dc45648545e7ca8f35a6","bdp_trlrn","Sat Apr 08 2023 11:47:06 GMT-0400 (Eastern Daylight Time)","467976","Untrustworthy,Trustworthy","","null","","","","feedback","","<div class='trialDiv'><img src='trustrating_stim/white_00109_931230_fa_edt.bmp'><br><font class='baseline'><strong>Michael</strong><p>Received: <strong>12</strong></font> &nbsp; &nbsp; &nbsp; &nbsp; &nbsp; &nbsp;<font class='posOutcome'>Shared back: <strong>6</strong></font></font><div class='respPicDiv'><img src='img/responseButtonOffersNo0_wht.png' class='respPic'></div></div>","null","1","Michael","4","Shared","0.8,0.35","8","0.8","trustrating_stim/white_00109_931230_fa_edt.bmp","5","12","3"
"html-keyboard-response","146","228067","0.0-19.0-1.3","6400dc45648545e7ca8f35a6","bdp_trlrn","Sat Apr 08 2023 11:47:06 GMT-0400 (Eastern Daylight Time)","467976","Untrustworthy,Trustworthy","","9653","","","","decision","","<div class='trialDiv'><img src='trustrating_stim/white_mw097.bmp'><br><font class='baseline'><strong>Gavin</strong><p>Choose number of points to send.</font><div class='respPicDiv'><img src='img/responseButtonOffersNo0L.png' class='respPic'></div></div>","2","2","Gavin","1","Kept","0.35,0.8","10","0.35","trustrating_stim/white_mw097.bmp","5","17","4"
"html-keyboard-response","147","228318","0.0-19.0-2.3","6400dc45648545e7ca8f35a6","bdp_trlrn","Sat Apr 08 2023 11:47:06 GMT-0400 (Eastern Daylight Time)","467976","Untrustworthy,Trustworthy","","null","","","","decisionFB","","<div class='trialDiv'><img src='trustrating_stim/white_mw097.bmp'><br><font class='baseline'><strong>Gavin</strong><p>Choose number of points to send.</font><div class='respPicDiv'><img src='img/responseButtonOffersNo0L2.png' class='respPic'></div></div>","null","2","Gavin","1","Kept","0.35,0.8","10","0.35","trustrating_stim/white_mw097.bmp","5","15","4"
"html-keyboard-response","148","229319","0.0-19.0-3.3","6400dc45648545e7ca8f35a6","bdp_trlrn","Sat Apr 08 2023 11:47:06 GMT-0400 (Eastern Daylight Time)","467976","Untrustworthy,Trustworthy","","null","","","","feedback","","<div class='trialDiv'><img src='trustrating_stim/white_mw097.bmp'><br><font class='baseline'><strong>Gavin</strong><p>Received: <strong>8</strong></font> &nbsp; &nbsp; &nbsp; &nbsp; &nbsp; &nbsp;<font class='negOutcome'>Shared back: <strong>0</strong></font></font><div class='respPicDiv'><img src='img/responseButtonOffersNo0_wht.png' class='respPic'></div></div>","null","2","Gavin","1","Kept","0.35,0.8","10","0.35","trustrating_stim/white_mw097.bmp","5","15","4"
"html-keyboard-response","149","230920","0.0-19.0-1.4","6400dc45648545e7ca8f35a6","bdp_trlrn","Sat Apr 08 2023 11:47:06 GMT-0400 (Eastern Daylight Time)","467976","Untrustworthy,Trustworthy","","1600","","","","decision","","<div class='trialDiv'><img src='trustrating_stim/white_00109_931230_fa_edt.bmp'><br><font class='baseline'><strong>Michael</strong><p>Choose number of points to send.</font><div class='respPicDiv'><img src='img/responseButtonOffersNo0L.png' class='respPic'></div></div>","2","2","Michael","4","Kept","0.8,0.35","8","0.8","trustrating_stim/white_00109_931230_fa_edt.bmp","5","20","5"
"html-keyboard-response","150","231172","0.0-19.0-2.4","6400dc45648545e7ca8f35a6","bdp_trlrn","Sat Apr 08 2023 11:47:06 GMT-0400 (Eastern Daylight Time)","467976","Untrustworthy,Trustworthy","","null","","","","decisionFB","","<div class='trialDiv'><img src='trustrating_stim/white_00109_931230_fa_edt.bmp'><br><font class='baseline'><strong>Michael</strong><p>Choose number of points to send.</font><div class='respPicDiv'><img src='img/responseButtonOffersNo0L2.png' class='respPic'></div></div>","null","2","Michael","4","Kept","0.8,0.35","8","0.8","trustrating_stim/white_00109_931230_fa_edt.bmp","5","18","5"
"html-keyboard-response","151","232174","0.0-19.0-3.4","6400dc45648545e7ca8f35a6","bdp_trlrn","Sat Apr 08 2023 11:47:06 GMT-0400 (Eastern Daylight Time)","467976","Untrustworthy,Trustworthy","","null","","","","feedback","","<div class='trialDiv'><img src='trustrating_stim/white_00109_931230_fa_edt.bmp'><br><font class='baseline'><strong>Michael</strong><p>Received: <strong>8</strong></font> &nbsp; &nbsp; &nbsp; &nbsp; &nbsp; &nbsp;<font class='negOutcome'>Shared back: <strong>0</strong></font></font><div class='respPicDiv'><img src='img/responseButtonOffersNo0_wht.png' class='respPic'></div></div>","null","2","Michael","4","Kept","0.8,0.35","8","0.8","trustrating_stim/white_00109_931230_fa_edt.bmp","5","18","5"
"html-keyboard-response","152","234380","0.0-19.0-1.5","6400dc45648545e7ca8f35a6","bdp_trlrn","Sat Apr 08 2023 11:47:06 GMT-0400 (Eastern Daylight Time)","467976","Untrustworthy,Trustworthy","","2205","","","","decision","","<div class='trialDiv'><img src='trustrating_stim/white_mw053.bmp'><br><font class='baseline'><strong>Evan</strong><p>Choose number of points to send.</font><div class='respPicDiv'><img src='img/responseButtonOffersNo0L.png' class='respPic'></div></div>","4","2","Evan","10","Kept","0.2,0.8","9","0.2","trustrating_stim/white_mw053.bmp","5","23","6"
"html-keyboard-response","153","234632","0.0-19.0-2.5","6400dc45648545e7ca8f35a6","bdp_trlrn","Sat Apr 08 2023 11:47:06 GMT-0400 (Eastern Daylight Time)","467976","Untrustworthy,Trustworthy","","null","","","","decisionFB","","<div class='trialDiv'><img src='trustrating_stim/white_mw053.bmp'><br><font class='baseline'><strong>Evan</strong><p>Choose number of points to send.</font><div class='respPicDiv'><img src='img/responseButtonOffersNo0L4.png' class='respPic'></div></div>","null","2","Evan","10","Kept","0.2,0.8","9","0.2","trustrating_stim/white_mw053.bmp","5","19","6"
"html-keyboard-response","154","235634","0.0-19.0-3.5","6400dc45648545e7ca8f35a6","bdp_trlrn","Sat Apr 08 2023 11:47:06 GMT-0400 (Eastern Daylight Time)","467976","Untrustworthy,Trustworthy","","null","","","","feedback","","<div class='trialDiv'><img src='trustrating_stim/white_mw053.bmp'><br><font class='baseline'><strong>Evan</strong><p>Received: <strong>16</strong></font> &nbsp; &nbsp; &nbsp; &nbsp; &nbsp; &nbsp;<font class='negOutcome'>Shared back: <strong>0</strong></font></font><div class='respPicDiv'><img src='img/responseButtonOffersNo0_wht.png' class='respPic'></div></div>","null","2","Evan","10","Kept","0.2,0.8","9","0.2","trustrating_stim/white_mw053.bmp","5","19","6"
"html-keyboard-response","155","237014","0.0-19.0-1.6","6400dc45648545e7ca8f35a6","bdp_trlrn","Sat Apr 08 2023 11:47:06 GMT-0400 (Eastern Daylight Time)","467976","Untrustworthy,Trustworthy","","1379","","","","decision","","<div class='trialDiv'><img src='trustrating_stim/white_00109_931230_fa_edt.bmp'><br><font class='baseline'><strong>Michael</strong><p>Choose number of points to send.</font><div class='respPicDiv'><img src='img/responseButtonOffersNo0L.png' class='respPic'></div></div>","1","3","Michael","4","Shared","0.8,0.35","8","0.8","trustrating_stim/white_00109_931230_fa_edt.bmp","5","24","7"
"html-keyboard-response","156","237266","0.0-19.0-2.6","6400dc45648545e7ca8f35a6","bdp_trlrn","Sat Apr 08 2023 11:47:06 GMT-0400 (Eastern Daylight Time)","467976","Untrustworthy,Trustworthy","","null","","","","decisionFB","","<div class='trialDiv'><img src='trustrating_stim/white_00109_931230_fa_edt.bmp'><br><font class='baseline'><strong>Michael</strong><p>Choose number of points to send.</font><div class='respPicDiv'><img src='img/responseButtonOffersNo0L1.png' class='respPic'></div></div>","null","3","Michael","4","Shared","0.8,0.35","8","0.8","trustrating_stim/white_00109_931230_fa_edt.bmp","5","23","7"
"html-keyboard-response","157","238268","0.0-19.0-3.6","6400dc45648545e7ca8f35a6","bdp_trlrn","Sat Apr 08 2023 11:47:06 GMT-0400 (Eastern Daylight Time)","467976","Untrustworthy,Trustworthy","","null","","","","feedback","","<div class='trialDiv'><img src='trustrating_stim/white_00109_931230_fa_edt.bmp'><br><font class='baseline'><strong>Michael</strong><p>Received: <strong>4</strong></font> &nbsp; &nbsp; &nbsp; &nbsp; &nbsp; &nbsp;<font class='posOutcome'>Shared back: <strong>2</strong></font></font><div class='respPicDiv'><img src='img/responseButtonOffersNo0_wht.png' class='respPic'></div></div>","null","3","Michael","4","Shared","0.8,0.35","8","0.8","trustrating_stim/white_00109_931230_fa_edt.bmp","5","25","7"
"html-keyboard-response","158","240005","0.0-19.0-1.7","6400dc45648545e7ca8f35a6","bdp_trlrn","Sat Apr 08 2023 11:47:06 GMT-0400 (Eastern Daylight Time)","467976","Untrustworthy,Trustworthy","","1737","","","","decision","","<div class='trialDiv'><img src='trustrating_stim/white_mw053.bmp'><br><font class='baseline'><strong>Evan</strong><p>Choose number of points to send.</font><div class='respPicDiv'><img src='img/responseButtonOffersNo0L.png' class='respPic'></div></div>","3","3","Evan","10","Kept","0.2,0.8","9","0.2","trustrating_stim/white_mw053.bmp","5","30","8"
"html-keyboard-response","159","240257","0.0-19.0-2.7","6400dc45648545e7ca8f35a6","bdp_trlrn","Sat Apr 08 2023 11:47:06 GMT-0400 (Eastern Daylight Time)","467976","Untrustworthy,Trustworthy","","null","","","","decisionFB","","<div class='trialDiv'><img src='trustrating_stim/white_mw053.bmp'><br><font class='baseline'><strong>Evan</strong><p>Choose number of points to send.</font><div class='respPicDiv'><img src='img/responseButtonOffersNo0L3.png' class='respPic'></div></div>","null","3","Evan","10","Kept","0.2,0.8","9","0.2","trustrating_stim/white_mw053.bmp","5","27","8"
"html-keyboard-response","160","241259","0.0-19.0-3.7","6400dc45648545e7ca8f35a6","bdp_trlrn","Sat Apr 08 2023 11:47:06 GMT-0400 (Eastern Daylight Time)","467976","Untrustworthy,Trustworthy","","null","","","","feedback","","<div class='trialDiv'><img src='trustrating_stim/white_mw053.bmp'><br><font class='baseline'><strong>Evan</strong><p>Received: <strong>12</strong></font> &nbsp; &nbsp; &nbsp; &nbsp; &nbsp; &nbsp;<font class='negOutcome'>Shared back: <strong>0</strong></font></font><div class='respPicDiv'><img src='img/responseButtonOffersNo0_wht.png' class='respPic'></div></div>","null","3","Evan","10","Kept","0.2,0.8","9","0.2","trustrating_stim/white_mw053.bmp","5","27","8"
"html-keyboard-response","161","241964","0.0-19.0-1.8","6400dc45648545e7ca8f35a6","bdp_trlrn","Sat Apr 08 2023 11:47:06 GMT-0400 (Eastern Daylight Time)","467976","Untrustworthy,Trustworthy","","704","","","","decision","","<div class='trialDiv'><img src='trustrating_stim/white_mw097.bmp'><br><font class='baseline'><strong>Gavin</strong><p>Choose number of points to send.</font><div class='respPicDiv'><img src='img/responseButtonOffersNo0L.png' class='respPic'></div></div>","1","3","Gavin","1","Shared","0.35,0.8","10","0.35","trustrating_stim/white_mw097.bmp","5","32","9"
"html-keyboard-response","162","242217","0.0-19.0-2.8","6400dc45648545e7ca8f35a6","bdp_trlrn","Sat Apr 08 2023 11:47:06 GMT-0400 (Eastern Daylight Time)","467976","Untrustworthy,Trustworthy","","null","","","","decisionFB","","<div class='trialDiv'><img src='trustrating_stim/white_mw097.bmp'><br><font class='baseline'><strong>Gavin</strong><p>Choose number of points to send.</font><div class='respPicDiv'><img src='img/responseButtonOffersNo0L1.png' class='respPic'></div></div>","null","3","Gavin","1","Shared","0.35,0.8","10","0.35","trustrating_stim/white_mw097.bmp","5","31","9"
"html-keyboard-response","163","243218","0.0-19.0-3.8","6400dc45648545e7ca8f35a6","bdp_trlrn","Sat Apr 08 2023 11:47:06 GMT-0400 (Eastern Daylight Time)","467976","Untrustworthy,Trustworthy","","null","","","","feedback","","<div class='trialDiv'><img src='trustrating_stim/white_mw097.bmp'><br><font class='baseline'><strong>Gavin</strong><p>Received: <strong>4</strong></font> &nbsp; &nbsp; &nbsp; &nbsp; &nbsp; &nbsp;<font class='posOutcome'>Shared back: <strong>2</strong></font></font><div class='respPicDiv'><img src='img/responseButtonOffersNo0_wht.png' class='respPic'></div></div>","null","3","Gavin","1","Shared","0.35,0.8","10","0.35","trustrating_stim/white_mw097.bmp","5","33","9"
"html-keyboard-response","164","243886","0.0-19.0-1.9","6400dc45648545e7ca8f35a6","bdp_trlrn","Sat Apr 08 2023 11:47:06 GMT-0400 (Eastern Daylight Time)","467976","Untrustworthy,Trustworthy","","668","","","","decision","","<div class='trialDiv'><img src='trustrating_stim/white_00109_931230_fa_edt.bmp'><br><font class='baseline'><strong>Michael</strong><p>Choose number of points to send.</font><div class='respPicDiv'><img src='img/responseButtonOffersNo0L.png' class='respPic'></div></div>","1","4","Michael","4","Shared","0.8,0.35","8","0.8","trustrating_stim/white_00109_931230_fa_edt.bmp","5","38","10"
"html-keyboard-response","165","244138","0.0-19.0-2.9","6400dc45648545e7ca8f35a6","bdp_trlrn","Sat Apr 08 2023 11:47:06 GMT-0400 (Eastern Daylight Time)","467976","Untrustworthy,Trustworthy","","null","","","","decisionFB","","<div class='trialDiv'><img src='trustrating_stim/white_00109_931230_fa_edt.bmp'><br><font class='baseline'><strong>Michael</strong><p>Choose number of points to send.</font><div class='respPicDiv'><img src='img/responseButtonOffersNo0L1.png' class='respPic'></div></div>","null","4","Michael","4","Shared","0.8,0.35","8","0.8","trustrating_stim/white_00109_931230_fa_edt.bmp","5","37","10"
"html-keyboard-response","166","245139","0.0-19.0-3.9","6400dc45648545e7ca8f35a6","bdp_trlrn","Sat Apr 08 2023 11:47:06 GMT-0400 (Eastern Daylight Time)","467976","Untrustworthy,Trustworthy","","null","","","","feedback","","<div class='trialDiv'><img src='trustrating_stim/white_00109_931230_fa_edt.bmp'><br><font class='baseline'><strong>Michael</strong><p>Received: <strong>4</strong></font> &nbsp; &nbsp; &nbsp; &nbsp; &nbsp; &nbsp;<font class='posOutcome'>Shared back: <strong>2</strong></font></font><div class='respPicDiv'><img src='img/responseButtonOffersNo0_wht.png' class='respPic'></div></div>","null","4","Michael","4","Shared","0.8,0.35","8","0.8","trustrating_stim/white_00109_931230_fa_edt.bmp","5","39","10"
"html-keyboard-response","167","245868","0.0-19.0-1.10","6400dc45648545e7ca8f35a6","bdp_trlrn","Sat Apr 08 2023 11:47:06 GMT-0400 (Eastern Daylight Time)","467976","Untrustworthy,Trustworthy","","728","","","","decision","","<div class='trialDiv'><img src='trustrating_stim/white_mw053.bmp'><br><font class='baseline'><strong>Evan</strong><p>Choose number of points to send.</font><div class='respPicDiv'><img src='img/responseButtonOffersNo0L.png' class='respPic'></div></div>","1","4","Evan","10","Kept","0.2,0.8","9","0.2","trustrating_stim/white_mw053.bmp","5","44","11"
"html-keyboard-response","168","246120","0.0-19.0-2.10","6400dc45648545e7ca8f35a6","bdp_trlrn","Sat Apr 08 2023 11:47:06 GMT-0400 (Eastern Daylight Time)","467976","Untrustworthy,Trustworthy","","null","","","","decisionFB","","<div class='trialDiv'><img src='trustrating_stim/white_mw053.bmp'><br><font class='baseline'><strong>Evan</strong><p>Choose number of points to send.</font><div class='respPicDiv'><img src='img/responseButtonOffersNo0L1.png' class='respPic'></div></div>","null","4","Evan","10","Kept","0.2,0.8","9","0.2","trustrating_stim/white_mw053.bmp","5","43","11"
"html-keyboard-response","169","247121","0.0-19.0-3.10","6400dc45648545e7ca8f35a6","bdp_trlrn","Sat Apr 08 2023 11:47:06 GMT-0400 (Eastern Daylight Time)","467976","Untrustworthy,Trustworthy","","null","","","","feedback","","<div class='trialDiv'><img src='trustrating_stim/white_mw053.bmp'><br><font class='baseline'><strong>Evan</strong><p>Received: <strong>4</strong></font> &nbsp; &nbsp; &nbsp; &nbsp; &nbsp; &nbsp;<font class='negOutcome'>Shared back: <strong>0</strong></font></font><div class='respPicDiv'><img src='img/responseButtonOffersNo0_wht.png' class='respPic'></div></div>","null","4","Evan","10","Kept","0.2,0.8","9","0.2","trustrating_stim/white_mw053.bmp","5","43","11"
"html-keyboard-response","170","247961","0.0-19.0-1.11","6400dc45648545e7ca8f35a6","bdp_trlrn","Sat Apr 08 2023 11:47:06 GMT-0400 (Eastern Daylight Time)","467976","Untrustworthy,Trustworthy","","838","","","","decision","","<div class='trialDiv'><img src='trustrating_stim/white_mw097.bmp'><br><font class='baseline'><strong>Gavin</strong><p>Choose number of points to send.</font><div class='respPicDiv'><img src='img/responseButtonOffersNo0L.png' class='respPic'></div></div>","1","4","Gavin","1","Kept","0.35,0.8","10","0.35","trustrating_stim/white_mw097.bmp","5","48","12"
"html-keyboard-response","171","248212","0.0-19.0-2.11","6400dc45648545e7ca8f35a6","bdp_trlrn","Sat Apr 08 2023 11:47:06 GMT-0400 (Eastern Daylight Time)","467976","Untrustworthy,Trustworthy","","null","","","","decisionFB","","<div class='trialDiv'><img src='trustrating_stim/white_mw097.bmp'><br><font class='baseline'><strong>Gavin</strong><p>Choose number of points to send.</font><div class='respPicDiv'><img src='img/responseButtonOffersNo0L1.png' class='respPic'></div></div>","null","4","Gavin","1","Kept","0.35,0.8","10","0.35","trustrating_stim/white_mw097.bmp","5","47","12"
"html-keyboard-response","172","249213","0.0-19.0-3.11","6400dc45648545e7ca8f35a6","bdp_trlrn","Sat Apr 08 2023 11:47:06 GMT-0400 (Eastern Daylight Time)","467976","Untrustworthy,Trustworthy","","null","","","","feedback","","<div class='trialDiv'><img src='trustrating_stim/white_mw097.bmp'><br><font class='baseline'><strong>Gavin</strong><p>Received: <strong>4</strong></font> &nbsp; &nbsp; &nbsp; &nbsp; &nbsp; &nbsp;<font class='negOutcome'>Shared back: <strong>0</strong></font></font><div class='respPicDiv'><img src='img/responseButtonOffersNo0_wht.png' class='respPic'></div></div>","null","4","Gavin","1","Kept","0.35,0.8","10","0.35","trustrating_stim/white_mw097.bmp","5","47","12"
"html-keyboard-response","173","250971","0.0-19.0-1.12","6400dc45648545e7ca8f35a6","bdp_trlrn","Sat Apr 08 2023 11:47:06 GMT-0400 (Eastern Daylight Time)","467976","Untrustworthy,Trustworthy","","1758","","","","decision","","<div class='trialDiv'><img src='trustrating_stim/white_00109_931230_fa_edt.bmp'><br><font class='baseline'><strong>Michael</strong><p>Choose number of points to send.</font><div class='respPicDiv'><img src='img/responseButtonOffersNo0L.png' class='respPic'></div></div>","1","5","Michael","4","Shared","0.8,0.35","8","0.8","trustrating_stim/white_00109_931230_fa_edt.bmp","5","52","13"
"html-keyboard-response","174","251226","0.0-19.0-2.12","6400dc45648545e7ca8f35a6","bdp_trlrn","Sat Apr 08 2023 11:47:06 GMT-0400 (Eastern Daylight Time)","467976","Untrustworthy,Trustworthy","","null","","","","decisionFB","","<div class='trialDiv'><img src='trustrating_stim/white_00109_931230_fa_edt.bmp'><br><font class='baseline'><strong>Michael</strong><p>Choose number of points to send.</font><div class='respPicDiv'><img src='img/responseButtonOffersNo0L1.png' class='respPic'></div></div>","null","5","Michael","4","Shared","0.8,0.35","8","0.8","trustrating_stim/white_00109_931230_fa_edt.bmp","5","51","13"
"html-keyboard-response","175","252227","0.0-19.0-3.12","6400dc45648545e7ca8f35a6","bdp_trlrn","Sat Apr 08 2023 11:47:06 GMT-0400 (Eastern Daylight Time)","467976","Untrustworthy,Trustworthy","","null","","","","feedback","","<div class='trialDiv'><img src='trustrating_stim/white_00109_931230_fa_edt.bmp'><br><font class='baseline'><strong>Michael</strong><p>Received: <strong>4</strong></font> &nbsp; &nbsp; &nbsp; &nbsp; &nbsp; &nbsp;<font class='posOutcome'>Shared back: <strong>2</strong></font></font><div class='respPicDiv'><img src='img/responseButtonOffersNo0_wht.png' class='respPic'></div></div>","null","5","Michael","4","Shared","0.8,0.35","8","0.8","trustrating_stim/white_00109_931230_fa_edt.bmp","5","53","13"
"html-keyboard-response","176","253324","0.0-19.0-1.13","6400dc45648545e7ca8f35a6","bdp_trlrn","Sat Apr 08 2023 11:47:06 GMT-0400 (Eastern Daylight Time)","467976","Untrustworthy,Trustworthy","","1097","","","","decision","","<div class='trialDiv'><img src='trustrating_stim/white_mw053.bmp'><br><font class='baseline'><strong>Evan</strong><p>Choose number of points to send.</font><div class='respPicDiv'><img src='img/responseButtonOffersNo0L.png' class='respPic'></div></div>","2","5","Evan","10","Shared","0.2,0.8","9","0.2","trustrating_stim/white_mw053.bmp","5","58","14"
"html-keyboard-response","177","253576","0.0-19.0-2.13","6400dc45648545e7ca8f35a6","bdp_trlrn","Sat Apr 08 2023 11:47:06 GMT-0400 (Eastern Daylight Time)","467976","Untrustworthy,Trustworthy","","null","","","","decisionFB","","<div class='trialDiv'><img src='trustrating_stim/white_mw053.bmp'><br><font class='baseline'><strong>Evan</strong><p>Choose number of points to send.</font><div class='respPicDiv'><img src='img/responseButtonOffersNo0L2.png' class='respPic'></div></div>","null","5","Evan","10","Shared","0.2,0.8","9","0.2","trustrating_stim/white_mw053.bmp","5","56","14"
"html-keyboard-response","178","254579","0.0-19.0-3.13","6400dc45648545e7ca8f35a6","bdp_trlrn","Sat Apr 08 2023 11:47:06 GMT-0400 (Eastern Daylight Time)","467976","Untrustworthy,Trustworthy","","null","","","","feedback","","<div class='trialDiv'><img src='trustrating_stim/white_mw053.bmp'><br><font class='baseline'><strong>Evan</strong><p>Received: <strong>8</strong></font> &nbsp; &nbsp; &nbsp; &nbsp; &nbsp; &nbsp;<font class='posOutcome'>Shared back: <strong>4</strong></font></font><div class='respPicDiv'><img src='img/responseButtonOffersNo0_wht.png' class='respPic'></div></div>","null","5","Evan","10","Shared","0.2,0.8","9","0.2","trustrating_stim/white_mw053.bmp","5","60","14"
"html-keyboard-response","179","255432","0.0-19.0-1.14","6400dc45648545e7ca8f35a6","bdp_trlrn","Sat Apr 08 2023 11:47:06 GMT-0400 (Eastern Daylight Time)","467976","Untrustworthy,Trustworthy","","853","","","","decision","","<div class='trialDiv'><img src='trustrating_stim/white_mw097.bmp'><br><font class='baseline'><strong>Gavin</strong><p>Choose number of points to send.</font><div class='respPicDiv'><img src='img/responseButtonOffersNo0L.png' class='respPic'></div></div>","1","5","Gavin","1","Kept","0.35,0.8","10","0.35","trustrating_stim/white_mw097.bmp","5","65","15"
"html-keyboard-response","180","255684","0.0-19.0-2.14","6400dc45648545e7ca8f35a6","bdp_trlrn","Sat Apr 08 2023 11:47:06 GMT-0400 (Eastern Daylight Time)","467976","Untrustworthy,Trustworthy","","null","","","","decisionFB","","<div class='trialDiv'><img src='trustrating_stim/white_mw097.bmp'><br><font class='baseline'><strong>Gavin</strong><p>Choose number of points to send.</font><div class='respPicDiv'><img src='img/responseButtonOffersNo0L1.png' class='respPic'></div></div>","null","5","Gavin","1","Kept","0.35,0.8","10","0.35","trustrating_stim/white_mw097.bmp","5","64","15"
"html-keyboard-response","181","256685","0.0-19.0-3.14","6400dc45648545e7ca8f35a6","bdp_trlrn","Sat Apr 08 2023 11:47:06 GMT-0400 (Eastern Daylight Time)","467976","Untrustworthy,Trustworthy","","null","","","","feedback","","<div class='trialDiv'><img src='trustrating_stim/white_mw097.bmp'><br><font class='baseline'><strong>Gavin</strong><p>Received: <strong>4</strong></font> &nbsp; &nbsp; &nbsp; &nbsp; &nbsp; &nbsp;<font class='negOutcome'>Shared back: <strong>0</strong></font></font><div class='respPicDiv'><img src='img/responseButtonOffersNo0_wht.png' class='respPic'></div></div>","null","5","Gavin","1","Kept","0.35,0.8","10","0.35","trustrating_stim/white_mw097.bmp","5","64","15"
"html-keyboard-response","182","257644","0.0-19.0-1.15","6400dc45648545e7ca8f35a6","bdp_trlrn","Sat Apr 08 2023 11:47:06 GMT-0400 (Eastern Daylight Time)","467976","Untrustworthy,Trustworthy","","958","","","","decision","","<div class='trialDiv'><img src='trustrating_stim/white_00109_931230_fa_edt.bmp'><br><font class='baseline'><strong>Michael</strong><p>Choose number of points to send.</font><div class='respPicDiv'><img src='img/responseButtonOffersNo0L.png' class='respPic'></div></div>","1","6","Michael","4","Kept","0.8,0.35","8","0.8","trustrating_stim/white_00109_931230_fa_edt.bmp","5","69","16"
"html-keyboard-response","183","257896","0.0-19.0-2.15","6400dc45648545e7ca8f35a6","bdp_trlrn","Sat Apr 08 2023 11:47:06 GMT-0400 (Eastern Daylight Time)","467976","Untrustworthy,Trustworthy","","null","","","","decisionFB","","<div class='trialDiv'><img src='trustrating_stim/white_00109_931230_fa_edt.bmp'><br><font class='baseline'><strong>Michael</strong><p>Choose number of points to send.</font><div class='respPicDiv'><img src='img/responseButtonOffersNo0L1.png' class='respPic'></div></div>","null","6","Michael","4","Kept","0.8,0.35","8","0.8","trustrating_stim/white_00109_931230_fa_edt.bmp","5","68","16"
"html-keyboard-response","184","258899","0.0-19.0-3.15","6400dc45648545e7ca8f35a6","bdp_trlrn","Sat Apr 08 2023 11:47:06 GMT-0400 (Eastern Daylight Time)","467976","Untrustworthy,Trustworthy","","null","","","","feedback","","<div class='trialDiv'><img src='trustrating_stim/white_00109_931230_fa_edt.bmp'><br><font class='baseline'><strong>Michael</strong><p>Received: <strong>4</strong></font> &nbsp; &nbsp; &nbsp; &nbsp; &nbsp; &nbsp;<font class='negOutcome'>Shared back: <strong>0</strong></font></font><div class='respPicDiv'><img src='img/responseButtonOffersNo0_wht.png' class='respPic'></div></div>","null","6","Michael","4","Kept","0.8,0.35","8","0.8","trustrating_stim/white_00109_931230_fa_edt.bmp","5","68","16"
"html-keyboard-response","185","259700","0.0-19.0-1.16","6400dc45648545e7ca8f35a6","bdp_trlrn","Sat Apr 08 2023 11:47:06 GMT-0400 (Eastern Daylight Time)","467976","Untrustworthy,Trustworthy","","801","","","","decision","","<div class='trialDiv'><img src='trustrating_stim/white_mw097.bmp'><br><font class='baseline'><strong>Gavin</strong><p>Choose number of points to send.</font><div class='respPicDiv'><img src='img/responseButtonOffersNo0L.png' class='respPic'></div></div>","1","6","Gavin","1","Kept","0.35,0.8","10","0.35","trustrating_stim/white_mw097.bmp","5","73","17"
"html-keyboard-response","186","259952","0.0-19.0-2.16","6400dc45648545e7ca8f35a6","bdp_trlrn","Sat Apr 08 2023 11:47:06 GMT-0400 (Eastern Daylight Time)","467976","Untrustworthy,Trustworthy","","null","","","","decisionFB","","<div class='trialDiv'><img src='trustrating_stim/white_mw097.bmp'><br><font class='baseline'><strong>Gavin</strong><p>Choose number of points to send.</font><div class='respPicDiv'><img src='img/responseButtonOffersNo0L1.png' class='respPic'></div></div>","null","6","Gavin","1","Kept","0.35,0.8","10","0.35","trustrating_stim/white_mw097.bmp","5","72","17"
"html-keyboard-response","187","260953","0.0-19.0-3.16","6400dc45648545e7ca8f35a6","bdp_trlrn","Sat Apr 08 2023 11:47:06 GMT-0400 (Eastern Daylight Time)","467976","Untrustworthy,Trustworthy","","null","","","","feedback","","<div class='trialDiv'><img src='trustrating_stim/white_mw097.bmp'><br><font class='baseline'><strong>Gavin</strong><p>Received: <strong>4</strong></font> &nbsp; &nbsp; &nbsp; &nbsp; &nbsp; &nbsp;<font class='negOutcome'>Shared back: <strong>0</strong></font></font><div class='respPicDiv'><img src='img/responseButtonOffersNo0_wht.png' class='respPic'></div></div>","null","6","Gavin","1","Kept","0.35,0.8","10","0.35","trustrating_stim/white_mw097.bmp","5","72","17"
"html-keyboard-response","188","263219","0.0-19.0-1.17","6400dc45648545e7ca8f35a6","bdp_trlrn","Sat Apr 08 2023 11:47:06 GMT-0400 (Eastern Daylight Time)","467976","Untrustworthy,Trustworthy","","2265","","","","decision","","<div class='trialDiv'><img src='trustrating_stim/white_mw053.bmp'><br><font class='baseline'><strong>Evan</strong><p>Choose number of points to send.</font><div class='respPicDiv'><img src='img/responseButtonOffersNo0L.png' class='respPic'></div></div>","2","6","Evan","10","Kept","0.2,0.8","9","0.2","trustrating_stim/white_mw053.bmp","5","77","18"
"html-keyboard-response","189","263470","0.0-19.0-2.17","6400dc45648545e7ca8f35a6","bdp_trlrn","Sat Apr 08 2023 11:47:06 GMT-0400 (Eastern Daylight Time)","467976","Untrustworthy,Trustworthy","","null","","","","decisionFB","","<div class='trialDiv'><img src='trustrating_stim/white_mw053.bmp'><br><font class='baseline'><strong>Evan</strong><p>Choose number of points to send.</font><div class='respPicDiv'><img src='img/responseButtonOffersNo0L2.png' class='respPic'></div></div>","null","6","Evan","10","Kept","0.2,0.8","9","0.2","trustrating_stim/white_mw053.bmp","5","75","18"
"html-keyboard-response","190","264472","0.0-19.0-3.17","6400dc45648545e7ca8f35a6","bdp_trlrn","Sat Apr 08 2023 11:47:06 GMT-0400 (Eastern Daylight Time)","467976","Untrustworthy,Trustworthy","","null","","","","feedback","","<div class='trialDiv'><img src='trustrating_stim/white_mw053.bmp'><br><font class='baseline'><strong>Evan</strong><p>Received: <strong>8</strong></font> &nbsp; &nbsp; &nbsp; &nbsp; &nbsp; &nbsp;<font class='negOutcome'>Shared back: <strong>0</strong></font></font><div class='respPicDiv'><img src='img/responseButtonOffersNo0_wht.png' class='respPic'></div></div>","null","6","Evan","10","Kept","0.2,0.8","9","0.2","trustrating_stim/white_mw053.bmp","5","75","18"
"html-keyboard-response","191","264980","0.0-19.0-1.18","6400dc45648545e7ca8f35a6","bdp_trlrn","Sat Apr 08 2023 11:47:06 GMT-0400 (Eastern Daylight Time)","467976","Untrustworthy,Trustworthy","","507","","","","decision","","<div class='trialDiv'><img src='trustrating_stim/white_mw097.bmp'><br><font class='baseline'><strong>Gavin</strong><p>Choose number of points to send.</font><div class='respPicDiv'><img src='img/responseButtonOffersNo0L.png' class='respPic'></div></div>","1","7","Gavin","1","Kept","0.35,0.8","10","0.35","trustrating_stim/white_mw097.bmp","5","80","19"
"html-keyboard-response","192","265232","0.0-19.0-2.18","6400dc45648545e7ca8f35a6","bdp_trlrn","Sat Apr 08 2023 11:47:06 GMT-0400 (Eastern Daylight Time)","467976","Untrustworthy,Trustworthy","","null","","","","decisionFB","","<div class='trialDiv'><img src='trustrating_stim/white_mw097.bmp'><br><font class='baseline'><strong>Gavin</strong><p>Choose number of points to send.</font><div class='respPicDiv'><img src='img/responseButtonOffersNo0L1.png' class='respPic'></div></div>","null","7","Gavin","1","Kept","0.35,0.8","10","0.35","trustrating_stim/white_mw097.bmp","5","79","19"
"html-keyboard-response","193","266233","0.0-19.0-3.18","6400dc45648545e7ca8f35a6","bdp_trlrn","Sat Apr 08 2023 11:47:06 GMT-0400 (Eastern Daylight Time)","467976","Untrustworthy,Trustworthy","","null","","","","feedback","","<div class='trialDiv'><img src='trustrating_stim/white_mw097.bmp'><br><font class='baseline'><strong>Gavin</strong><p>Received: <strong>4</strong></font> &nbsp; &nbsp; &nbsp; &nbsp; &nbsp; &nbsp;<font class='negOutcome'>Shared back: <strong>0</strong></font></font><div class='respPicDiv'><img src='img/responseButtonOffersNo0_wht.png' class='respPic'></div></div>","null","7","Gavin","1","Kept","0.35,0.8","10","0.35","trustrating_stim/white_mw097.bmp","5","79","19"
"html-keyboard-response","194","266802","0.0-19.0-1.19","6400dc45648545e7ca8f35a6","bdp_trlrn","Sat Apr 08 2023 11:47:06 GMT-0400 (Eastern Daylight Time)","467976","Untrustworthy,Trustworthy","","568","","","","decision","","<div class='trialDiv'><img src='trustrating_stim/white_00109_931230_fa_edt.bmp'><br><font class='baseline'><strong>Michael</strong><p>Choose number of points to send.</font><div class='respPicDiv'><img src='img/responseButtonOffersNo0L.png' class='respPic'></div></div>","1","7","Michael","4","Shared","0.8,0.35","8","0.8","trustrating_stim/white_00109_931230_fa_edt.bmp","5","84","20"
"html-keyboard-response","195","267054","0.0-19.0-2.19","6400dc45648545e7ca8f35a6","bdp_trlrn","Sat Apr 08 2023 11:47:06 GMT-0400 (Eastern Daylight Time)","467976","Untrustworthy,Trustworthy","","null","","","","decisionFB","","<div class='trialDiv'><img src='trustrating_stim/white_00109_931230_fa_edt.bmp'><br><font class='baseline'><strong>Michael</strong><p>Choose number of points to send.</font><div class='respPicDiv'><img src='img/responseButtonOffersNo0L1.png' class='respPic'></div></div>","null","7","Michael","4","Shared","0.8,0.35","8","0.8","trustrating_stim/white_00109_931230_fa_edt.bmp","5","83","20"
"html-keyboard-response","196","268055","0.0-19.0-3.19","6400dc45648545e7ca8f35a6","bdp_trlrn","Sat Apr 08 2023 11:47:06 GMT-0400 (Eastern Daylight Time)","467976","Untrustworthy,Trustworthy","","null","","","","feedback","","<div class='trialDiv'><img src='trustrating_stim/white_00109_931230_fa_edt.bmp'><br><font class='baseline'><strong>Michael</strong><p>Received: <strong>4</strong></font> &nbsp; &nbsp; &nbsp; &nbsp; &nbsp; &nbsp;<font class='posOutcome'>Shared back: <strong>2</strong></font></font><div class='respPicDiv'><img src='img/responseButtonOffersNo0_wht.png' class='respPic'></div></div>","null","7","Michael","4","Shared","0.8,0.35","8","0.8","trustrating_stim/white_00109_931230_fa_edt.bmp","5","85","20"
"html-keyboard-response","197","269548","0.0-19.0-1.20","6400dc45648545e7ca8f35a6","bdp_trlrn","Sat Apr 08 2023 11:47:06 GMT-0400 (Eastern Daylight Time)","467976","Untrustworthy,Trustworthy","","1492","","","","decision","","<div class='trialDiv'><img src='trustrating_stim/white_mw053.bmp'><br><font class='baseline'><strong>Evan</strong><p>Choose number of points to send.</font><div class='respPicDiv'><img src='img/responseButtonOffersNo0L.png' class='respPic'></div></div>","1","7","Evan","10","Shared","0.2,0.8","9","0.2","trustrating_stim/white_mw053.bmp","5","90","21"
"html-keyboard-response","198","269799","0.0-19.0-2.20","6400dc45648545e7ca8f35a6","bdp_trlrn","Sat Apr 08 2023 11:47:06 GMT-0400 (Eastern Daylight Time)","467976","Untrustworthy,Trustworthy","","null","","","","decisionFB","","<div class='trialDiv'><img src='trustrating_stim/white_mw053.bmp'><br><font class='baseline'><strong>Evan</strong><p>Choose number of points to send.</font><div class='respPicDiv'><img src='img/responseButtonOffersNo0L1.png' class='respPic'></div></div>","null","7","Evan","10","Shared","0.2,0.8","9","0.2","trustrating_stim/white_mw053.bmp","5","89","21"
"html-keyboard-response","199","270802","0.0-19.0-3.20","6400dc45648545e7ca8f35a6","bdp_trlrn","Sat Apr 08 2023 11:47:06 GMT-0400 (Eastern Daylight Time)","467976","Untrustworthy,Trustworthy","","null","","","","feedback","","<div class='trialDiv'><img src='trustrating_stim/white_mw053.bmp'><br><font class='baseline'><strong>Evan</strong><p>Received: <strong>4</strong></font> &nbsp; &nbsp; &nbsp; &nbsp; &nbsp; &nbsp;<font class='posOutcome'>Shared back: <strong>2</strong></font></font><div class='respPicDiv'><img src='img/responseButtonOffersNo0_wht.png' class='respPic'></div></div>","null","7","Evan","10","Shared","0.2,0.8","9","0.2","trustrating_stim/white_mw053.bmp","5","91","21"
"html-keyboard-response","200","271191","0.0-19.0-1.21","6400dc45648545e7ca8f35a6","bdp_trlrn","Sat Apr 08 2023 11:47:06 GMT-0400 (Eastern Daylight Time)","467976","Untrustworthy,Trustworthy","","389","","","","decision","","<div class='trialDiv'><img src='trustrating_stim/white_mw097.bmp'><br><font class='baseline'><strong>Gavin</strong><p>Choose number of points to send.</font><div class='respPicDiv'><img src='img/responseButtonOffersNo0L.png' class='respPic'></div></div>","1","8","Gavin","1","Kept","0.35,0.8","10","0.35","trustrating_stim/white_mw097.bmp","5","96","22"
"html-keyboard-response","201","271442","0.0-19.0-2.21","6400dc45648545e7ca8f35a6","bdp_trlrn","Sat Apr 08 2023 11:47:06 GMT-0400 (Eastern Daylight Time)","467976","Untrustworthy,Trustworthy","","null","","","","decisionFB","","<div class='trialDiv'><img src='trustrating_stim/white_mw097.bmp'><br><font class='baseline'><strong>Gavin</strong><p>Choose number of points to send.</font><div class='respPicDiv'><img src='img/responseButtonOffersNo0L1.png' class='respPic'></div></div>","null","8","Gavin","1","Kept","0.35,0.8","10","0.35","trustrating_stim/white_mw097.bmp","5","95","22"
"html-keyboard-response","202","272444","0.0-19.0-3.21","6400dc45648545e7ca8f35a6","bdp_trlrn","Sat Apr 08 2023 11:47:06 GMT-0400 (Eastern Daylight Time)","467976","Untrustworthy,Trustworthy","","null","","","","feedback","","<div class='trialDiv'><img src='trustrating_stim/white_mw097.bmp'><br><font class='baseline'><strong>Gavin</strong><p>Received: <strong>4</strong></font> &nbsp; &nbsp; &nbsp; &nbsp; &nbsp; &nbsp;<font class='negOutcome'>Shared back: <strong>0</strong></font></font><div class='respPicDiv'><img src='img/responseButtonOffersNo0_wht.png' class='respPic'></div></div>","null","8","Gavin","1","Kept","0.35,0.8","10","0.35","trustrating_stim/white_mw097.bmp","5","95","22"
"html-keyboard-response","203","273193","0.0-19.0-1.22","6400dc45648545e7ca8f35a6","bdp_trlrn","Sat Apr 08 2023 11:47:06 GMT-0400 (Eastern Daylight Time)","467976","Untrustworthy,Trustworthy","","749","","","","decision","","<div class='trialDiv'><img src='trustrating_stim/white_mw053.bmp'><br><font class='baseline'><strong>Evan</strong><p>Choose number of points to send.</font><div class='respPicDiv'><img src='img/responseButtonOffersNo0L.png' class='respPic'></div></div>","1","8","Evan","10","Kept","0.2,0.8","9","0.2","trustrating_stim/white_mw053.bmp","5","100","23"
"html-keyboard-response","204","273445","0.0-19.0-2.22","6400dc45648545e7ca8f35a6","bdp_trlrn","Sat Apr 08 2023 11:47:06 GMT-0400 (Eastern Daylight Time)","467976","Untrustworthy,Trustworthy","","null","","","","decisionFB","","<div class='trialDiv'><img src='trustrating_stim/white_mw053.bmp'><br><font class='baseline'><strong>Evan</strong><p>Choose number of points to send.</font><div class='respPicDiv'><img src='img/responseButtonOffersNo0L1.png' class='respPic'></div></div>","null","8","Evan","10","Kept","0.2,0.8","9","0.2","trustrating_stim/white_mw053.bmp","5","99","23"
"html-keyboard-response","205","274446","0.0-19.0-3.22","6400dc45648545e7ca8f35a6","bdp_trlrn","Sat Apr 08 2023 11:47:06 GMT-0400 (Eastern Daylight Time)","467976","Untrustworthy,Trustworthy","","null","","","","feedback","","<div class='trialDiv'><img src='trustrating_stim/white_mw053.bmp'><br><font class='baseline'><strong>Evan</strong><p>Received: <strong>4</strong></font> &nbsp; &nbsp; &nbsp; &nbsp; &nbsp; &nbsp;<font class='negOutcome'>Shared back: <strong>0</strong></font></font><div class='respPicDiv'><img src='img/responseButtonOffersNo0_wht.png' class='respPic'></div></div>","null","8","Evan","10","Kept","0.2,0.8","9","0.2","trustrating_stim/white_mw053.bmp","5","99","23"
"html-keyboard-response","206","274903","0.0-19.0-1.23","6400dc45648545e7ca8f35a6","bdp_trlrn","Sat Apr 08 2023 11:47:06 GMT-0400 (Eastern Daylight Time)","467976","Untrustworthy,Trustworthy","","457","","","","decision","","<div class='trialDiv'><img src='trustrating_stim/white_00109_931230_fa_edt.bmp'><br><font class='baseline'><strong>Michael</strong><p>Choose number of points to send.</font><div class='respPicDiv'><img src='img/responseButtonOffersNo0L.png' class='respPic'></div></div>","1","8","Michael","4","Shared","0.8,0.35","8","0.8","trustrating_stim/white_00109_931230_fa_edt.bmp","5","104","24"
"html-keyboard-response","207","275155","0.0-19.0-2.23","6400dc45648545e7ca8f35a6","bdp_trlrn","Sat Apr 08 2023 11:47:06 GMT-0400 (Eastern Daylight Time)","467976","Untrustworthy,Trustworthy","","null","","","","decisionFB","","<div class='trialDiv'><img src='trustrating_stim/white_00109_931230_fa_edt.bmp'><br><font class='baseline'><strong>Michael</strong><p>Choose number of points to send.</font><div class='respPicDiv'><img src='img/responseButtonOffersNo0L1.png' class='respPic'></div></div>","null","8","Michael","4","Shared","0.8,0.35","8","0.8","trustrating_stim/white_00109_931230_fa_edt.bmp","5","103","24"
"html-keyboard-response","208","276157","0.0-19.0-3.23","6400dc45648545e7ca8f35a6","bdp_trlrn","Sat Apr 08 2023 11:47:06 GMT-0400 (Eastern Daylight Time)","467976","Untrustworthy,Trustworthy","","null","","","","feedback","","<div class='trialDiv'><img src='trustrating_stim/white_00109_931230_fa_edt.bmp'><br><font class='baseline'><strong>Michael</strong><p>Received: <strong>4</strong></font> &nbsp; &nbsp; &nbsp; &nbsp; &nbsp; &nbsp;<font class='posOutcome'>Shared back: <strong>2</strong></font></font><div class='respPicDiv'><img src='img/responseButtonOffersNo0_wht.png' class='respPic'></div></div>","null","8","Michael","4","Shared","0.8,0.35","8","0.8","trustrating_stim/white_00109_931230_fa_edt.bmp","5","105","24"
"html-keyboard-response","209","277469","0.0-19.0-1.24","6400dc45648545e7ca8f35a6","bdp_trlrn","Sat Apr 08 2023 11:47:06 GMT-0400 (Eastern Daylight Time)","467976","Untrustworthy,Trustworthy","","1311","","","","decision","","<div class='trialDiv'><img src='trustrating_stim/white_mw097.bmp'><br><font class='baseline'><strong>Gavin</strong><p>Choose number of points to send.</font><div class='respPicDiv'><img src='img/responseButtonOffersNo0L.png' class='respPic'></div></div>","1","9","Gavin","1","Kept","0.35,0.8","10","0.35","trustrating_stim/white_mw097.bmp","5","110","25"
"html-keyboard-response","210","277720","0.0-19.0-2.24","6400dc45648545e7ca8f35a6","bdp_trlrn","Sat Apr 08 2023 11:47:06 GMT-0400 (Eastern Daylight Time)","467976","Untrustworthy,Trustworthy","","null","","","","decisionFB","","<div class='trialDiv'><img src='trustrating_stim/white_mw097.bmp'><br><font class='baseline'><strong>Gavin</strong><p>Choose number of points to send.</font><div class='respPicDiv'><img src='img/responseButtonOffersNo0L1.png' class='respPic'></div></div>","null","9","Gavin","1","Kept","0.35,0.8","10","0.35","trustrating_stim/white_mw097.bmp","5","109","25"
"html-keyboard-response","211","278722","0.0-19.0-3.24","6400dc45648545e7ca8f35a6","bdp_trlrn","Sat Apr 08 2023 11:47:06 GMT-0400 (Eastern Daylight Time)","467976","Untrustworthy,Trustworthy","","null","","","","feedback","","<div class='trialDiv'><img src='trustrating_stim/white_mw097.bmp'><br><font class='baseline'><strong>Gavin</strong><p>Received: <strong>4</strong></font> &nbsp; &nbsp; &nbsp; &nbsp; &nbsp; &nbsp;<font class='negOutcome'>Shared back: <strong>0</strong></font></font><div class='respPicDiv'><img src='img/responseButtonOffersNo0_wht.png' class='respPic'></div></div>","null","9","Gavin","1","Kept","0.35,0.8","10","0.35","trustrating_stim/white_mw097.bmp","5","109","25"
"html-keyboard-response","212","278965","0.0-19.0-1.25","6400dc45648545e7ca8f35a6","bdp_trlrn","Sat Apr 08 2023 11:47:06 GMT-0400 (Eastern Daylight Time)","467976","Untrustworthy,Trustworthy","","243","","","","decision","","<div class='trialDiv'><img src='trustrating_stim/white_mw053.bmp'><br><font class='baseline'><strong>Evan</strong><p>Choose number of points to send.</font><div class='respPicDiv'><img src='img/responseButtonOffersNo0L.png' class='respPic'></div></div>","1","9","Evan","10","Kept","0.2,0.8","9","0.2","trustrating_stim/white_mw053.bmp","5","114","26"
"html-keyboard-response","213","279216","0.0-19.0-2.25","6400dc45648545e7ca8f35a6","bdp_trlrn","Sat Apr 08 2023 11:47:06 GMT-0400 (Eastern Daylight Time)","467976","Untrustworthy,Trustworthy","","null","","","","decisionFB","","<div class='trialDiv'><img src='trustrating_stim/white_mw053.bmp'><br><font class='baseline'><strong>Evan</strong><p>Choose number of points to send.</font><div class='respPicDiv'><img src='img/responseButtonOffersNo0L1.png' class='respPic'></div></div>","null","9","Evan","10","Kept","0.2,0.8","9","0.2","trustrating_stim/white_mw053.bmp","5","113","26"
"html-keyboard-response","214","280218","0.0-19.0-3.25","6400dc45648545e7ca8f35a6","bdp_trlrn","Sat Apr 08 2023 11:47:06 GMT-0400 (Eastern Daylight Time)","467976","Untrustworthy,Trustworthy","","null","","","","feedback","","<div class='trialDiv'><img src='trustrating_stim/white_mw053.bmp'><br><font class='baseline'><strong>Evan</strong><p>Received: <strong>4</strong></font> &nbsp; &nbsp; &nbsp; &nbsp; &nbsp; &nbsp;<font class='negOutcome'>Shared back: <strong>0</strong></font></font><div class='respPicDiv'><img src='img/responseButtonOffersNo0_wht.png' class='respPic'></div></div>","null","9","Evan","10","Kept","0.2,0.8","9","0.2","trustrating_stim/white_mw053.bmp","5","113","26"
"html-keyboard-response","215","280515","0.0-19.0-1.26","6400dc45648545e7ca8f35a6","bdp_trlrn","Sat Apr 08 2023 11:47:06 GMT-0400 (Eastern Daylight Time)","467976","Untrustworthy,Trustworthy","","297","","","","decision","","<div class='trialDiv'><img src='trustrating_stim/white_00109_931230_fa_edt.bmp'><br><font class='baseline'><strong>Michael</strong><p>Choose number of points to send.</font><div class='respPicDiv'><img src='img/responseButtonOffersNo0L.png' class='respPic'></div></div>","1","9","Michael","4","Kept","0.8,0.35","8","0.8","trustrating_stim/white_00109_931230_fa_edt.bmp","5","118","27"
"html-keyboard-response","216","280767","0.0-19.0-2.26","6400dc45648545e7ca8f35a6","bdp_trlrn","Sat Apr 08 2023 11:47:06 GMT-0400 (Eastern Daylight Time)","467976","Untrustworthy,Trustworthy","","null","","","","decisionFB","","<div class='trialDiv'><img src='trustrating_stim/white_00109_931230_fa_edt.bmp'><br><font class='baseline'><strong>Michael</strong><p>Choose number of points to send.</font><div class='respPicDiv'><img src='img/responseButtonOffersNo0L1.png' class='respPic'></div></div>","null","9","Michael","4","Kept","0.8,0.35","8","0.8","trustrating_stim/white_00109_931230_fa_edt.bmp","5","117","27"
"html-keyboard-response","217","281769","0.0-19.0-3.26","6400dc45648545e7ca8f35a6","bdp_trlrn","Sat Apr 08 2023 11:47:06 GMT-0400 (Eastern Daylight Time)","467976","Untrustworthy,Trustworthy","","null","","","","feedback","","<div class='trialDiv'><img src='trustrating_stim/white_00109_931230_fa_edt.bmp'><br><font class='baseline'><strong>Michael</strong><p>Received: <strong>4</strong></font> &nbsp; &nbsp; &nbsp; &nbsp; &nbsp; &nbsp;<font class='negOutcome'>Shared back: <strong>0</strong></font></font><div class='respPicDiv'><img src='img/responseButtonOffersNo0_wht.png' class='respPic'></div></div>","null","9","Michael","4","Kept","0.8,0.35","8","0.8","trustrating_stim/white_00109_931230_fa_edt.bmp","5","117","27"
"html-keyboard-response","218","282055","0.0-19.0-1.27","6400dc45648545e7ca8f35a6","bdp_trlrn","Sat Apr 08 2023 11:47:06 GMT-0400 (Eastern Daylight Time)","467976","Untrustworthy,Trustworthy","","286","","","","decision","","<div class='trialDiv'><img src='trustrating_stim/white_mw053.bmp'><br><font class='baseline'><strong>Evan</strong><p>Choose number of points to send.</font><div class='respPicDiv'><img src='img/responseButtonOffersNo0L.png' class='respPic'></div></div>","1","10","Evan","10","Shared","0.2,0.8","9","0.2","trustrating_stim/white_mw053.bmp","5","122","28"
"html-keyboard-response","219","282306","0.0-19.0-2.27","6400dc45648545e7ca8f35a6","bdp_trlrn","Sat Apr 08 2023 11:47:06 GMT-0400 (Eastern Daylight Time)","467976","Untrustworthy,Trustworthy","","null","","","","decisionFB","","<div class='trialDiv'><img src='trustrating_stim/white_mw053.bmp'><br><font class='baseline'><strong>Evan</strong><p>Choose number of points to send.</font><div class='respPicDiv'><img src='img/responseButtonOffersNo0L1.png' class='respPic'></div></div>","null","10","Evan","10","Shared","0.2,0.8","9","0.2","trustrating_stim/white_mw053.bmp","5","121","28"
"html-keyboard-response","220","283307","0.0-19.0-3.27","6400dc45648545e7ca8f35a6","bdp_trlrn","Sat Apr 08 2023 11:47:06 GMT-0400 (Eastern Daylight Time)","467976","Untrustworthy,Trustworthy","","null","","","","feedback","","<div class='trialDiv'><img src='trustrating_stim/white_mw053.bmp'><br><font class='baseline'><strong>Evan</strong><p>Received: <strong>4</strong></font> &nbsp; &nbsp; &nbsp; &nbsp; &nbsp; &nbsp;<font class='posOutcome'>Shared back: <strong>2</strong></font></font><div class='respPicDiv'><img src='img/responseButtonOffersNo0_wht.png' class='respPic'></div></div>","null","10","Evan","10","Shared","0.2,0.8","9","0.2","trustrating_stim/white_mw053.bmp","5","123","28"
"html-keyboard-response","221","283775","0.0-19.0-1.28","6400dc45648545e7ca8f35a6","bdp_trlrn","Sat Apr 08 2023 11:47:06 GMT-0400 (Eastern Daylight Time)","467976","Untrustworthy,Trustworthy","","467","","","","decision","","<div class='trialDiv'><img src='trustrating_stim/white_00109_931230_fa_edt.bmp'><br><font class='baseline'><strong>Michael</strong><p>Choose number of points to send.</font><div class='respPicDiv'><img src='img/responseButtonOffersNo0L.png' class='respPic'></div></div>","1","10","Michael","4","Shared","0.8,0.35","8","0.8","trustrating_stim/white_00109_931230_fa_edt.bmp","5","128","29"
