"trial_type","trial_index","time_elapsed","internal_node_id","subject_id","task","startTime","totalTime","labels","view_history","rt","event","trial","time","trialtype","success","stimulus","key_press","aground","name","faceID","outcome","agenttype","agentswpt","agentcurrpshare","face","avgRating","point_total","round"
"pavlovia","0","3","0.0-0.0","64015b86a1764cf737326eb7","bdp_trlrn","Wed Mar 15 2023 23:35:25 GMT-0400 (Eastern Daylight Time)","521273","Untrustworthy,Trustworthy","","","","","","","","","","","","","","","","","","","",""
"instructions","1","4684","0.0-1.0","64015b86a1764cf737326eb7","bdp_trlrn","Wed Mar 15 2023 23:35:25 GMT-0400 (Eastern Daylight Time)","521273","Untrustworthy,Trustworthy","[{""page_index"":0,""viewing_time"":4680}]","4680","","","","","","","","","","","","","","","","","",""
"","","","","64015b86a1764cf737326eb7","bdp_trlrn","Wed Mar 15 2023 23:35:25 GMT-0400 (Eastern Daylight Time)","521273","Untrustworthy,Trustworthy","","","fullscreenenter","2","7473","fullscreenenter","","","","","","","","","","","","","",""
"fullscreen","2","8460","0.0-2.0","64015b86a1764cf737326eb7","bdp_trlrn","Wed Mar 15 2023 23:35:25 GMT-0400 (Eastern Daylight Time)","521273","Untrustworthy,Trustworthy","","","","","","","true","","","","","","","","","","","","",""
"instructions","3","20922","0.0-4.0","64015b86a1764cf737326eb7","bdp_trlrn","Wed Mar 15 2023 23:35:25 GMT-0400 (Eastern Daylight Time)","521273","Untrustworthy,Trustworthy","[{""page_index"":0,""viewing_time"":11568},{""page_index"":1,""viewing_time"":891}]","12459","","","","","","","","","","","","","","","","","",""
"instructions","4","22346","0.0-5.0","64015b86a1764cf737326eb7","bdp_trlrn","Wed Mar 15 2023 23:35:25 GMT-0400 (Eastern Daylight Time)","521273","Untrustworthy,Trustworthy","[{""page_index"":0,""viewing_time"":1424}]","1424","","","","","","","","","","","","","","","","","",""
"image-keyboard-response","5","24676","0.0-6.0-1.0","64015b86a1764cf737326eb7","bdp_trlrn","Wed Mar 15 2023 23:35:25 GMT-0400 (Eastern Daylight Time)","521273","Untrustworthy,Trustworthy","","2223","","","","rating","","trustrating_stim/white_00299_940422_fa_edt.bmp","4","","","","","","","","","","",""
"image-keyboard-response","6","24877","0.0-6.0-2.0","64015b86a1764cf737326eb7","bdp_trlrn","Wed Mar 15 2023 23:35:25 GMT-0400 (Eastern Daylight Time)","521273","Untrustworthy,Trustworthy","","null","","","","ratingFB","","trustrating_stim/white_00299_940422_fa_edt.bmp","null","","","","","","","","","","",""
"image-keyboard-response","7","26788","0.0-6.0-1.1","64015b86a1764cf737326eb7","bdp_trlrn","Wed Mar 15 2023 23:35:25 GMT-0400 (Eastern Daylight Time)","521273","Untrustworthy,Trustworthy","","1806","","","","rating","","trustrating_stim/white_00757_941201_fa_edt.bmp","2","","","","","","","","","","",""
"image-keyboard-response","8","26993","0.0-6.0-2.1","64015b86a1764cf737326eb7","bdp_trlrn","Wed Mar 15 2023 23:35:25 GMT-0400 (Eastern Daylight Time)","521273","Untrustworthy,Trustworthy","","null","","","","ratingFB","","trustrating_stim/white_00757_941201_fa_edt.bmp","null","","","","","","","","","","",""
"image-keyboard-response","9","28079","0.0-6.0-1.2","64015b86a1764cf737326eb7","bdp_trlrn","Wed Mar 15 2023 23:35:25 GMT-0400 (Eastern Daylight Time)","521273","Untrustworthy,Trustworthy","","984","","","","rating","","trustrating_stim/white_mw063.bmp","1","","","","","","","","","","",""
"image-keyboard-response","10","28285","0.0-6.0-2.2","64015b86a1764cf737326eb7","bdp_trlrn","Wed Mar 15 2023 23:35:25 GMT-0400 (Eastern Daylight Time)","521273","Untrustworthy,Trustworthy","","null","","","","ratingFB","","trustrating_stim/white_mw063.bmp","null","","","","","","","","","","",""
"image-keyboard-response","11","29525","0.0-6.0-1.3","64015b86a1764cf737326eb7","bdp_trlrn","Wed Mar 15 2023 23:35:25 GMT-0400 (Eastern Daylight Time)","521273","Untrustworthy,Trustworthy","","1135","","","","rating","","trustrating_stim/white_00785_941205_fb_edt.bmp","2","","","","","","","","","","",""
"image-keyboard-response","12","29726","0.0-6.0-2.3","64015b86a1764cf737326eb7","bdp_trlrn","Wed Mar 15 2023 23:35:25 GMT-0400 (Eastern Daylight Time)","521273","Untrustworthy,Trustworthy","","null","","","","ratingFB","","trustrating_stim/white_00785_941205_fb_edt.bmp","null","","","","","","","","","","",""
"image-keyboard-response","13","30892","0.0-6.0-1.4","64015b86a1764cf737326eb7","bdp_trlrn","Wed Mar 15 2023 23:35:25 GMT-0400 (Eastern Daylight Time)","521273","Untrustworthy,Trustworthy","","1062","","","","rating","","trustrating_stim/white_00340_940422_fa_edt.bmp","2","","","","","","","","","","",""
"image-keyboard-response","14","31096","0.0-6.0-2.4","64015b86a1764cf737326eb7","bdp_trlrn","Wed Mar 15 2023 23:35:25 GMT-0400 (Eastern Daylight Time)","521273","Untrustworthy,Trustworthy","","null","","","","ratingFB","","trustrating_stim/white_00340_940422_fa_edt.bmp","null","","","","","","","","","","",""
"image-keyboard-response","15","33056","0.0-6.0-1.5","64015b86a1764cf737326eb7","bdp_trlrn","Wed Mar 15 2023 23:35:25 GMT-0400 (Eastern Daylight Time)","521273","Untrustworthy,Trustworthy","","1855","","","","rating","","trustrating_stim/white_mw071.bmp","5","","","","","","","","","","",""
"image-keyboard-response","16","33261","0.0-6.0-2.5","64015b86a1764cf737326eb7","bdp_trlrn","Wed Mar 15 2023 23:35:25 GMT-0400 (Eastern Daylight Time)","521273","Untrustworthy,Trustworthy","","null","","","","ratingFB","","trustrating_stim/white_mw071.bmp","null","","","","","","","","","","",""
"image-keyboard-response","17","35100","0.0-6.0-1.6","64015b86a1764cf737326eb7","bdp_trlrn","Wed Mar 15 2023 23:35:25 GMT-0400 (Eastern Daylight Time)","521273","Untrustworthy,Trustworthy","","1733","","","","rating","","trustrating_stim/white_00120_931230_fa_edt.bmp","8","","","","","","","","","","",""
"image-keyboard-response","18","35305","0.0-6.0-2.6","64015b86a1764cf737326eb7","bdp_trlrn","Wed Mar 15 2023 23:35:25 GMT-0400 (Eastern Daylight Time)","521273","Untrustworthy,Trustworthy","","null","","","","ratingFB","","trustrating_stim/white_00120_931230_fa_edt.bmp","null","","","","","","","","","","",""
"image-keyboard-response","19","37741","0.0-6.0-1.7","64015b86a1764cf737326eb7","bdp_trlrn","Wed Mar 15 2023 23:35:25 GMT-0400 (Eastern Daylight Time)","521273","Untrustworthy,Trustworthy","","2331","","","","rating","","trustrating_stim/white_00223_940128_fb_edt.bmp","5","","","","","","","","","","",""
"image-keyboard-response","20","37946","0.0-6.0-2.7","64015b86a1764cf737326eb7","bdp_trlrn","Wed Mar 15 2023 23:35:25 GMT-0400 (Eastern Daylight Time)","521273","Untrustworthy,Trustworthy","","null","","","","ratingFB","","trustrating_stim/white_00223_940128_fb_edt.bmp","null","","","","","","","","","","",""
"image-keyboard-response","21","39967","0.0-6.0-1.8","64015b86a1764cf737326eb7","bdp_trlrn","Wed Mar 15 2023 23:35:25 GMT-0400 (Eastern Daylight Time)","521273","Untrustworthy,Trustworthy","","1916","","","","rating","","trustrating_stim/white_00129_931230_fb_edt.bmp","6","","","","","","","","","","",""
"image-keyboard-response","22","40169","0.0-6.0-2.8","64015b86a1764cf737326eb7","bdp_trlrn","Wed Mar 15 2023 23:35:25 GMT-0400 (Eastern Daylight Time)","521273","Untrustworthy,Trustworthy","","null","","","","ratingFB","","trustrating_stim/white_00129_931230_fb_edt.bmp","null","","","","","","","","","","",""
"image-keyboard-response","23","42280","0.0-6.0-1.9","64015b86a1764cf737326eb7","bdp_trlrn","Wed Mar 15 2023 23:35:25 GMT-0400 (Eastern Daylight Time)","521273","Untrustworthy,Trustworthy","","2007","","","","rating","","trustrating_stim/white_00807_941205_fb_edt.bmp","4","","","","","","","","","","",""
"image-keyboard-response","24","42485","0.0-6.0-2.9","64015b86a1764cf737326eb7","bdp_trlrn","Wed Mar 15 2023 23:35:25 GMT-0400 (Eastern Daylight Time)","521273","Untrustworthy,Trustworthy","","null","","","","ratingFB","","trustrating_stim/white_00807_941205_fb_edt.bmp","null","","","","","","","","","","",""
"image-keyboard-response","25","43939","0.0-6.0-1.10","64015b86a1764cf737326eb7","bdp_trlrn","Wed Mar 15 2023 23:35:25 GMT-0400 (Eastern Daylight Time)","521273","Untrustworthy,Trustworthy","","1349","","","","rating","","trustrating_stim/white_mw046.bmp","1","","","","","","","","","","",""
"image-keyboard-response","26","44142","0.0-6.0-2.10","64015b86a1764cf737326eb7","bdp_trlrn","Wed Mar 15 2023 23:35:25 GMT-0400 (Eastern Daylight Time)","521273","Untrustworthy,Trustworthy","","null","","","","ratingFB","","trustrating_stim/white_mw046.bmp","null","","","","","","","","","","",""
"image-keyboard-response","27","44991","0.0-6.0-1.11","64015b86a1764cf737326eb7","bdp_trlrn","Wed Mar 15 2023 23:35:25 GMT-0400 (Eastern Daylight Time)","521273","Untrustworthy,Trustworthy","","746","","","","rating","","trustrating_stim/white_mw097.bmp","1","","","","","","","","","","",""
"image-keyboard-response","28","45196","0.0-6.0-2.11","64015b86a1764cf737326eb7","bdp_trlrn","Wed Mar 15 2023 23:35:25 GMT-0400 (Eastern Daylight Time)","521273","Untrustworthy,Trustworthy","","null","","","","ratingFB","","trustrating_stim/white_mw097.bmp","null","","","","","","","","","","",""
"image-keyboard-response","29","46615","0.0-6.0-1.12","64015b86a1764cf737326eb7","bdp_trlrn","Wed Mar 15 2023 23:35:25 GMT-0400 (Eastern Daylight Time)","521273","Untrustworthy,Trustworthy","","1317","","","","rating","","trustrating_stim/white_mw033.bmp","7","","","","","","","","","","",""
"image-keyboard-response","30","46816","0.0-6.0-2.12","64015b86a1764cf737326eb7","bdp_trlrn","Wed Mar 15 2023 23:35:25 GMT-0400 (Eastern Daylight Time)","521273","Untrustworthy,Trustworthy","","null","","","","ratingFB","","trustrating_stim/white_mw033.bmp","null","","","","","","","","","","",""
"image-keyboard-response","31","48856","0.0-6.0-1.13","64015b86a1764cf737326eb7","bdp_trlrn","Wed Mar 15 2023 23:35:25 GMT-0400 (Eastern Daylight Time)","521273","Untrustworthy,Trustworthy","","1935","","","","rating","","trustrating_stim/white_00898_960530_fa_edt.bmp","6","","","","","","","","","","",""
"image-keyboard-response","32","49057","0.0-6.0-2.13","64015b86a1764cf737326eb7","bdp_trlrn","Wed Mar 15 2023 23:35:25 GMT-0400 (Eastern Daylight Time)","521273","Untrustworthy,Trustworthy","","null","","","","ratingFB","","trustrating_stim/white_00898_960530_fa_edt.bmp","null","","","","","","","","","","",""
"image-keyboard-response","33","51468","0.0-6.0-1.14","64015b86a1764cf737326eb7","bdp_trlrn","Wed Mar 15 2023 23:35:25 GMT-0400 (Eastern Daylight Time)","521273","Untrustworthy,Trustworthy","","2305","","","","rating","","trustrating_stim/white_mw053.bmp","6","","","","","","","","","","",""
"image-keyboard-response","34","51669","0.0-6.0-2.14","64015b86a1764cf737326eb7","bdp_trlrn","Wed Mar 15 2023 23:35:25 GMT-0400 (Eastern Daylight Time)","521273","Untrustworthy,Trustworthy","","null","","","","ratingFB","","trustrating_stim/white_mw053.bmp","null","","","","","","","","","","",""
"image-keyboard-response","35","54227","0.0-6.0-1.15","64015b86a1764cf737326eb7","bdp_trlrn","Wed Mar 15 2023 23:35:25 GMT-0400 (Eastern Daylight Time)","521273","Untrustworthy,Trustworthy","","2453","","","","rating","","trustrating_stim/white_mw060.bmp","5","","","","","","","","","","",""
"image-keyboard-response","36","54432","0.0-6.0-2.15","64015b86a1764cf737326eb7","bdp_trlrn","Wed Mar 15 2023 23:35:25 GMT-0400 (Eastern Daylight Time)","521273","Untrustworthy,Trustworthy","","null","","","","ratingFB","","trustrating_stim/white_mw060.bmp","null","","","","","","","","","","",""
"image-keyboard-response","37","55267","0.0-6.0-1.16","64015b86a1764cf737326eb7","bdp_trlrn","Wed Mar 15 2023 23:35:25 GMT-0400 (Eastern Daylight Time)","521273","Untrustworthy,Trustworthy","","733","","","","rating","","trustrating_stim/white_mw066.bmp","6","","","","","","","","","","",""
"image-keyboard-response","38","55472","0.0-6.0-2.16","64015b86a1764cf737326eb7","bdp_trlrn","Wed Mar 15 2023 23:35:25 GMT-0400 (Eastern Daylight Time)","521273","Untrustworthy,Trustworthy","","null","","","","ratingFB","","trustrating_stim/white_mw066.bmp","null","","","","","","","","","","",""
"image-keyboard-response","39","56629","0.0-6.0-1.17","64015b86a1764cf737326eb7","bdp_trlrn","Wed Mar 15 2023 23:35:25 GMT-0400 (Eastern Daylight Time)","521273","Untrustworthy,Trustworthy","","1052","","","","rating","","trustrating_stim/white_mw048.bmp","4","","","","","","","","","","",""
"image-keyboard-response","40","56830","0.0-6.0-2.17","64015b86a1764cf737326eb7","bdp_trlrn","Wed Mar 15 2023 23:35:25 GMT-0400 (Eastern Daylight Time)","521273","Untrustworthy,Trustworthy","","null","","","","ratingFB","","trustrating_stim/white_mw048.bmp","null","","","","","","","","","","",""
"image-keyboard-response","41","57962","0.0-6.0-1.18","64015b86a1764cf737326eb7","bdp_trlrn","Wed Mar 15 2023 23:35:25 GMT-0400 (Eastern Daylight Time)","521273","Untrustworthy,Trustworthy","","1028","","","","rating","","trustrating_stim/white_mw056.bmp","4","","","","","","","","","","",""
"image-keyboard-response","42","58165","0.0-6.0-2.18","64015b86a1764cf737326eb7","bdp_trlrn","Wed Mar 15 2023 23:35:25 GMT-0400 (Eastern Daylight Time)","521273","Untrustworthy,Trustworthy","","null","","","","ratingFB","","trustrating_stim/white_mw056.bmp","null","","","","","","","","","","",""
"image-keyboard-response","43","59512","0.0-6.0-1.19","64015b86a1764cf737326eb7","bdp_trlrn","Wed Mar 15 2023 23:35:25 GMT-0400 (Eastern Daylight Time)","521273","Untrustworthy,Trustworthy","","1241","","","","rating","","trustrating_stim/white_mw089.bmp","5","","","","","","","","","","",""
"image-keyboard-response","44","59715","0.0-6.0-2.19","64015b86a1764cf737326eb7","bdp_trlrn","Wed Mar 15 2023 23:35:25 GMT-0400 (Eastern Daylight Time)","521273","Untrustworthy,Trustworthy","","null","","","","ratingFB","","trustrating_stim/white_mw089.bmp","null","","","","","","","","","","",""
"image-keyboard-response","45","60976","0.0-6.0-1.20","64015b86a1764cf737326eb7","bdp_trlrn","Wed Mar 15 2023 23:35:25 GMT-0400 (Eastern Daylight Time)","521273","Untrustworthy,Trustworthy","","1156","","","","rating","","trustrating_stim/white_00577_940928_fa_edt.bmp","5","","","","","","","","","","",""
"image-keyboard-response","46","61178","0.0-6.0-2.20","64015b86a1764cf737326eb7","bdp_trlrn","Wed Mar 15 2023 23:35:25 GMT-0400 (Eastern Daylight Time)","521273","Untrustworthy,Trustworthy","","null","","","","ratingFB","","trustrating_stim/white_00577_940928_fa_edt.bmp","null","","","","","","","","","","",""
"image-keyboard-response","47","62453","0.0-6.0-1.21","64015b86a1764cf737326eb7","bdp_trlrn","Wed Mar 15 2023 23:35:25 GMT-0400 (Eastern Daylight Time)","521273","Untrustworthy,Trustworthy","","1170","","","","rating","","trustrating_stim/white_00519_940519_fb_edt.bmp","5","","","","","","","","","","",""
"image-keyboard-response","48","62658","0.0-6.0-2.21","64015b86a1764cf737326eb7","bdp_trlrn","Wed Mar 15 2023 23:35:25 GMT-0400 (Eastern Daylight Time)","521273","Untrustworthy,Trustworthy","","null","","","","ratingFB","","trustrating_stim/white_00519_940519_fb_edt.bmp","null","","","","","","","","","","",""
"image-keyboard-response","49","64120","0.0-6.0-1.22","64015b86a1764cf737326eb7","bdp_trlrn","Wed Mar 15 2023 23:35:25 GMT-0400 (Eastern Daylight Time)","521273","Untrustworthy,Trustworthy","","1357","","","","rating","","trustrating_stim/white_00602_940928_fb_edt.bmp","6","","","","","","","","","","",""
"image-keyboard-response","50","64324","0.0-6.0-2.22","64015b86a1764cf737326eb7","bdp_trlrn","Wed Mar 15 2023 23:35:25 GMT-0400 (Eastern Daylight Time)","521273","Untrustworthy,Trustworthy","","null","","","","ratingFB","","trustrating_stim/white_00602_940928_fb_edt.bmp","null","","","","","","","","","","",""
"image-keyboard-response","51","65683","0.0-6.0-1.23","64015b86a1764cf737326eb7","bdp_trlrn","Wed Mar 15 2023 23:35:25 GMT-0400 (Eastern Daylight Time)","521273","Untrustworthy,Trustworthy","","1257","","","","rating","","trustrating_stim/white_00109_931230_fa_edt.bmp","6","","","","","","","","","","",""
"image-keyboard-response","52","65886","0.0-6.0-2.23","64015b86a1764cf737326eb7","bdp_trlrn","Wed Mar 15 2023 23:35:25 GMT-0400 (Eastern Daylight Time)","521273","Untrustworthy,Trustworthy","","null","","","","ratingFB","","trustrating_stim/white_00109_931230_fa_edt.bmp","null","","","","","","","","","","",""
"image-keyboard-response","53","67421","0.0-6.0-1.24","64015b86a1764cf737326eb7","bdp_trlrn","Wed Mar 15 2023 23:35:25 GMT-0400 (Eastern Daylight Time)","521273","Untrustworthy,Trustworthy","","1430","","","","rating","","trustrating_stim/white_mw084.bmp","6","","","","","","","","","","",""
"image-keyboard-response","54","67622","0.0-6.0-2.24","64015b86a1764cf737326eb7","bdp_trlrn","Wed Mar 15 2023 23:35:25 GMT-0400 (Eastern Daylight Time)","521273","Untrustworthy,Trustworthy","","null","","","","ratingFB","","trustrating_stim/white_mw084.bmp","null","","","","","","","","","","",""
"image-keyboard-response","55","68832","0.0-6.0-1.25","64015b86a1764cf737326eb7","bdp_trlrn","Wed Mar 15 2023 23:35:25 GMT-0400 (Eastern Daylight Time)","521273","Untrustworthy,Trustworthy","","1105","","","","rating","","trustrating_stim/white_mw049.bmp","7","","","","","","","","","","",""
"image-keyboard-response","56","69034","0.0-6.0-2.25","64015b86a1764cf737326eb7","bdp_trlrn","Wed Mar 15 2023 23:35:25 GMT-0400 (Eastern Daylight Time)","521273","Untrustworthy,Trustworthy","","null","","","","ratingFB","","trustrating_stim/white_mw049.bmp","null","","","","","","","","","","",""
"image-keyboard-response","57","70910","0.0-6.0-1.26","64015b86a1764cf737326eb7","bdp_trlrn","Wed Mar 15 2023 23:35:25 GMT-0400 (Eastern Daylight Time)","521273","Untrustworthy,Trustworthy","","1772","","","","rating","","trustrating_stim/white_00761_941201_fb_edt.bmp","5","","","","","","","","","","",""
"image-keyboard-response","58","71111","0.0-6.0-2.26","64015b86a1764cf737326eb7","bdp_trlrn","Wed Mar 15 2023 23:35:25 GMT-0400 (Eastern Daylight Time)","521273","Untrustworthy,Trustworthy","","null","","","","ratingFB","","trustrating_stim/white_00761_941201_fb_edt.bmp","null","","","","","","","","","","",""
"image-keyboard-response","59","72898","0.0-6.0-1.27","64015b86a1764cf737326eb7","bdp_trlrn","Wed Mar 15 2023 23:35:25 GMT-0400 (Eastern Daylight Time)","521273","Untrustworthy,Trustworthy","","1681","","","","rating","","trustrating_stim/white_00659_941121_fa_edt.bmp","4","","","","","","","","","","",""
"image-keyboard-response","60","73102","0.0-6.0-2.27","64015b86a1764cf737326eb7","bdp_trlrn","Wed Mar 15 2023 23:35:25 GMT-0400 (Eastern Daylight Time)","521273","Untrustworthy,Trustworthy","","null","","","","ratingFB","","trustrating_stim/white_00659_941121_fa_edt.bmp","null","","","","","","","","","","",""
"image-keyboard-response","61","75081","0.0-6.0-1.28","64015b86a1764cf737326eb7","bdp_trlrn","Wed Mar 15 2023 23:35:25 GMT-0400 (Eastern Daylight Time)","521273","Untrustworthy,Trustworthy","","1873","","","","rating","","trustrating_stim/white_mw099.bmp","4","","","","","","","","","","",""
"image-keyboard-response","62","75285","0.0-6.0-2.28","64015b86a1764cf737326eb7","bdp_trlrn","Wed Mar 15 2023 23:35:25 GMT-0400 (Eastern Daylight Time)","521273","Untrustworthy,Trustworthy","","null","","","","ratingFB","","trustrating_stim/white_mw099.bmp","null","","","","","","","","","","",""
"image-keyboard-response","63","77106","0.0-6.0-1.29","64015b86a1764cf737326eb7","bdp_trlrn","Wed Mar 15 2023 23:35:25 GMT-0400 (Eastern Daylight Time)","521273","Untrustworthy,Trustworthy","","1715","","","","rating","","trustrating_stim/white_mw035.bmp","6","","","","","","","","","","",""
"image-keyboard-response","64","77311","0.0-6.0-2.29","64015b86a1764cf737326eb7","bdp_trlrn","Wed Mar 15 2023 23:35:25 GMT-0400 (Eastern Daylight Time)","521273","Untrustworthy,Trustworthy","","null","","","","ratingFB","","trustrating_stim/white_mw035.bmp","null","","","","","","","","","","",""
"image-keyboard-response","65","78884","0.0-6.0-1.30","64015b86a1764cf737326eb7","bdp_trlrn","Wed Mar 15 2023 23:35:25 GMT-0400 (Eastern Daylight Time)","521273","Untrustworthy,Trustworthy","","1468","","","","rating","","trustrating_stim/white_mw053.bmp","7","","","","","","","","","","",""
"image-keyboard-response","66","79087","0.0-6.0-2.30","64015b86a1764cf737326eb7","bdp_trlrn","Wed Mar 15 2023 23:35:25 GMT-0400 (Eastern Daylight Time)","521273","Untrustworthy,Trustworthy","","null","","","","ratingFB","","trustrating_stim/white_mw053.bmp","null","","","","","","","","","","",""
"image-keyboard-response","67","81144","0.0-6.0-1.31","64015b86a1764cf737326eb7","bdp_trlrn","Wed Mar 15 2023 23:35:25 GMT-0400 (Eastern Daylight Time)","521273","Untrustworthy,Trustworthy","","1952","","","","rating","","trustrating_stim/white_mw048.bmp","4","","","","","","","","","","",""
"image-keyboard-response","68","81345","0.0-6.0-2.31","64015b86a1764cf737326eb7","bdp_trlrn","Wed Mar 15 2023 23:35:25 GMT-0400 (Eastern Daylight Time)","521273","Untrustworthy,Trustworthy","","null","","","","ratingFB","","trustrating_stim/white_mw048.bmp","null","","","","","","","","","","",""
"image-keyboard-response","69","82554","0.0-6.0-1.32","64015b86a1764cf737326eb7","bdp_trlrn","Wed Mar 15 2023 23:35:25 GMT-0400 (Eastern Daylight Time)","521273","Untrustworthy,Trustworthy","","1104","","","","rating","","trustrating_stim/white_00659_941121_fa_edt.bmp","5","","","","","","","","","","",""
"image-keyboard-response","70","82756","0.0-6.0-2.32","64015b86a1764cf737326eb7","bdp_trlrn","Wed Mar 15 2023 23:35:25 GMT-0400 (Eastern Daylight Time)","521273","Untrustworthy,Trustworthy","","null","","","","ratingFB","","trustrating_stim/white_00659_941121_fa_edt.bmp","null","","","","","","","","","","",""
"image-keyboard-response","71","83992","0.0-6.0-1.33","64015b86a1764cf737326eb7","bdp_trlrn","Wed Mar 15 2023 23:35:25 GMT-0400 (Eastern Daylight Time)","521273","Untrustworthy,Trustworthy","","1131","","","","rating","","trustrating_stim/white_00577_940928_fa_edt.bmp","5","","","","","","","","","","",""
"image-keyboard-response","72","84197","0.0-6.0-2.33","64015b86a1764cf737326eb7","bdp_trlrn","Wed Mar 15 2023 23:35:25 GMT-0400 (Eastern Daylight Time)","521273","Untrustworthy,Trustworthy","","null","","","","ratingFB","","trustrating_stim/white_00577_940928_fa_edt.bmp","null","","","","","","","","","","",""
"image-keyboard-response","73","86084","0.0-6.0-1.34","64015b86a1764cf737326eb7","bdp_trlrn","Wed Mar 15 2023 23:35:25 GMT-0400 (Eastern Daylight Time)","521273","Untrustworthy,Trustworthy","","1786","","","","rating","","trustrating_stim/white_mw097.bmp","2","","","","","","","","","","",""
"image-keyboard-response","74","86285","0.0-6.0-2.34","64015b86a1764cf737326eb7","bdp_trlrn","Wed Mar 15 2023 23:35:25 GMT-0400 (Eastern Daylight Time)","521273","Untrustworthy,Trustworthy","","null","","","","ratingFB","","trustrating_stim/white_mw097.bmp","null","","","","","","","","","","",""
"image-keyboard-response","75","87322","0.0-6.0-1.35","64015b86a1764cf737326eb7","bdp_trlrn","Wed Mar 15 2023 23:35:25 GMT-0400 (Eastern Daylight Time)","521273","Untrustworthy,Trustworthy","","932","","","","rating","","trustrating_stim/white_00757_941201_fa_edt.bmp","2","","","","","","","","","","",""
"image-keyboard-response","76","87528","0.0-6.0-2.35","64015b86a1764cf737326eb7","bdp_trlrn","Wed Mar 15 2023 23:35:25 GMT-0400 (Eastern Daylight Time)","521273","Untrustworthy,Trustworthy","","null","","","","ratingFB","","trustrating_stim/white_00757_941201_fa_edt.bmp","null","","","","","","","","","","",""
"image-keyboard-response","77","89473","0.0-6.0-1.36","64015b86a1764cf737326eb7","bdp_trlrn","Wed Mar 15 2023 23:35:25 GMT-0400 (Eastern Daylight Time)","521273","Untrustworthy,Trustworthy","","1840","","","","rating","","trustrating_stim/white_mw035.bmp","5","","","","","","","","","","",""
"image-keyboard-response","78","89676","0.0-6.0-2.36","64015b86a1764cf737326eb7","bdp_trlrn","Wed Mar 15 2023 23:35:25 GMT-0400 (Eastern Daylight Time)","521273","Untrustworthy,Trustworthy","","null","","","","ratingFB","","trustrating_stim/white_mw035.bmp","null","","","","","","","","","","",""
"image-keyboard-response","79","90680","0.0-6.0-1.37","64015b86a1764cf737326eb7","bdp_trlrn","Wed Mar 15 2023 23:35:25 GMT-0400 (Eastern Daylight Time)","521273","Untrustworthy,Trustworthy","","900","","","","rating","","trustrating_stim/white_mw089.bmp","5","","","","","","","","","","",""
"image-keyboard-response","80","90883","0.0-6.0-2.37","64015b86a1764cf737326eb7","bdp_trlrn","Wed Mar 15 2023 23:35:25 GMT-0400 (Eastern Daylight Time)","521273","Untrustworthy,Trustworthy","","null","","","","ratingFB","","trustrating_stim/white_mw089.bmp","null","","","","","","","","","","",""
"image-keyboard-response","81","92491","0.0-6.0-1.38","64015b86a1764cf737326eb7","bdp_trlrn","Wed Mar 15 2023 23:35:25 GMT-0400 (Eastern Daylight Time)","521273","Untrustworthy,Trustworthy","","1502","","","","rating","","trustrating_stim/white_mw049.bmp","5","","","","","","","","","","",""
"image-keyboard-response","82","92694","0.0-6.0-2.38","64015b86a1764cf737326eb7","bdp_trlrn","Wed Mar 15 2023 23:35:25 GMT-0400 (Eastern Daylight Time)","521273","Untrustworthy,Trustworthy","","null","","","","ratingFB","","trustrating_stim/white_mw049.bmp","null","","","","","","","","","","",""
"image-keyboard-response","83","93883","0.0-6.0-1.39","64015b86a1764cf737326eb7","bdp_trlrn","Wed Mar 15 2023 23:35:25 GMT-0400 (Eastern Daylight Time)","521273","Untrustworthy,Trustworthy","","1084","","","","rating","","trustrating_stim/white_00109_931230_fa_edt.bmp","5","","","","","","","","","","",""
"image-keyboard-response","84","94088","0.0-6.0-2.39","64015b86a1764cf737326eb7","bdp_trlrn","Wed Mar 15 2023 23:35:25 GMT-0400 (Eastern Daylight Time)","521273","Untrustworthy,Trustworthy","","null","","","","ratingFB","","trustrating_stim/white_00109_931230_fa_edt.bmp","null","","","","","","","","","","",""
"image-keyboard-response","85","95193","0.0-6.0-1.40","64015b86a1764cf737326eb7","bdp_trlrn","Wed Mar 15 2023 23:35:25 GMT-0400 (Eastern Daylight Time)","521273","Untrustworthy,Trustworthy","","1002","","","","rating","","trustrating_stim/white_00761_941201_fb_edt.bmp","4","","","","","","","","","","",""
"image-keyboard-response","86","95398","0.0-6.0-2.40","64015b86a1764cf737326eb7","bdp_trlrn","Wed Mar 15 2023 23:35:25 GMT-0400 (Eastern Daylight Time)","521273","Untrustworthy,Trustworthy","","null","","","","ratingFB","","trustrating_stim/white_00761_941201_fb_edt.bmp","null","","","","","","","","","","",""
"image-keyboard-response","87","96982","0.0-6.0-1.41","64015b86a1764cf737326eb7","bdp_trlrn","Wed Mar 15 2023 23:35:25 GMT-0400 (Eastern Daylight Time)","521273","Untrustworthy,Trustworthy","","1483","","","","rating","","trustrating_stim/white_00519_940519_fb_edt.bmp","6","","","","","","","","","","",""
"image-keyboard-response","88","97188","0.0-6.0-2.41","64015b86a1764cf737326eb7","bdp_trlrn","Wed Mar 15 2023 23:35:25 GMT-0400 (Eastern Daylight Time)","521273","Untrustworthy,Trustworthy","","null","","","","ratingFB","","trustrating_stim/white_00519_940519_fb_edt.bmp","null","","","","","","","","","","",""
"image-keyboard-response","89","98358","0.0-6.0-1.42","64015b86a1764cf737326eb7","bdp_trlrn","Wed Mar 15 2023 23:35:25 GMT-0400 (Eastern Daylight Time)","521273","Untrustworthy,Trustworthy","","1065","","","","rating","","trustrating_stim/white_00602_940928_fb_edt.bmp","6","","","","","","","","","","",""
"image-keyboard-response","90","98563","0.0-6.0-2.42","64015b86a1764cf737326eb7","bdp_trlrn","Wed Mar 15 2023 23:35:25 GMT-0400 (Eastern Daylight Time)","521273","Untrustworthy,Trustworthy","","null","","","","ratingFB","","trustrating_stim/white_00602_940928_fb_edt.bmp","null","","","","","","","","","","",""
"image-keyboard-response","91","103853","0.0-6.0-1.43","64015b86a1764cf737326eb7","bdp_trlrn","Wed Mar 15 2023 23:35:25 GMT-0400 (Eastern Daylight Time)","521273","Untrustworthy,Trustworthy","","5185","","","","rating","","trustrating_stim/white_00129_931230_fb_edt.bmp","6","","","","","","","","","","",""
"image-keyboard-response","92","104054","0.0-6.0-2.43","64015b86a1764cf737326eb7","bdp_trlrn","Wed Mar 15 2023 23:35:25 GMT-0400 (Eastern Daylight Time)","521273","Untrustworthy,Trustworthy","","null","","","","ratingFB","","trustrating_stim/white_00129_931230_fb_edt.bmp","null","","","","","","","","","","",""
"image-keyboard-response","93","105416","0.0-6.0-1.44","64015b86a1764cf737326eb7","bdp_trlrn","Wed Mar 15 2023 23:35:25 GMT-0400 (Eastern Daylight Time)","521273","Untrustworthy,Trustworthy","","1256","","","","rating","","trustrating_stim/white_mw056.bmp","5","","","","","","","","","","",""
"image-keyboard-response","94","105617","0.0-6.0-2.44","64015b86a1764cf737326eb7","bdp_trlrn","Wed Mar 15 2023 23:35:25 GMT-0400 (Eastern Daylight Time)","521273","Untrustworthy,Trustworthy","","null","","","","ratingFB","","trustrating_stim/white_mw056.bmp","null","","","","","","","","","","",""
"image-keyboard-response","95","107353","0.0-6.0-1.45","64015b86a1764cf737326eb7","bdp_trlrn","Wed Mar 15 2023 23:35:25 GMT-0400 (Eastern Daylight Time)","521273","Untrustworthy,Trustworthy","","1632","","","","rating","","trustrating_stim/white_00299_940422_fa_edt.bmp","6","","","","","","","","","","",""
"image-keyboard-response","96","107556","0.0-6.0-2.45","64015b86a1764cf737326eb7","bdp_trlrn","Wed Mar 15 2023 23:35:25 GMT-0400 (Eastern Daylight Time)","521273","Untrustworthy,Trustworthy","","null","","","","ratingFB","","trustrating_stim/white_00299_940422_fa_edt.bmp","null","","","","","","","","","","",""
"image-keyboard-response","97","108999","0.0-6.0-1.46","64015b86a1764cf737326eb7","bdp_trlrn","Wed Mar 15 2023 23:35:25 GMT-0400 (Eastern Daylight Time)","521273","Untrustworthy,Trustworthy","","1338","","","","rating","","trustrating_stim/white_00898_960530_fa_edt.bmp","7","","","","","","","","","","",""
"image-keyboard-response","98","109204","0.0-6.0-2.46","64015b86a1764cf737326eb7","bdp_trlrn","Wed Mar 15 2023 23:35:25 GMT-0400 (Eastern Daylight Time)","521273","Untrustworthy,Trustworthy","","null","","","","ratingFB","","trustrating_stim/white_00898_960530_fa_edt.bmp","null","","","","","","","","","","",""
"image-keyboard-response","99","111317","0.0-6.0-1.47","64015b86a1764cf737326eb7","bdp_trlrn","Wed Mar 15 2023 23:35:25 GMT-0400 (Eastern Daylight Time)","521273","Untrustworthy,Trustworthy","","2009","","","","rating","","trustrating_stim/white_mw084.bmp","6","","","","","","","","","","",""
"image-keyboard-response","100","111520","0.0-6.0-2.47","64015b86a1764cf737326eb7","bdp_trlrn","Wed Mar 15 2023 23:35:25 GMT-0400 (Eastern Daylight Time)","521273","Untrustworthy,Trustworthy","","null","","","","ratingFB","","trustrating_stim/white_mw084.bmp","null","","","","","","","","","","",""
"image-keyboard-response","101","113344","0.0-6.0-1.48","64015b86a1764cf737326eb7","bdp_trlrn","Wed Mar 15 2023 23:35:25 GMT-0400 (Eastern Daylight Time)","521273","Untrustworthy,Trustworthy","","1719","","","","rating","","trustrating_stim/white_mw033.bmp","6","","","","","","","","","","",""
"image-keyboard-response","102","113546","0.0-6.0-2.48","64015b86a1764cf737326eb7","bdp_trlrn","Wed Mar 15 2023 23:35:25 GMT-0400 (Eastern Daylight Time)","521273","Untrustworthy,Trustworthy","","null","","","","ratingFB","","trustrating_stim/white_mw033.bmp","null","","","","","","","","","","",""
"image-keyboard-response","103","115162","0.0-6.0-1.49","64015b86a1764cf737326eb7","bdp_trlrn","Wed Mar 15 2023 23:35:25 GMT-0400 (Eastern Daylight Time)","521273","Untrustworthy,Trustworthy","","1511","","","","rating","","trustrating_stim/white_mw099.bmp","5","","","","","","","","","","",""
"image-keyboard-response","104","115363","0.0-6.0-2.49","64015b86a1764cf737326eb7","bdp_trlrn","Wed Mar 15 2023 23:35:25 GMT-0400 (Eastern Daylight Time)","521273","Untrustworthy,Trustworthy","","null","","","","ratingFB","","trustrating_stim/white_mw099.bmp","null","","","","","","","","","","",""
"image-keyboard-response","105","116752","0.0-6.0-1.50","64015b86a1764cf737326eb7","bdp_trlrn","Wed Mar 15 2023 23:35:25 GMT-0400 (Eastern Daylight Time)","521273","Untrustworthy,Trustworthy","","1284","","","","rating","","trustrating_stim/white_00120_931230_fa_edt.bmp","7","","","","","","","","","","",""
"image-keyboard-response","106","116954","0.0-6.0-2.50","64015b86a1764cf737326eb7","bdp_trlrn","Wed Mar 15 2023 23:35:25 GMT-0400 (Eastern Daylight Time)","521273","Untrustworthy,Trustworthy","","null","","","","ratingFB","","trustrating_stim/white_00120_931230_fa_edt.bmp","null","","","","","","","","","","",""
"image-keyboard-response","107","119471","0.0-6.0-1.51","64015b86a1764cf737326eb7","bdp_trlrn","Wed Mar 15 2023 23:35:25 GMT-0400 (Eastern Daylight Time)","521273","Untrustworthy,Trustworthy","","2414","","","","rating","","trustrating_stim/white_00340_940422_fa_edt.bmp","3","","","","","","","","","","",""
"image-keyboard-response","108","119677","0.0-6.0-2.51","64015b86a1764cf737326eb7","bdp_trlrn","Wed Mar 15 2023 23:35:25 GMT-0400 (Eastern Daylight Time)","521273","Untrustworthy,Trustworthy","","null","","","","ratingFB","","trustrating_stim/white_00340_940422_fa_edt.bmp","null","","","","","","","","","","",""
"image-keyboard-response","109","121126","0.0-6.0-1.52","64015b86a1764cf737326eb7","bdp_trlrn","Wed Mar 15 2023 23:35:25 GMT-0400 (Eastern Daylight Time)","521273","Untrustworthy,Trustworthy","","1344","","","","rating","","trustrating_stim/white_00785_941205_fb_edt.bmp","3","","","","","","","","","","",""
"image-keyboard-response","110","121331","0.0-6.0-2.52","64015b86a1764cf737326eb7","bdp_trlrn","Wed Mar 15 2023 23:35:25 GMT-0400 (Eastern Daylight Time)","521273","Untrustworthy,Trustworthy","","null","","","","ratingFB","","trustrating_stim/white_00785_941205_fb_edt.bmp","null","","","","","","","","","","",""
"image-keyboard-response","111","122464","0.0-6.0-1.53","64015b86a1764cf737326eb7","bdp_trlrn","Wed Mar 15 2023 23:35:25 GMT-0400 (Eastern Daylight Time)","521273","Untrustworthy,Trustworthy","","1030","","","","rating","","trustrating_stim/white_mw046.bmp","5","","","","","","","","","","",""
"image-keyboard-response","112","122666","0.0-6.0-2.53","64015b86a1764cf737326eb7","bdp_trlrn","Wed Mar 15 2023 23:35:25 GMT-0400 (Eastern Daylight Time)","521273","Untrustworthy,Trustworthy","","null","","","","ratingFB","","trustrating_stim/white_mw046.bmp","null","","","","","","","","","","",""
"image-keyboard-response","113","123849","0.0-6.0-1.54","64015b86a1764cf737326eb7","bdp_trlrn","Wed Mar 15 2023 23:35:25 GMT-0400 (Eastern Daylight Time)","521273","Untrustworthy,Trustworthy","","1078","","","","rating","","trustrating_stim/white_mw071.bmp","6","","","","","","","","","","",""
"image-keyboard-response","114","124054","0.0-6.0-2.54","64015b86a1764cf737326eb7","bdp_trlrn","Wed Mar 15 2023 23:35:25 GMT-0400 (Eastern Daylight Time)","521273","Untrustworthy,Trustworthy","","null","","","","ratingFB","","trustrating_stim/white_mw071.bmp","null","","","","","","","","","","",""
"image-keyboard-response","115","125280","0.0-6.0-1.55","64015b86a1764cf737326eb7","bdp_trlrn","Wed Mar 15 2023 23:35:25 GMT-0400 (Eastern Daylight Time)","521273","Untrustworthy,Trustworthy","","1120","","","","rating","","trustrating_stim/white_mw060.bmp","5","","","","","","","","","","",""
"image-keyboard-response","116","125481","0.0-6.0-2.55","64015b86a1764cf737326eb7","bdp_trlrn","Wed Mar 15 2023 23:35:25 GMT-0400 (Eastern Daylight Time)","521273","Untrustworthy,Trustworthy","","null","","","","ratingFB","","trustrating_stim/white_mw060.bmp","null","","","","","","","","","","",""
"image-keyboard-response","117","126699","0.0-6.0-1.56","64015b86a1764cf737326eb7","bdp_trlrn","Wed Mar 15 2023 23:35:25 GMT-0400 (Eastern Daylight Time)","521273","Untrustworthy,Trustworthy","","1112","","","","rating","","trustrating_stim/white_mw063.bmp","3","","","","","","","","","","",""
"image-keyboard-response","118","126904","0.0-6.0-2.56","64015b86a1764cf737326eb7","bdp_trlrn","Wed Mar 15 2023 23:35:25 GMT-0400 (Eastern Daylight Time)","521273","Untrustworthy,Trustworthy","","null","","","","ratingFB","","trustrating_stim/white_mw063.bmp","null","","","","","","","","","","",""
"image-keyboard-response","119","128022","0.0-6.0-1.57","64015b86a1764cf737326eb7","bdp_trlrn","Wed Mar 15 2023 23:35:25 GMT-0400 (Eastern Daylight Time)","521273","Untrustworthy,Trustworthy","","1013","","","","rating","","trustrating_stim/white_mw066.bmp","5","","","","","","","","","","",""
"image-keyboard-response","120","128228","0.0-6.0-2.57","64015b86a1764cf737326eb7","bdp_trlrn","Wed Mar 15 2023 23:35:25 GMT-0400 (Eastern Daylight Time)","521273","Untrustworthy,Trustworthy","","null","","","","ratingFB","","trustrating_stim/white_mw066.bmp","null","","","","","","","","","","",""
"image-keyboard-response","121","129627","0.0-6.0-1.58","64015b86a1764cf737326eb7","bdp_trlrn","Wed Mar 15 2023 23:35:25 GMT-0400 (Eastern Daylight Time)","521273","Untrustworthy,Trustworthy","","1297","","","","rating","","trustrating_stim/white_00807_941205_fb_edt.bmp","4","","","","","","","","","","",""
"image-keyboard-response","122","129829","0.0-6.0-2.58","64015b86a1764cf737326eb7","bdp_trlrn","Wed Mar 15 2023 23:35:25 GMT-0400 (Eastern Daylight Time)","521273","Untrustworthy,Trustworthy","","null","","","","ratingFB","","trustrating_stim/white_00807_941205_fb_edt.bmp","null","","","","","","","","","","",""
"image-keyboard-response","123","131243","0.0-6.0-1.59","64015b86a1764cf737326eb7","bdp_trlrn","Wed Mar 15 2023 23:35:25 GMT-0400 (Eastern Daylight Time)","521273","Untrustworthy,Trustworthy","","1308","","","","rating","","trustrating_stim/white_00223_940128_fb_edt.bmp","4","","","","","","","","","","",""
"image-keyboard-response","124","131448","0.0-6.0-2.59","64015b86a1764cf737326eb7","bdp_trlrn","Wed Mar 15 2023 23:35:25 GMT-0400 (Eastern Daylight Time)","521273","Untrustworthy,Trustworthy","","null","","","","ratingFB","","trustrating_stim/white_00223_940128_fb_edt.bmp","null","","","","","","","","","","",""
"instructions","125","132962","0.0-7.0","64015b86a1764cf737326eb7","bdp_trlrn","Wed Mar 15 2023 23:35:25 GMT-0400 (Eastern Daylight Time)","521273","Untrustworthy,Trustworthy","[{""page_index"":0,""viewing_time"":1411}]","1411","","","","","","","","","","","","","","","","","",""
"instructions","126","192561","0.0-8.0","64015b86a1764cf737326eb7","bdp_trlrn","Wed Mar 15 2023 23:35:25 GMT-0400 (Eastern Daylight Time)","521273","Untrustworthy,Trustworthy","[{""page_index"":0,""viewing_time"":12481},{""page_index"":1,""viewing_time"":15243},{""page_index"":2,""viewing_time"":7213},{""page_index"":3,""viewing_time"":9213},{""page_index"":4,""viewing_time"":1413},{""page_index"":5,""viewing_time"":1694},{""page_index"":6,""viewing_time"":10105},{""page_index"":7,""viewing_time"":2135}]","59497","","","","","","","","","","","","","","","","","",""
"html-keyboard-response","127","200023","0.0-9.0","64015b86a1764cf737326eb7","bdp_trlrn","Wed Mar 15 2023 23:35:25 GMT-0400 (Eastern Daylight Time)","521273","Untrustworthy,Trustworthy","","7461","","","","","","<div class='header' style='text-align:left; position: absolute; top: 5%; left: 5%;'><small>Task 3 of 5</small></div><div class='instruxDiv'><p><strong>1) What is the minimum number of points you can choose to send to your partner?</strong></p><p>a) 0</p><p>b) 1</p><p>c) 5</p>","C","","","","","","","","","","",""
"html-keyboard-response","128","203086","0.0-10.0","64015b86a1764cf737326eb7","bdp_trlrn","Wed Mar 15 2023 23:35:25 GMT-0400 (Eastern Daylight Time)","521273","Untrustworthy,Trustworthy","","2961","","","","","","<div class='header' style='text-align:left; position: absolute; top: 5%; left: 5%;'><small>Task 3 of 5</small></div><div class='instruxDiv'><p><strong>1) What is the minimum number of points you can choose to send to your partner?</strong></p><p>a) 1</p><p>b) 1</p><p style='color:#FF0000'>c) 5</p><h3 style='color:#FF0000'>Incorrect!</h3><h3 class='center-content'>The correct response is b).</h3><h3 class='center-content'>The minimum number of points you can choose to send to your partner is 1 point.</h3><p><em>Press SPACEBAR to continue</em></p></div>"," ","","","","","","","","","","",""
"html-keyboard-response","129","209292","0.0-11.0","64015b86a1764cf737326eb7","bdp_trlrn","Wed Mar 15 2023 23:35:25 GMT-0400 (Eastern Daylight Time)","521273","Untrustworthy,Trustworthy","","6102","","","","","","<div class='header' style='text-align:left; position: absolute; top: 5%; left: 5%;'><small>Task 3 of 5</small></div><div class='instruxDiv'><p><strong>2) What is the maximum number of points you can choose to send to your partner?</strong></p><p>a) 8</p><p>b) 5</p><p>c) 3</p>","B","","","","","","","","","","",""
"html-keyboard-response","130","211151","0.0-12.0","64015b86a1764cf737326eb7","bdp_trlrn","Wed Mar 15 2023 23:35:25 GMT-0400 (Eastern Daylight Time)","521273","Untrustworthy,Trustworthy","","1755","","","","","","<div class='header' style='text-align:left; position: absolute; top: 5%; left: 5%;'><small>Task 3 of 5</small></div><div class='instruxDiv'><p><strong>2) What is the maximum number of points you can choose to send to your partner?</strong></p><p>a) 8</p><p style='color:#00FF00'>b) 5</p><p>c) 3</p><h3 style='color:#00FF00'>Correct!</h3><h3 class='center-content'>The correct response is b).</h3><h3 class='center-content'>The maximum number of points you can choose to send to your partner is 5 points.</h3><p><em>Press SPACEBAR to continue</em></p></div>"," ","","","","","","","","","","",""
"html-keyboard-response","131","215025","0.0-13.0","64015b86a1764cf737326eb7","bdp_trlrn","Wed Mar 15 2023 23:35:25 GMT-0400 (Eastern Daylight Time)","521273","Untrustworthy,Trustworthy","","3772","","","","","","<div class='header' style='text-align:left; position: absolute; top: 5%; left: 5%;'><small>Task 3 of 5</small></div><div class='instruxDiv'><p><strong>3) What happens to the amount of points you send to your partner?</strong></p><p>a) Nothing</p><p>b) It doubles</p><p>c) It quadruples</p>","B","","","","","","","","","","",""
"html-keyboard-response","132","217110","0.0-14.0","64015b86a1764cf737326eb7","bdp_trlrn","Wed Mar 15 2023 23:35:25 GMT-0400 (Eastern Daylight Time)","521273","Untrustworthy,Trustworthy","","1980","","","","","","<div class='header' style='text-align:left; position: absolute; top: 5%; left: 5%;'><small>Task 3 of 5</small></div><div class='instruxDiv'><p><strong>3) What happens to the amount of points you send to your partner?</strong></p><p>a) Nothing</p><p style='color:#FF0000'>b) It doubles</p><p>c) It quadruples</p><h3 style='color:#FF0000'>Incorrect!</h3><h3 class='center-content'>The correct response is c).</h3><h3 class='center-content'>The amount of points you send to your partner quadruples.</h3><p><em>Press SPACEBAR to continue</em></p></div>"," ","","","","","","","","","","",""
"html-keyboard-response","133","232314","0.0-15.0","64015b86a1764cf737326eb7","bdp_trlrn","Wed Mar 15 2023 23:35:25 GMT-0400 (Eastern Daylight Time)","521273","Untrustworthy,Trustworthy","","15101","","","","","","<div class='header' style='text-align:left; position: absolute; top: 5%; left: 5%;'><small>Task 3 of 5</small></div><div class='instruxDiv'><p><strong>4) If you decided to share 4 out of 5 points with your partner, and they decided to share half of the amount they received with you, how many points would you receive back from them on this round?</strong></p><p>a) 16</p><p>b) 0</p><p>c) 8</p>","A","","","","","","","","","","",""
"html-keyboard-response","134","236507","0.0-16.0","64015b86a1764cf737326eb7","bdp_trlrn","Wed Mar 15 2023 23:35:25 GMT-0400 (Eastern Daylight Time)","521273","Untrustworthy,Trustworthy","","4089","","","","","","<div class='header' style='text-align:left; position: absolute; top: 5%; left: 5%;'><small>Task 3 of 5</small></div><div class='instruxDiv'><p><strong>4) If you decided to share 4 out of 5 points with your partner, and they decided to share half of the amount they received with you, how many points would you receive back from them on this round?</strong></p><p style='color:#FF0000'>a) 16</p><p>b) 0</p><p>c) 8</p><h3 style='color:#FF0000'>Incorrect!</h3><h3 class='center-content'>The correct response is c).</h3><h3 class='center-content'>If you shared 4 out of 5 points with your partner and they decided to share half of the amount they received with you, you would receive 8 points back (i.e. (4 x 4)/2 = 8).</h3><p><em>Press SPACEBAR to continue</em></p></div>"," ","","","","","","","","","","",""
"html-keyboard-response","135","241615","0.0-17.0","64015b86a1764cf737326eb7","bdp_trlrn","Wed Mar 15 2023 23:35:25 GMT-0400 (Eastern Daylight Time)","521273","Untrustworthy,Trustworthy","","null","","","","","","<div class='header' style='text-align:left; position: absolute; top: 5%; left: 5%;'><small>Task 3 of 5</small></div><div class='instruxDiv'><p>Thank you for completing the quiz<p>These are the actual partners you will be interacting with in the next block:<p><div class='tc' align='center'><img class='introPic' src='trustrating_stim/white_mw063.bmp'><br><strong>Caleb</strong></div><div class='bl' align='center'><img class='introPic' src='trustrating_stim/white_mw060.bmp'><br><strong>Sebastian</strong></div><div class='br' align='center'><img class='introPic' src='trustrating_stim/white_00120_931230_fa_edt.bmp'><br><strong>Evan</strong></div></div><p>Across <strong>66 rounds</strong> you will interact with each partner <strong>22 times</strong> (in random order).<p style='align:center; color:white'><font <em>Press SPACEBAR to continue</em></p>","null","","","","","","","","","","",""
"instructions","136","244143","0.0-18.0","64015b86a1764cf737326eb7","bdp_trlrn","Wed Mar 15 2023 23:35:25 GMT-0400 (Eastern Daylight Time)","521273","Untrustworthy,Trustworthy","[{""page_index"":0,""viewing_time"":1502},{""page_index"":1,""viewing_time"":1026}]","2528","","","","","","","","","","","","","","","","","",""
"html-keyboard-response","137","246384","0.0-19.0-1.0","64015b86a1764cf737326eb7","bdp_trlrn","Wed Mar 15 2023 23:35:25 GMT-0400 (Eastern Daylight Time)","521273","Untrustworthy,Trustworthy","","2139","","","","decision","","<div class='trialDiv'><img src='trustrating_stim/white_mw060.bmp'><br><font class='baseline'><strong>Sebastian</strong><p>Choose number of points to send.</font><div class='respPicDiv'><img src='img/responseButtonOffersNo0L.png' class='respPic'></div></div>","3","1","Sebastian","6","Kept","0.2,0.65","14","0.2","trustrating_stim/white_mw060.bmp","5","5","1"
"html-keyboard-response","138","246636","0.0-19.0-2.0","64015b86a1764cf737326eb7","bdp_trlrn","Wed Mar 15 2023 23:35:25 GMT-0400 (Eastern Daylight Time)","521273","Untrustworthy,Trustworthy","","null","","","","decisionFB","","<div class='trialDiv'><img src='trustrating_stim/white_mw060.bmp'><br><font class='baseline'><strong>Sebastian</strong><p>Choose number of points to send.</font><div class='respPicDiv'><img src='img/responseButtonOffersNo0L3.png' class='respPic'></div></div>","null","1","Sebastian","6","Kept","0.2,0.65","14","0.2","trustrating_stim/white_mw060.bmp","5","2","1"
"html-keyboard-response","139","247640","0.0-19.0-3.0","64015b86a1764cf737326eb7","bdp_trlrn","Wed Mar 15 2023 23:35:25 GMT-0400 (Eastern Daylight Time)","521273","Untrustworthy,Trustworthy","","null","","","","feedback","","<div class='trialDiv'><img src='trustrating_stim/white_mw060.bmp'><br><font class='baseline'><strong>Sebastian</strong><p>Received: <strong>12</strong></font> &nbsp; &nbsp; &nbsp; &nbsp; &nbsp; &nbsp;<font class='negOutcome'>Shared back: <strong>0</strong></font></font><div class='respPicDiv'><img src='img/responseButtonOffersNo0_wht.png' class='respPic'></div></div>","null","1","Sebastian","6","Kept","0.2,0.65","14","0.2","trustrating_stim/white_mw060.bmp","5","2","1"
"html-keyboard-response","140","251116","0.0-19.0-1.1","64015b86a1764cf737326eb7","bdp_trlrn","Wed Mar 15 2023 23:35:25 GMT-0400 (Eastern Daylight Time)","521273","Untrustworthy,Trustworthy","","3475","","","","decision","","<div class='trialDiv'><img src='trustrating_stim/white_mw063.bmp'><br><font class='baseline'><strong>Caleb</strong><p>Choose number of points to send.</font><div class='respPicDiv'><img src='img/responseButtonOffersNo0L.png' class='respPic'></div></div>","4","1","Caleb","2","Shared","0.8,0.35","11","0.8","trustrating_stim/white_mw063.bmp","2","7","2"
"html-keyboard-response","141","251371","0.0-19.0-2.1","64015b86a1764cf737326eb7","bdp_trlrn","Wed Mar 15 2023 23:35:25 GMT-0400 (Eastern Daylight Time)","521273","Untrustworthy,Trustworthy","","null","","","","decisionFB","","<div class='trialDiv'><img src='trustrating_stim/white_mw063.bmp'><br><font class='baseline'><strong>Caleb</strong><p>Choose number of points to send.</font><div class='respPicDiv'><img src='img/responseButtonOffersNo0L4.png' class='respPic'></div></div>","null","1","Caleb","2","Shared","0.8,0.35","11","0.8","trustrating_stim/white_mw063.bmp","2","3","2"
"html-keyboard-response","142","252377","0.0-19.0-3.1","64015b86a1764cf737326eb7","bdp_trlrn","Wed Mar 15 2023 23:35:25 GMT-0400 (Eastern Daylight Time)","521273","Untrustworthy,Trustworthy","","null","","","","feedback","","<div class='trialDiv'><img src='trustrating_stim/white_mw063.bmp'><br><font class='baseline'><strong>Caleb</strong><p>Received: <strong>16</strong></font> &nbsp; &nbsp; &nbsp; &nbsp; &nbsp; &nbsp;<font class='posOutcome'>Shared back: <strong>8</strong></font></font><div class='respPicDiv'><img src='img/responseButtonOffersNo0_wht.png' class='respPic'></div></div>","null","1","Caleb","2","Shared","0.8,0.35","11","0.8","trustrating_stim/white_mw063.bmp","2","11","2"
"html-keyboard-response","143","254076","0.0-19.0-1.2","64015b86a1764cf737326eb7","bdp_trlrn","Wed Mar 15 2023 23:35:25 GMT-0400 (Eastern Daylight Time)","521273","Untrustworthy,Trustworthy","","1698","","","","decision","","<div class='trialDiv'><img src='trustrating_stim/white_00120_931230_fa_edt.bmp'><br><font class='baseline'><strong>Evan</strong><p>Choose number of points to send.</font><div class='respPicDiv'><img src='img/responseButtonOffersNo0L.png' class='respPic'></div></div>","3","1","Evan","11","Shared","0.65,0.35","10","0.65","trustrating_stim/white_00120_931230_fa_edt.bmp","7.5","16","3"
"html-keyboard-response","144","254327","0.0-19.0-2.2","64015b86a1764cf737326eb7","bdp_trlrn","Wed Mar 15 2023 23:35:25 GMT-0400 (Eastern Daylight Time)","521273","Untrustworthy,Trustworthy","","null","","","","decisionFB","","<div class='trialDiv'><img src='trustrating_stim/white_00120_931230_fa_edt.bmp'><br><font class='baseline'><strong>Evan</strong><p>Choose number of points to send.</font><div class='respPicDiv'><img src='img/responseButtonOffersNo0L3.png' class='respPic'></div></div>","null","1","Evan","11","Shared","0.65,0.35","10","0.65","trustrating_stim/white_00120_931230_fa_edt.bmp","7.5","13","3"
"html-keyboard-response","145","255332","0.0-19.0-3.2","64015b86a1764cf737326eb7","bdp_trlrn","Wed Mar 15 2023 23:35:25 GMT-0400 (Eastern Daylight Time)","521273","Untrustworthy,Trustworthy","","null","","","","feedback","","<div class='trialDiv'><img src='trustrating_stim/white_00120_931230_fa_edt.bmp'><br><font class='baseline'><strong>Evan</strong><p>Received: <strong>12</strong></font> &nbsp; &nbsp; &nbsp; &nbsp; &nbsp; &nbsp;<font class='posOutcome'>Shared back: <strong>6</strong></font></font><div class='respPicDiv'><img src='img/responseButtonOffersNo0_wht.png' class='respPic'></div></div>","null","1","Evan","11","Shared","0.65,0.35","10","0.65","trustrating_stim/white_00120_931230_fa_edt.bmp","7.5","19","3"
"html-keyboard-response","146","256551","0.0-19.0-1.3","64015b86a1764cf737326eb7","bdp_trlrn","Wed Mar 15 2023 23:35:25 GMT-0400 (Eastern Daylight Time)","521273","Untrustworthy,Trustworthy","","1218","","","","decision","","<div class='trialDiv'><img src='trustrating_stim/white_mw060.bmp'><br><font class='baseline'><strong>Sebastian</strong><p>Choose number of points to send.</font><div class='respPicDiv'><img src='img/responseButtonOffersNo0L.png' class='respPic'></div></div>","4","2","Sebastian","6","Kept","0.2,0.65","14","0.2","trustrating_stim/white_mw060.bmp","5","24","4"
"html-keyboard-response","147","256806","0.0-19.0-2.3","64015b86a1764cf737326eb7","bdp_trlrn","Wed Mar 15 2023 23:35:25 GMT-0400 (Eastern Daylight Time)","521273","Untrustworthy,Trustworthy","","null","","","","decisionFB","","<div class='trialDiv'><img src='trustrating_stim/white_mw060.bmp'><br><font class='baseline'><strong>Sebastian</strong><p>Choose number of points to send.</font><div class='respPicDiv'><img src='img/responseButtonOffersNo0L4.png' class='respPic'></div></div>","null","2","Sebastian","6","Kept","0.2,0.65","14","0.2","trustrating_stim/white_mw060.bmp","5","20","4"
"html-keyboard-response","148","257811","0.0-19.0-3.3","64015b86a1764cf737326eb7","bdp_trlrn","Wed Mar 15 2023 23:35:25 GMT-0400 (Eastern Daylight Time)","521273","Untrustworthy,Trustworthy","","null","","","","feedback","","<div class='trialDiv'><img src='trustrating_stim/white_mw060.bmp'><br><font class='baseline'><strong>Sebastian</strong><p>Received: <strong>16</strong></font> &nbsp; &nbsp; &nbsp; &nbsp; &nbsp; &nbsp;<font class='negOutcome'>Shared back: <strong>0</strong></font></font><div class='respPicDiv'><img src='img/responseButtonOffersNo0_wht.png' class='respPic'></div></div>","null","2","Sebastian","6","Kept","0.2,0.65","14","0.2","trustrating_stim/white_mw060.bmp","5","20","4"
"html-keyboard-response","149","258605","0.0-19.0-1.4","64015b86a1764cf737326eb7","bdp_trlrn","Wed Mar 15 2023 23:35:25 GMT-0400 (Eastern Daylight Time)","521273","Untrustworthy,Trustworthy","","794","","","","decision","","<div class='trialDiv'><img src='trustrating_stim/white_00120_931230_fa_edt.bmp'><br><font class='baseline'><strong>Evan</strong><p>Choose number of points to send.</font><div class='respPicDiv'><img src='img/responseButtonOffersNo0L.png' class='respPic'></div></div>","3","2","Evan","11","Kept","0.65,0.35","10","0.65","trustrating_stim/white_00120_931230_fa_edt.bmp","7.5","25","5"
"html-keyboard-response","150","258861","0.0-19.0-2.4","64015b86a1764cf737326eb7","bdp_trlrn","Wed Mar 15 2023 23:35:25 GMT-0400 (Eastern Daylight Time)","521273","Untrustworthy,Trustworthy","","null","","","","decisionFB","","<div class='trialDiv'><img src='trustrating_stim/white_00120_931230_fa_edt.bmp'><br><font class='baseline'><strong>Evan</strong><p>Choose number of points to send.</font><div class='respPicDiv'><img src='img/responseButtonOffersNo0L3.png' class='respPic'></div></div>","null","2","Evan","11","Kept","0.65,0.35","10","0.65","trustrating_stim/white_00120_931230_fa_edt.bmp","7.5","22","5"
"html-keyboard-response","151","259867","0.0-19.0-3.4","64015b86a1764cf737326eb7","bdp_trlrn","Wed Mar 15 2023 23:35:25 GMT-0400 (Eastern Daylight Time)","521273","Untrustworthy,Trustworthy","","null","","","","feedback","","<div class='trialDiv'><img src='trustrating_stim/white_00120_931230_fa_edt.bmp'><br><font class='baseline'><strong>Evan</strong><p>Received: <strong>12</strong></font> &nbsp; &nbsp; &nbsp; &nbsp; &nbsp; &nbsp;<font class='negOutcome'>Shared back: <strong>0</strong></font></font><div class='respPicDiv'><img src='img/responseButtonOffersNo0_wht.png' class='respPic'></div></div>","null","2","Evan","11","Kept","0.65,0.35","10","0.65","trustrating_stim/white_00120_931230_fa_edt.bmp","7.5","22","5"
"html-keyboard-response","152","261529","0.0-19.0-1.5","64015b86a1764cf737326eb7","bdp_trlrn","Wed Mar 15 2023 23:35:25 GMT-0400 (Eastern Daylight Time)","521273","Untrustworthy,Trustworthy","","1660","","","","decision","","<div class='trialDiv'><img src='trustrating_stim/white_mw063.bmp'><br><font class='baseline'><strong>Caleb</strong><p>Choose number of points to send.</font><div class='respPicDiv'><img src='img/responseButtonOffersNo0L.png' class='respPic'></div></div>","3","2","Caleb","2","Shared","0.8,0.35","11","0.8","trustrating_stim/white_mw063.bmp","2","27","6"
"html-keyboard-response","153","261781","0.0-19.0-2.5","64015b86a1764cf737326eb7","bdp_trlrn","Wed Mar 15 2023 23:35:25 GMT-0400 (Eastern Daylight Time)","521273","Untrustworthy,Trustworthy","","null","","","","decisionFB","","<div class='trialDiv'><img src='trustrating_stim/white_mw063.bmp'><br><font class='baseline'><strong>Caleb</strong><p>Choose number of points to send.</font><div class='respPicDiv'><img src='img/responseButtonOffersNo0L3.png' class='respPic'></div></div>","null","2","Caleb","2","Shared","0.8,0.35","11","0.8","trustrating_stim/white_mw063.bmp","2","24","6"
"html-keyboard-response","154","262786","0.0-19.0-3.5","64015b86a1764cf737326eb7","bdp_trlrn","Wed Mar 15 2023 23:35:25 GMT-0400 (Eastern Daylight Time)","521273","Untrustworthy,Trustworthy","","null","","","","feedback","","<div class='trialDiv'><img src='trustrating_stim/white_mw063.bmp'><br><font class='baseline'><strong>Caleb</strong><p>Received: <strong>12</strong></font> &nbsp; &nbsp; &nbsp; &nbsp; &nbsp; &nbsp;<font class='posOutcome'>Shared back: <strong>6</strong></font></font><div class='respPicDiv'><img src='img/responseButtonOffersNo0_wht.png' class='respPic'></div></div>","null","2","Caleb","2","Shared","0.8,0.35","11","0.8","trustrating_stim/white_mw063.bmp","2","30","6"
"html-keyboard-response","155","265487","0.0-19.0-1.6","64015b86a1764cf737326eb7","bdp_trlrn","Wed Mar 15 2023 23:35:25 GMT-0400 (Eastern Daylight Time)","521273","Untrustworthy,Trustworthy","","2701","","","","decision","","<div class='trialDiv'><img src='trustrating_stim/white_mw060.bmp'><br><font class='baseline'><strong>Sebastian</strong><p>Choose number of points to send.</font><div class='respPicDiv'><img src='img/responseButtonOffersNo0L.png' class='respPic'></div></div>","2","3","Sebastian","6","Kept","0.2,0.65","14","0.2","trustrating_stim/white_mw060.bmp","5","35","7"
"html-keyboard-response","156","265739","0.0-19.0-2.6","64015b86a1764cf737326eb7","bdp_trlrn","Wed Mar 15 2023 23:35:25 GMT-0400 (Eastern Daylight Time)","521273","Untrustworthy,Trustworthy","","null","","","","decisionFB","","<div class='trialDiv'><img src='trustrating_stim/white_mw060.bmp'><br><font class='baseline'><strong>Sebastian</strong><p>Choose number of points to send.</font><div class='respPicDiv'><img src='img/responseButtonOffersNo0L2.png' class='respPic'></div></div>","null","3","Sebastian","6","Kept","0.2,0.65","14","0.2","trustrating_stim/white_mw060.bmp","5","33","7"
"html-keyboard-response","157","266745","0.0-19.0-3.6","64015b86a1764cf737326eb7","bdp_trlrn","Wed Mar 15 2023 23:35:25 GMT-0400 (Eastern Daylight Time)","521273","Untrustworthy,Trustworthy","","null","","","","feedback","","<div class='trialDiv'><img src='trustrating_stim/white_mw060.bmp'><br><font class='baseline'><strong>Sebastian</strong><p>Received: <strong>8</strong></font> &nbsp; &nbsp; &nbsp; &nbsp; &nbsp; &nbsp;<font class='negOutcome'>Shared back: <strong>0</strong></font></font><div class='respPicDiv'><img src='img/responseButtonOffersNo0_wht.png' class='respPic'></div></div>","null","3","Sebastian","6","Kept","0.2,0.65","14","0.2","trustrating_stim/white_mw060.bmp","5","33","7"
"html-keyboard-response","158","267311","0.0-19.0-1.7","64015b86a1764cf737326eb7","bdp_trlrn","Wed Mar 15 2023 23:35:25 GMT-0400 (Eastern Daylight Time)","521273","Untrustworthy,Trustworthy","","564","","","","decision","","<div class='trialDiv'><img src='trustrating_stim/white_mw063.bmp'><br><font class='baseline'><strong>Caleb</strong><p>Choose number of points to send.</font><div class='respPicDiv'><img src='img/responseButtonOffersNo0L.png' class='respPic'></div></div>","2","3","Caleb","2","Shared","0.8,0.35","11","0.8","trustrating_stim/white_mw063.bmp","2","38","8"
"html-keyboard-response","159","267565","0.0-19.0-2.7","64015b86a1764cf737326eb7","bdp_trlrn","Wed Mar 15 2023 23:35:25 GMT-0400 (Eastern Daylight Time)","521273","Untrustworthy,Trustworthy","","null","","","","decisionFB","","<div class='trialDiv'><img src='trustrating_stim/white_mw063.bmp'><br><font class='baseline'><strong>Caleb</strong><p>Choose number of points to send.</font><div class='respPicDiv'><img src='img/responseButtonOffersNo0L2.png' class='respPic'></div></div>","null","3","Caleb","2","Shared","0.8,0.35","11","0.8","trustrating_stim/white_mw063.bmp","2","36","8"
"html-keyboard-response","160","268568","0.0-19.0-3.7","64015b86a1764cf737326eb7","bdp_trlrn","Wed Mar 15 2023 23:35:25 GMT-0400 (Eastern Daylight Time)","521273","Untrustworthy,Trustworthy","","null","","","","feedback","","<div class='trialDiv'><img src='trustrating_stim/white_mw063.bmp'><br><font class='baseline'><strong>Caleb</strong><p>Received: <strong>8</strong></font> &nbsp; &nbsp; &nbsp; &nbsp; &nbsp; &nbsp;<font class='posOutcome'>Shared back: <strong>4</strong></font></font><div class='respPicDiv'><img src='img/responseButtonOffersNo0_wht.png' class='respPic'></div></div>","null","3","Caleb","2","Shared","0.8,0.35","11","0.8","trustrating_stim/white_mw063.bmp","2","40","8"
"html-keyboard-response","161","269921","0.0-19.0-1.8","64015b86a1764cf737326eb7","bdp_trlrn","Wed Mar 15 2023 23:35:25 GMT-0400 (Eastern Daylight Time)","521273","Untrustworthy,Trustworthy","","1352","","","","decision","","<div class='trialDiv'><img src='trustrating_stim/white_00120_931230_fa_edt.bmp'><br><font class='baseline'><strong>Evan</strong><p>Choose number of points to send.</font><div class='respPicDiv'><img src='img/responseButtonOffersNo0L.png' class='respPic'></div></div>","4","3","Evan","11","Shared","0.65,0.35","10","0.65","trustrating_stim/white_00120_931230_fa_edt.bmp","7.5","45","9"
"html-keyboard-response","162","270172","0.0-19.0-2.8","64015b86a1764cf737326eb7","bdp_trlrn","Wed Mar 15 2023 23:35:25 GMT-0400 (Eastern Daylight Time)","521273","Untrustworthy,Trustworthy","","null","","","","decisionFB","","<div class='trialDiv'><img src='trustrating_stim/white_00120_931230_fa_edt.bmp'><br><font class='baseline'><strong>Evan</strong><p>Choose number of points to send.</font><div class='respPicDiv'><img src='img/responseButtonOffersNo0L4.png' class='respPic'></div></div>","null","3","Evan","11","Shared","0.65,0.35","10","0.65","trustrating_stim/white_00120_931230_fa_edt.bmp","7.5","41","9"
"html-keyboard-response","163","271174","0.0-19.0-3.8","64015b86a1764cf737326eb7","bdp_trlrn","Wed Mar 15 2023 23:35:25 GMT-0400 (Eastern Daylight Time)","521273","Untrustworthy,Trustworthy","","null","","","","feedback","","<div class='trialDiv'><img src='trustrating_stim/white_00120_931230_fa_edt.bmp'><br><font class='baseline'><strong>Evan</strong><p>Received: <strong>16</strong></font> &nbsp; &nbsp; &nbsp; &nbsp; &nbsp; &nbsp;<font class='posOutcome'>Shared back: <strong>8</strong></font></font><div class='respPicDiv'><img src='img/responseButtonOffersNo0_wht.png' class='respPic'></div></div>","null","3","Evan","11","Shared","0.65,0.35","10","0.65","trustrating_stim/white_00120_931230_fa_edt.bmp","7.5","49","9"
"html-keyboard-response","164","271886","0.0-19.0-1.9","64015b86a1764cf737326eb7","bdp_trlrn","Wed Mar 15 2023 23:35:25 GMT-0400 (Eastern Daylight Time)","521273","Untrustworthy,Trustworthy","","711","","","","decision","","<div class='trialDiv'><img src='trustrating_stim/white_mw063.bmp'><br><font class='baseline'><strong>Caleb</strong><p>Choose number of points to send.</font><div class='respPicDiv'><img src='img/responseButtonOffersNo0L.png' class='respPic'></div></div>","3","4","Caleb","2","Shared","0.8,0.35","11","0.8","trustrating_stim/white_mw063.bmp","2","54","10"
"html-keyboard-response","165","272137","0.0-19.0-2.9","64015b86a1764cf737326eb7","bdp_trlrn","Wed Mar 15 2023 23:35:25 GMT-0400 (Eastern Daylight Time)","521273","Untrustworthy,Trustworthy","","null","","","","decisionFB","","<div class='trialDiv'><img src='trustrating_stim/white_mw063.bmp'><br><font class='baseline'><strong>Caleb</strong><p>Choose number of points to send.</font><div class='respPicDiv'><img src='img/responseButtonOffersNo0L3.png' class='respPic'></div></div>","null","4","Caleb","2","Shared","0.8,0.35","11","0.8","trustrating_stim/white_mw063.bmp","2","51","10"
"html-keyboard-response","166","273142","0.0-19.0-3.9","64015b86a1764cf737326eb7","bdp_trlrn","Wed Mar 15 2023 23:35:25 GMT-0400 (Eastern Daylight Time)","521273","Untrustworthy,Trustworthy","","null","","","","feedback","","<div class='trialDiv'><img src='trustrating_stim/white_mw063.bmp'><br><font class='baseline'><strong>Caleb</strong><p>Received: <strong>12</strong></font> &nbsp; &nbsp; &nbsp; &nbsp; &nbsp; &nbsp;<font class='posOutcome'>Shared back: <strong>6</strong></font></font><div class='respPicDiv'><img src='img/responseButtonOffersNo0_wht.png' class='respPic'></div></div>","null","4","Caleb","2","Shared","0.8,0.35","11","0.8","trustrating_stim/white_mw063.bmp","2","57","10"
"html-keyboard-response","167","274558","0.0-19.0-1.10","64015b86a1764cf737326eb7","bdp_trlrn","Wed Mar 15 2023 23:35:25 GMT-0400 (Eastern Daylight Time)","521273","Untrustworthy,Trustworthy","","1414","","","","decision","","<div class='trialDiv'><img src='trustrating_stim/white_mw060.bmp'><br><font class='baseline'><strong>Sebastian</strong><p>Choose number of points to send.</font><div class='respPicDiv'><img src='img/responseButtonOffersNo0L.png' class='respPic'></div></div>","2","4","Sebastian","6","Kept","0.2,0.65","14","0.2","trustrating_stim/white_mw060.bmp","5","62","11"
"html-keyboard-response","168","274811","0.0-19.0-2.10","64015b86a1764cf737326eb7","bdp_trlrn","Wed Mar 15 2023 23:35:25 GMT-0400 (Eastern Daylight Time)","521273","Untrustworthy,Trustworthy","","null","","","","decisionFB","","<div class='trialDiv'><img src='trustrating_stim/white_mw060.bmp'><br><font class='baseline'><strong>Sebastian</strong><p>Choose number of points to send.</font><div class='respPicDiv'><img src='img/responseButtonOffersNo0L2.png' class='respPic'></div></div>","null","4","Sebastian","6","Kept","0.2,0.65","14","0.2","trustrating_stim/white_mw060.bmp","5","60","11"
"html-keyboard-response","169","275818","0.0-19.0-3.10","64015b86a1764cf737326eb7","bdp_trlrn","Wed Mar 15 2023 23:35:25 GMT-0400 (Eastern Daylight Time)","521273","Untrustworthy,Trustworthy","","null","","","","feedback","","<div class='trialDiv'><img src='trustrating_stim/white_mw060.bmp'><br><font class='baseline'><strong>Sebastian</strong><p>Received: <strong>8</strong></font> &nbsp; &nbsp; &nbsp; &nbsp; &nbsp; &nbsp;<font class='negOutcome'>Shared back: <strong>0</strong></font></font><div class='respPicDiv'><img src='img/responseButtonOffersNo0_wht.png' class='respPic'></div></div>","null","4","Sebastian","6","Kept","0.2,0.65","14","0.2","trustrating_stim/white_mw060.bmp","5","60","11"
"html-keyboard-response","170","276559","0.0-19.0-1.11","64015b86a1764cf737326eb7","bdp_trlrn","Wed Mar 15 2023 23:35:25 GMT-0400 (Eastern Daylight Time)","521273","Untrustworthy,Trustworthy","","739","","","","decision","","<div class='trialDiv'><img src='trustrating_stim/white_00120_931230_fa_edt.bmp'><br><font class='baseline'><strong>Evan</strong><p>Choose number of points to send.</font><div class='respPicDiv'><img src='img/responseButtonOffersNo0L.png' class='respPic'></div></div>","4","4","Evan","11","Kept","0.65,0.35","10","0.65","trustrating_stim/white_00120_931230_fa_edt.bmp","7.5","65","12"
"html-keyboard-response","171","276811","0.0-19.0-2.11","64015b86a1764cf737326eb7","bdp_trlrn","Wed Mar 15 2023 23:35:25 GMT-0400 (Eastern Daylight Time)","521273","Untrustworthy,Trustworthy","","null","","","","decisionFB","","<div class='trialDiv'><img src='trustrating_stim/white_00120_931230_fa_edt.bmp'><br><font class='baseline'><strong>Evan</strong><p>Choose number of points to send.</font><div class='respPicDiv'><img src='img/responseButtonOffersNo0L4.png' class='respPic'></div></div>","null","4","Evan","11","Kept","0.65,0.35","10","0.65","trustrating_stim/white_00120_931230_fa_edt.bmp","7.5","61","12"
"html-keyboard-response","172","277815","0.0-19.0-3.11","64015b86a1764cf737326eb7","bdp_trlrn","Wed Mar 15 2023 23:35:25 GMT-0400 (Eastern Daylight Time)","521273","Untrustworthy,Trustworthy","","null","","","","feedback","","<div class='trialDiv'><img src='trustrating_stim/white_00120_931230_fa_edt.bmp'><br><font class='baseline'><strong>Evan</strong><p>Received: <strong>16</strong></font> &nbsp; &nbsp; &nbsp; &nbsp; &nbsp; &nbsp;<font class='negOutcome'>Shared back: <strong>0</strong></font></font><div class='respPicDiv'><img src='img/responseButtonOffersNo0_wht.png' class='respPic'></div></div>","null","4","Evan","11","Kept","0.65,0.35","10","0.65","trustrating_stim/white_00120_931230_fa_edt.bmp","7.5","61","12"
"html-keyboard-response","173","278466","0.0-19.0-1.12","64015b86a1764cf737326eb7","bdp_trlrn","Wed Mar 15 2023 23:35:25 GMT-0400 (Eastern Daylight Time)","521273","Untrustworthy,Trustworthy","","650","","","","decision","","<div class='trialDiv'><img src='trustrating_stim/white_mw060.bmp'><br><font class='baseline'><strong>Sebastian</strong><p>Choose number of points to send.</font><div class='respPicDiv'><img src='img/responseButtonOffersNo0L.png' class='respPic'></div></div>","3","5","Sebastian","6","Kept","0.2,0.65","14","0.2","trustrating_stim/white_mw060.bmp","5","66","13"
"html-keyboard-response","174","278719","0.0-19.0-2.12","64015b86a1764cf737326eb7","bdp_trlrn","Wed Mar 15 2023 23:35:25 GMT-0400 (Eastern Daylight Time)","521273","Untrustworthy,Trustworthy","","null","","","","decisionFB","","<div class='trialDiv'><img src='trustrating_stim/white_mw060.bmp'><br><font class='baseline'><strong>Sebastian</strong><p>Choose number of points to send.</font><div class='respPicDiv'><img src='img/responseButtonOffersNo0L3.png' class='respPic'></div></div>","null","5","Sebastian","6","Kept","0.2,0.65","14","0.2","trustrating_stim/white_mw060.bmp","5","63","13"
"html-keyboard-response","175","279725","0.0-19.0-3.12","64015b86a1764cf737326eb7","bdp_trlrn","Wed Mar 15 2023 23:35:25 GMT-0400 (Eastern Daylight Time)","521273","Untrustworthy,Trustworthy","","null","","","","feedback","","<div class='trialDiv'><img src='trustrating_stim/white_mw060.bmp'><br><font class='baseline'><strong>Sebastian</strong><p>Received: <strong>12</strong></font> &nbsp; &nbsp; &nbsp; &nbsp; &nbsp; &nbsp;<font class='negOutcome'>Shared back: <strong>0</strong></font></font><div class='respPicDiv'><img src='img/responseButtonOffersNo0_wht.png' class='respPic'></div></div>","null","5","Sebastian","6","Kept","0.2,0.65","14","0.2","trustrating_stim/white_mw060.bmp","5","63","13"
"html-keyboard-response","176","280181","0.0-19.0-1.13","64015b86a1764cf737326eb7","bdp_trlrn","Wed Mar 15 2023 23:35:25 GMT-0400 (Eastern Daylight Time)","521273","Untrustworthy,Trustworthy","","454","","","","decision","","<div class='trialDiv'><img src='trustrating_stim/white_mw063.bmp'><br><font class='baseline'><strong>Caleb</strong><p>Choose number of points to send.</font><div class='respPicDiv'><img src='img/responseButtonOffersNo0L.png' class='respPic'></div></div>","3","5","Caleb","2","Shared","0.8,0.35","11","0.8","trustrating_stim/white_mw063.bmp","2","68","14"
"html-keyboard-response","177","280433","0.0-19.0-2.13","64015b86a1764cf737326eb7","bdp_trlrn","Wed Mar 15 2023 23:35:25 GMT-0400 (Eastern Daylight Time)","521273","Untrustworthy,Trustworthy","","null","","","","decisionFB","","<div class='trialDiv'><img src='trustrating_stim/white_mw063.bmp'><br><font class='baseline'><strong>Caleb</strong><p>Choose number of points to send.</font><div class='respPicDiv'><img src='img/responseButtonOffersNo0L3.png' class='respPic'></div></div>","null","5","Caleb","2","Shared","0.8,0.35","11","0.8","trustrating_stim/white_mw063.bmp","2","65","14"
"html-keyboard-response","178","281438","0.0-19.0-3.13","64015b86a1764cf737326eb7","bdp_trlrn","Wed Mar 15 2023 23:35:25 GMT-0400 (Eastern Daylight Time)","521273","Untrustworthy,Trustworthy","","null","","","","feedback","","<div class='trialDiv'><img src='trustrating_stim/white_mw063.bmp'><br><font class='baseline'><strong>Caleb</strong><p>Received: <strong>12</strong></font> &nbsp; &nbsp; &nbsp; &nbsp; &nbsp; &nbsp;<font class='posOutcome'>Shared back: <strong>6</strong></font></font><div class='respPicDiv'><img src='img/responseButtonOffersNo0_wht.png' class='respPic'></div></div>","null","5","Caleb","2","Shared","0.8,0.35","11","0.8","trustrating_stim/white_mw063.bmp","2","71","14"
"html-keyboard-response","179","282355","0.0-19.0-1.14","64015b86a1764cf737326eb7","bdp_trlrn","Wed Mar 15 2023 23:35:25 GMT-0400 (Eastern Daylight Time)","521273","Untrustworthy,Trustworthy","","917","","","","decision","","<div class='trialDiv'><img src='trustrating_stim/white_00120_931230_fa_edt.bmp'><br><font class='baseline'><strong>Evan</strong><p>Choose number of points to send.</font><div class='respPicDiv'><img src='img/responseButtonOffersNo0L.png' class='respPic'></div></div>","4","5","Evan","11","Shared","0.65,0.35","10","0.65","trustrating_stim/white_00120_931230_fa_edt.bmp","7.5","76","15"
"html-keyboard-response","180","282611","0.0-19.0-2.14","64015b86a1764cf737326eb7","bdp_trlrn","Wed Mar 15 2023 23:35:25 GMT-0400 (Eastern Daylight Time)","521273","Untrustworthy,Trustworthy","","null","","","","decisionFB","","<div class='trialDiv'><img src='trustrating_stim/white_00120_931230_fa_edt.bmp'><br><font class='baseline'><strong>Evan</strong><p>Choose number of points to send.</font><div class='respPicDiv'><img src='img/responseButtonOffersNo0L4.png' class='respPic'></div></div>","null","5","Evan","11","Shared","0.65,0.35","10","0.65","trustrating_stim/white_00120_931230_fa_edt.bmp","7.5","72","15"
"html-keyboard-response","181","283615","0.0-19.0-3.14","64015b86a1764cf737326eb7","bdp_trlrn","Wed Mar 15 2023 23:35:25 GMT-0400 (Eastern Daylight Time)","521273","Untrustworthy,Trustworthy","","null","","","","feedback","","<div class='trialDiv'><img src='trustrating_stim/white_00120_931230_fa_edt.bmp'><br><font class='baseline'><strong>Evan</strong><p>Received: <strong>16</strong></font> &nbsp; &nbsp; &nbsp; &nbsp; &nbsp; &nbsp;<font class='posOutcome'>Shared back: <strong>8</strong></font></font><div class='respPicDiv'><img src='img/responseButtonOffersNo0_wht.png' class='respPic'></div></div>","null","5","Evan","11","Shared","0.65,0.35","10","0.65","trustrating_stim/white_00120_931230_fa_edt.bmp","7.5","80","15"
"html-keyboard-response","182","285310","0.0-19.0-1.15","64015b86a1764cf737326eb7","bdp_trlrn","Wed Mar 15 2023 23:35:25 GMT-0400 (Eastern Daylight Time)","521273","Untrustworthy,Trustworthy","","1693","","","","decision","","<div class='trialDiv'><img src='trustrating_stim/white_mw063.bmp'><br><font class='baseline'><strong>Caleb</strong><p>Choose number of points to send.</font><div class='respPicDiv'><img src='img/responseButtonOffersNo0L.png' class='respPic'></div></div>","3","6","Caleb","2","Shared","0.8,0.35","11","0.8","trustrating_stim/white_mw063.bmp","2","85","16"
"html-keyboard-response","183","285565","0.0-19.0-2.15","64015b86a1764cf737326eb7","bdp_trlrn","Wed Mar 15 2023 23:35:25 GMT-0400 (Eastern Daylight Time)","521273","Untrustworthy,Trustworthy","","null","","","","decisionFB","","<div class='trialDiv'><img src='trustrating_stim/white_mw063.bmp'><br><font class='baseline'><strong>Caleb</strong><p>Choose number of points to send.</font><div class='respPicDiv'><img src='img/responseButtonOffersNo0L3.png' class='respPic'></div></div>","null","6","Caleb","2","Shared","0.8,0.35","11","0.8","trustrating_stim/white_mw063.bmp","2","82","16"
"html-keyboard-response","184","286569","0.0-19.0-3.15","64015b86a1764cf737326eb7","bdp_trlrn","Wed Mar 15 2023 23:35:25 GMT-0400 (Eastern Daylight Time)","521273","Untrustworthy,Trustworthy","","null","","","","feedback","","<div class='trialDiv'><img src='trustrating_stim/white_mw063.bmp'><br><font class='baseline'><strong>Caleb</strong><p>Received: <strong>12</strong></font> &nbsp; &nbsp; &nbsp; &nbsp; &nbsp; &nbsp;<font class='posOutcome'>Shared back: <strong>6</strong></font></font><div class='respPicDiv'><img src='img/responseButtonOffersNo0_wht.png' class='respPic'></div></div>","null","6","Caleb","2","Shared","0.8,0.35","11","0.8","trustrating_stim/white_mw063.bmp","2","88","16"
"html-keyboard-response","185","288401","0.0-19.0-1.16","64015b86a1764cf737326eb7","bdp_trlrn","Wed Mar 15 2023 23:35:25 GMT-0400 (Eastern Daylight Time)","521273","Untrustworthy,Trustworthy","","1831","","","","decision","","<div class='trialDiv'><img src='trustrating_stim/white_mw060.bmp'><br><font class='baseline'><strong>Sebastian</strong><p>Choose number of points to send.</font><div class='respPicDiv'><img src='img/responseButtonOffersNo0L.png' class='respPic'></div></div>","5","6","Sebastian","6","Kept","0.2,0.65","14","0.2","trustrating_stim/white_mw060.bmp","5","93","17"
"html-keyboard-response","186","288653","0.0-19.0-2.16","64015b86a1764cf737326eb7","bdp_trlrn","Wed Mar 15 2023 23:35:25 GMT-0400 (Eastern Daylight Time)","521273","Untrustworthy,Trustworthy","","null","","","","decisionFB","","<div class='trialDiv'><img src='trustrating_stim/white_mw060.bmp'><br><font class='baseline'><strong>Sebastian</strong><p>Choose number of points to send.</font><div class='respPicDiv'><img src='img/responseButtonOffersNo0L5.png' class='respPic'></div></div>","null","6","Sebastian","6","Kept","0.2,0.65","14","0.2","trustrating_stim/white_mw060.bmp","5","88","17"
"html-keyboard-response","187","289658","0.0-19.0-3.16","64015b86a1764cf737326eb7","bdp_trlrn","Wed Mar 15 2023 23:35:25 GMT-0400 (Eastern Daylight Time)","521273","Untrustworthy,Trustworthy","","null","","","","feedback","","<div class='trialDiv'><img src='trustrating_stim/white_mw060.bmp'><br><font class='baseline'><strong>Sebastian</strong><p>Received: <strong>20</strong></font> &nbsp; &nbsp; &nbsp; &nbsp; &nbsp; &nbsp;<font class='negOutcome'>Shared back: <strong>0</strong></font></font><div class='respPicDiv'><img src='img/responseButtonOffersNo0_wht.png' class='respPic'></div></div>","null","6","Sebastian","6","Kept","0.2,0.65","14","0.2","trustrating_stim/white_mw060.bmp","5","88","17"
"html-keyboard-response","188","290479","0.0-19.0-1.17","64015b86a1764cf737326eb7","bdp_trlrn","Wed Mar 15 2023 23:35:25 GMT-0400 (Eastern Daylight Time)","521273","Untrustworthy,Trustworthy","","820","","","","decision","","<div class='trialDiv'><img src='trustrating_stim/white_00120_931230_fa_edt.bmp'><br><font class='baseline'><strong>Evan</strong><p>Choose number of points to send.</font><div class='respPicDiv'><img src='img/responseButtonOffersNo0L.png' class='respPic'></div></div>","4","6","Evan","11","Kept","0.65,0.35","10","0.65","trustrating_stim/white_00120_931230_fa_edt.bmp","7.5","93","18"
"html-keyboard-response","189","290731","0.0-19.0-2.17","64015b86a1764cf737326eb7","bdp_trlrn","Wed Mar 15 2023 23:35:25 GMT-0400 (Eastern Daylight Time)","521273","Untrustworthy,Trustworthy","","null","","","","decisionFB","","<div class='trialDiv'><img src='trustrating_stim/white_00120_931230_fa_edt.bmp'><br><font class='baseline'><strong>Evan</strong><p>Choose number of points to send.</font><div class='respPicDiv'><img src='img/responseButtonOffersNo0L4.png' class='respPic'></div></div>","null","6","Evan","11","Kept","0.65,0.35","10","0.65","trustrating_stim/white_00120_931230_fa_edt.bmp","7.5","89","18"
"html-keyboard-response","190","291736","0.0-19.0-3.17","64015b86a1764cf737326eb7","bdp_trlrn","Wed Mar 15 2023 23:35:25 GMT-0400 (Eastern Daylight Time)","521273","Untrustworthy,Trustworthy","","null","","","","feedback","","<div class='trialDiv'><img src='trustrating_stim/white_00120_931230_fa_edt.bmp'><br><font class='baseline'><strong>Evan</strong><p>Received: <strong>16</strong></font> &nbsp; &nbsp; &nbsp; &nbsp; &nbsp; &nbsp;<font class='negOutcome'>Shared back: <strong>0</strong></font></font><div class='respPicDiv'><img src='img/responseButtonOffersNo0_wht.png' class='respPic'></div></div>","null","6","Evan","11","Kept","0.65,0.35","10","0.65","trustrating_stim/white_00120_931230_fa_edt.bmp","7.5","89","18"
"html-keyboard-response","191","293228","0.0-19.0-1.18","64015b86a1764cf737326eb7","bdp_trlrn","Wed Mar 15 2023 23:35:25 GMT-0400 (Eastern Daylight Time)","521273","Untrustworthy,Trustworthy","","1491","","","","decision","","<div class='trialDiv'><img src='trustrating_stim/white_mw060.bmp'><br><font class='baseline'><strong>Sebastian</strong><p>Choose number of points to send.</font><div class='respPicDiv'><img src='img/responseButtonOffersNo0L.png' class='respPic'></div></div>","2","7","Sebastian","6","Kept","0.2,0.65","14","0.2","trustrating_stim/white_mw060.bmp","5","94","19"
"html-keyboard-response","192","293483","0.0-19.0-2.18","64015b86a1764cf737326eb7","bdp_trlrn","Wed Mar 15 2023 23:35:25 GMT-0400 (Eastern Daylight Time)","521273","Untrustworthy,Trustworthy","","null","","","","decisionFB","","<div class='trialDiv'><img src='trustrating_stim/white_mw060.bmp'><br><font class='baseline'><strong>Sebastian</strong><p>Choose number of points to send.</font><div class='respPicDiv'><img src='img/responseButtonOffersNo0L2.png' class='respPic'></div></div>","null","7","Sebastian","6","Kept","0.2,0.65","14","0.2","trustrating_stim/white_mw060.bmp","5","92","19"
"html-keyboard-response","193","294488","0.0-19.0-3.18","64015b86a1764cf737326eb7","bdp_trlrn","Wed Mar 15 2023 23:35:25 GMT-0400 (Eastern Daylight Time)","521273","Untrustworthy,Trustworthy","","null","","","","feedback","","<div class='trialDiv'><img src='trustrating_stim/white_mw060.bmp'><br><font class='baseline'><strong>Sebastian</strong><p>Received: <strong>8</strong></font> &nbsp; &nbsp; &nbsp; &nbsp; &nbsp; &nbsp;<font class='negOutcome'>Shared back: <strong>0</strong></font></font><div class='respPicDiv'><img src='img/responseButtonOffersNo0_wht.png' class='respPic'></div></div>","null","7","Sebastian","6","Kept","0.2,0.65","14","0.2","trustrating_stim/white_mw060.bmp","5","92","19"
"html-keyboard-response","194","295426","0.0-19.0-1.19","64015b86a1764cf737326eb7","bdp_trlrn","Wed Mar 15 2023 23:35:25 GMT-0400 (Eastern Daylight Time)","521273","Untrustworthy,Trustworthy","","937","","","","decision","","<div class='trialDiv'><img src='trustrating_stim/white_00120_931230_fa_edt.bmp'><br><font class='baseline'><strong>Evan</strong><p>Choose number of points to send.</font><div class='respPicDiv'><img src='img/responseButtonOffersNo0L.png' class='respPic'></div></div>","4","7","Evan","11","Kept","0.65,0.35","10","0.65","trustrating_stim/white_00120_931230_fa_edt.bmp","7.5","97","20"
"html-keyboard-response","195","295677","0.0-19.0-2.19","64015b86a1764cf737326eb7","bdp_trlrn","Wed Mar 15 2023 23:35:25 GMT-0400 (Eastern Daylight Time)","521273","Untrustworthy,Trustworthy","","null","","","","decisionFB","","<div class='trialDiv'><img src='trustrating_stim/white_00120_931230_fa_edt.bmp'><br><font class='baseline'><strong>Evan</strong><p>Choose number of points to send.</font><div class='respPicDiv'><img src='img/responseButtonOffersNo0L4.png' class='respPic'></div></div>","null","7","Evan","11","Kept","0.65,0.35","10","0.65","trustrating_stim/white_00120_931230_fa_edt.bmp","7.5","93","20"
"html-keyboard-response","196","296682","0.0-19.0-3.19","64015b86a1764cf737326eb7","bdp_trlrn","Wed Mar 15 2023 23:35:25 GMT-0400 (Eastern Daylight Time)","521273","Untrustworthy,Trustworthy","","null","","","","feedback","","<div class='trialDiv'><img src='trustrating_stim/white_00120_931230_fa_edt.bmp'><br><font class='baseline'><strong>Evan</strong><p>Received: <strong>16</strong></font> &nbsp; &nbsp; &nbsp; &nbsp; &nbsp; &nbsp;<font class='negOutcome'>Shared back: <strong>0</strong></font></font><div class='respPicDiv'><img src='img/responseButtonOffersNo0_wht.png' class='respPic'></div></div>","null","7","Evan","11","Kept","0.65,0.35","10","0.65","trustrating_stim/white_00120_931230_fa_edt.bmp","7.5","93","20"
"html-keyboard-response","197","297633","0.0-19.0-1.20","64015b86a1764cf737326eb7","bdp_trlrn","Wed Mar 15 2023 23:35:25 GMT-0400 (Eastern Daylight Time)","521273","Untrustworthy,Trustworthy","","950","","","","decision","","<div class='trialDiv'><img src='trustrating_stim/white_mw063.bmp'><br><font class='baseline'><strong>Caleb</strong><p>Choose number of points to send.</font><div class='respPicDiv'><img src='img/responseButtonOffersNo0L.png' class='respPic'></div></div>","3","7","Caleb","2","Shared","0.8,0.35","11","0.8","trustrating_stim/white_mw063.bmp","2","98","21"
"html-keyboard-response","198","297889","0.0-19.0-2.20","64015b86a1764cf737326eb7","bdp_trlrn","Wed Mar 15 2023 23:35:25 GMT-0400 (Eastern Daylight Time)","521273","Untrustworthy,Trustworthy","","null","","","","decisionFB","","<div class='trialDiv'><img src='trustrating_stim/white_mw063.bmp'><br><font class='baseline'><strong>Caleb</strong><p>Choose number of points to send.</font><div class='respPicDiv'><img src='img/responseButtonOffersNo0L3.png' class='respPic'></div></div>","null","7","Caleb","2","Shared","0.8,0.35","11","0.8","trustrating_stim/white_mw063.bmp","2","95","21"
"html-keyboard-response","199","298894","0.0-19.0-3.20","64015b86a1764cf737326eb7","bdp_trlrn","Wed Mar 15 2023 23:35:25 GMT-0400 (Eastern Daylight Time)","521273","Untrustworthy,Trustworthy","","null","","","","feedback","","<div class='trialDiv'><img src='trustrating_stim/white_mw063.bmp'><br><font class='baseline'><strong>Caleb</strong><p>Received: <strong>12</strong></font> &nbsp; &nbsp; &nbsp; &nbsp; &nbsp; &nbsp;<font class='posOutcome'>Shared back: <strong>6</strong></font></font><div class='respPicDiv'><img src='img/responseButtonOffersNo0_wht.png' class='respPic'></div></div>","null","7","Caleb","2","Shared","0.8,0.35","11","0.8","trustrating_stim/white_mw063.bmp","2","101","21"
"html-keyboard-response","200","299613","0.0-19.0-1.21","64015b86a1764cf737326eb7","bdp_trlrn","Wed Mar 15 2023 23:35:25 GMT-0400 (Eastern Daylight Time)","521273","Untrustworthy,Trustworthy","","717","","","","decision","","<div class='trialDiv'><img src='trustrating_stim/white_00120_931230_fa_edt.bmp'><br><font class='baseline'><strong>Evan</strong><p>Choose number of points to send.</font><div class='respPicDiv'><img src='img/responseButtonOffersNo0L.png' class='respPic'></div></div>","4","8","Evan","11","Shared","0.65,0.35","10","0.65","trustrating_stim/white_00120_931230_fa_edt.bmp","7.5","106","22"
"html-keyboard-response","201","299867","0.0-19.0-2.21","64015b86a1764cf737326eb7","bdp_trlrn","Wed Mar 15 2023 23:35:25 GMT-0400 (Eastern Daylight Time)","521273","Untrustworthy,Trustworthy","","null","","","","decisionFB","","<div class='trialDiv'><img src='trustrating_stim/white_00120_931230_fa_edt.bmp'><br><font class='baseline'><strong>Evan</strong><p>Choose number of points to send.</font><div class='respPicDiv'><img src='img/responseButtonOffersNo0L4.png' class='respPic'></div></div>","null","8","Evan","11","Shared","0.65,0.35","10","0.65","trustrating_stim/white_00120_931230_fa_edt.bmp","7.5","102","22"
"html-keyboard-response","202","300873","0.0-19.0-3.21","64015b86a1764cf737326eb7","bdp_trlrn","Wed Mar 15 2023 23:35:25 GMT-0400 (Eastern Daylight Time)","521273","Untrustworthy,Trustworthy","","null","","","","feedback","","<div class='trialDiv'><img src='trustrating_stim/white_00120_931230_fa_edt.bmp'><br><font class='baseline'><strong>Evan</strong><p>Received: <strong>16</strong></font> &nbsp; &nbsp; &nbsp; &nbsp; &nbsp; &nbsp;<font class='posOutcome'>Shared back: <strong>8</strong></font></font><div class='respPicDiv'><img src='img/responseButtonOffersNo0_wht.png' class='respPic'></div></div>","null","8","Evan","11","Shared","0.65,0.35","10","0.65","trustrating_stim/white_00120_931230_fa_edt.bmp","7.5","110","22"
"html-keyboard-response","203","303453","0.0-19.0-1.22","64015b86a1764cf737326eb7","bdp_trlrn","Wed Mar 15 2023 23:35:25 GMT-0400 (Eastern Daylight Time)","521273","Untrustworthy,Trustworthy","","2579","","","","decision","","<div class='trialDiv'><img src='trustrating_stim/white_mw060.bmp'><br><font class='baseline'><strong>Sebastian</strong><p>Choose number of points to send.</font><div class='respPicDiv'><img src='img/responseButtonOffersNo0L.png' class='respPic'></div></div>","5","8","Sebastian","6","Shared","0.2,0.65","14","0.2","trustrating_stim/white_mw060.bmp","5","115","23"
"html-keyboard-response","204","303708","0.0-19.0-2.22","64015b86a1764cf737326eb7","bdp_trlrn","Wed Mar 15 2023 23:35:25 GMT-0400 (Eastern Daylight Time)","521273","Untrustworthy,Trustworthy","","null","","","","decisionFB","","<div class='trialDiv'><img src='trustrating_stim/white_mw060.bmp'><br><font class='baseline'><strong>Sebastian</strong><p>Choose number of points to send.</font><div class='respPicDiv'><img src='img/responseButtonOffersNo0L5.png' class='respPic'></div></div>","null","8","Sebastian","6","Shared","0.2,0.65","14","0.2","trustrating_stim/white_mw060.bmp","5","110","23"
"html-keyboard-response","205","304711","0.0-19.0-3.22","64015b86a1764cf737326eb7","bdp_trlrn","Wed Mar 15 2023 23:35:25 GMT-0400 (Eastern Daylight Time)","521273","Untrustworthy,Trustworthy","","null","","","","feedback","","<div class='trialDiv'><img src='trustrating_stim/white_mw060.bmp'><br><font class='baseline'><strong>Sebastian</strong><p>Received: <strong>20</strong></font> &nbsp; &nbsp; &nbsp; &nbsp; &nbsp; &nbsp;<font class='posOutcome'>Shared back: <strong>10</strong></font></font><div class='respPicDiv'><img src='img/responseButtonOffersNo0_wht.png' class='respPic'></div></div>","null","8","Sebastian","6","Shared","0.2,0.65","14","0.2","trustrating_stim/white_mw060.bmp","5","120","23"
"html-keyboard-response","206","305473","0.0-19.0-1.23","64015b86a1764cf737326eb7","bdp_trlrn","Wed Mar 15 2023 23:35:25 GMT-0400 (Eastern Daylight Time)","521273","Untrustworthy,Trustworthy","","761","","","","decision","","<div class='trialDiv'><img src='trustrating_stim/white_mw063.bmp'><br><font class='baseline'><strong>Caleb</strong><p>Choose number of points to send.</font><div class='respPicDiv'><img src='img/responseButtonOffersNo0L.png' class='respPic'></div></div>","3","8","Caleb","2","Shared","0.8,0.35","11","0.8","trustrating_stim/white_mw063.bmp","2","125","24"
"html-keyboard-response","207","305726","0.0-19.0-2.23","64015b86a1764cf737326eb7","bdp_trlrn","Wed Mar 15 2023 23:35:25 GMT-0400 (Eastern Daylight Time)","521273","Untrustworthy,Trustworthy","","null","","","","decisionFB","","<div class='trialDiv'><img src='trustrating_stim/white_mw063.bmp'><br><font class='baseline'><strong>Caleb</strong><p>Choose number of points to send.</font><div class='respPicDiv'><img src='img/responseButtonOffersNo0L3.png' class='respPic'></div></div>","null","8","Caleb","2","Shared","0.8,0.35","11","0.8","trustrating_stim/white_mw063.bmp","2","122","24"
"html-keyboard-response","208","306733","0.0-19.0-3.23","64015b86a1764cf737326eb7","bdp_trlrn","Wed Mar 15 2023 23:35:25 GMT-0400 (Eastern Daylight Time)","521273","Untrustworthy,Trustworthy","","null","","","","feedback","","<div class='trialDiv'><img src='trustrating_stim/white_mw063.bmp'><br><font class='baseline'><strong>Caleb</strong><p>Received: <strong>12</strong></font> &nbsp; &nbsp; &nbsp; &nbsp; &nbsp; &nbsp;<font class='posOutcome'>Shared back: <strong>6</strong></font></font><div class='respPicDiv'><img src='img/responseButtonOffersNo0_wht.png' class='respPic'></div></div>","null","8","Caleb","2","Shared","0.8,0.35","11","0.8","trustrating_stim/white_mw063.bmp","2","128","24"
"html-keyboard-response","209","307619","0.0-19.0-1.24","64015b86a1764cf737326eb7","bdp_trlrn","Wed Mar 15 2023 23:35:25 GMT-0400 (Eastern Daylight Time)","521273","Untrustworthy,Trustworthy","","886","","","","decision","","<div class='trialDiv'><img src='trustrating_stim/white_00120_931230_fa_edt.bmp'><br><font class='baseline'><strong>Evan</strong><p>Choose number of points to send.</font><div class='respPicDiv'><img src='img/responseButtonOffersNo0L.png' class='respPic'></div></div>","4","9","Evan","11","Shared","0.65,0.35","10","0.65","trustrating_stim/white_00120_931230_fa_edt.bmp","7.5","133","25"
"html-keyboard-response","210","307874","0.0-19.0-2.24","64015b86a1764cf737326eb7","bdp_trlrn","Wed Mar 15 2023 23:35:25 GMT-0400 (Eastern Daylight Time)","521273","Untrustworthy,Trustworthy","","null","","","","decisionFB","","<div class='trialDiv'><img src='trustrating_stim/white_00120_931230_fa_edt.bmp'><br><font class='baseline'><strong>Evan</strong><p>Choose number of points to send.</font><div class='respPicDiv'><img src='img/responseButtonOffersNo0L4.png' class='respPic'></div></div>","null","9","Evan","11","Shared","0.65,0.35","10","0.65","trustrating_stim/white_00120_931230_fa_edt.bmp","7.5","129","25"
"html-keyboard-response","211","308879","0.0-19.0-3.24","64015b86a1764cf737326eb7","bdp_trlrn","Wed Mar 15 2023 23:35:25 GMT-0400 (Eastern Daylight Time)","521273","Untrustworthy,Trustworthy","","null","","","","feedback","","<div class='trialDiv'><img src='trustrating_stim/white_00120_931230_fa_edt.bmp'><br><font class='baseline'><strong>Evan</strong><p>Received: <strong>16</strong></font> &nbsp; &nbsp; &nbsp; &nbsp; &nbsp; &nbsp;<font class='posOutcome'>Shared back: <strong>8</strong></font></font><div class='respPicDiv'><img src='img/responseButtonOffersNo0_wht.png' class='respPic'></div></div>","null","9","Evan","11","Shared","0.65,0.35","10","0.65","trustrating_stim/white_00120_931230_fa_edt.bmp","7.5","137","25"
"html-keyboard-response","212","309939","0.0-19.0-1.25","64015b86a1764cf737326eb7","bdp_trlrn","Wed Mar 15 2023 23:35:25 GMT-0400 (Eastern Daylight Time)","521273","Untrustworthy,Trustworthy","","1059","","","","decision","","<div class='trialDiv'><img src='trustrating_stim/white_mw063.bmp'><br><font class='baseline'><strong>Caleb</strong><p>Choose number of points to send.</font><div class='respPicDiv'><img src='img/responseButtonOffersNo0L.png' class='respPic'></div></div>","3","9","Caleb","2","Shared","0.8,0.35","11","0.8","trustrating_stim/white_mw063.bmp","2","142","26"
"html-keyboard-response","213","310190","0.0-19.0-2.25","64015b86a1764cf737326eb7","bdp_trlrn","Wed Mar 15 2023 23:35:25 GMT-0400 (Eastern Daylight Time)","521273","Untrustworthy,Trustworthy","","null","","","","decisionFB","","<div class='trialDiv'><img src='trustrating_stim/white_mw063.bmp'><br><font class='baseline'><strong>Caleb</strong><p>Choose number of points to send.</font><div class='respPicDiv'><img src='img/responseButtonOffersNo0L3.png' class='respPic'></div></div>","null","9","Caleb","2","Shared","0.8,0.35","11","0.8","trustrating_stim/white_mw063.bmp","2","139","26"
"html-keyboard-response","214","311195","0.0-19.0-3.25","64015b86a1764cf737326eb7","bdp_trlrn","Wed Mar 15 2023 23:35:25 GMT-0400 (Eastern Daylight Time)","521273","Untrustworthy,Trustworthy","","null","","","","feedback","","<div class='trialDiv'><img src='trustrating_stim/white_mw063.bmp'><br><font class='baseline'><strong>Caleb</strong><p>Received: <strong>12</strong></font> &nbsp; &nbsp; &nbsp; &nbsp; &nbsp; &nbsp;<font class='posOutcome'>Shared back: <strong>6</strong></font></font><div class='respPicDiv'><img src='img/responseButtonOffersNo0_wht.png' class='respPic'></div></div>","null","9","Caleb","2","Shared","0.8,0.35","11","0.8","trustrating_stim/white_mw063.bmp","2","145","26"
"html-keyboard-response","215","312327","0.0-19.0-1.26","64015b86a1764cf737326eb7","bdp_trlrn","Wed Mar 15 2023 23:35:25 GMT-0400 (Eastern Daylight Time)","521273","Untrustworthy,Trustworthy","","1131","","","","decision","","<div class='trialDiv'><img src='trustrating_stim/white_mw060.bmp'><br><font class='baseline'><strong>Sebastian</strong><p>Choose number of points to send.</font><div class='respPicDiv'><img src='img/responseButtonOffersNo0L.png' class='respPic'></div></div>","5","9","Sebastian","6","Kept","0.2,0.65","14","0.2","trustrating_stim/white_mw060.bmp","5","150","27"
"html-keyboard-response","216","312578","0.0-19.0-2.26","64015b86a1764cf737326eb7","bdp_trlrn","Wed Mar 15 2023 23:35:25 GMT-0400 (Eastern Daylight Time)","521273","Untrustworthy,Trustworthy","","null","","","","decisionFB","","<div class='trialDiv'><img src='trustrating_stim/white_mw060.bmp'><br><font class='baseline'><strong>Sebastian</strong><p>Choose number of points to send.</font><div class='respPicDiv'><img src='img/responseButtonOffersNo0L5.png' class='respPic'></div></div>","null","9","Sebastian","6","Kept","0.2,0.65","14","0.2","trustrating_stim/white_mw060.bmp","5","145","27"
"html-keyboard-response","217","313581","0.0-19.0-3.26","64015b86a1764cf737326eb7","bdp_trlrn","Wed Mar 15 2023 23:35:25 GMT-0400 (Eastern Daylight Time)","521273","Untrustworthy,Trustworthy","","null","","","","feedback","","<div class='trialDiv'><img src='trustrating_stim/white_mw060.bmp'><br><font class='baseline'><strong>Sebastian</strong><p>Received: <strong>20</strong></font> &nbsp; &nbsp; &nbsp; &nbsp; &nbsp; &nbsp;<font class='negOutcome'>Shared back: <strong>0</strong></font></font><div class='respPicDiv'><img src='img/responseButtonOffersNo0_wht.png' class='respPic'></div></div>","null","9","Sebastian","6","Kept","0.2,0.65","14","0.2","trustrating_stim/white_mw060.bmp","5","145","27"
"html-keyboard-response","218","314361","0.0-19.0-1.27","64015b86a1764cf737326eb7","bdp_trlrn","Wed Mar 15 2023 23:35:25 GMT-0400 (Eastern Daylight Time)","521273","Untrustworthy,Trustworthy","","779","","","","decision","","<div class='trialDiv'><img src='trustrating_stim/white_mw063.bmp'><br><font class='baseline'><strong>Caleb</strong><p>Choose number of points to send.</font><div class='respPicDiv'><img src='img/responseButtonOffersNo0L.png' class='respPic'></div></div>","3","10","Caleb","2","Shared","0.8,0.35","11","0.8","trustrating_stim/white_mw063.bmp","2","150","28"
"html-keyboard-response","219","314614","0.0-19.0-2.27","64015b86a1764cf737326eb7","bdp_trlrn","Wed Mar 15 2023 23:35:25 GMT-0400 (Eastern Daylight Time)","521273","Untrustworthy,Trustworthy","","null","","","","decisionFB","","<div class='trialDiv'><img src='trustrating_stim/white_mw063.bmp'><br><font class='baseline'><strong>Caleb</strong><p>Choose number of points to send.</font><div class='respPicDiv'><img src='img/responseButtonOffersNo0L3.png' class='respPic'></div></div>","null","10","Caleb","2","Shared","0.8,0.35","11","0.8","trustrating_stim/white_mw063.bmp","2","147","28"
"html-keyboard-response","220","315618","0.0-19.0-3.27","64015b86a1764cf737326eb7","bdp_trlrn","Wed Mar 15 2023 23:35:25 GMT-0400 (Eastern Daylight Time)","521273","Untrustworthy,Trustworthy","","null","","","","feedback","","<div class='trialDiv'><img src='trustrating_stim/white_mw063.bmp'><br><font class='baseline'><strong>Caleb</strong><p>Received: <strong>12</strong></font> &nbsp; &nbsp; &nbsp; &nbsp; &nbsp; &nbsp;<font class='posOutcome'>Shared back: <strong>6</strong></font></font><div class='respPicDiv'><img src='img/responseButtonOffersNo0_wht.png' class='respPic'></div></div>","null","10","Caleb","2","Shared","0.8,0.35","11","0.8","trustrating_stim/white_mw063.bmp","2","153","28"
"html-keyboard-response","221","316662","0.0-19.0-1.28","64015b86a1764cf737326eb7","bdp_trlrn","Wed Mar 15 2023 23:35:25 GMT-0400 (Eastern Daylight Time)","521273","Untrustworthy,Trustworthy","","1042","","","","decision","","<div class='trialDiv'><img src='trustrating_stim/white_mw060.bmp'><br><font class='baseline'><strong>Sebastian</strong><p>Choose number of points to send.</font><div class='respPicDiv'><img src='img/responseButtonOffersNo0L.png' class='respPic'></div></div>","2","10","Sebastian","6","Shared","0.2,0.65","14","0.2","trustrating_stim/white_mw060.bmp","5","158","29"
