"event","trial","time","trialtype","subject_id","task","startTime","totalTime","labels","numBlurs","trial_type","trial_index","time_elapsed","internal_node_id","view_history","rt","success","stimulus","key_press","aground","name","faceID","outcome","agenttype","agentswpt","agentcurrpshare","face","avgRating","point_total","round"
"focus","0","0","focusevent","5f932e6a3ceaf50d5768745b","bdp_trlrn","Wed Mar 15 2023 15:11:01 GMT-0400 (Eastern Daylight Time)","488126","Trustworthy,Untrustworthy","","","","","","","","","","","","","","","","","","","","",""
"focus","0","0","focusevent","5f932e6a3ceaf50d5768745b","bdp_trlrn","Wed Mar 15 2023 15:11:01 GMT-0400 (Eastern Daylight Time)","488126","Trustworthy,Untrustworthy","","","","","","","","","","","","","","","","","","","","",""
"blur","0","0","blurevent","5f932e6a3ceaf50d5768745b","bdp_trlrn","Wed Mar 15 2023 15:11:01 GMT-0400 (Eastern Daylight Time)","488126","Trustworthy,Untrustworthy","1","","","","","","","","","","","","","","","","","","","",""
"focus","0","0","focusevent","5f932e6a3ceaf50d5768745b","bdp_trlrn","Wed Mar 15 2023 15:11:01 GMT-0400 (Eastern Daylight Time)","488126","Trustworthy,Untrustworthy","","","","","","","","","","","","","","","","","","","","",""
"","","","","5f932e6a3ceaf50d5768745b","bdp_trlrn","Wed Mar 15 2023 15:11:01 GMT-0400 (Eastern Daylight Time)","488126","Trustworthy,Untrustworthy","","pavlovia","0","7","0.0-0.0","","","","","","","","","","","","","","","",""
"","","","","5f932e6a3ceaf50d5768745b","bdp_trlrn","Wed Mar 15 2023 15:11:01 GMT-0400 (Eastern Daylight Time)","488126","Trustworthy,Untrustworthy","","instructions","1","2585","0.0-1.0","[{""page_index"":0,""viewing_time"":2576}]","2577","","","","","","","","","","","","","",""
"blur","2","4674","blurevent","5f932e6a3ceaf50d5768745b","bdp_trlrn","Wed Mar 15 2023 15:11:01 GMT-0400 (Eastern Daylight Time)","488126","Trustworthy,Untrustworthy","2","","","","","","","","","","","","","","","","","","","",""
"focus","2","8184","focusevent","5f932e6a3ceaf50d5768745b","bdp_trlrn","Wed Mar 15 2023 15:11:01 GMT-0400 (Eastern Daylight Time)","488126","Trustworthy,Untrustworthy","","","","","","","","","","","","","","","","","","","","",""
"fullscreenenter","2","10011","fullscreenenter","5f932e6a3ceaf50d5768745b","bdp_trlrn","Wed Mar 15 2023 15:11:01 GMT-0400 (Eastern Daylight Time)","488126","Trustworthy,Untrustworthy","","","","","","","","","","","","","","","","","","","","",""
"","","","","5f932e6a3ceaf50d5768745b","bdp_trlrn","Wed Mar 15 2023 15:11:01 GMT-0400 (Eastern Daylight Time)","488126","Trustworthy,Untrustworthy","","fullscreen","2","10995","0.0-2.0","","","true","","","","","","","","","","","","",""
"","","","","5f932e6a3ceaf50d5768745b","bdp_trlrn","Wed Mar 15 2023 15:11:01 GMT-0400 (Eastern Daylight Time)","488126","Trustworthy,Untrustworthy","","instructions","3","25580","0.0-4.0","[{""page_index"":0,""viewing_time"":11414},{""page_index"":1,""viewing_time"":3158}]","14572","","","","","","","","","","","","","",""
"","","","","5f932e6a3ceaf50d5768745b","bdp_trlrn","Wed Mar 15 2023 15:11:01 GMT-0400 (Eastern Daylight Time)","488126","Trustworthy,Untrustworthy","","instructions","4","26223","0.0-5.0","[{""page_index"":0,""viewing_time"":642}]","642","","","","","","","","","","","","","",""
"","","","rating","5f932e6a3ceaf50d5768745b","bdp_trlrn","Wed Mar 15 2023 15:11:01 GMT-0400 (Eastern Daylight Time)","488126","Trustworthy,Untrustworthy","","image-keyboard-response","5","28020","0.0-6.0-1.0","","1681","","trustrating_stim/white_mw097.bmp","5","","","","","","","","","","",""
"","","","ratingFB","5f932e6a3ceaf50d5768745b","bdp_trlrn","Wed Mar 15 2023 15:11:01 GMT-0400 (Eastern Daylight Time)","488126","Trustworthy,Untrustworthy","","image-keyboard-response","6","28241","0.0-6.0-2.0","","null","","trustrating_stim/white_mw097.bmp","null","","","","","","","","","","",""
"","","","rating","5f932e6a3ceaf50d5768745b","bdp_trlrn","Wed Mar 15 2023 15:11:01 GMT-0400 (Eastern Daylight Time)","488126","Trustworthy,Untrustworthy","","image-keyboard-response","7","29591","0.0-6.0-1.1","","1227","","trustrating_stim/white_00340_940422_fa_edt.bmp","6","","","","","","","","","","",""
"","","","ratingFB","5f932e6a3ceaf50d5768745b","bdp_trlrn","Wed Mar 15 2023 15:11:01 GMT-0400 (Eastern Daylight Time)","488126","Trustworthy,Untrustworthy","","image-keyboard-response","8","29811","0.0-6.0-2.1","","null","","trustrating_stim/white_00340_940422_fa_edt.bmp","null","","","","","","","","","","",""
"","","","rating","5f932e6a3ceaf50d5768745b","bdp_trlrn","Wed Mar 15 2023 15:11:01 GMT-0400 (Eastern Daylight Time)","488126","Trustworthy,Untrustworthy","","image-keyboard-response","9","30622","0.0-6.0-1.2","","687","","trustrating_stim/white_mw056.bmp","7","","","","","","","","","","",""
"","","","ratingFB","5f932e6a3ceaf50d5768745b","bdp_trlrn","Wed Mar 15 2023 15:11:01 GMT-0400 (Eastern Daylight Time)","488126","Trustworthy,Untrustworthy","","image-keyboard-response","10","30832","0.0-6.0-2.2","","null","","trustrating_stim/white_mw056.bmp","null","","","","","","","","","","",""
"","","","rating","5f932e6a3ceaf50d5768745b","bdp_trlrn","Wed Mar 15 2023 15:11:01 GMT-0400 (Eastern Daylight Time)","488126","Trustworthy,Untrustworthy","","image-keyboard-response","11","31465","0.0-6.0-1.3","","521","","trustrating_stim/white_mw033.bmp","7","","","","","","","","","","",""
"","","","ratingFB","5f932e6a3ceaf50d5768745b","bdp_trlrn","Wed Mar 15 2023 15:11:01 GMT-0400 (Eastern Daylight Time)","488126","Trustworthy,Untrustworthy","","image-keyboard-response","12","31682","0.0-6.0-2.3","","null","","trustrating_stim/white_mw033.bmp","null","","","","","","","","","","",""
"","","","rating","5f932e6a3ceaf50d5768745b","bdp_trlrn","Wed Mar 15 2023 15:11:01 GMT-0400 (Eastern Daylight Time)","488126","Trustworthy,Untrustworthy","","image-keyboard-response","13","32674","0.0-6.0-1.4","","871","","trustrating_stim/white_mw053.bmp","3","","","","","","","","","","",""
"","","","ratingFB","5f932e6a3ceaf50d5768745b","bdp_trlrn","Wed Mar 15 2023 15:11:01 GMT-0400 (Eastern Daylight Time)","488126","Trustworthy,Untrustworthy","","image-keyboard-response","14","32886","0.0-6.0-2.4","","null","","trustrating_stim/white_mw053.bmp","null","","","","","","","","","","",""
"","","","rating","5f932e6a3ceaf50d5768745b","bdp_trlrn","Wed Mar 15 2023 15:11:01 GMT-0400 (Eastern Daylight Time)","488126","Trustworthy,Untrustworthy","","image-keyboard-response","15","33561","0.0-6.0-1.5","","548","","trustrating_stim/white_00120_931230_fa_edt.bmp","2","","","","","","","","","","",""
"","","","ratingFB","5f932e6a3ceaf50d5768745b","bdp_trlrn","Wed Mar 15 2023 15:11:01 GMT-0400 (Eastern Daylight Time)","488126","Trustworthy,Untrustworthy","","image-keyboard-response","16","33778","0.0-6.0-2.5","","null","","trustrating_stim/white_00120_931230_fa_edt.bmp","null","","","","","","","","","","",""
"","","","rating","5f932e6a3ceaf50d5768745b","bdp_trlrn","Wed Mar 15 2023 15:11:01 GMT-0400 (Eastern Daylight Time)","488126","Trustworthy,Untrustworthy","","image-keyboard-response","17","34397","0.0-6.0-1.6","","513","","trustrating_stim/white_mw049.bmp","3","","","","","","","","","","",""
"","","","ratingFB","5f932e6a3ceaf50d5768745b","bdp_trlrn","Wed Mar 15 2023 15:11:01 GMT-0400 (Eastern Daylight Time)","488126","Trustworthy,Untrustworthy","","image-keyboard-response","18","34612","0.0-6.0-2.6","","null","","trustrating_stim/white_mw049.bmp","null","","","","","","","","","","",""
"","","","rating","5f932e6a3ceaf50d5768745b","bdp_trlrn","Wed Mar 15 2023 15:11:01 GMT-0400 (Eastern Daylight Time)","488126","Trustworthy,Untrustworthy","","image-keyboard-response","19","35039","0.0-6.0-1.7","","306","","trustrating_stim/white_00577_940928_fa_edt.bmp","1","","","","","","","","","","",""
"","","","ratingFB","5f932e6a3ceaf50d5768745b","bdp_trlrn","Wed Mar 15 2023 15:11:01 GMT-0400 (Eastern Daylight Time)","488126","Trustworthy,Untrustworthy","","image-keyboard-response","20","35242","0.0-6.0-2.7","","null","","trustrating_stim/white_00577_940928_fa_edt.bmp","null","","","","","","","","","","",""
"","","","rating","5f932e6a3ceaf50d5768745b","bdp_trlrn","Wed Mar 15 2023 15:11:01 GMT-0400 (Eastern Daylight Time)","488126","Trustworthy,Untrustworthy","","image-keyboard-response","21","36115","0.0-6.0-1.8","","752","","trustrating_stim/white_00659_941121_fa_edt.bmp","7","","","","","","","","","","",""
"","","","ratingFB","5f932e6a3ceaf50d5768745b","bdp_trlrn","Wed Mar 15 2023 15:11:01 GMT-0400 (Eastern Daylight Time)","488126","Trustworthy,Untrustworthy","","image-keyboard-response","22","36322","0.0-6.0-2.8","","null","","trustrating_stim/white_00659_941121_fa_edt.bmp","null","","","","","","","","","","",""
"","","","rating","5f932e6a3ceaf50d5768745b","bdp_trlrn","Wed Mar 15 2023 15:11:01 GMT-0400 (Eastern Daylight Time)","488126","Trustworthy,Untrustworthy","","image-keyboard-response","23","37069","0.0-6.0-1.9","","636","","trustrating_stim/white_00299_940422_fa_edt.bmp","7","","","","","","","","","","",""
"","","","ratingFB","5f932e6a3ceaf50d5768745b","bdp_trlrn","Wed Mar 15 2023 15:11:01 GMT-0400 (Eastern Daylight Time)","488126","Trustworthy,Untrustworthy","","image-keyboard-response","24","37291","0.0-6.0-2.9","","null","","trustrating_stim/white_00299_940422_fa_edt.bmp","null","","","","","","","","","","",""
"","","","rating","5f932e6a3ceaf50d5768745b","bdp_trlrn","Wed Mar 15 2023 15:11:01 GMT-0400 (Eastern Daylight Time)","488126","Trustworthy,Untrustworthy","","image-keyboard-response","25","38022","0.0-6.0-1.10","","610","","trustrating_stim/white_00602_940928_fb_edt.bmp","8","","","","","","","","","","",""
"","","","ratingFB","5f932e6a3ceaf50d5768745b","bdp_trlrn","Wed Mar 15 2023 15:11:01 GMT-0400 (Eastern Daylight Time)","488126","Trustworthy,Untrustworthy","","image-keyboard-response","26","38225","0.0-6.0-2.10","","null","","trustrating_stim/white_00602_940928_fb_edt.bmp","null","","","","","","","","","","",""
"","","","rating","5f932e6a3ceaf50d5768745b","bdp_trlrn","Wed Mar 15 2023 15:11:01 GMT-0400 (Eastern Daylight Time)","488126","Trustworthy,Untrustworthy","","image-keyboard-response","27","40015","0.0-6.0-1.11","","1686","","trustrating_stim/white_mw071.bmp","2","","","","","","","","","","",""
"","","","ratingFB","5f932e6a3ceaf50d5768745b","bdp_trlrn","Wed Mar 15 2023 15:11:01 GMT-0400 (Eastern Daylight Time)","488126","Trustworthy,Untrustworthy","","image-keyboard-response","28","40221","0.0-6.0-2.11","","null","","trustrating_stim/white_mw071.bmp","null","","","","","","","","","","",""
"","","","rating","5f932e6a3ceaf50d5768745b","bdp_trlrn","Wed Mar 15 2023 15:11:01 GMT-0400 (Eastern Daylight Time)","488126","Trustworthy,Untrustworthy","","image-keyboard-response","29","41979","0.0-6.0-1.12","","1636","","trustrating_stim/white_00807_941205_fb_edt.bmp","3","","","","","","","","","","",""
"","","","ratingFB","5f932e6a3ceaf50d5768745b","bdp_trlrn","Wed Mar 15 2023 15:11:01 GMT-0400 (Eastern Daylight Time)","488126","Trustworthy,Untrustworthy","","image-keyboard-response","30","42190","0.0-6.0-2.12","","null","","trustrating_stim/white_00807_941205_fb_edt.bmp","null","","","","","","","","","","",""
"","","","rating","5f932e6a3ceaf50d5768745b","bdp_trlrn","Wed Mar 15 2023 15:11:01 GMT-0400 (Eastern Daylight Time)","488126","Trustworthy,Untrustworthy","","image-keyboard-response","31","43971","0.0-6.0-1.13","","1659","","trustrating_stim/white_mw048.bmp","1","","","","","","","","","","",""
"","","","ratingFB","5f932e6a3ceaf50d5768745b","bdp_trlrn","Wed Mar 15 2023 15:11:01 GMT-0400 (Eastern Daylight Time)","488126","Trustworthy,Untrustworthy","","image-keyboard-response","32","44181","0.0-6.0-2.13","","null","","trustrating_stim/white_mw048.bmp","null","","","","","","","","","","",""
"","","","rating","5f932e6a3ceaf50d5768745b","bdp_trlrn","Wed Mar 15 2023 15:11:01 GMT-0400 (Eastern Daylight Time)","488126","Trustworthy,Untrustworthy","","image-keyboard-response","33","46015","0.0-6.0-1.14","","1714","","trustrating_stim/white_mw084.bmp","2","","","","","","","","","","",""
"","","","ratingFB","5f932e6a3ceaf50d5768745b","bdp_trlrn","Wed Mar 15 2023 15:11:01 GMT-0400 (Eastern Daylight Time)","488126","Trustworthy,Untrustworthy","","image-keyboard-response","34","46221","0.0-6.0-2.14","","null","","trustrating_stim/white_mw084.bmp","null","","","","","","","","","","",""
"","","","rating","5f932e6a3ceaf50d5768745b","bdp_trlrn","Wed Mar 15 2023 15:11:01 GMT-0400 (Eastern Daylight Time)","488126","Trustworthy,Untrustworthy","","image-keyboard-response","35","47259","0.0-6.0-1.15","","914","","trustrating_stim/white_mw066.bmp","2","","","","","","","","","","",""
"","","","ratingFB","5f932e6a3ceaf50d5768745b","bdp_trlrn","Wed Mar 15 2023 15:11:01 GMT-0400 (Eastern Daylight Time)","488126","Trustworthy,Untrustworthy","","image-keyboard-response","36","47471","0.0-6.0-2.15","","null","","trustrating_stim/white_mw066.bmp","null","","","","","","","","","","",""
"","","","rating","5f932e6a3ceaf50d5768745b","bdp_trlrn","Wed Mar 15 2023 15:11:01 GMT-0400 (Eastern Daylight Time)","488126","Trustworthy,Untrustworthy","","image-keyboard-response","37","48657","0.0-6.0-1.16","","1064","","trustrating_stim/white_00519_940519_fb_edt.bmp","8","","","","","","","","","","",""
"","","","ratingFB","5f932e6a3ceaf50d5768745b","bdp_trlrn","Wed Mar 15 2023 15:11:01 GMT-0400 (Eastern Daylight Time)","488126","Trustworthy,Untrustworthy","","image-keyboard-response","38","48861","0.0-6.0-2.16","","null","","trustrating_stim/white_00519_940519_fb_edt.bmp","null","","","","","","","","","","",""
"","","","rating","5f932e6a3ceaf50d5768745b","bdp_trlrn","Wed Mar 15 2023 15:11:01 GMT-0400 (Eastern Daylight Time)","488126","Trustworthy,Untrustworthy","","image-keyboard-response","39","50086","0.0-6.0-1.17","","1113","","trustrating_stim/white_mw035.bmp","2","","","","","","","","","","",""
"","","","ratingFB","5f932e6a3ceaf50d5768745b","bdp_trlrn","Wed Mar 15 2023 15:11:01 GMT-0400 (Eastern Daylight Time)","488126","Trustworthy,Untrustworthy","","image-keyboard-response","40","50291","0.0-6.0-2.17","","null","","trustrating_stim/white_mw035.bmp","null","","","","","","","","","","",""
"","","","rating","5f932e6a3ceaf50d5768745b","bdp_trlrn","Wed Mar 15 2023 15:11:01 GMT-0400 (Eastern Daylight Time)","488126","Trustworthy,Untrustworthy","","image-keyboard-response","41","51590","0.0-6.0-1.18","","1177","","trustrating_stim/white_00898_960530_fa_edt.bmp","5","","","","","","","","","","",""
"","","","ratingFB","5f932e6a3ceaf50d5768745b","bdp_trlrn","Wed Mar 15 2023 15:11:01 GMT-0400 (Eastern Daylight Time)","488126","Trustworthy,Untrustworthy","","image-keyboard-response","42","51811","0.0-6.0-2.18","","null","","trustrating_stim/white_00898_960530_fa_edt.bmp","null","","","","","","","","","","",""
"","","","rating","5f932e6a3ceaf50d5768745b","bdp_trlrn","Wed Mar 15 2023 15:11:01 GMT-0400 (Eastern Daylight Time)","488126","Trustworthy,Untrustworthy","","image-keyboard-response","43","52938","0.0-6.0-1.19","","1021","","trustrating_stim/white_00757_941201_fa_edt.bmp","7","","","","","","","","","","",""
"","","","ratingFB","5f932e6a3ceaf50d5768745b","bdp_trlrn","Wed Mar 15 2023 15:11:01 GMT-0400 (Eastern Daylight Time)","488126","Trustworthy,Untrustworthy","","image-keyboard-response","44","53155","0.0-6.0-2.19","","null","","trustrating_stim/white_00757_941201_fa_edt.bmp","null","","","","","","","","","","",""
"","","","rating","5f932e6a3ceaf50d5768745b","bdp_trlrn","Wed Mar 15 2023 15:11:01 GMT-0400 (Eastern Daylight Time)","488126","Trustworthy,Untrustworthy","","image-keyboard-response","45","54175","0.0-6.0-1.20","","907","","trustrating_stim/white_00761_941201_fb_edt.bmp","8","","","","","","","","","","",""
"","","","ratingFB","5f932e6a3ceaf50d5768745b","bdp_trlrn","Wed Mar 15 2023 15:11:01 GMT-0400 (Eastern Daylight Time)","488126","Trustworthy,Untrustworthy","","image-keyboard-response","46","54389","0.0-6.0-2.20","","null","","trustrating_stim/white_00761_941201_fb_edt.bmp","null","","","","","","","","","","",""
"","","","rating","5f932e6a3ceaf50d5768745b","bdp_trlrn","Wed Mar 15 2023 15:11:01 GMT-0400 (Eastern Daylight Time)","488126","Trustworthy,Untrustworthy","","image-keyboard-response","47","55698","0.0-6.0-1.21","","1197","","trustrating_stim/white_mw099.bmp","8","","","","","","","","","","",""
"","","","ratingFB","5f932e6a3ceaf50d5768745b","bdp_trlrn","Wed Mar 15 2023 15:11:01 GMT-0400 (Eastern Daylight Time)","488126","Trustworthy,Untrustworthy","","image-keyboard-response","48","55912","0.0-6.0-2.21","","null","","trustrating_stim/white_mw099.bmp","null","","","","","","","","","","",""
"","","","rating","5f932e6a3ceaf50d5768745b","bdp_trlrn","Wed Mar 15 2023 15:11:01 GMT-0400 (Eastern Daylight Time)","488126","Trustworthy,Untrustworthy","","image-keyboard-response","49","56871","0.0-6.0-1.22","","849","","trustrating_stim/white_mw089.bmp","9","","","","","","","","","","",""
"","","","ratingFB","5f932e6a3ceaf50d5768745b","bdp_trlrn","Wed Mar 15 2023 15:11:01 GMT-0400 (Eastern Daylight Time)","488126","Trustworthy,Untrustworthy","","image-keyboard-response","50","57085","0.0-6.0-2.22","","null","","trustrating_stim/white_mw089.bmp","null","","","","","","","","","","",""
"","","","rating","5f932e6a3ceaf50d5768745b","bdp_trlrn","Wed Mar 15 2023 15:11:01 GMT-0400 (Eastern Daylight Time)","488126","Trustworthy,Untrustworthy","","image-keyboard-response","51","58000","0.0-6.0-1.23","","810","","trustrating_stim/white_00129_931230_fb_edt.bmp","6","","","","","","","","","","",""
"","","","ratingFB","5f932e6a3ceaf50d5768745b","bdp_trlrn","Wed Mar 15 2023 15:11:01 GMT-0400 (Eastern Daylight Time)","488126","Trustworthy,Untrustworthy","","image-keyboard-response","52","58211","0.0-6.0-2.23","","null","","trustrating_stim/white_00129_931230_fb_edt.bmp","null","","","","","","","","","","",""
"","","","rating","5f932e6a3ceaf50d5768745b","bdp_trlrn","Wed Mar 15 2023 15:11:01 GMT-0400 (Eastern Daylight Time)","488126","Trustworthy,Untrustworthy","","image-keyboard-response","53","58990","0.0-6.0-1.24","","668","","trustrating_stim/white_mw063.bmp","6","","","","","","","","","","",""
"","","","ratingFB","5f932e6a3ceaf50d5768745b","bdp_trlrn","Wed Mar 15 2023 15:11:01 GMT-0400 (Eastern Daylight Time)","488126","Trustworthy,Untrustworthy","","image-keyboard-response","54","59193","0.0-6.0-2.24","","null","","trustrating_stim/white_mw063.bmp","null","","","","","","","","","","",""
"","","","rating","5f932e6a3ceaf50d5768745b","bdp_trlrn","Wed Mar 15 2023 15:11:01 GMT-0400 (Eastern Daylight Time)","488126","Trustworthy,Untrustworthy","","image-keyboard-response","55","60025","0.0-6.0-1.25","","721","","trustrating_stim/white_00785_941205_fb_edt.bmp","7","","","","","","","","","","",""
"","","","ratingFB","5f932e6a3ceaf50d5768745b","bdp_trlrn","Wed Mar 15 2023 15:11:01 GMT-0400 (Eastern Daylight Time)","488126","Trustworthy,Untrustworthy","","image-keyboard-response","56","60235","0.0-6.0-2.25","","null","","trustrating_stim/white_00785_941205_fb_edt.bmp","null","","","","","","","","","","",""
"","","","rating","5f932e6a3ceaf50d5768745b","bdp_trlrn","Wed Mar 15 2023 15:11:01 GMT-0400 (Eastern Daylight Time)","488126","Trustworthy,Untrustworthy","","image-keyboard-response","57","61486","0.0-6.0-1.26","","1140","","trustrating_stim/white_mw060.bmp","2","","","","","","","","","","",""
"","","","ratingFB","5f932e6a3ceaf50d5768745b","bdp_trlrn","Wed Mar 15 2023 15:11:01 GMT-0400 (Eastern Daylight Time)","488126","Trustworthy,Untrustworthy","","image-keyboard-response","58","61701","0.0-6.0-2.26","","null","","trustrating_stim/white_mw060.bmp","null","","","","","","","","","","",""
"","","","rating","5f932e6a3ceaf50d5768745b","bdp_trlrn","Wed Mar 15 2023 15:11:01 GMT-0400 (Eastern Daylight Time)","488126","Trustworthy,Untrustworthy","","image-keyboard-response","59","62358","0.0-6.0-1.27","","547","","trustrating_stim/white_mw046.bmp","2","","","","","","","","","","",""
"","","","ratingFB","5f932e6a3ceaf50d5768745b","bdp_trlrn","Wed Mar 15 2023 15:11:01 GMT-0400 (Eastern Daylight Time)","488126","Trustworthy,Untrustworthy","","image-keyboard-response","60","62570","0.0-6.0-2.27","","null","","trustrating_stim/white_mw046.bmp","null","","","","","","","","","","",""
"","","","rating","5f932e6a3ceaf50d5768745b","bdp_trlrn","Wed Mar 15 2023 15:11:01 GMT-0400 (Eastern Daylight Time)","488126","Trustworthy,Untrustworthy","","image-keyboard-response","61","63654","0.0-6.0-1.28","","972","","trustrating_stim/white_00223_940128_fb_edt.bmp","8","","","","","","","","","","",""
"","","","ratingFB","5f932e6a3ceaf50d5768745b","bdp_trlrn","Wed Mar 15 2023 15:11:01 GMT-0400 (Eastern Daylight Time)","488126","Trustworthy,Untrustworthy","","image-keyboard-response","62","63869","0.0-6.0-2.28","","null","","trustrating_stim/white_00223_940128_fb_edt.bmp","null","","","","","","","","","","",""
"","","","rating","5f932e6a3ceaf50d5768745b","bdp_trlrn","Wed Mar 15 2023 15:11:01 GMT-0400 (Eastern Daylight Time)","488126","Trustworthy,Untrustworthy","","image-keyboard-response","63","65028","0.0-6.0-1.29","","1049","","trustrating_stim/white_00109_931230_fa_edt.bmp","1","","","","","","","","","","",""
"","","","ratingFB","5f932e6a3ceaf50d5768745b","bdp_trlrn","Wed Mar 15 2023 15:11:01 GMT-0400 (Eastern Daylight Time)","488126","Trustworthy,Untrustworthy","","image-keyboard-response","64","65234","0.0-6.0-2.29","","null","","trustrating_stim/white_00109_931230_fa_edt.bmp","null","","","","","","","","","","",""
"","","","rating","5f932e6a3ceaf50d5768745b","bdp_trlrn","Wed Mar 15 2023 15:11:01 GMT-0400 (Eastern Daylight Time)","488126","Trustworthy,Untrustworthy","","image-keyboard-response","65","66306","0.0-6.0-1.30","","959","","trustrating_stim/white_mw049.bmp","1","","","","","","","","","","",""
"","","","ratingFB","5f932e6a3ceaf50d5768745b","bdp_trlrn","Wed Mar 15 2023 15:11:01 GMT-0400 (Eastern Daylight Time)","488126","Trustworthy,Untrustworthy","","image-keyboard-response","66","66518","0.0-6.0-2.30","","null","","trustrating_stim/white_mw049.bmp","null","","","","","","","","","","",""
"","","","rating","5f932e6a3ceaf50d5768745b","bdp_trlrn","Wed Mar 15 2023 15:11:01 GMT-0400 (Eastern Daylight Time)","488126","Trustworthy,Untrustworthy","","image-keyboard-response","67","67481","0.0-6.0-1.31","","851","","trustrating_stim/white_00785_941205_fb_edt.bmp","8","","","","","","","","","","",""
"","","","ratingFB","5f932e6a3ceaf50d5768745b","bdp_trlrn","Wed Mar 15 2023 15:11:01 GMT-0400 (Eastern Daylight Time)","488126","Trustworthy,Untrustworthy","","image-keyboard-response","68","67688","0.0-6.0-2.31","","null","","trustrating_stim/white_00785_941205_fb_edt.bmp","null","","","","","","","","","","",""
"","","","rating","5f932e6a3ceaf50d5768745b","bdp_trlrn","Wed Mar 15 2023 15:11:01 GMT-0400 (Eastern Daylight Time)","488126","Trustworthy,Untrustworthy","","image-keyboard-response","69","68588","0.0-6.0-1.32","","789","","trustrating_stim/white_mw053.bmp","7","","","","","","","","","","",""
"","","","ratingFB","5f932e6a3ceaf50d5768745b","bdp_trlrn","Wed Mar 15 2023 15:11:01 GMT-0400 (Eastern Daylight Time)","488126","Trustworthy,Untrustworthy","","image-keyboard-response","70","68796","0.0-6.0-2.32","","null","","trustrating_stim/white_mw053.bmp","null","","","","","","","","","","",""
"","","","rating","5f932e6a3ceaf50d5768745b","bdp_trlrn","Wed Mar 15 2023 15:11:01 GMT-0400 (Eastern Daylight Time)","488126","Trustworthy,Untrustworthy","","image-keyboard-response","71","69681","0.0-6.0-1.33","","774","","trustrating_stim/white_00519_940519_fb_edt.bmp","9","","","","","","","","","","",""
"","","","ratingFB","5f932e6a3ceaf50d5768745b","bdp_trlrn","Wed Mar 15 2023 15:11:01 GMT-0400 (Eastern Daylight Time)","488126","Trustworthy,Untrustworthy","","image-keyboard-response","72","69885","0.0-6.0-2.33","","null","","trustrating_stim/white_00519_940519_fb_edt.bmp","null","","","","","","","","","","",""
"","","","rating","5f932e6a3ceaf50d5768745b","bdp_trlrn","Wed Mar 15 2023 15:11:01 GMT-0400 (Eastern Daylight Time)","488126","Trustworthy,Untrustworthy","","image-keyboard-response","73","70787","0.0-6.0-1.34","","796","","trustrating_stim/white_mw056.bmp","1","","","","","","","","","","",""
"","","","ratingFB","5f932e6a3ceaf50d5768745b","bdp_trlrn","Wed Mar 15 2023 15:11:01 GMT-0400 (Eastern Daylight Time)","488126","Trustworthy,Untrustworthy","","image-keyboard-response","74","71003","0.0-6.0-2.34","","null","","trustrating_stim/white_mw056.bmp","null","","","","","","","","","","",""
"","","","rating","5f932e6a3ceaf50d5768745b","bdp_trlrn","Wed Mar 15 2023 15:11:01 GMT-0400 (Eastern Daylight Time)","488126","Trustworthy,Untrustworthy","","image-keyboard-response","75","72462","0.0-6.0-1.35","","1350","","trustrating_stim/white_mw099.bmp","3","","","","","","","","","","",""
"","","","ratingFB","5f932e6a3ceaf50d5768745b","bdp_trlrn","Wed Mar 15 2023 15:11:01 GMT-0400 (Eastern Daylight Time)","488126","Trustworthy,Untrustworthy","","image-keyboard-response","76","72674","0.0-6.0-2.35","","null","","trustrating_stim/white_mw099.bmp","null","","","","","","","","","","",""
"","","","rating","5f932e6a3ceaf50d5768745b","bdp_trlrn","Wed Mar 15 2023 15:11:01 GMT-0400 (Eastern Daylight Time)","488126","Trustworthy,Untrustworthy","","image-keyboard-response","77","73563","0.0-6.0-1.36","","779","","trustrating_stim/white_mw035.bmp","7","","","","","","","","","","",""
"","","","ratingFB","5f932e6a3ceaf50d5768745b","bdp_trlrn","Wed Mar 15 2023 15:11:01 GMT-0400 (Eastern Daylight Time)","488126","Trustworthy,Untrustworthy","","image-keyboard-response","78","73770","0.0-6.0-2.36","","null","","trustrating_stim/white_mw035.bmp","null","","","","","","","","","","",""
"","","","rating","5f932e6a3ceaf50d5768745b","bdp_trlrn","Wed Mar 15 2023 15:11:01 GMT-0400 (Eastern Daylight Time)","488126","Trustworthy,Untrustworthy","","image-keyboard-response","79","74767","0.0-6.0-1.37","","884","","trustrating_stim/white_mw063.bmp","7","","","","","","","","","","",""
"","","","ratingFB","5f932e6a3ceaf50d5768745b","bdp_trlrn","Wed Mar 15 2023 15:11:01 GMT-0400 (Eastern Daylight Time)","488126","Trustworthy,Untrustworthy","","image-keyboard-response","80","74973","0.0-6.0-2.37","","null","","trustrating_stim/white_mw063.bmp","null","","","","","","","","","","",""
"","","","rating","5f932e6a3ceaf50d5768745b","bdp_trlrn","Wed Mar 15 2023 15:11:01 GMT-0400 (Eastern Daylight Time)","488126","Trustworthy,Untrustworthy","","image-keyboard-response","81","75597","0.0-6.0-1.38","","514","","trustrating_stim/white_mw060.bmp","8","","","","","","","","","","",""
"","","","ratingFB","5f932e6a3ceaf50d5768745b","bdp_trlrn","Wed Mar 15 2023 15:11:01 GMT-0400 (Eastern Daylight Time)","488126","Trustworthy,Untrustworthy","","image-keyboard-response","82","75811","0.0-6.0-2.38","","null","","trustrating_stim/white_mw060.bmp","null","","","","","","","","","","",""
"","","","rating","5f932e6a3ceaf50d5768745b","bdp_trlrn","Wed Mar 15 2023 15:11:01 GMT-0400 (Eastern Daylight Time)","488126","Trustworthy,Untrustworthy","","image-keyboard-response","83","77539","0.0-6.0-1.39","","1617","","trustrating_stim/white_00120_931230_fa_edt.bmp","2","","","","","","","","","","",""
"","","","ratingFB","5f932e6a3ceaf50d5768745b","bdp_trlrn","Wed Mar 15 2023 15:11:01 GMT-0400 (Eastern Daylight Time)","488126","Trustworthy,Untrustworthy","","image-keyboard-response","84","77756","0.0-6.0-2.39","","null","","trustrating_stim/white_00120_931230_fa_edt.bmp","null","","","","","","","","","","",""
"","","","rating","5f932e6a3ceaf50d5768745b","bdp_trlrn","Wed Mar 15 2023 15:11:01 GMT-0400 (Eastern Daylight Time)","488126","Trustworthy,Untrustworthy","","image-keyboard-response","85","78983","0.0-6.0-1.40","","1118","","trustrating_stim/white_00340_940422_fa_edt.bmp","6","","","","","","","","","","",""
"","","","ratingFB","5f932e6a3ceaf50d5768745b","bdp_trlrn","Wed Mar 15 2023 15:11:01 GMT-0400 (Eastern Daylight Time)","488126","Trustworthy,Untrustworthy","","image-keyboard-response","86","79192","0.0-6.0-2.40","","null","","trustrating_stim/white_00340_940422_fa_edt.bmp","null","","","","","","","","","","",""
"","","","rating","5f932e6a3ceaf50d5768745b","bdp_trlrn","Wed Mar 15 2023 15:11:01 GMT-0400 (Eastern Daylight Time)","488126","Trustworthy,Untrustworthy","","image-keyboard-response","87","80137","0.0-6.0-1.41","","840","","trustrating_stim/white_00602_940928_fb_edt.bmp","1","","","","","","","","","","",""
"","","","ratingFB","5f932e6a3ceaf50d5768745b","bdp_trlrn","Wed Mar 15 2023 15:11:01 GMT-0400 (Eastern Daylight Time)","488126","Trustworthy,Untrustworthy","","image-keyboard-response","88","80352","0.0-6.0-2.41","","null","","trustrating_stim/white_00602_940928_fb_edt.bmp","null","","","","","","","","","","",""
"","","","rating","5f932e6a3ceaf50d5768745b","bdp_trlrn","Wed Mar 15 2023 15:11:01 GMT-0400 (Eastern Daylight Time)","488126","Trustworthy,Untrustworthy","","image-keyboard-response","89","81956","0.0-6.0-1.42","","1491","","trustrating_stim/white_00223_940128_fb_edt.bmp","1","","","","","","","","","","",""
"","","","ratingFB","5f932e6a3ceaf50d5768745b","bdp_trlrn","Wed Mar 15 2023 15:11:01 GMT-0400 (Eastern Daylight Time)","488126","Trustworthy,Untrustworthy","","image-keyboard-response","90","82163","0.0-6.0-2.42","","null","","trustrating_stim/white_00223_940128_fb_edt.bmp","null","","","","","","","","","","",""
"","","","rating","5f932e6a3ceaf50d5768745b","bdp_trlrn","Wed Mar 15 2023 15:11:01 GMT-0400 (Eastern Daylight Time)","488126","Trustworthy,Untrustworthy","","image-keyboard-response","91","82853","0.0-6.0-1.43","","584","","trustrating_stim/white_mw046.bmp","7","","","","","","","","","","",""
"","","","ratingFB","5f932e6a3ceaf50d5768745b","bdp_trlrn","Wed Mar 15 2023 15:11:01 GMT-0400 (Eastern Daylight Time)","488126","Trustworthy,Untrustworthy","","image-keyboard-response","92","83064","0.0-6.0-2.43","","null","","trustrating_stim/white_mw046.bmp","null","","","","","","","","","","",""
"","","","rating","5f932e6a3ceaf50d5768745b","bdp_trlrn","Wed Mar 15 2023 15:11:01 GMT-0400 (Eastern Daylight Time)","488126","Trustworthy,Untrustworthy","","image-keyboard-response","93","84077","0.0-6.0-1.44","","902","","trustrating_stim/white_mw089.bmp","9","","","","","","","","","","",""
"","","","ratingFB","5f932e6a3ceaf50d5768745b","bdp_trlrn","Wed Mar 15 2023 15:11:01 GMT-0400 (Eastern Daylight Time)","488126","Trustworthy,Untrustworthy","","image-keyboard-response","94","84292","0.0-6.0-2.44","","null","","trustrating_stim/white_mw089.bmp","null","","","","","","","","","","",""
"","","","rating","5f932e6a3ceaf50d5768745b","bdp_trlrn","Wed Mar 15 2023 15:11:01 GMT-0400 (Eastern Daylight Time)","488126","Trustworthy,Untrustworthy","","image-keyboard-response","95","85296","0.0-6.0-1.45","","894","","trustrating_stim/white_00761_941201_fb_edt.bmp","9","","","","","","","","","","",""
"","","","ratingFB","5f932e6a3ceaf50d5768745b","bdp_trlrn","Wed Mar 15 2023 15:11:01 GMT-0400 (Eastern Daylight Time)","488126","Trustworthy,Untrustworthy","","image-keyboard-response","96","85503","0.0-6.0-2.45","","null","","trustrating_stim/white_00761_941201_fb_edt.bmp","null","","","","","","","","","","",""
"","","","rating","5f932e6a3ceaf50d5768745b","bdp_trlrn","Wed Mar 15 2023 15:11:01 GMT-0400 (Eastern Daylight Time)","488126","Trustworthy,Untrustworthy","","image-keyboard-response","97","86447","0.0-6.0-1.46","","833","","trustrating_stim/white_mw097.bmp","8","","","","","","","","","","",""
"","","","ratingFB","5f932e6a3ceaf50d5768745b","bdp_trlrn","Wed Mar 15 2023 15:11:01 GMT-0400 (Eastern Daylight Time)","488126","Trustworthy,Untrustworthy","","image-keyboard-response","98","86656","0.0-6.0-2.46","","null","","trustrating_stim/white_mw097.bmp","null","","","","","","","","","","",""
"","","","rating","5f932e6a3ceaf50d5768745b","bdp_trlrn","Wed Mar 15 2023 15:11:01 GMT-0400 (Eastern Daylight Time)","488126","Trustworthy,Untrustworthy","","image-keyboard-response","99","87401","0.0-6.0-1.47","","634","","trustrating_stim/white_mw066.bmp","2","","","","","","","","","","",""
"","","","ratingFB","5f932e6a3ceaf50d5768745b","bdp_trlrn","Wed Mar 15 2023 15:11:01 GMT-0400 (Eastern Daylight Time)","488126","Trustworthy,Untrustworthy","","image-keyboard-response","100","87605","0.0-6.0-2.47","","null","","trustrating_stim/white_mw066.bmp","null","","","","","","","","","","",""
"","","","rating","5f932e6a3ceaf50d5768745b","bdp_trlrn","Wed Mar 15 2023 15:11:01 GMT-0400 (Eastern Daylight Time)","488126","Trustworthy,Untrustworthy","","image-keyboard-response","101","88246","0.0-6.0-1.48","","530","","trustrating_stim/white_mw084.bmp","2","","","","","","","","","","",""
"","","","ratingFB","5f932e6a3ceaf50d5768745b","bdp_trlrn","Wed Mar 15 2023 15:11:01 GMT-0400 (Eastern Daylight Time)","488126","Trustworthy,Untrustworthy","","image-keyboard-response","102","88451","0.0-6.0-2.48","","null","","trustrating_stim/white_mw084.bmp","null","","","","","","","","","","",""
"","","","rating","5f932e6a3ceaf50d5768745b","bdp_trlrn","Wed Mar 15 2023 15:11:01 GMT-0400 (Eastern Daylight Time)","488126","Trustworthy,Untrustworthy","","image-keyboard-response","103","89482","0.0-6.0-1.49","","920","","trustrating_stim/white_00807_941205_fb_edt.bmp","7","","","","","","","","","","",""
"","","","ratingFB","5f932e6a3ceaf50d5768745b","bdp_trlrn","Wed Mar 15 2023 15:11:01 GMT-0400 (Eastern Daylight Time)","488126","Trustworthy,Untrustworthy","","image-keyboard-response","104","89695","0.0-6.0-2.49","","null","","trustrating_stim/white_00807_941205_fb_edt.bmp","null","","","","","","","","","","",""
"","","","rating","5f932e6a3ceaf50d5768745b","bdp_trlrn","Wed Mar 15 2023 15:11:01 GMT-0400 (Eastern Daylight Time)","488126","Trustworthy,Untrustworthy","","image-keyboard-response","105","90676","0.0-6.0-1.50","","871","","trustrating_stim/white_00299_940422_fa_edt.bmp","2","","","","","","","","","","",""
"","","","ratingFB","5f932e6a3ceaf50d5768745b","bdp_trlrn","Wed Mar 15 2023 15:11:01 GMT-0400 (Eastern Daylight Time)","488126","Trustworthy,Untrustworthy","","image-keyboard-response","106","90891","0.0-6.0-2.50","","null","","trustrating_stim/white_00299_940422_fa_edt.bmp","null","","","","","","","","","","",""
"","","","rating","5f932e6a3ceaf50d5768745b","bdp_trlrn","Wed Mar 15 2023 15:11:01 GMT-0400 (Eastern Daylight Time)","488126","Trustworthy,Untrustworthy","","image-keyboard-response","107","91560","0.0-6.0-1.51","","558","","trustrating_stim/white_00109_931230_fa_edt.bmp","2","","","","","","","","","","",""
"","","","ratingFB","5f932e6a3ceaf50d5768745b","bdp_trlrn","Wed Mar 15 2023 15:11:01 GMT-0400 (Eastern Daylight Time)","488126","Trustworthy,Untrustworthy","","image-keyboard-response","108","91768","0.0-6.0-2.51","","null","","trustrating_stim/white_00109_931230_fa_edt.bmp","null","","","","","","","","","","",""
"","","","rating","5f932e6a3ceaf50d5768745b","bdp_trlrn","Wed Mar 15 2023 15:11:01 GMT-0400 (Eastern Daylight Time)","488126","Trustworthy,Untrustworthy","","image-keyboard-response","109","92469","0.0-6.0-1.52","","591","","trustrating_stim/white_00129_931230_fb_edt.bmp","1","","","","","","","","","","",""
"","","","ratingFB","5f932e6a3ceaf50d5768745b","bdp_trlrn","Wed Mar 15 2023 15:11:01 GMT-0400 (Eastern Daylight Time)","488126","Trustworthy,Untrustworthy","","image-keyboard-response","110","92673","0.0-6.0-2.52","","null","","trustrating_stim/white_00129_931230_fb_edt.bmp","null","","","","","","","","","","",""
"","","","rating","5f932e6a3ceaf50d5768745b","bdp_trlrn","Wed Mar 15 2023 15:11:01 GMT-0400 (Eastern Daylight Time)","488126","Trustworthy,Untrustworthy","","image-keyboard-response","111","93245","0.0-6.0-1.53","","467","","trustrating_stim/white_00659_941121_fa_edt.bmp","1","","","","","","","","","","",""
"","","","ratingFB","5f932e6a3ceaf50d5768745b","bdp_trlrn","Wed Mar 15 2023 15:11:01 GMT-0400 (Eastern Daylight Time)","488126","Trustworthy,Untrustworthy","","image-keyboard-response","112","93461","0.0-6.0-2.53","","null","","trustrating_stim/white_00659_941121_fa_edt.bmp","null","","","","","","","","","","",""
"","","","rating","5f932e6a3ceaf50d5768745b","bdp_trlrn","Wed Mar 15 2023 15:11:01 GMT-0400 (Eastern Daylight Time)","488126","Trustworthy,Untrustworthy","","image-keyboard-response","113","94281","0.0-6.0-1.54","","707","","trustrating_stim/white_00577_940928_fa_edt.bmp","9","","","","","","","","","","",""
"","","","ratingFB","5f932e6a3ceaf50d5768745b","bdp_trlrn","Wed Mar 15 2023 15:11:01 GMT-0400 (Eastern Daylight Time)","488126","Trustworthy,Untrustworthy","","image-keyboard-response","114","94490","0.0-6.0-2.54","","null","","trustrating_stim/white_00577_940928_fa_edt.bmp","null","","","","","","","","","","",""
"","","","rating","5f932e6a3ceaf50d5768745b","bdp_trlrn","Wed Mar 15 2023 15:11:01 GMT-0400 (Eastern Daylight Time)","488126","Trustworthy,Untrustworthy","","image-keyboard-response","115","95228","0.0-6.0-1.55","","632","","trustrating_stim/white_mw048.bmp","7","","","","","","","","","","",""
"","","","ratingFB","5f932e6a3ceaf50d5768745b","bdp_trlrn","Wed Mar 15 2023 15:11:01 GMT-0400 (Eastern Daylight Time)","488126","Trustworthy,Untrustworthy","","image-keyboard-response","116","95441","0.0-6.0-2.55","","null","","trustrating_stim/white_mw048.bmp","null","","","","","","","","","","",""
"","","","rating","5f932e6a3ceaf50d5768745b","bdp_trlrn","Wed Mar 15 2023 15:11:01 GMT-0400 (Eastern Daylight Time)","488126","Trustworthy,Untrustworthy","","image-keyboard-response","117","96259","0.0-6.0-1.56","","708","","trustrating_stim/white_00898_960530_fa_edt.bmp","8","","","","","","","","","","",""
"","","","ratingFB","5f932e6a3ceaf50d5768745b","bdp_trlrn","Wed Mar 15 2023 15:11:01 GMT-0400 (Eastern Daylight Time)","488126","Trustworthy,Untrustworthy","","image-keyboard-response","118","96466","0.0-6.0-2.56","","null","","trustrating_stim/white_00898_960530_fa_edt.bmp","null","","","","","","","","","","",""
"","","","rating","5f932e6a3ceaf50d5768745b","bdp_trlrn","Wed Mar 15 2023 15:11:01 GMT-0400 (Eastern Daylight Time)","488126","Trustworthy,Untrustworthy","","image-keyboard-response","119","97134","0.0-6.0-1.57","","558","","trustrating_stim/white_mw033.bmp","8","","","","","","","","","","",""
"","","","ratingFB","5f932e6a3ceaf50d5768745b","bdp_trlrn","Wed Mar 15 2023 15:11:01 GMT-0400 (Eastern Daylight Time)","488126","Trustworthy,Untrustworthy","","image-keyboard-response","120","97337","0.0-6.0-2.57","","null","","trustrating_stim/white_mw033.bmp","null","","","","","","","","","","",""
"","","","rating","5f932e6a3ceaf50d5768745b","bdp_trlrn","Wed Mar 15 2023 15:11:01 GMT-0400 (Eastern Daylight Time)","488126","Trustworthy,Untrustworthy","","image-keyboard-response","121","98816","0.0-6.0-1.58","","1369","","trustrating_stim/white_00757_941201_fa_edt.bmp","7","","","","","","","","","","",""
"","","","ratingFB","5f932e6a3ceaf50d5768745b","bdp_trlrn","Wed Mar 15 2023 15:11:01 GMT-0400 (Eastern Daylight Time)","488126","Trustworthy,Untrustworthy","","image-keyboard-response","122","99020","0.0-6.0-2.58","","null","","trustrating_stim/white_00757_941201_fa_edt.bmp","null","","","","","","","","","","",""
"","","","rating","5f932e6a3ceaf50d5768745b","bdp_trlrn","Wed Mar 15 2023 15:11:01 GMT-0400 (Eastern Daylight Time)","488126","Trustworthy,Untrustworthy","","image-keyboard-response","123","99876","0.0-6.0-1.59","","745","","trustrating_stim/white_mw071.bmp","7","","","","","","","","","","",""
"","","","ratingFB","5f932e6a3ceaf50d5768745b","bdp_trlrn","Wed Mar 15 2023 15:11:01 GMT-0400 (Eastern Daylight Time)","488126","Trustworthy,Untrustworthy","","image-keyboard-response","124","100083","0.0-6.0-2.59","","null","","trustrating_stim/white_mw071.bmp","null","","","","","","","","","","",""
"fullscreenexit","125","102749","fullscreenexit","5f932e6a3ceaf50d5768745b","bdp_trlrn","Wed Mar 15 2023 15:11:01 GMT-0400 (Eastern Daylight Time)","488126","Trustworthy,Untrustworthy","","","","","","","","","","","","","","","","","","","","",""
"blur","125","104427","blurevent","5f932e6a3ceaf50d5768745b","bdp_trlrn","Wed Mar 15 2023 15:11:01 GMT-0400 (Eastern Daylight Time)","488126","Trustworthy,Untrustworthy","1","","","","","","","","","","","","","","","","","","","",""
"focus","125","147291","focusevent","5f932e6a3ceaf50d5768745b","bdp_trlrn","Wed Mar 15 2023 15:11:01 GMT-0400 (Eastern Daylight Time)","488126","Trustworthy,Untrustworthy","","","","","","","","","","","","","","","","","","","","",""
"","","","","5f932e6a3ceaf50d5768745b","bdp_trlrn","Wed Mar 15 2023 15:11:01 GMT-0400 (Eastern Daylight Time)","488126","Trustworthy,Untrustworthy","","instructions","125","148187","0.0-7.0","[{""page_index"":0,""viewing_time"":47994}]","47994","","","","","","","","","","","","","",""
"","","","","5f932e6a3ceaf50d5768745b","bdp_trlrn","Wed Mar 15 2023 15:11:01 GMT-0400 (Eastern Daylight Time)","488126","Trustworthy,Untrustworthy","","instructions","126","194191","0.0-8.0","[{""page_index"":0,""viewing_time"":4309},{""page_index"":1,""viewing_time"":746},{""page_index"":2,""viewing_time"":1386},{""page_index"":3,""viewing_time"":1948},{""page_index"":4,""viewing_time"":709},{""page_index"":5,""viewing_time"":2395},{""page_index"":6,""viewing_time"":7314},{""page_index"":7,""viewing_time"":4999},{""page_index"":6,""viewing_time"":3708},{""page_index"":7,""viewing_time"":2185},{""page_index"":6,""viewing_time"":475},{""page_index"":5,""viewing_time"":612},{""page_index"":4,""viewing_time"":390},{""page_index"":3,""viewing_time"":1562},{""page_index"":2,""viewing_time"":3080},{""page_index"":3,""viewing_time"":916},{""page_index"":4,""viewing_time"":6430},{""page_index"":5,""viewing_time"":353},{""page_index"":6,""viewing_time"":366},{""page_index"":7,""viewing_time"":2017}]","45901","","","","","","","","","","","","","",""
"","","","","5f932e6a3ceaf50d5768745b","bdp_trlrn","Wed Mar 15 2023 15:11:01 GMT-0400 (Eastern Daylight Time)","488126","Trustworthy,Untrustworthy","","html-keyboard-response","127","202037","0.0-9.0","","7842","","<div class='header' style='text-align:left; position: absolute; top: 5%; left: 5%;'><small>Task 2 of 5</small></div><div class='instruxDiv'><p><strong>1) What is the minimum number of points you can choose to send to your partner?</strong></p><p>a) 0</p><p>b) 1</p><p>c) 5</p>","A","","","","","","","","","","",""
"","","","","5f932e6a3ceaf50d5768745b","bdp_trlrn","Wed Mar 15 2023 15:11:01 GMT-0400 (Eastern Daylight Time)","488126","Trustworthy,Untrustworthy","","html-keyboard-response","128","204748","0.0-10.0","","2605","","<div class='header' style='text-align:left; position: absolute; top: 5%; left: 5%;'><small>Task 2 of 5</small></div><div class='instruxDiv'><p><strong>1) What is the minimum number of points you can choose to send to your partner?</strong></p><p style='color:#FF0000'>a) 0</p><p>b) 1</p><p>c) 5</p><h3 style='color:#FF0000'>Incorrect!</h3><h3 class='center-content'>The correct response is b).</h3><h3 class='center-content'>The minimum number of points you can choose to send to your partner is 1 point.</h3><p><em>Press SPACEBAR to continue</em></p></div>"," ","","","","","","","","","","",""
"","","","","5f932e6a3ceaf50d5768745b","bdp_trlrn","Wed Mar 15 2023 15:11:01 GMT-0400 (Eastern Daylight Time)","488126","Trustworthy,Untrustworthy","","html-keyboard-response","129","206739","0.0-11.0","","1884","","<div class='header' style='text-align:left; position: absolute; top: 5%; left: 5%;'><small>Task 2 of 5</small></div><div class='instruxDiv'><p><strong>2) What is the maximum number of points you can choose to send to your partner?</strong></p><p>a) 8</p><p>b) 5</p><p>c) 3</p>","B","","","","","","","","","","",""
"","","","","5f932e6a3ceaf50d5768745b","bdp_trlrn","Wed Mar 15 2023 15:11:01 GMT-0400 (Eastern Daylight Time)","488126","Trustworthy,Untrustworthy","","html-keyboard-response","130","207330","0.0-12.0","","478","","<div class='header' style='text-align:left; position: absolute; top: 5%; left: 5%;'><small>Task 2 of 5</small></div><div class='instruxDiv'><p><strong>2) What is the maximum number of points you can choose to send to your partner?</strong></p><p>a) 8</p><p style='color:#00FF00'>b) 5</p><p>c) 3</p><h3 style='color:#00FF00'>Correct!</h3><h3 class='center-content'>The correct response is b).</h3><h3 class='center-content'>The maximum number of points you can choose to send to your partner is 5 points.</h3><p><em>Press SPACEBAR to continue</em></p></div>"," ","","","","","","","","","","",""
"","","","","5f932e6a3ceaf50d5768745b","bdp_trlrn","Wed Mar 15 2023 15:11:01 GMT-0400 (Eastern Daylight Time)","488126","Trustworthy,Untrustworthy","","html-keyboard-response","131","208978","0.0-13.0","","1536","","<div class='header' style='text-align:left; position: absolute; top: 5%; left: 5%;'><small>Task 2 of 5</small></div><div class='instruxDiv'><p><strong>3) What happens to the amount of points you send to your partner?</strong></p><p>a) Nothing</p><p>b) It doubles</p><p>c) It quadruples</p>","C","","","","","","","","","","",""
"","","","","5f932e6a3ceaf50d5768745b","bdp_trlrn","Wed Mar 15 2023 15:11:01 GMT-0400 (Eastern Daylight Time)","488126","Trustworthy,Untrustworthy","","html-keyboard-response","132","209690","0.0-14.0","","602","","<div class='header' style='text-align:left; position: absolute; top: 5%; left: 5%;'><small>Task 2 of 5</small></div><div class='instruxDiv'><p><strong>3) What happens to the amount of points you send to your partner?</strong></p><p>a) Nothing</p><p>b) It doubles</p><p style='color:#00FF00'>c) It quadruples</p><h3 style='color:#00FF00'>Correct!</h3><h3 class='center-content'>The correct response is c).</h3><h3 class='center-content'>The amount of points you send to your partner quadruples.</h3><p><em>Press SPACEBAR to continue</em></p></div>"," ","","","","","","","","","","",""
"","","","","5f932e6a3ceaf50d5768745b","bdp_trlrn","Wed Mar 15 2023 15:11:01 GMT-0400 (Eastern Daylight Time)","488126","Trustworthy,Untrustworthy","","html-keyboard-response","133","214878","0.0-15.0","","5074","","<div class='header' style='text-align:left; position: absolute; top: 5%; left: 5%;'><small>Task 2 of 5</small></div><div class='instruxDiv'><p><strong>4) If you decided to share 4 out of 5 points with your partner, and they decided to share half of the amount they received with you, how many points would you receive back from them on this round?</strong></p><p>a) 16</p><p>b) 0</p><p>c) 8</p>","C","","","","","","","","","","",""
"","","","","5f932e6a3ceaf50d5768745b","bdp_trlrn","Wed Mar 15 2023 15:11:01 GMT-0400 (Eastern Daylight Time)","488126","Trustworthy,Untrustworthy","","html-keyboard-response","134","215419","0.0-16.0","","435","","<div class='header' style='text-align:left; position: absolute; top: 5%; left: 5%;'><small>Task 2 of 5</small></div><div class='instruxDiv'><p><strong>4) If you decided to share 4 out of 5 points with your partner, and they decided to share half of the amount they received with you, how many points would you receive back from them on this round?</strong></p><p>a) 16</p><p>b) 0</p><p style='color:#00FF00'>c) 8</p><h3 style='color:#00FF00'>Correct!</h3><h3 class='center-content'>The correct response is c).</h3><h3 class='center-content'>If you shared 4 out of 5 points with your partner and they decided to share half of the amount they received with you, you would receive 8 points back (i.e. (4 x 4)/2 = 8).</h3><p><em>Press SPACEBAR to continue</em></p></div>"," ","","","","","","","","","","",""
"","","","","5f932e6a3ceaf50d5768745b","bdp_trlrn","Wed Mar 15 2023 15:11:01 GMT-0400 (Eastern Daylight Time)","488126","Trustworthy,Untrustworthy","","html-keyboard-response","135","220530","0.0-17.0","","null","","<div class='header' style='text-align:left; position: absolute; top: 5%; left: 5%;'><small>Task 2 of 5</small></div><div class='instruxDiv'><p>Thank you for completing the quiz<p>These are the actual partners you will be interacting with in the next block:<p><div class='tc' align='center'><img class='introPic' src='trustrating_stim/white_00120_931230_fa_edt.bmp'><br><strong>Caleb</strong></div><div class='bl' align='center'><img class='introPic' src='trustrating_stim/white_mw046.bmp'><br><strong>Brian</strong></div><div class='br' align='center'><img class='introPic' src='trustrating_stim/white_00785_941205_fb_edt.bmp'><br><strong>Devin</strong></div></div><p>Across <strong>66 rounds</strong> you will interact with each partner <strong>22 times</strong> (in random order).<p style='align:center; color:white'><font <em>Press SPACEBAR to continue</em></p>","null","","","","","","","","","","",""
"","","","","5f932e6a3ceaf50d5768745b","bdp_trlrn","Wed Mar 15 2023 15:11:01 GMT-0400 (Eastern Daylight Time)","488126","Trustworthy,Untrustworthy","","instructions","136","230033","0.0-18.0","[{""page_index"":0,""viewing_time"":5909},{""page_index"":1,""viewing_time"":3591}]","9501","","","","","","","","","","","","","",""
"","","","decision","5f932e6a3ceaf50d5768745b","bdp_trlrn","Wed Mar 15 2023 15:11:01 GMT-0400 (Eastern Daylight Time)","488126","Trustworthy,Untrustworthy","","html-keyboard-response","137","231437","0.0-19.0-1.0","","1297","","<div class='trialDiv'><img src='trustrating_stim/white_00120_931230_fa_edt.bmp'><br><font class='baseline'><strong>Caleb</strong><p>Choose number of points to send.</font><div class='respPicDiv'><img src='img/responseButtonOffersNo0L.png' class='respPic'></div></div>","5","1","Caleb","2","Kept","0.2,0.65","9","0.2","trustrating_stim/white_00120_931230_fa_edt.bmp","2","5","1"
"","","","decisionFB","5f932e6a3ceaf50d5768745b","bdp_trlrn","Wed Mar 15 2023 15:11:01 GMT-0400 (Eastern Daylight Time)","488126","Trustworthy,Untrustworthy","","html-keyboard-response","138","231704","0.0-19.0-2.0","","null","","<div class='trialDiv'><img src='trustrating_stim/white_00120_931230_fa_edt.bmp'><br><font class='baseline'><strong>Caleb</strong><p>Choose number of points to send.</font><div class='respPicDiv'><img src='img/responseButtonOffersNo0L5.png' class='respPic'></div></div>","null","1","Caleb","2","Kept","0.2,0.65","9","0.2","trustrating_stim/white_00120_931230_fa_edt.bmp","2","0","1"
"","","","feedback","5f932e6a3ceaf50d5768745b","bdp_trlrn","Wed Mar 15 2023 15:11:01 GMT-0400 (Eastern Daylight Time)","488126","Trustworthy,Untrustworthy","","html-keyboard-response","139","232707","0.0-19.0-3.0","","null","","<div class='trialDiv'><img src='trustrating_stim/white_00120_931230_fa_edt.bmp'><br><font class='baseline'><strong>Caleb</strong><p>Received: <strong>20</strong></font> &nbsp; &nbsp; &nbsp; &nbsp; &nbsp; &nbsp;<font class='negOutcome'>Shared back: <strong>0</strong></font></font><div class='respPicDiv'><img src='img/responseButtonOffersNo0_wht.png' class='respPic'></div></div>","null","1","Caleb","2","Kept","0.2,0.65","9","0.2","trustrating_stim/white_00120_931230_fa_edt.bmp","2","0","1"
"","","","decision","5f932e6a3ceaf50d5768745b","bdp_trlrn","Wed Mar 15 2023 15:11:01 GMT-0400 (Eastern Daylight Time)","488126","Trustworthy,Untrustworthy","","html-keyboard-response","140","234251","0.0-19.0-1.1","","1539","","<div class='trialDiv'><img src='trustrating_stim/white_mw046.bmp'><br><font class='baseline'><strong>Brian</strong><p>Choose number of points to send.</font><div class='respPicDiv'><img src='img/responseButtonOffersNo0L.png' class='respPic'></div></div>","4","1","Brian","4","Shared","0.8,0.35","13","0.8","trustrating_stim/white_mw046.bmp","4.5","5","2"
"","","","decisionFB","5f932e6a3ceaf50d5768745b","bdp_trlrn","Wed Mar 15 2023 15:11:01 GMT-0400 (Eastern Daylight Time)","488126","Trustworthy,Untrustworthy","","html-keyboard-response","141","234508","0.0-19.0-2.1","","null","","<div class='trialDiv'><img src='trustrating_stim/white_mw046.bmp'><br><font class='baseline'><strong>Brian</strong><p>Choose number of points to send.</font><div class='respPicDiv'><img src='img/responseButtonOffersNo0L4.png' class='respPic'></div></div>","null","1","Brian","4","Shared","0.8,0.35","13","0.8","trustrating_stim/white_mw046.bmp","4.5","1","2"
"","","","feedback","5f932e6a3ceaf50d5768745b","bdp_trlrn","Wed Mar 15 2023 15:11:01 GMT-0400 (Eastern Daylight Time)","488126","Trustworthy,Untrustworthy","","html-keyboard-response","142","235522","0.0-19.0-3.1","","null","","<div class='trialDiv'><img src='trustrating_stim/white_mw046.bmp'><br><font class='baseline'><strong>Brian</strong><p>Received: <strong>16</strong></font> &nbsp; &nbsp; &nbsp; &nbsp; &nbsp; &nbsp;<font class='posOutcome'>Shared back: <strong>8</strong></font></font><div class='respPicDiv'><img src='img/responseButtonOffersNo0_wht.png' class='respPic'></div></div>","null","1","Brian","4","Shared","0.8,0.35","13","0.8","trustrating_stim/white_mw046.bmp","4.5","9","2"
"","","","decision","5f932e6a3ceaf50d5768745b","bdp_trlrn","Wed Mar 15 2023 15:11:01 GMT-0400 (Eastern Daylight Time)","488126","Trustworthy,Untrustworthy","","html-keyboard-response","143","236766","0.0-19.0-1.2","","1239","","<div class='trialDiv'><img src='trustrating_stim/white_00785_941205_fb_edt.bmp'><br><font class='baseline'><strong>Devin</strong><p>Choose number of points to send.</font><div class='respPicDiv'><img src='img/responseButtonOffersNo0L.png' class='respPic'></div></div>","2","1","Devin","8","Shared","0.35,0.65","9","0.35","trustrating_stim/white_00785_941205_fb_edt.bmp","7.5","14","3"
"","","","decisionFB","5f932e6a3ceaf50d5768745b","bdp_trlrn","Wed Mar 15 2023 15:11:01 GMT-0400 (Eastern Daylight Time)","488126","Trustworthy,Untrustworthy","","html-keyboard-response","144","237033","0.0-19.0-2.2","","null","","<div class='trialDiv'><img src='trustrating_stim/white_00785_941205_fb_edt.bmp'><br><font class='baseline'><strong>Devin</strong><p>Choose number of points to send.</font><div class='respPicDiv'><img src='img/responseButtonOffersNo0L2.png' class='respPic'></div></div>","null","1","Devin","8","Shared","0.35,0.65","9","0.35","trustrating_stim/white_00785_941205_fb_edt.bmp","7.5","12","3"
"","","","feedback","5f932e6a3ceaf50d5768745b","bdp_trlrn","Wed Mar 15 2023 15:11:01 GMT-0400 (Eastern Daylight Time)","488126","Trustworthy,Untrustworthy","","html-keyboard-response","145","238046","0.0-19.0-3.2","","null","","<div class='trialDiv'><img src='trustrating_stim/white_00785_941205_fb_edt.bmp'><br><font class='baseline'><strong>Devin</strong><p>Received: <strong>8</strong></font> &nbsp; &nbsp; &nbsp; &nbsp; &nbsp; &nbsp;<font class='posOutcome'>Shared back: <strong>4</strong></font></font><div class='respPicDiv'><img src='img/responseButtonOffersNo0_wht.png' class='respPic'></div></div>","null","1","Devin","8","Shared","0.35,0.65","9","0.35","trustrating_stim/white_00785_941205_fb_edt.bmp","7.5","16","3"
"","","","decision","5f932e6a3ceaf50d5768745b","bdp_trlrn","Wed Mar 15 2023 15:11:01 GMT-0400 (Eastern Daylight Time)","488126","Trustworthy,Untrustworthy","","html-keyboard-response","146","238975","0.0-19.0-1.3","","927","","<div class='trialDiv'><img src='trustrating_stim/white_mw046.bmp'><br><font class='baseline'><strong>Brian</strong><p>Choose number of points to send.</font><div class='respPicDiv'><img src='img/responseButtonOffersNo0L.png' class='respPic'></div></div>","4","2","Brian","4","Shared","0.8,0.35","13","0.8","trustrating_stim/white_mw046.bmp","4.5","21","4"
"","","","decisionFB","5f932e6a3ceaf50d5768745b","bdp_trlrn","Wed Mar 15 2023 15:11:01 GMT-0400 (Eastern Daylight Time)","488126","Trustworthy,Untrustworthy","","html-keyboard-response","147","239232","0.0-19.0-2.3","","null","","<div class='trialDiv'><img src='trustrating_stim/white_mw046.bmp'><br><font class='baseline'><strong>Brian</strong><p>Choose number of points to send.</font><div class='respPicDiv'><img src='img/responseButtonOffersNo0L4.png' class='respPic'></div></div>","null","2","Brian","4","Shared","0.8,0.35","13","0.8","trustrating_stim/white_mw046.bmp","4.5","17","4"
"","","","feedback","5f932e6a3ceaf50d5768745b","bdp_trlrn","Wed Mar 15 2023 15:11:01 GMT-0400 (Eastern Daylight Time)","488126","Trustworthy,Untrustworthy","","html-keyboard-response","148","240245","0.0-19.0-3.3","","null","","<div class='trialDiv'><img src='trustrating_stim/white_mw046.bmp'><br><font class='baseline'><strong>Brian</strong><p>Received: <strong>16</strong></font> &nbsp; &nbsp; &nbsp; &nbsp; &nbsp; &nbsp;<font class='posOutcome'>Shared back: <strong>8</strong></font></font><div class='respPicDiv'><img src='img/responseButtonOffersNo0_wht.png' class='respPic'></div></div>","null","2","Brian","4","Shared","0.8,0.35","13","0.8","trustrating_stim/white_mw046.bmp","4.5","25","4"
"","","","decision","5f932e6a3ceaf50d5768745b","bdp_trlrn","Wed Mar 15 2023 15:11:01 GMT-0400 (Eastern Daylight Time)","488126","Trustworthy,Untrustworthy","","html-keyboard-response","149","241792","0.0-19.0-1.4","","1542","","<div class='trialDiv'><img src='trustrating_stim/white_00785_941205_fb_edt.bmp'><br><font class='baseline'><strong>Devin</strong><p>Choose number of points to send.</font><div class='respPicDiv'><img src='img/responseButtonOffersNo0L.png' class='respPic'></div></div>","5","2","Devin","8","Kept","0.35,0.65","9","0.35","trustrating_stim/white_00785_941205_fb_edt.bmp","7.5","30","5"
"","","","decisionFB","5f932e6a3ceaf50d5768745b","bdp_trlrn","Wed Mar 15 2023 15:11:01 GMT-0400 (Eastern Daylight Time)","488126","Trustworthy,Untrustworthy","","html-keyboard-response","150","242061","0.0-19.0-2.4","","null","","<div class='trialDiv'><img src='trustrating_stim/white_00785_941205_fb_edt.bmp'><br><font class='baseline'><strong>Devin</strong><p>Choose number of points to send.</font><div class='respPicDiv'><img src='img/responseButtonOffersNo0L5.png' class='respPic'></div></div>","null","2","Devin","8","Kept","0.35,0.65","9","0.35","trustrating_stim/white_00785_941205_fb_edt.bmp","7.5","25","5"
"","","","feedback","5f932e6a3ceaf50d5768745b","bdp_trlrn","Wed Mar 15 2023 15:11:01 GMT-0400 (Eastern Daylight Time)","488126","Trustworthy,Untrustworthy","","html-keyboard-response","151","243074","0.0-19.0-3.4","","null","","<div class='trialDiv'><img src='trustrating_stim/white_00785_941205_fb_edt.bmp'><br><font class='baseline'><strong>Devin</strong><p>Received: <strong>20</strong></font> &nbsp; &nbsp; &nbsp; &nbsp; &nbsp; &nbsp;<font class='negOutcome'>Shared back: <strong>0</strong></font></font><div class='respPicDiv'><img src='img/responseButtonOffersNo0_wht.png' class='respPic'></div></div>","null","2","Devin","8","Kept","0.35,0.65","9","0.35","trustrating_stim/white_00785_941205_fb_edt.bmp","7.5","25","5"
"","","","decision","5f932e6a3ceaf50d5768745b","bdp_trlrn","Wed Mar 15 2023 15:11:01 GMT-0400 (Eastern Daylight Time)","488126","Trustworthy,Untrustworthy","","html-keyboard-response","152","244493","0.0-19.0-1.5","","1417","","<div class='trialDiv'><img src='trustrating_stim/white_00120_931230_fa_edt.bmp'><br><font class='baseline'><strong>Caleb</strong><p>Choose number of points to send.</font><div class='respPicDiv'><img src='img/responseButtonOffersNo0L.png' class='respPic'></div></div>","1","2","Caleb","2","Shared","0.2,0.65","9","0.2","trustrating_stim/white_00120_931230_fa_edt.bmp","2","30","6"
"","","","decisionFB","5f932e6a3ceaf50d5768745b","bdp_trlrn","Wed Mar 15 2023 15:11:01 GMT-0400 (Eastern Daylight Time)","488126","Trustworthy,Untrustworthy","","html-keyboard-response","153","244761","0.0-19.0-2.5","","null","","<div class='trialDiv'><img src='trustrating_stim/white_00120_931230_fa_edt.bmp'><br><font class='baseline'><strong>Caleb</strong><p>Choose number of points to send.</font><div class='respPicDiv'><img src='img/responseButtonOffersNo0L1.png' class='respPic'></div></div>","null","2","Caleb","2","Shared","0.2,0.65","9","0.2","trustrating_stim/white_00120_931230_fa_edt.bmp","2","29","6"
"","","","feedback","5f932e6a3ceaf50d5768745b","bdp_trlrn","Wed Mar 15 2023 15:11:01 GMT-0400 (Eastern Daylight Time)","488126","Trustworthy,Untrustworthy","","html-keyboard-response","154","245776","0.0-19.0-3.5","","null","","<div class='trialDiv'><img src='trustrating_stim/white_00120_931230_fa_edt.bmp'><br><font class='baseline'><strong>Caleb</strong><p>Received: <strong>4</strong></font> &nbsp; &nbsp; &nbsp; &nbsp; &nbsp; &nbsp;<font class='posOutcome'>Shared back: <strong>2</strong></font></font><div class='respPicDiv'><img src='img/responseButtonOffersNo0_wht.png' class='respPic'></div></div>","null","2","Caleb","2","Shared","0.2,0.65","9","0.2","trustrating_stim/white_00120_931230_fa_edt.bmp","2","31","6"
"","","","decision","5f932e6a3ceaf50d5768745b","bdp_trlrn","Wed Mar 15 2023 15:11:01 GMT-0400 (Eastern Daylight Time)","488126","Trustworthy,Untrustworthy","","html-keyboard-response","155","246672","0.0-19.0-1.6","","892","","<div class='trialDiv'><img src='trustrating_stim/white_mw046.bmp'><br><font class='baseline'><strong>Brian</strong><p>Choose number of points to send.</font><div class='respPicDiv'><img src='img/responseButtonOffersNo0L.png' class='respPic'></div></div>","2","3","Brian","4","Shared","0.8,0.35","13","0.8","trustrating_stim/white_mw046.bmp","4.5","36","7"
"","","","decisionFB","5f932e6a3ceaf50d5768745b","bdp_trlrn","Wed Mar 15 2023 15:11:01 GMT-0400 (Eastern Daylight Time)","488126","Trustworthy,Untrustworthy","","html-keyboard-response","156","246930","0.0-19.0-2.6","","null","","<div class='trialDiv'><img src='trustrating_stim/white_mw046.bmp'><br><font class='baseline'><strong>Brian</strong><p>Choose number of points to send.</font><div class='respPicDiv'><img src='img/responseButtonOffersNo0L2.png' class='respPic'></div></div>","null","3","Brian","4","Shared","0.8,0.35","13","0.8","trustrating_stim/white_mw046.bmp","4.5","34","7"
"","","","feedback","5f932e6a3ceaf50d5768745b","bdp_trlrn","Wed Mar 15 2023 15:11:01 GMT-0400 (Eastern Daylight Time)","488126","Trustworthy,Untrustworthy","","html-keyboard-response","157","247943","0.0-19.0-3.6","","null","","<div class='trialDiv'><img src='trustrating_stim/white_mw046.bmp'><br><font class='baseline'><strong>Brian</strong><p>Received: <strong>8</strong></font> &nbsp; &nbsp; &nbsp; &nbsp; &nbsp; &nbsp;<font class='posOutcome'>Shared back: <strong>4</strong></font></font><div class='respPicDiv'><img src='img/responseButtonOffersNo0_wht.png' class='respPic'></div></div>","null","3","Brian","4","Shared","0.8,0.35","13","0.8","trustrating_stim/white_mw046.bmp","4.5","38","7"
"","","","decision","5f932e6a3ceaf50d5768745b","bdp_trlrn","Wed Mar 15 2023 15:11:01 GMT-0400 (Eastern Daylight Time)","488126","Trustworthy,Untrustworthy","","html-keyboard-response","158","248900","0.0-19.0-1.7","","953","","<div class='trialDiv'><img src='trustrating_stim/white_00120_931230_fa_edt.bmp'><br><font class='baseline'><strong>Caleb</strong><p>Choose number of points to send.</font><div class='respPicDiv'><img src='img/responseButtonOffersNo0L.png' class='respPic'></div></div>","2","3","Caleb","2","Kept","0.2,0.65","9","0.2","trustrating_stim/white_00120_931230_fa_edt.bmp","2","43","8"
"","","","decisionFB","5f932e6a3ceaf50d5768745b","bdp_trlrn","Wed Mar 15 2023 15:11:01 GMT-0400 (Eastern Daylight Time)","488126","Trustworthy,Untrustworthy","","html-keyboard-response","159","249158","0.0-19.0-2.7","","null","","<div class='trialDiv'><img src='trustrating_stim/white_00120_931230_fa_edt.bmp'><br><font class='baseline'><strong>Caleb</strong><p>Choose number of points to send.</font><div class='respPicDiv'><img src='img/responseButtonOffersNo0L2.png' class='respPic'></div></div>","null","3","Caleb","2","Kept","0.2,0.65","9","0.2","trustrating_stim/white_00120_931230_fa_edt.bmp","2","41","8"
"","","","feedback","5f932e6a3ceaf50d5768745b","bdp_trlrn","Wed Mar 15 2023 15:11:01 GMT-0400 (Eastern Daylight Time)","488126","Trustworthy,Untrustworthy","","html-keyboard-response","160","250174","0.0-19.0-3.7","","null","","<div class='trialDiv'><img src='trustrating_stim/white_00120_931230_fa_edt.bmp'><br><font class='baseline'><strong>Caleb</strong><p>Received: <strong>8</strong></font> &nbsp; &nbsp; &nbsp; &nbsp; &nbsp; &nbsp;<font class='negOutcome'>Shared back: <strong>0</strong></font></font><div class='respPicDiv'><img src='img/responseButtonOffersNo0_wht.png' class='respPic'></div></div>","null","3","Caleb","2","Kept","0.2,0.65","9","0.2","trustrating_stim/white_00120_931230_fa_edt.bmp","2","41","8"
"blur","161","251716","blurevent","5f932e6a3ceaf50d5768745b","bdp_trlrn","Wed Mar 15 2023 15:11:01 GMT-0400 (Eastern Daylight Time)","488126","Trustworthy,Untrustworthy","1","","","","","","","","","","","","","","","","","","","",""
"focus","161","252972","focusevent","5f932e6a3ceaf50d5768745b","bdp_trlrn","Wed Mar 15 2023 15:11:01 GMT-0400 (Eastern Daylight Time)","488126","Trustworthy,Untrustworthy","","","","","","","","","","","","","","","","","","","","",""
"blur","161","251716","decision","5f932e6a3ceaf50d5768745b","bdp_trlrn","Wed Mar 15 2023 15:11:01 GMT-0400 (Eastern Daylight Time)","488126","Trustworthy,Untrustworthy","1","html-keyboard-response","161","253305","0.0-19.0-1.8","","3127","","<div class='trialDiv'><img src='trustrating_stim/white_00785_941205_fb_edt.bmp'><br><font class='baseline'><strong>Devin</strong><p>Choose number of points to send.</font><div class='respPicDiv'><img src='img/responseButtonOffersNo0L.png' class='respPic'></div></div>","5","3","Devin","8","Shared","0.35,0.65","9","0.35","trustrating_stim/white_00785_941205_fb_edt.bmp","7.5","46","9"
"","","","decisionFB","5f932e6a3ceaf50d5768745b","bdp_trlrn","Wed Mar 15 2023 15:11:01 GMT-0400 (Eastern Daylight Time)","488126","Trustworthy,Untrustworthy","","html-keyboard-response","162","253567","0.0-19.0-2.8","","null","","<div class='trialDiv'><img src='trustrating_stim/white_00785_941205_fb_edt.bmp'><br><font class='baseline'><strong>Devin</strong><p>Choose number of points to send.</font><div class='respPicDiv'><img src='img/responseButtonOffersNo0L5.png' class='respPic'></div></div>","null","3","Devin","8","Shared","0.35,0.65","9","0.35","trustrating_stim/white_00785_941205_fb_edt.bmp","7.5","41","9"
"","","","feedback","5f932e6a3ceaf50d5768745b","bdp_trlrn","Wed Mar 15 2023 15:11:01 GMT-0400 (Eastern Daylight Time)","488126","Trustworthy,Untrustworthy","","html-keyboard-response","163","254583","0.0-19.0-3.8","","null","","<div class='trialDiv'><img src='trustrating_stim/white_00785_941205_fb_edt.bmp'><br><font class='baseline'><strong>Devin</strong><p>Received: <strong>20</strong></font> &nbsp; &nbsp; &nbsp; &nbsp; &nbsp; &nbsp;<font class='posOutcome'>Shared back: <strong>10</strong></font></font><div class='respPicDiv'><img src='img/responseButtonOffersNo0_wht.png' class='respPic'></div></div>","null","3","Devin","8","Shared","0.35,0.65","9","0.35","trustrating_stim/white_00785_941205_fb_edt.bmp","7.5","51","9"
"blur","164","254619","blurevent","5f932e6a3ceaf50d5768745b","bdp_trlrn","Wed Mar 15 2023 15:11:01 GMT-0400 (Eastern Daylight Time)","488126","Trustworthy,Untrustworthy","2","","","","","","","","","","","","","","","","","","","",""
"focus","164","255278","focusevent","5f932e6a3ceaf50d5768745b","bdp_trlrn","Wed Mar 15 2023 15:11:01 GMT-0400 (Eastern Daylight Time)","488126","Trustworthy,Untrustworthy","","","","","","","","","","","","","","","","","","","","",""
"","","","blurwarn","5f932e6a3ceaf50d5768745b","bdp_trlrn","Wed Mar 15 2023 15:11:01 GMT-0400 (Eastern Daylight Time)","488126","Trustworthy,Untrustworthy","1","image-keyboard-response","164","259938","0.0-19.0-0.9-0.9","","5353","","","49","","","","","","","","","","",""
"","","","decision","5f932e6a3ceaf50d5768745b","bdp_trlrn","Wed Mar 15 2023 15:11:01 GMT-0400 (Eastern Daylight Time)","488126","Trustworthy,Untrustworthy","","html-keyboard-response","165","261097","0.0-19.0-1.9","","900","","<div class='trialDiv'><img src='trustrating_stim/white_mw046.bmp'><br><font class='baseline'><strong>Brian</strong><p>Choose number of points to send.</font><div class='respPicDiv'><img src='img/responseButtonOffersNo0L.png' class='respPic'></div></div>","3","4","Brian","4","Shared","0.8,0.35","13","0.8","trustrating_stim/white_mw046.bmp","4.5","56","10"
"","","","decisionFB","5f932e6a3ceaf50d5768745b","bdp_trlrn","Wed Mar 15 2023 15:11:01 GMT-0400 (Eastern Daylight Time)","488126","Trustworthy,Untrustworthy","","html-keyboard-response","166","261359","0.0-19.0-2.9","","null","","<div class='trialDiv'><img src='trustrating_stim/white_mw046.bmp'><br><font class='baseline'><strong>Brian</strong><p>Choose number of points to send.</font><div class='respPicDiv'><img src='img/responseButtonOffersNo0L3.png' class='respPic'></div></div>","null","4","Brian","4","Shared","0.8,0.35","13","0.8","trustrating_stim/white_mw046.bmp","4.5","53","10"
"","","","feedback","5f932e6a3ceaf50d5768745b","bdp_trlrn","Wed Mar 15 2023 15:11:01 GMT-0400 (Eastern Daylight Time)","488126","Trustworthy,Untrustworthy","","html-keyboard-response","167","262375","0.0-19.0-3.9","","null","","<div class='trialDiv'><img src='trustrating_stim/white_mw046.bmp'><br><font class='baseline'><strong>Brian</strong><p>Received: <strong>12</strong></font> &nbsp; &nbsp; &nbsp; &nbsp; &nbsp; &nbsp;<font class='posOutcome'>Shared back: <strong>6</strong></font></font><div class='respPicDiv'><img src='img/responseButtonOffersNo0_wht.png' class='respPic'></div></div>","null","4","Brian","4","Shared","0.8,0.35","13","0.8","trustrating_stim/white_mw046.bmp","4.5","59","10"
"","","","decision","5f932e6a3ceaf50d5768745b","bdp_trlrn","Wed Mar 15 2023 15:11:01 GMT-0400 (Eastern Daylight Time)","488126","Trustworthy,Untrustworthy","","html-keyboard-response","168","263663","0.0-19.0-1.10","","1285","","<div class='trialDiv'><img src='trustrating_stim/white_00785_941205_fb_edt.bmp'><br><font class='baseline'><strong>Devin</strong><p>Choose number of points to send.</font><div class='respPicDiv'><img src='img/responseButtonOffersNo0L.png' class='respPic'></div></div>","2","4","Devin","8","Shared","0.35,0.65","9","0.35","trustrating_stim/white_00785_941205_fb_edt.bmp","7.5","64","11"
"","","","decisionFB","5f932e6a3ceaf50d5768745b","bdp_trlrn","Wed Mar 15 2023 15:11:01 GMT-0400 (Eastern Daylight Time)","488126","Trustworthy,Untrustworthy","","html-keyboard-response","169","263922","0.0-19.0-2.10","","null","","<div class='trialDiv'><img src='trustrating_stim/white_00785_941205_fb_edt.bmp'><br><font class='baseline'><strong>Devin</strong><p>Choose number of points to send.</font><div class='respPicDiv'><img src='img/responseButtonOffersNo0L2.png' class='respPic'></div></div>","null","4","Devin","8","Shared","0.35,0.65","9","0.35","trustrating_stim/white_00785_941205_fb_edt.bmp","7.5","62","11"
"","","","feedback","5f932e6a3ceaf50d5768745b","bdp_trlrn","Wed Mar 15 2023 15:11:01 GMT-0400 (Eastern Daylight Time)","488126","Trustworthy,Untrustworthy","","html-keyboard-response","170","264931","0.0-19.0-3.10","","null","","<div class='trialDiv'><img src='trustrating_stim/white_00785_941205_fb_edt.bmp'><br><font class='baseline'><strong>Devin</strong><p>Received: <strong>8</strong></font> &nbsp; &nbsp; &nbsp; &nbsp; &nbsp; &nbsp;<font class='posOutcome'>Shared back: <strong>4</strong></font></font><div class='respPicDiv'><img src='img/responseButtonOffersNo0_wht.png' class='respPic'></div></div>","null","4","Devin","8","Shared","0.35,0.65","9","0.35","trustrating_stim/white_00785_941205_fb_edt.bmp","7.5","66","11"
"","","","decision","5f932e6a3ceaf50d5768745b","bdp_trlrn","Wed Mar 15 2023 15:11:01 GMT-0400 (Eastern Daylight Time)","488126","Trustworthy,Untrustworthy","","html-keyboard-response","171","265770","0.0-19.0-1.11","","834","","<div class='trialDiv'><img src='trustrating_stim/white_00120_931230_fa_edt.bmp'><br><font class='baseline'><strong>Caleb</strong><p>Choose number of points to send.</font><div class='respPicDiv'><img src='img/responseButtonOffersNo0L.png' class='respPic'></div></div>","4","4","Caleb","2","Kept","0.2,0.65","9","0.2","trustrating_stim/white_00120_931230_fa_edt.bmp","2","71","12"
"","","","decisionFB","5f932e6a3ceaf50d5768745b","bdp_trlrn","Wed Mar 15 2023 15:11:01 GMT-0400 (Eastern Daylight Time)","488126","Trustworthy,Untrustworthy","","html-keyboard-response","172","266037","0.0-19.0-2.11","","null","","<div class='trialDiv'><img src='trustrating_stim/white_00120_931230_fa_edt.bmp'><br><font class='baseline'><strong>Caleb</strong><p>Choose number of points to send.</font><div class='respPicDiv'><img src='img/responseButtonOffersNo0L4.png' class='respPic'></div></div>","null","4","Caleb","2","Kept","0.2,0.65","9","0.2","trustrating_stim/white_00120_931230_fa_edt.bmp","2","67","12"
"","","","feedback","5f932e6a3ceaf50d5768745b","bdp_trlrn","Wed Mar 15 2023 15:11:01 GMT-0400 (Eastern Daylight Time)","488126","Trustworthy,Untrustworthy","","html-keyboard-response","173","267053","0.0-19.0-3.11","","null","","<div class='trialDiv'><img src='trustrating_stim/white_00120_931230_fa_edt.bmp'><br><font class='baseline'><strong>Caleb</strong><p>Received: <strong>16</strong></font> &nbsp; &nbsp; &nbsp; &nbsp; &nbsp; &nbsp;<font class='negOutcome'>Shared back: <strong>0</strong></font></font><div class='respPicDiv'><img src='img/responseButtonOffersNo0_wht.png' class='respPic'></div></div>","null","4","Caleb","2","Kept","0.2,0.65","9","0.2","trustrating_stim/white_00120_931230_fa_edt.bmp","2","67","12"
"","","","decision","5f932e6a3ceaf50d5768745b","bdp_trlrn","Wed Mar 15 2023 15:11:01 GMT-0400 (Eastern Daylight Time)","488126","Trustworthy,Untrustworthy","","html-keyboard-response","174","267788","0.0-19.0-1.12","","731","","<div class='trialDiv'><img src='trustrating_stim/white_mw046.bmp'><br><font class='baseline'><strong>Brian</strong><p>Choose number of points to send.</font><div class='respPicDiv'><img src='img/responseButtonOffersNo0L.png' class='respPic'></div></div>","1","5","Brian","4","Kept","0.8,0.35","13","0.8","trustrating_stim/white_mw046.bmp","4.5","72","13"
"","","","decisionFB","5f932e6a3ceaf50d5768745b","bdp_trlrn","Wed Mar 15 2023 15:11:01 GMT-0400 (Eastern Daylight Time)","488126","Trustworthy,Untrustworthy","","html-keyboard-response","175","268051","0.0-19.0-2.12","","null","","<div class='trialDiv'><img src='trustrating_stim/white_mw046.bmp'><br><font class='baseline'><strong>Brian</strong><p>Choose number of points to send.</font><div class='respPicDiv'><img src='img/responseButtonOffersNo0L1.png' class='respPic'></div></div>","null","5","Brian","4","Kept","0.8,0.35","13","0.8","trustrating_stim/white_mw046.bmp","4.5","71","13"
"","","","feedback","5f932e6a3ceaf50d5768745b","bdp_trlrn","Wed Mar 15 2023 15:11:01 GMT-0400 (Eastern Daylight Time)","488126","Trustworthy,Untrustworthy","","html-keyboard-response","176","269064","0.0-19.0-3.12","","null","","<div class='trialDiv'><img src='trustrating_stim/white_mw046.bmp'><br><font class='baseline'><strong>Brian</strong><p>Received: <strong>4</strong></font> &nbsp; &nbsp; &nbsp; &nbsp; &nbsp; &nbsp;<font class='negOutcome'>Shared back: <strong>0</strong></font></font><div class='respPicDiv'><img src='img/responseButtonOffersNo0_wht.png' class='respPic'></div></div>","null","5","Brian","4","Kept","0.8,0.35","13","0.8","trustrating_stim/white_mw046.bmp","4.5","71","13"
"","","","decision","5f932e6a3ceaf50d5768745b","bdp_trlrn","Wed Mar 15 2023 15:11:01 GMT-0400 (Eastern Daylight Time)","488126","Trustworthy,Untrustworthy","","html-keyboard-response","177","269419","0.0-19.0-1.13","","351","","<div class='trialDiv'><img src='trustrating_stim/white_00120_931230_fa_edt.bmp'><br><font class='baseline'><strong>Caleb</strong><p>Choose number of points to send.</font><div class='respPicDiv'><img src='img/responseButtonOffersNo0L.png' class='respPic'></div></div>","5","5","Caleb","2","Kept","0.2,0.65","9","0.2","trustrating_stim/white_00120_931230_fa_edt.bmp","2","76","14"
"","","","decisionFB","5f932e6a3ceaf50d5768745b","bdp_trlrn","Wed Mar 15 2023 15:11:01 GMT-0400 (Eastern Daylight Time)","488126","Trustworthy,Untrustworthy","","html-keyboard-response","178","269685","0.0-19.0-2.13","","null","","<div class='trialDiv'><img src='trustrating_stim/white_00120_931230_fa_edt.bmp'><br><font class='baseline'><strong>Caleb</strong><p>Choose number of points to send.</font><div class='respPicDiv'><img src='img/responseButtonOffersNo0L5.png' class='respPic'></div></div>","null","5","Caleb","2","Kept","0.2,0.65","9","0.2","trustrating_stim/white_00120_931230_fa_edt.bmp","2","71","14"
"","","","feedback","5f932e6a3ceaf50d5768745b","bdp_trlrn","Wed Mar 15 2023 15:11:01 GMT-0400 (Eastern Daylight Time)","488126","Trustworthy,Untrustworthy","","html-keyboard-response","179","270706","0.0-19.0-3.13","","null","","<div class='trialDiv'><img src='trustrating_stim/white_00120_931230_fa_edt.bmp'><br><font class='baseline'><strong>Caleb</strong><p>Received: <strong>20</strong></font> &nbsp; &nbsp; &nbsp; &nbsp; &nbsp; &nbsp;<font class='negOutcome'>Shared back: <strong>0</strong></font></font><div class='respPicDiv'><img src='img/responseButtonOffersNo0_wht.png' class='respPic'></div></div>","null","5","Caleb","2","Kept","0.2,0.65","9","0.2","trustrating_stim/white_00120_931230_fa_edt.bmp","2","71","14"
"","","","decision","5f932e6a3ceaf50d5768745b","bdp_trlrn","Wed Mar 15 2023 15:11:01 GMT-0400 (Eastern Daylight Time)","488126","Trustworthy,Untrustworthy","","html-keyboard-response","180","271350","0.0-19.0-1.14","","640","","<div class='trialDiv'><img src='trustrating_stim/white_00785_941205_fb_edt.bmp'><br><font class='baseline'><strong>Devin</strong><p>Choose number of points to send.</font><div class='respPicDiv'><img src='img/responseButtonOffersNo0L.png' class='respPic'></div></div>","4","5","Devin","8","Kept","0.35,0.65","9","0.35","trustrating_stim/white_00785_941205_fb_edt.bmp","7.5","76","15"
"","","","decisionFB","5f932e6a3ceaf50d5768745b","bdp_trlrn","Wed Mar 15 2023 15:11:01 GMT-0400 (Eastern Daylight Time)","488126","Trustworthy,Untrustworthy","","html-keyboard-response","181","271611","0.0-19.0-2.14","","null","","<div class='trialDiv'><img src='trustrating_stim/white_00785_941205_fb_edt.bmp'><br><font class='baseline'><strong>Devin</strong><p>Choose number of points to send.</font><div class='respPicDiv'><img src='img/responseButtonOffersNo0L4.png' class='respPic'></div></div>","null","5","Devin","8","Kept","0.35,0.65","9","0.35","trustrating_stim/white_00785_941205_fb_edt.bmp","7.5","72","15"
"","","","feedback","5f932e6a3ceaf50d5768745b","bdp_trlrn","Wed Mar 15 2023 15:11:01 GMT-0400 (Eastern Daylight Time)","488126","Trustworthy,Untrustworthy","","html-keyboard-response","182","272622","0.0-19.0-3.14","","null","","<div class='trialDiv'><img src='trustrating_stim/white_00785_941205_fb_edt.bmp'><br><font class='baseline'><strong>Devin</strong><p>Received: <strong>16</strong></font> &nbsp; &nbsp; &nbsp; &nbsp; &nbsp; &nbsp;<font class='negOutcome'>Shared back: <strong>0</strong></font></font><div class='respPicDiv'><img src='img/responseButtonOffersNo0_wht.png' class='respPic'></div></div>","null","5","Devin","8","Kept","0.35,0.65","9","0.35","trustrating_stim/white_00785_941205_fb_edt.bmp","7.5","72","15"
"","","","decision","5f932e6a3ceaf50d5768745b","bdp_trlrn","Wed Mar 15 2023 15:11:01 GMT-0400 (Eastern Daylight Time)","488126","Trustworthy,Untrustworthy","","html-keyboard-response","183","272967","0.0-19.0-1.15","","343","","<div class='trialDiv'><img src='trustrating_stim/white_00120_931230_fa_edt.bmp'><br><font class='baseline'><strong>Caleb</strong><p>Choose number of points to send.</font><div class='respPicDiv'><img src='img/responseButtonOffersNo0L.png' class='respPic'></div></div>","2","6","Caleb","2","Kept","0.2,0.65","9","0.2","trustrating_stim/white_00120_931230_fa_edt.bmp","2","77","16"
"","","","decisionFB","5f932e6a3ceaf50d5768745b","bdp_trlrn","Wed Mar 15 2023 15:11:01 GMT-0400 (Eastern Daylight Time)","488126","Trustworthy,Untrustworthy","","html-keyboard-response","184","273232","0.0-19.0-2.15","","null","","<div class='trialDiv'><img src='trustrating_stim/white_00120_931230_fa_edt.bmp'><br><font class='baseline'><strong>Caleb</strong><p>Choose number of points to send.</font><div class='respPicDiv'><img src='img/responseButtonOffersNo0L2.png' class='respPic'></div></div>","null","6","Caleb","2","Kept","0.2,0.65","9","0.2","trustrating_stim/white_00120_931230_fa_edt.bmp","2","75","16"
"","","","feedback","5f932e6a3ceaf50d5768745b","bdp_trlrn","Wed Mar 15 2023 15:11:01 GMT-0400 (Eastern Daylight Time)","488126","Trustworthy,Untrustworthy","","html-keyboard-response","185","274246","0.0-19.0-3.15","","null","","<div class='trialDiv'><img src='trustrating_stim/white_00120_931230_fa_edt.bmp'><br><font class='baseline'><strong>Caleb</strong><p>Received: <strong>8</strong></font> &nbsp; &nbsp; &nbsp; &nbsp; &nbsp; &nbsp;<font class='negOutcome'>Shared back: <strong>0</strong></font></font><div class='respPicDiv'><img src='img/responseButtonOffersNo0_wht.png' class='respPic'></div></div>","null","6","Caleb","2","Kept","0.2,0.65","9","0.2","trustrating_stim/white_00120_931230_fa_edt.bmp","2","75","16"
"","","","decision","5f932e6a3ceaf50d5768745b","bdp_trlrn","Wed Mar 15 2023 15:11:01 GMT-0400 (Eastern Daylight Time)","488126","Trustworthy,Untrustworthy","","html-keyboard-response","186","274536","0.0-19.0-1.16","","288","","<div class='trialDiv'><img src='trustrating_stim/white_mw046.bmp'><br><font class='baseline'><strong>Brian</strong><p>Choose number of points to send.</font><div class='respPicDiv'><img src='img/responseButtonOffersNo0L.png' class='respPic'></div></div>","1","6","Brian","4","Shared","0.8,0.35","13","0.8","trustrating_stim/white_mw046.bmp","4.5","80","17"
"","","","decisionFB","5f932e6a3ceaf50d5768745b","bdp_trlrn","Wed Mar 15 2023 15:11:01 GMT-0400 (Eastern Daylight Time)","488126","Trustworthy,Untrustworthy","","html-keyboard-response","187","274792","0.0-19.0-2.16","","null","","<div class='trialDiv'><img src='trustrating_stim/white_mw046.bmp'><br><font class='baseline'><strong>Brian</strong><p>Choose number of points to send.</font><div class='respPicDiv'><img src='img/responseButtonOffersNo0L1.png' class='respPic'></div></div>","null","6","Brian","4","Shared","0.8,0.35","13","0.8","trustrating_stim/white_mw046.bmp","4.5","79","17"
"","","","feedback","5f932e6a3ceaf50d5768745b","bdp_trlrn","Wed Mar 15 2023 15:11:01 GMT-0400 (Eastern Daylight Time)","488126","Trustworthy,Untrustworthy","","html-keyboard-response","188","275807","0.0-19.0-3.16","","null","","<div class='trialDiv'><img src='trustrating_stim/white_mw046.bmp'><br><font class='baseline'><strong>Brian</strong><p>Received: <strong>4</strong></font> &nbsp; &nbsp; &nbsp; &nbsp; &nbsp; &nbsp;<font class='posOutcome'>Shared back: <strong>2</strong></font></font><div class='respPicDiv'><img src='img/responseButtonOffersNo0_wht.png' class='respPic'></div></div>","null","6","Brian","4","Shared","0.8,0.35","13","0.8","trustrating_stim/white_mw046.bmp","4.5","81","17"
"","","","decision","5f932e6a3ceaf50d5768745b","bdp_trlrn","Wed Mar 15 2023 15:11:01 GMT-0400 (Eastern Daylight Time)","488126","Trustworthy,Untrustworthy","","html-keyboard-response","189","276555","0.0-19.0-1.17","","744","","<div class='trialDiv'><img src='trustrating_stim/white_00785_941205_fb_edt.bmp'><br><font class='baseline'><strong>Devin</strong><p>Choose number of points to send.</font><div class='respPicDiv'><img src='img/responseButtonOffersNo0L.png' class='respPic'></div></div>","3","6","Devin","8","Kept","0.35,0.65","9","0.35","trustrating_stim/white_00785_941205_fb_edt.bmp","7.5","86","18"
"","","","decisionFB","5f932e6a3ceaf50d5768745b","bdp_trlrn","Wed Mar 15 2023 15:11:01 GMT-0400 (Eastern Daylight Time)","488126","Trustworthy,Untrustworthy","","html-keyboard-response","190","276815","0.0-19.0-2.17","","null","","<div class='trialDiv'><img src='trustrating_stim/white_00785_941205_fb_edt.bmp'><br><font class='baseline'><strong>Devin</strong><p>Choose number of points to send.</font><div class='respPicDiv'><img src='img/responseButtonOffersNo0L3.png' class='respPic'></div></div>","null","6","Devin","8","Kept","0.35,0.65","9","0.35","trustrating_stim/white_00785_941205_fb_edt.bmp","7.5","83","18"
"","","","feedback","5f932e6a3ceaf50d5768745b","bdp_trlrn","Wed Mar 15 2023 15:11:01 GMT-0400 (Eastern Daylight Time)","488126","Trustworthy,Untrustworthy","","html-keyboard-response","191","277828","0.0-19.0-3.17","","null","","<div class='trialDiv'><img src='trustrating_stim/white_00785_941205_fb_edt.bmp'><br><font class='baseline'><strong>Devin</strong><p>Received: <strong>12</strong></font> &nbsp; &nbsp; &nbsp; &nbsp; &nbsp; &nbsp;<font class='negOutcome'>Shared back: <strong>0</strong></font></font><div class='respPicDiv'><img src='img/responseButtonOffersNo0_wht.png' class='respPic'></div></div>","null","6","Devin","8","Kept","0.35,0.65","9","0.35","trustrating_stim/white_00785_941205_fb_edt.bmp","7.5","83","18"
"","","","decision","5f932e6a3ceaf50d5768745b","bdp_trlrn","Wed Mar 15 2023 15:11:01 GMT-0400 (Eastern Daylight Time)","488126","Trustworthy,Untrustworthy","","html-keyboard-response","192","278605","0.0-19.0-1.18","","771","","<div class='trialDiv'><img src='trustrating_stim/white_00120_931230_fa_edt.bmp'><br><font class='baseline'><strong>Caleb</strong><p>Choose number of points to send.</font><div class='respPicDiv'><img src='img/responseButtonOffersNo0L.png' class='respPic'></div></div>","1","7","Caleb","2","Kept","0.2,0.65","9","0.2","trustrating_stim/white_00120_931230_fa_edt.bmp","2","88","19"
"","","","decisionFB","5f932e6a3ceaf50d5768745b","bdp_trlrn","Wed Mar 15 2023 15:11:01 GMT-0400 (Eastern Daylight Time)","488126","Trustworthy,Untrustworthy","","html-keyboard-response","193","278862","0.0-19.0-2.18","","null","","<div class='trialDiv'><img src='trustrating_stim/white_00120_931230_fa_edt.bmp'><br><font class='baseline'><strong>Caleb</strong><p>Choose number of points to send.</font><div class='respPicDiv'><img src='img/responseButtonOffersNo0L1.png' class='respPic'></div></div>","null","7","Caleb","2","Kept","0.2,0.65","9","0.2","trustrating_stim/white_00120_931230_fa_edt.bmp","2","87","19"
"","","","feedback","5f932e6a3ceaf50d5768745b","bdp_trlrn","Wed Mar 15 2023 15:11:01 GMT-0400 (Eastern Daylight Time)","488126","Trustworthy,Untrustworthy","","html-keyboard-response","194","279874","0.0-19.0-3.18","","null","","<div class='trialDiv'><img src='trustrating_stim/white_00120_931230_fa_edt.bmp'><br><font class='baseline'><strong>Caleb</strong><p>Received: <strong>4</strong></font> &nbsp; &nbsp; &nbsp; &nbsp; &nbsp; &nbsp;<font class='negOutcome'>Shared back: <strong>0</strong></font></font><div class='respPicDiv'><img src='img/responseButtonOffersNo0_wht.png' class='respPic'></div></div>","null","7","Caleb","2","Kept","0.2,0.65","9","0.2","trustrating_stim/white_00120_931230_fa_edt.bmp","2","87","19"
"","","","decision","5f932e6a3ceaf50d5768745b","bdp_trlrn","Wed Mar 15 2023 15:11:01 GMT-0400 (Eastern Daylight Time)","488126","Trustworthy,Untrustworthy","","html-keyboard-response","195","282116","0.0-19.0-1.19","","2238","","<div class='trialDiv'><img src='trustrating_stim/white_00785_941205_fb_edt.bmp'><br><font class='baseline'><strong>Devin</strong><p>Choose number of points to send.</font><div class='respPicDiv'><img src='img/responseButtonOffersNo0L.png' class='respPic'></div></div>","4","7","Devin","8","Kept","0.35,0.65","9","0.35","trustrating_stim/white_00785_941205_fb_edt.bmp","7.5","92","20"
"","","","decisionFB","5f932e6a3ceaf50d5768745b","bdp_trlrn","Wed Mar 15 2023 15:11:01 GMT-0400 (Eastern Daylight Time)","488126","Trustworthy,Untrustworthy","","html-keyboard-response","196","282378","0.0-19.0-2.19","","null","","<div class='trialDiv'><img src='trustrating_stim/white_00785_941205_fb_edt.bmp'><br><font class='baseline'><strong>Devin</strong><p>Choose number of points to send.</font><div class='respPicDiv'><img src='img/responseButtonOffersNo0L4.png' class='respPic'></div></div>","null","7","Devin","8","Kept","0.35,0.65","9","0.35","trustrating_stim/white_00785_941205_fb_edt.bmp","7.5","88","20"
"","","","feedback","5f932e6a3ceaf50d5768745b","bdp_trlrn","Wed Mar 15 2023 15:11:01 GMT-0400 (Eastern Daylight Time)","488126","Trustworthy,Untrustworthy","","html-keyboard-response","197","283394","0.0-19.0-3.19","","null","","<div class='trialDiv'><img src='trustrating_stim/white_00785_941205_fb_edt.bmp'><br><font class='baseline'><strong>Devin</strong><p>Received: <strong>16</strong></font> &nbsp; &nbsp; &nbsp; &nbsp; &nbsp; &nbsp;<font class='negOutcome'>Shared back: <strong>0</strong></font></font><div class='respPicDiv'><img src='img/responseButtonOffersNo0_wht.png' class='respPic'></div></div>","null","7","Devin","8","Kept","0.35,0.65","9","0.35","trustrating_stim/white_00785_941205_fb_edt.bmp","7.5","88","20"
"","","","decision","5f932e6a3ceaf50d5768745b","bdp_trlrn","Wed Mar 15 2023 15:11:01 GMT-0400 (Eastern Daylight Time)","488126","Trustworthy,Untrustworthy","","html-keyboard-response","198","283997","0.0-19.0-1.20","","598","","<div class='trialDiv'><img src='trustrating_stim/white_mw046.bmp'><br><font class='baseline'><strong>Brian</strong><p>Choose number of points to send.</font><div class='respPicDiv'><img src='img/responseButtonOffersNo0L.png' class='respPic'></div></div>","1","7","Brian","4","Shared","0.8,0.35","13","0.8","trustrating_stim/white_mw046.bmp","4.5","93","21"
"","","","decisionFB","5f932e6a3ceaf50d5768745b","bdp_trlrn","Wed Mar 15 2023 15:11:01 GMT-0400 (Eastern Daylight Time)","488126","Trustworthy,Untrustworthy","","html-keyboard-response","199","284255","0.0-19.0-2.20","","null","","<div class='trialDiv'><img src='trustrating_stim/white_mw046.bmp'><br><font class='baseline'><strong>Brian</strong><p>Choose number of points to send.</font><div class='respPicDiv'><img src='img/responseButtonOffersNo0L1.png' class='respPic'></div></div>","null","7","Brian","4","Shared","0.8,0.35","13","0.8","trustrating_stim/white_mw046.bmp","4.5","92","21"
"","","","feedback","5f932e6a3ceaf50d5768745b","bdp_trlrn","Wed Mar 15 2023 15:11:01 GMT-0400 (Eastern Daylight Time)","488126","Trustworthy,Untrustworthy","","html-keyboard-response","200","285266","0.0-19.0-3.20","","null","","<div class='trialDiv'><img src='trustrating_stim/white_mw046.bmp'><br><font class='baseline'><strong>Brian</strong><p>Received: <strong>4</strong></font> &nbsp; &nbsp; &nbsp; &nbsp; &nbsp; &nbsp;<font class='posOutcome'>Shared back: <strong>2</strong></font></font><div class='respPicDiv'><img src='img/responseButtonOffersNo0_wht.png' class='respPic'></div></div>","null","7","Brian","4","Shared","0.8,0.35","13","0.8","trustrating_stim/white_mw046.bmp","4.5","94","21"
"","","","decision","5f932e6a3ceaf50d5768745b","bdp_trlrn","Wed Mar 15 2023 15:11:01 GMT-0400 (Eastern Daylight Time)","488126","Trustworthy,Untrustworthy","","html-keyboard-response","201","285448","0.0-19.0-1.21","","178","","<div class='trialDiv'><img src='trustrating_stim/white_00120_931230_fa_edt.bmp'><br><font class='baseline'><strong>Caleb</strong><p>Choose number of points to send.</font><div class='respPicDiv'><img src='img/responseButtonOffersNo0L.png' class='respPic'></div></div>","1","8","Caleb","2","Kept","0.2,0.65","9","0.2","trustrating_stim/white_00120_931230_fa_edt.bmp","2","99","22"
"","","","decisionFB","5f932e6a3ceaf50d5768745b","bdp_trlrn","Wed Mar 15 2023 15:11:01 GMT-0400 (Eastern Daylight Time)","488126","Trustworthy,Untrustworthy","","html-keyboard-response","202","285704","0.0-19.0-2.21","","null","","<div class='trialDiv'><img src='trustrating_stim/white_00120_931230_fa_edt.bmp'><br><font class='baseline'><strong>Caleb</strong><p>Choose number of points to send.</font><div class='respPicDiv'><img src='img/responseButtonOffersNo0L1.png' class='respPic'></div></div>","null","8","Caleb","2","Kept","0.2,0.65","9","0.2","trustrating_stim/white_00120_931230_fa_edt.bmp","2","98","22"
"","","","feedback","5f932e6a3ceaf50d5768745b","bdp_trlrn","Wed Mar 15 2023 15:11:01 GMT-0400 (Eastern Daylight Time)","488126","Trustworthy,Untrustworthy","","html-keyboard-response","203","286716","0.0-19.0-3.21","","null","","<div class='trialDiv'><img src='trustrating_stim/white_00120_931230_fa_edt.bmp'><br><font class='baseline'><strong>Caleb</strong><p>Received: <strong>4</strong></font> &nbsp; &nbsp; &nbsp; &nbsp; &nbsp; &nbsp;<font class='negOutcome'>Shared back: <strong>0</strong></font></font><div class='respPicDiv'><img src='img/responseButtonOffersNo0_wht.png' class='respPic'></div></div>","null","8","Caleb","2","Kept","0.2,0.65","9","0.2","trustrating_stim/white_00120_931230_fa_edt.bmp","2","98","22"
"","","","decision","5f932e6a3ceaf50d5768745b","bdp_trlrn","Wed Mar 15 2023 15:11:01 GMT-0400 (Eastern Daylight Time)","488126","Trustworthy,Untrustworthy","","html-keyboard-response","204","286786","0.0-19.0-1.22","","68","","<div class='trialDiv'><img src='trustrating_stim/white_mw046.bmp'><br><font class='baseline'><strong>Brian</strong><p>Choose number of points to send.</font><div class='respPicDiv'><img src='img/responseButtonOffersNo0L.png' class='respPic'></div></div>","1","8","Brian","4","Shared","0.8,0.35","13","0.8","trustrating_stim/white_mw046.bmp","4.5","103","23"
"","","","decisionFB","5f932e6a3ceaf50d5768745b","bdp_trlrn","Wed Mar 15 2023 15:11:01 GMT-0400 (Eastern Daylight Time)","488126","Trustworthy,Untrustworthy","","html-keyboard-response","205","287044","0.0-19.0-2.22","","null","","<div class='trialDiv'><img src='trustrating_stim/white_mw046.bmp'><br><font class='baseline'><strong>Brian</strong><p>Choose number of points to send.</font><div class='respPicDiv'><img src='img/responseButtonOffersNo0L1.png' class='respPic'></div></div>","null","8","Brian","4","Shared","0.8,0.35","13","0.8","trustrating_stim/white_mw046.bmp","4.5","102","23"
"","","","feedback","5f932e6a3ceaf50d5768745b","bdp_trlrn","Wed Mar 15 2023 15:11:01 GMT-0400 (Eastern Daylight Time)","488126","Trustworthy,Untrustworthy","","html-keyboard-response","206","288057","0.0-19.0-3.22","","null","","<div class='trialDiv'><img src='trustrating_stim/white_mw046.bmp'><br><font class='baseline'><strong>Brian</strong><p>Received: <strong>4</strong></font> &nbsp; &nbsp; &nbsp; &nbsp; &nbsp; &nbsp;<font class='posOutcome'>Shared back: <strong>2</strong></font></font><div class='respPicDiv'><img src='img/responseButtonOffersNo0_wht.png' class='respPic'></div></div>","null","8","Brian","4","Shared","0.8,0.35","13","0.8","trustrating_stim/white_mw046.bmp","4.5","104","23"
"","","","decision","5f932e6a3ceaf50d5768745b","bdp_trlrn","Wed Mar 15 2023 15:11:01 GMT-0400 (Eastern Daylight Time)","488126","Trustworthy,Untrustworthy","","html-keyboard-response","207","288173","0.0-19.0-1.23","","112","","<div class='trialDiv'><img src='trustrating_stim/white_00785_941205_fb_edt.bmp'><br><font class='baseline'><strong>Devin</strong><p>Choose number of points to send.</font><div class='respPicDiv'><img src='img/responseButtonOffersNo0L.png' class='respPic'></div></div>","1","8","Devin","8","Kept","0.35,0.65","9","0.35","trustrating_stim/white_00785_941205_fb_edt.bmp","7.5","109","24"
"","","","decisionFB","5f932e6a3ceaf50d5768745b","bdp_trlrn","Wed Mar 15 2023 15:11:01 GMT-0400 (Eastern Daylight Time)","488126","Trustworthy,Untrustworthy","","html-keyboard-response","208","288434","0.0-19.0-2.23","","null","","<div class='trialDiv'><img src='trustrating_stim/white_00785_941205_fb_edt.bmp'><br><font class='baseline'><strong>Devin</strong><p>Choose number of points to send.</font><div class='respPicDiv'><img src='img/responseButtonOffersNo0L1.png' class='respPic'></div></div>","null","8","Devin","8","Kept","0.35,0.65","9","0.35","trustrating_stim/white_00785_941205_fb_edt.bmp","7.5","108","24"
"","","","feedback","5f932e6a3ceaf50d5768745b","bdp_trlrn","Wed Mar 15 2023 15:11:01 GMT-0400 (Eastern Daylight Time)","488126","Trustworthy,Untrustworthy","","html-keyboard-response","209","289444","0.0-19.0-3.23","","null","","<div class='trialDiv'><img src='trustrating_stim/white_00785_941205_fb_edt.bmp'><br><font class='baseline'><strong>Devin</strong><p>Received: <strong>4</strong></font> &nbsp; &nbsp; &nbsp; &nbsp; &nbsp; &nbsp;<font class='negOutcome'>Shared back: <strong>0</strong></font></font><div class='respPicDiv'><img src='img/responseButtonOffersNo0_wht.png' class='respPic'></div></div>","null","8","Devin","8","Kept","0.35,0.65","9","0.35","trustrating_stim/white_00785_941205_fb_edt.bmp","7.5","108","24"
"","","","decision","5f932e6a3ceaf50d5768745b","bdp_trlrn","Wed Mar 15 2023 15:11:01 GMT-0400 (Eastern Daylight Time)","488126","Trustworthy,Untrustworthy","","html-keyboard-response","210","289569","0.0-19.0-1.24","","121","","<div class='trialDiv'><img src='trustrating_stim/white_00120_931230_fa_edt.bmp'><br><font class='baseline'><strong>Caleb</strong><p>Choose number of points to send.</font><div class='respPicDiv'><img src='img/responseButtonOffersNo0L.png' class='respPic'></div></div>","1","9","Caleb","2","Shared","0.2,0.65","9","0.2","trustrating_stim/white_00120_931230_fa_edt.bmp","2","113","25"
"","","","decisionFB","5f932e6a3ceaf50d5768745b","bdp_trlrn","Wed Mar 15 2023 15:11:01 GMT-0400 (Eastern Daylight Time)","488126","Trustworthy,Untrustworthy","","html-keyboard-response","211","289832","0.0-19.0-2.24","","null","","<div class='trialDiv'><img src='trustrating_stim/white_00120_931230_fa_edt.bmp'><br><font class='baseline'><strong>Caleb</strong><p>Choose number of points to send.</font><div class='respPicDiv'><img src='img/responseButtonOffersNo0L1.png' class='respPic'></div></div>","null","9","Caleb","2","Shared","0.2,0.65","9","0.2","trustrating_stim/white_00120_931230_fa_edt.bmp","2","112","25"
"","","","feedback","5f932e6a3ceaf50d5768745b","bdp_trlrn","Wed Mar 15 2023 15:11:01 GMT-0400 (Eastern Daylight Time)","488126","Trustworthy,Untrustworthy","","html-keyboard-response","212","290837","0.0-19.0-3.24","","null","","<div class='trialDiv'><img src='trustrating_stim/white_00120_931230_fa_edt.bmp'><br><font class='baseline'><strong>Caleb</strong><p>Received: <strong>4</strong></font> &nbsp; &nbsp; &nbsp; &nbsp; &nbsp; &nbsp;<font class='posOutcome'>Shared back: <strong>2</strong></font></font><div class='respPicDiv'><img src='img/responseButtonOffersNo0_wht.png' class='respPic'></div></div>","null","9","Caleb","2","Shared","0.2,0.65","9","0.2","trustrating_stim/white_00120_931230_fa_edt.bmp","2","114","25"
"","","","decision","5f932e6a3ceaf50d5768745b","bdp_trlrn","Wed Mar 15 2023 15:11:01 GMT-0400 (Eastern Daylight Time)","488126","Trustworthy,Untrustworthy","","html-keyboard-response","213","291526","0.0-19.0-1.25","","687","","<div class='trialDiv'><img src='trustrating_stim/white_mw046.bmp'><br><font class='baseline'><strong>Brian</strong><p>Choose number of points to send.</font><div class='respPicDiv'><img src='img/responseButtonOffersNo0L.png' class='respPic'></div></div>","3","9","Brian","4","Shared","0.8,0.35","13","0.8","trustrating_stim/white_mw046.bmp","4.5","119","26"
"","","","decisionFB","5f932e6a3ceaf50d5768745b","bdp_trlrn","Wed Mar 15 2023 15:11:01 GMT-0400 (Eastern Daylight Time)","488126","Trustworthy,Untrustworthy","","html-keyboard-response","214","291785","0.0-19.0-2.25","","null","","<div class='trialDiv'><img src='trustrating_stim/white_mw046.bmp'><br><font class='baseline'><strong>Brian</strong><p>Choose number of points to send.</font><div class='respPicDiv'><img src='img/responseButtonOffersNo0L3.png' class='respPic'></div></div>","null","9","Brian","4","Shared","0.8,0.35","13","0.8","trustrating_stim/white_mw046.bmp","4.5","116","26"
