"trial_type","trial_index","time_elapsed","internal_node_id","subject_id","task","startTime","totalTime","labels","view_history","rt","event","trial","time","trialtype","success","stimulus","key_press","aground","name","faceID","outcome","agenttype","agentswpt","agentcurrpshare","face","avgRating","point_total","round"
"pavlovia","0","2","0.0-0.0","63fac97f0d4e8f6bfd753d90","bdp_trlrn","Wed Mar 15 2023 20:46:11 GMT-0700 (Pacific Daylight Time)","529394","Trustworthy,Untrustworthy","","","","","","","","","","","","","","","","","","","",""
"instructions","1","9763","0.0-1.0","63fac97f0d4e8f6bfd753d90","bdp_trlrn","Wed Mar 15 2023 20:46:11 GMT-0700 (Pacific Daylight Time)","529394","Trustworthy,Untrustworthy","[{""page_index"":0,""viewing_time"":9761}]","9761","","","","","","","","","","","","","","","","","",""
"","","","","63fac97f0d4e8f6bfd753d90","bdp_trlrn","Wed Mar 15 2023 20:46:11 GMT-0700 (Pacific Daylight Time)","529394","Trustworthy,Untrustworthy","","","fullscreenenter","2","13675","fullscreenenter","","","","","","","","","","","","","",""
"fullscreen","2","14665","0.0-2.0","63fac97f0d4e8f6bfd753d90","bdp_trlrn","Wed Mar 15 2023 20:46:11 GMT-0700 (Pacific Daylight Time)","529394","Trustworthy,Untrustworthy","","","","","","","true","","","","","","","","","","","","",""
"instructions","3","48479","0.0-4.0","63fac97f0d4e8f6bfd753d90","bdp_trlrn","Wed Mar 15 2023 20:46:11 GMT-0700 (Pacific Daylight Time)","529394","Trustworthy,Untrustworthy","[{""page_index"":0,""viewing_time"":9806},{""page_index"":1,""viewing_time"":24007}]","33813","","","","","","","","","","","","","","","","","",""
"instructions","4","57397","0.0-5.0","63fac97f0d4e8f6bfd753d90","bdp_trlrn","Wed Mar 15 2023 20:46:11 GMT-0700 (Pacific Daylight Time)","529394","Trustworthy,Untrustworthy","[{""page_index"":0,""viewing_time"":8918}]","8918","","","","","","","","","","","","","","","","","",""
"image-keyboard-response","5","59027","0.0-6.0-1.0","63fac97f0d4e8f6bfd753d90","bdp_trlrn","Wed Mar 15 2023 20:46:11 GMT-0700 (Pacific Daylight Time)","529394","Trustworthy,Untrustworthy","","1522","","","","rating","","trustrating_stim/white_00223_940128_fb_edt.bmp","2","","","","","","","","","","",""
"image-keyboard-response","6","59231","0.0-6.0-2.0","63fac97f0d4e8f6bfd753d90","bdp_trlrn","Wed Mar 15 2023 20:46:11 GMT-0700 (Pacific Daylight Time)","529394","Trustworthy,Untrustworthy","","null","","","","ratingFB","","trustrating_stim/white_00223_940128_fb_edt.bmp","null","","","","","","","","","","",""
"image-keyboard-response","7","60397","0.0-6.0-1.1","63fac97f0d4e8f6bfd753d90","bdp_trlrn","Wed Mar 15 2023 20:46:11 GMT-0700 (Pacific Daylight Time)","529394","Trustworthy,Untrustworthy","","1064","","","","rating","","trustrating_stim/white_00785_941205_fb_edt.bmp","2","","","","","","","","","","",""
"image-keyboard-response","8","60603","0.0-6.0-2.1","63fac97f0d4e8f6bfd753d90","bdp_trlrn","Wed Mar 15 2023 20:46:11 GMT-0700 (Pacific Daylight Time)","529394","Trustworthy,Untrustworthy","","null","","","","ratingFB","","trustrating_stim/white_00785_941205_fb_edt.bmp","null","","","","","","","","","","",""
"image-keyboard-response","9","62087","0.0-6.0-1.2","63fac97f0d4e8f6bfd753d90","bdp_trlrn","Wed Mar 15 2023 20:46:11 GMT-0700 (Pacific Daylight Time)","529394","Trustworthy,Untrustworthy","","1376","","","","rating","","trustrating_stim/white_00898_960530_fa_edt.bmp","3","","","","","","","","","","",""
"image-keyboard-response","10","62302","0.0-6.0-2.2","63fac97f0d4e8f6bfd753d90","bdp_trlrn","Wed Mar 15 2023 20:46:11 GMT-0700 (Pacific Daylight Time)","529394","Trustworthy,Untrustworthy","","null","","","","ratingFB","","trustrating_stim/white_00898_960530_fa_edt.bmp","null","","","","","","","","","","",""
"image-keyboard-response","11","63507","0.0-6.0-1.3","63fac97f0d4e8f6bfd753d90","bdp_trlrn","Wed Mar 15 2023 20:46:11 GMT-0700 (Pacific Daylight Time)","529394","Trustworthy,Untrustworthy","","1096","","","","rating","","trustrating_stim/white_mw071.bmp","2","","","","","","","","","","",""
"image-keyboard-response","12","63713","0.0-6.0-2.3","63fac97f0d4e8f6bfd753d90","bdp_trlrn","Wed Mar 15 2023 20:46:11 GMT-0700 (Pacific Daylight Time)","529394","Trustworthy,Untrustworthy","","null","","","","ratingFB","","trustrating_stim/white_mw071.bmp","null","","","","","","","","","","",""
"image-keyboard-response","13","64557","0.0-6.0-1.4","63fac97f0d4e8f6bfd753d90","bdp_trlrn","Wed Mar 15 2023 20:46:11 GMT-0700 (Pacific Daylight Time)","529394","Trustworthy,Untrustworthy","","743","","","","rating","","trustrating_stim/white_mw089.bmp","2","","","","","","","","","","",""
"image-keyboard-response","14","64772","0.0-6.0-2.4","63fac97f0d4e8f6bfd753d90","bdp_trlrn","Wed Mar 15 2023 20:46:11 GMT-0700 (Pacific Daylight Time)","529394","Trustworthy,Untrustworthy","","null","","","","ratingFB","","trustrating_stim/white_mw089.bmp","null","","","","","","","","","","",""
"image-keyboard-response","15","65706","0.0-6.0-1.5","63fac97f0d4e8f6bfd753d90","bdp_trlrn","Wed Mar 15 2023 20:46:11 GMT-0700 (Pacific Daylight Time)","529394","Trustworthy,Untrustworthy","","824","","","","rating","","trustrating_stim/white_mw099.bmp","2","","","","","","","","","","",""
"image-keyboard-response","16","65912","0.0-6.0-2.5","63fac97f0d4e8f6bfd753d90","bdp_trlrn","Wed Mar 15 2023 20:46:11 GMT-0700 (Pacific Daylight Time)","529394","Trustworthy,Untrustworthy","","null","","","","ratingFB","","trustrating_stim/white_mw099.bmp","null","","","","","","","","","","",""
"image-keyboard-response","17","66916","0.0-6.0-1.6","63fac97f0d4e8f6bfd753d90","bdp_trlrn","Wed Mar 15 2023 20:46:11 GMT-0700 (Pacific Daylight Time)","529394","Trustworthy,Untrustworthy","","903","","","","rating","","trustrating_stim/white_mw063.bmp","1","","","","","","","","","","",""
"image-keyboard-response","18","67122","0.0-6.0-2.6","63fac97f0d4e8f6bfd753d90","bdp_trlrn","Wed Mar 15 2023 20:46:11 GMT-0700 (Pacific Daylight Time)","529394","Trustworthy,Untrustworthy","","null","","","","ratingFB","","trustrating_stim/white_mw063.bmp","null","","","","","","","","","","",""
"image-keyboard-response","19","69077","0.0-6.0-1.7","63fac97f0d4e8f6bfd753d90","bdp_trlrn","Wed Mar 15 2023 20:46:11 GMT-0700 (Pacific Daylight Time)","529394","Trustworthy,Untrustworthy","","1854","","","","rating","","trustrating_stim/white_00299_940422_fa_edt.bmp","5","","","","","","","","","","",""
"image-keyboard-response","20","69285","0.0-6.0-2.7","63fac97f0d4e8f6bfd753d90","bdp_trlrn","Wed Mar 15 2023 20:46:11 GMT-0700 (Pacific Daylight Time)","529394","Trustworthy,Untrustworthy","","null","","","","ratingFB","","trustrating_stim/white_00299_940422_fa_edt.bmp","null","","","","","","","","","","",""
"image-keyboard-response","21","70447","0.0-6.0-1.8","63fac97f0d4e8f6bfd753d90","bdp_trlrn","Wed Mar 15 2023 20:46:11 GMT-0700 (Pacific Daylight Time)","529394","Trustworthy,Untrustworthy","","1052","","","","rating","","trustrating_stim/white_00577_940928_fa_edt.bmp","3","","","","","","","","","","",""
"image-keyboard-response","22","70650","0.0-6.0-2.8","63fac97f0d4e8f6bfd753d90","bdp_trlrn","Wed Mar 15 2023 20:46:11 GMT-0700 (Pacific Daylight Time)","529394","Trustworthy,Untrustworthy","","null","","","","ratingFB","","trustrating_stim/white_00577_940928_fa_edt.bmp","null","","","","","","","","","","",""
"image-keyboard-response","23","72026","0.0-6.0-1.9","63fac97f0d4e8f6bfd753d90","bdp_trlrn","Wed Mar 15 2023 20:46:11 GMT-0700 (Pacific Daylight Time)","529394","Trustworthy,Untrustworthy","","1265","","","","rating","","trustrating_stim/white_00602_940928_fb_edt.bmp","6","","","","","","","","","","",""
"image-keyboard-response","24","72238","0.0-6.0-2.9","63fac97f0d4e8f6bfd753d90","bdp_trlrn","Wed Mar 15 2023 20:46:11 GMT-0700 (Pacific Daylight Time)","529394","Trustworthy,Untrustworthy","","null","","","","ratingFB","","trustrating_stim/white_00602_940928_fb_edt.bmp","null","","","","","","","","","","",""
"image-keyboard-response","25","73346","0.0-6.0-1.10","63fac97f0d4e8f6bfd753d90","bdp_trlrn","Wed Mar 15 2023 20:46:11 GMT-0700 (Pacific Daylight Time)","529394","Trustworthy,Untrustworthy","","1007","","","","rating","","trustrating_stim/white_mw033.bmp","3","","","","","","","","","","",""
"image-keyboard-response","26","73556","0.0-6.0-2.10","63fac97f0d4e8f6bfd753d90","bdp_trlrn","Wed Mar 15 2023 20:46:11 GMT-0700 (Pacific Daylight Time)","529394","Trustworthy,Untrustworthy","","null","","","","ratingFB","","trustrating_stim/white_mw033.bmp","null","","","","","","","","","","",""
"image-keyboard-response","27","74566","0.0-6.0-1.11","63fac97f0d4e8f6bfd753d90","bdp_trlrn","Wed Mar 15 2023 20:46:11 GMT-0700 (Pacific Daylight Time)","529394","Trustworthy,Untrustworthy","","900","","","","rating","","trustrating_stim/white_mw046.bmp","2","","","","","","","","","","",""
"image-keyboard-response","28","74771","0.0-6.0-2.11","63fac97f0d4e8f6bfd753d90","bdp_trlrn","Wed Mar 15 2023 20:46:11 GMT-0700 (Pacific Daylight Time)","529394","Trustworthy,Untrustworthy","","null","","","","ratingFB","","trustrating_stim/white_mw046.bmp","null","","","","","","","","","","",""
"image-keyboard-response","29","76406","0.0-6.0-1.12","63fac97f0d4e8f6bfd753d90","bdp_trlrn","Wed Mar 15 2023 20:46:11 GMT-0700 (Pacific Daylight Time)","529394","Trustworthy,Untrustworthy","","1526","","","","rating","","trustrating_stim/white_mw049.bmp","4","","","","","","","","","","",""
"image-keyboard-response","30","76608","0.0-6.0-2.12","63fac97f0d4e8f6bfd753d90","bdp_trlrn","Wed Mar 15 2023 20:46:11 GMT-0700 (Pacific Daylight Time)","529394","Trustworthy,Untrustworthy","","null","","","","ratingFB","","trustrating_stim/white_mw049.bmp","null","","","","","","","","","","",""
"image-keyboard-response","31","77376","0.0-6.0-1.13","63fac97f0d4e8f6bfd753d90","bdp_trlrn","Wed Mar 15 2023 20:46:11 GMT-0700 (Pacific Daylight Time)","529394","Trustworthy,Untrustworthy","","668","","","","rating","","trustrating_stim/white_mw053.bmp","2","","","","","","","","","","",""
"image-keyboard-response","32","77584","0.0-6.0-2.13","63fac97f0d4e8f6bfd753d90","bdp_trlrn","Wed Mar 15 2023 20:46:11 GMT-0700 (Pacific Daylight Time)","529394","Trustworthy,Untrustworthy","","null","","","","ratingFB","","trustrating_stim/white_mw053.bmp","null","","","","","","","","","","",""
"image-keyboard-response","33","78905","0.0-6.0-1.14","63fac97f0d4e8f6bfd753d90","bdp_trlrn","Wed Mar 15 2023 20:46:11 GMT-0700 (Pacific Daylight Time)","529394","Trustworthy,Untrustworthy","","1220","","","","rating","","trustrating_stim/white_00519_940519_fb_edt.bmp","1","","","","","","","","","","",""
"image-keyboard-response","34","79120","0.0-6.0-2.14","63fac97f0d4e8f6bfd753d90","bdp_trlrn","Wed Mar 15 2023 20:46:11 GMT-0700 (Pacific Daylight Time)","529394","Trustworthy,Untrustworthy","","null","","","","ratingFB","","trustrating_stim/white_00519_940519_fb_edt.bmp","null","","","","","","","","","","",""
"image-keyboard-response","35","80045","0.0-6.0-1.15","63fac97f0d4e8f6bfd753d90","bdp_trlrn","Wed Mar 15 2023 20:46:11 GMT-0700 (Pacific Daylight Time)","529394","Trustworthy,Untrustworthy","","816","","","","rating","","trustrating_stim/white_mw048.bmp","1","","","","","","","","","","",""
"image-keyboard-response","36","80254","0.0-6.0-2.15","63fac97f0d4e8f6bfd753d90","bdp_trlrn","Wed Mar 15 2023 20:46:11 GMT-0700 (Pacific Daylight Time)","529394","Trustworthy,Untrustworthy","","null","","","","ratingFB","","trustrating_stim/white_mw048.bmp","null","","","","","","","","","","",""
"image-keyboard-response","37","80915","0.0-6.0-1.16","63fac97f0d4e8f6bfd753d90","bdp_trlrn","Wed Mar 15 2023 20:46:11 GMT-0700 (Pacific Daylight Time)","529394","Trustworthy,Untrustworthy","","552","","","","rating","","trustrating_stim/white_00807_941205_fb_edt.bmp","1","","","","","","","","","","",""
"image-keyboard-response","38","81129","0.0-6.0-2.16","63fac97f0d4e8f6bfd753d90","bdp_trlrn","Wed Mar 15 2023 20:46:11 GMT-0700 (Pacific Daylight Time)","529394","Trustworthy,Untrustworthy","","null","","","","ratingFB","","trustrating_stim/white_00807_941205_fb_edt.bmp","null","","","","","","","","","","",""
"image-keyboard-response","39","82475","0.0-6.0-1.17","63fac97f0d4e8f6bfd753d90","bdp_trlrn","Wed Mar 15 2023 20:46:11 GMT-0700 (Pacific Daylight Time)","529394","Trustworthy,Untrustworthy","","1238","","","","rating","","trustrating_stim/white_00761_941201_fb_edt.bmp","2","","","","","","","","","","",""
"image-keyboard-response","40","82683","0.0-6.0-2.17","63fac97f0d4e8f6bfd753d90","bdp_trlrn","Wed Mar 15 2023 20:46:11 GMT-0700 (Pacific Daylight Time)","529394","Trustworthy,Untrustworthy","","null","","","","ratingFB","","trustrating_stim/white_00761_941201_fb_edt.bmp","null","","","","","","","","","","",""
"image-keyboard-response","41","83405","0.0-6.0-1.18","63fac97f0d4e8f6bfd753d90","bdp_trlrn","Wed Mar 15 2023 20:46:11 GMT-0700 (Pacific Daylight Time)","529394","Trustworthy,Untrustworthy","","621","","","","rating","","trustrating_stim/white_mw060.bmp","1","","","","","","","","","","",""
"image-keyboard-response","42","83614","0.0-6.0-2.18","63fac97f0d4e8f6bfd753d90","bdp_trlrn","Wed Mar 15 2023 20:46:11 GMT-0700 (Pacific Daylight Time)","529394","Trustworthy,Untrustworthy","","null","","","","ratingFB","","trustrating_stim/white_mw060.bmp","null","","","","","","","","","","",""
"image-keyboard-response","43","85064","0.0-6.0-1.19","63fac97f0d4e8f6bfd753d90","bdp_trlrn","Wed Mar 15 2023 20:46:11 GMT-0700 (Pacific Daylight Time)","529394","Trustworthy,Untrustworthy","","1342","","","","rating","","trustrating_stim/white_00109_931230_fa_edt.bmp","7","","","","","","","","","","",""
"image-keyboard-response","44","85271","0.0-6.0-2.19","63fac97f0d4e8f6bfd753d90","bdp_trlrn","Wed Mar 15 2023 20:46:11 GMT-0700 (Pacific Daylight Time)","529394","Trustworthy,Untrustworthy","","null","","","","ratingFB","","trustrating_stim/white_00109_931230_fa_edt.bmp","null","","","","","","","","","","",""
"image-keyboard-response","45","86754","0.0-6.0-1.20","63fac97f0d4e8f6bfd753d90","bdp_trlrn","Wed Mar 15 2023 20:46:11 GMT-0700 (Pacific Daylight Time)","529394","Trustworthy,Untrustworthy","","1374","","","","rating","","trustrating_stim/white_00340_940422_fa_edt.bmp","3","","","","","","","","","","",""
"image-keyboard-response","46","86960","0.0-6.0-2.20","63fac97f0d4e8f6bfd753d90","bdp_trlrn","Wed Mar 15 2023 20:46:11 GMT-0700 (Pacific Daylight Time)","529394","Trustworthy,Untrustworthy","","null","","","","ratingFB","","trustrating_stim/white_00340_940422_fa_edt.bmp","null","","","","","","","","","","",""
"image-keyboard-response","47","87914","0.0-6.0-1.21","63fac97f0d4e8f6bfd753d90","bdp_trlrn","Wed Mar 15 2023 20:46:11 GMT-0700 (Pacific Daylight Time)","529394","Trustworthy,Untrustworthy","","853","","","","rating","","trustrating_stim/white_mw097.bmp","2","","","","","","","","","","",""
"image-keyboard-response","48","88117","0.0-6.0-2.21","63fac97f0d4e8f6bfd753d90","bdp_trlrn","Wed Mar 15 2023 20:46:11 GMT-0700 (Pacific Daylight Time)","529394","Trustworthy,Untrustworthy","","null","","","","ratingFB","","trustrating_stim/white_mw097.bmp","null","","","","","","","","","","",""
"image-keyboard-response","49","89134","0.0-6.0-1.22","63fac97f0d4e8f6bfd753d90","bdp_trlrn","Wed Mar 15 2023 20:46:11 GMT-0700 (Pacific Daylight Time)","529394","Trustworthy,Untrustworthy","","916","","","","rating","","trustrating_stim/white_00129_931230_fb_edt.bmp","8","","","","","","","","","","",""
"image-keyboard-response","50","89338","0.0-6.0-2.22","63fac97f0d4e8f6bfd753d90","bdp_trlrn","Wed Mar 15 2023 20:46:11 GMT-0700 (Pacific Daylight Time)","529394","Trustworthy,Untrustworthy","","null","","","","ratingFB","","trustrating_stim/white_00129_931230_fb_edt.bmp","null","","","","","","","","","","",""
"image-keyboard-response","51","90243","0.0-6.0-1.23","63fac97f0d4e8f6bfd753d90","bdp_trlrn","Wed Mar 15 2023 20:46:11 GMT-0700 (Pacific Daylight Time)","529394","Trustworthy,Untrustworthy","","795","","","","rating","","trustrating_stim/white_mw056.bmp","2","","","","","","","","","","",""
"image-keyboard-response","52","90449","0.0-6.0-2.23","63fac97f0d4e8f6bfd753d90","bdp_trlrn","Wed Mar 15 2023 20:46:11 GMT-0700 (Pacific Daylight Time)","529394","Trustworthy,Untrustworthy","","null","","","","ratingFB","","trustrating_stim/white_mw056.bmp","null","","","","","","","","","","",""
"image-keyboard-response","53","91313","0.0-6.0-1.24","63fac97f0d4e8f6bfd753d90","bdp_trlrn","Wed Mar 15 2023 20:46:11 GMT-0700 (Pacific Daylight Time)","529394","Trustworthy,Untrustworthy","","763","","","","rating","","trustrating_stim/white_mw084.bmp","3","","","","","","","","","","",""
"image-keyboard-response","54","91517","0.0-6.0-2.24","63fac97f0d4e8f6bfd753d90","bdp_trlrn","Wed Mar 15 2023 20:46:11 GMT-0700 (Pacific Daylight Time)","529394","Trustworthy,Untrustworthy","","null","","","","ratingFB","","trustrating_stim/white_mw084.bmp","null","","","","","","","","","","",""
"image-keyboard-response","55","92613","0.0-6.0-1.25","63fac97f0d4e8f6bfd753d90","bdp_trlrn","Wed Mar 15 2023 20:46:11 GMT-0700 (Pacific Daylight Time)","529394","Trustworthy,Untrustworthy","","988","","","","rating","","trustrating_stim/white_mw066.bmp","7","","","","","","","","","","",""
"image-keyboard-response","56","92818","0.0-6.0-2.25","63fac97f0d4e8f6bfd753d90","bdp_trlrn","Wed Mar 15 2023 20:46:11 GMT-0700 (Pacific Daylight Time)","529394","Trustworthy,Untrustworthy","","null","","","","ratingFB","","trustrating_stim/white_mw066.bmp","null","","","","","","","","","","",""
"image-keyboard-response","57","93743","0.0-6.0-1.26","63fac97f0d4e8f6bfd753d90","bdp_trlrn","Wed Mar 15 2023 20:46:11 GMT-0700 (Pacific Daylight Time)","529394","Trustworthy,Untrustworthy","","815","","","","rating","","trustrating_stim/white_00757_941201_fa_edt.bmp","2","","","","","","","","","","",""
"image-keyboard-response","58","93958","0.0-6.0-2.26","63fac97f0d4e8f6bfd753d90","bdp_trlrn","Wed Mar 15 2023 20:46:11 GMT-0700 (Pacific Daylight Time)","529394","Trustworthy,Untrustworthy","","null","","","","ratingFB","","trustrating_stim/white_00757_941201_fa_edt.bmp","null","","","","","","","","","","",""
"image-keyboard-response","59","95163","0.0-6.0-1.27","63fac97f0d4e8f6bfd753d90","bdp_trlrn","Wed Mar 15 2023 20:46:11 GMT-0700 (Pacific Daylight Time)","529394","Trustworthy,Untrustworthy","","1096","","","","rating","","trustrating_stim/white_mw035.bmp","7","","","","","","","","","","",""
"image-keyboard-response","60","95379","0.0-6.0-2.27","63fac97f0d4e8f6bfd753d90","bdp_trlrn","Wed Mar 15 2023 20:46:11 GMT-0700 (Pacific Daylight Time)","529394","Trustworthy,Untrustworthy","","null","","","","ratingFB","","trustrating_stim/white_mw035.bmp","null","","","","","","","","","","",""
"image-keyboard-response","61","96023","0.0-6.0-1.28","63fac97f0d4e8f6bfd753d90","bdp_trlrn","Wed Mar 15 2023 20:46:11 GMT-0700 (Pacific Daylight Time)","529394","Trustworthy,Untrustworthy","","535","","","","rating","","trustrating_stim/white_00659_941121_fa_edt.bmp","2","","","","","","","","","","",""
"image-keyboard-response","62","96234","0.0-6.0-2.28","63fac97f0d4e8f6bfd753d90","bdp_trlrn","Wed Mar 15 2023 20:46:11 GMT-0700 (Pacific Daylight Time)","529394","Trustworthy,Untrustworthy","","null","","","","ratingFB","","trustrating_stim/white_00659_941121_fa_edt.bmp","null","","","","","","","","","","",""
"image-keyboard-response","63","97132","0.0-6.0-1.29","63fac97f0d4e8f6bfd753d90","bdp_trlrn","Wed Mar 15 2023 20:46:11 GMT-0700 (Pacific Daylight Time)","529394","Trustworthy,Untrustworthy","","796","","","","rating","","trustrating_stim/white_00120_931230_fa_edt.bmp","6","","","","","","","","","","",""
"image-keyboard-response","64","97341","0.0-6.0-2.29","63fac97f0d4e8f6bfd753d90","bdp_trlrn","Wed Mar 15 2023 20:46:11 GMT-0700 (Pacific Daylight Time)","529394","Trustworthy,Untrustworthy","","null","","","","ratingFB","","trustrating_stim/white_00120_931230_fa_edt.bmp","null","","","","","","","","","","",""
"image-keyboard-response","65","98383","0.0-6.0-1.30","63fac97f0d4e8f6bfd753d90","bdp_trlrn","Wed Mar 15 2023 20:46:11 GMT-0700 (Pacific Daylight Time)","529394","Trustworthy,Untrustworthy","","932","","","","rating","","trustrating_stim/white_00129_931230_fb_edt.bmp","7","","","","","","","","","","",""
"image-keyboard-response","66","98590","0.0-6.0-2.30","63fac97f0d4e8f6bfd753d90","bdp_trlrn","Wed Mar 15 2023 20:46:11 GMT-0700 (Pacific Daylight Time)","529394","Trustworthy,Untrustworthy","","null","","","","ratingFB","","trustrating_stim/white_00129_931230_fb_edt.bmp","null","","","","","","","","","","",""
"image-keyboard-response","67","99723","0.0-6.0-1.31","63fac97f0d4e8f6bfd753d90","bdp_trlrn","Wed Mar 15 2023 20:46:11 GMT-0700 (Pacific Daylight Time)","529394","Trustworthy,Untrustworthy","","1030","","","","rating","","trustrating_stim/white_mw066.bmp","6","","","","","","","","","","",""
"image-keyboard-response","68","99933","0.0-6.0-2.31","63fac97f0d4e8f6bfd753d90","bdp_trlrn","Wed Mar 15 2023 20:46:11 GMT-0700 (Pacific Daylight Time)","529394","Trustworthy,Untrustworthy","","null","","","","ratingFB","","trustrating_stim/white_mw066.bmp","null","","","","","","","","","","",""
"image-keyboard-response","69","100973","0.0-6.0-1.32","63fac97f0d4e8f6bfd753d90","bdp_trlrn","Wed Mar 15 2023 20:46:11 GMT-0700 (Pacific Daylight Time)","529394","Trustworthy,Untrustworthy","","932","","","","rating","","trustrating_stim/white_mw099.bmp","2","","","","","","","","","","",""
"image-keyboard-response","70","101174","0.0-6.0-2.32","63fac97f0d4e8f6bfd753d90","bdp_trlrn","Wed Mar 15 2023 20:46:11 GMT-0700 (Pacific Daylight Time)","529394","Trustworthy,Untrustworthy","","null","","","","ratingFB","","trustrating_stim/white_mw099.bmp","null","","","","","","","","","","",""
"image-keyboard-response","71","101982","0.0-6.0-1.33","63fac97f0d4e8f6bfd753d90","bdp_trlrn","Wed Mar 15 2023 20:46:11 GMT-0700 (Pacific Daylight Time)","529394","Trustworthy,Untrustworthy","","706","","","","rating","","trustrating_stim/white_mw089.bmp","3","","","","","","","","","","",""
"image-keyboard-response","72","102184","0.0-6.0-2.33","63fac97f0d4e8f6bfd753d90","bdp_trlrn","Wed Mar 15 2023 20:46:11 GMT-0700 (Pacific Daylight Time)","529394","Trustworthy,Untrustworthy","","null","","","","ratingFB","","trustrating_stim/white_mw089.bmp","null","","","","","","","","","","",""
"image-keyboard-response","73","103692","0.0-6.0-1.34","63fac97f0d4e8f6bfd753d90","bdp_trlrn","Wed Mar 15 2023 20:46:11 GMT-0700 (Pacific Daylight Time)","529394","Trustworthy,Untrustworthy","","1407","","","","rating","","trustrating_stim/white_00299_940422_fa_edt.bmp","6","","","","","","","","","","",""
"image-keyboard-response","74","103904","0.0-6.0-2.34","63fac97f0d4e8f6bfd753d90","bdp_trlrn","Wed Mar 15 2023 20:46:11 GMT-0700 (Pacific Daylight Time)","529394","Trustworthy,Untrustworthy","","null","","","","ratingFB","","trustrating_stim/white_00299_940422_fa_edt.bmp","null","","","","","","","","","","",""
"image-keyboard-response","75","104901","0.0-6.0-1.35","63fac97f0d4e8f6bfd753d90","bdp_trlrn","Wed Mar 15 2023 20:46:11 GMT-0700 (Pacific Daylight Time)","529394","Trustworthy,Untrustworthy","","888","","","","rating","","trustrating_stim/white_mw033.bmp","3","","","","","","","","","","",""
"image-keyboard-response","76","105117","0.0-6.0-2.35","63fac97f0d4e8f6bfd753d90","bdp_trlrn","Wed Mar 15 2023 20:46:11 GMT-0700 (Pacific Daylight Time)","529394","Trustworthy,Untrustworthy","","null","","","","ratingFB","","trustrating_stim/white_mw033.bmp","null","","","","","","","","","","",""
"image-keyboard-response","77","105961","0.0-6.0-1.36","63fac97f0d4e8f6bfd753d90","bdp_trlrn","Wed Mar 15 2023 20:46:11 GMT-0700 (Pacific Daylight Time)","529394","Trustworthy,Untrustworthy","","734","","","","rating","","trustrating_stim/white_mw084.bmp","2","","","","","","","","","","",""
"image-keyboard-response","78","106174","0.0-6.0-2.36","63fac97f0d4e8f6bfd753d90","bdp_trlrn","Wed Mar 15 2023 20:46:11 GMT-0700 (Pacific Daylight Time)","529394","Trustworthy,Untrustworthy","","null","","","","ratingFB","","trustrating_stim/white_mw084.bmp","null","","","","","","","","","","",""
"image-keyboard-response","79","106862","0.0-6.0-1.37","63fac97f0d4e8f6bfd753d90","bdp_trlrn","Wed Mar 15 2023 20:46:11 GMT-0700 (Pacific Daylight Time)","529394","Trustworthy,Untrustworthy","","585","","","","rating","","trustrating_stim/white_mw048.bmp","2","","","","","","","","","","",""
"image-keyboard-response","80","107063","0.0-6.0-2.37","63fac97f0d4e8f6bfd753d90","bdp_trlrn","Wed Mar 15 2023 20:46:11 GMT-0700 (Pacific Daylight Time)","529394","Trustworthy,Untrustworthy","","null","","","","ratingFB","","trustrating_stim/white_mw048.bmp","null","","","","","","","","","","",""
"image-keyboard-response","81","107742","0.0-6.0-1.38","63fac97f0d4e8f6bfd753d90","bdp_trlrn","Wed Mar 15 2023 20:46:11 GMT-0700 (Pacific Daylight Time)","529394","Trustworthy,Untrustworthy","","578","","","","rating","","trustrating_stim/white_mw063.bmp","3","","","","","","","","","","",""
"image-keyboard-response","82","107955","0.0-6.0-2.38","63fac97f0d4e8f6bfd753d90","bdp_trlrn","Wed Mar 15 2023 20:46:11 GMT-0700 (Pacific Daylight Time)","529394","Trustworthy,Untrustworthy","","null","","","","ratingFB","","trustrating_stim/white_mw063.bmp","null","","","","","","","","","","",""
"image-keyboard-response","83","108622","0.0-6.0-1.39","63fac97f0d4e8f6bfd753d90","bdp_trlrn","Wed Mar 15 2023 20:46:11 GMT-0700 (Pacific Daylight Time)","529394","Trustworthy,Untrustworthy","","565","","","","rating","","trustrating_stim/white_00659_941121_fa_edt.bmp","2","","","","","","","","","","",""
"image-keyboard-response","84","108827","0.0-6.0-2.39","63fac97f0d4e8f6bfd753d90","bdp_trlrn","Wed Mar 15 2023 20:46:11 GMT-0700 (Pacific Daylight Time)","529394","Trustworthy,Untrustworthy","","null","","","","ratingFB","","trustrating_stim/white_00659_941121_fa_edt.bmp","null","","","","","","","","","","",""
"image-keyboard-response","85","110401","0.0-6.0-1.40","63fac97f0d4e8f6bfd753d90","bdp_trlrn","Wed Mar 15 2023 20:46:11 GMT-0700 (Pacific Daylight Time)","529394","Trustworthy,Untrustworthy","","1465","","","","rating","","trustrating_stim/white_00223_940128_fb_edt.bmp","2","","","","","","","","","","",""
"image-keyboard-response","86","110608","0.0-6.0-2.40","63fac97f0d4e8f6bfd753d90","bdp_trlrn","Wed Mar 15 2023 20:46:11 GMT-0700 (Pacific Daylight Time)","529394","Trustworthy,Untrustworthy","","null","","","","ratingFB","","trustrating_stim/white_00223_940128_fb_edt.bmp","null","","","","","","","","","","",""
"image-keyboard-response","87","111601","0.0-6.0-1.41","63fac97f0d4e8f6bfd753d90","bdp_trlrn","Wed Mar 15 2023 20:46:11 GMT-0700 (Pacific Daylight Time)","529394","Trustworthy,Untrustworthy","","892","","","","rating","","trustrating_stim/white_00807_941205_fb_edt.bmp","2","","","","","","","","","","",""
"image-keyboard-response","88","111808","0.0-6.0-2.41","63fac97f0d4e8f6bfd753d90","bdp_trlrn","Wed Mar 15 2023 20:46:11 GMT-0700 (Pacific Daylight Time)","529394","Trustworthy,Untrustworthy","","null","","","","ratingFB","","trustrating_stim/white_00807_941205_fb_edt.bmp","null","","","","","","","","","","",""
"image-keyboard-response","89","113111","0.0-6.0-1.42","63fac97f0d4e8f6bfd753d90","bdp_trlrn","Wed Mar 15 2023 20:46:11 GMT-0700 (Pacific Daylight Time)","529394","Trustworthy,Untrustworthy","","1194","","","","rating","","trustrating_stim/white_mw049.bmp","8","","","","","","","","","","",""
"image-keyboard-response","90","113314","0.0-6.0-2.42","63fac97f0d4e8f6bfd753d90","bdp_trlrn","Wed Mar 15 2023 20:46:11 GMT-0700 (Pacific Daylight Time)","529394","Trustworthy,Untrustworthy","","null","","","","ratingFB","","trustrating_stim/white_mw049.bmp","null","","","","","","","","","","",""
"image-keyboard-response","91","114261","0.0-6.0-1.43","63fac97f0d4e8f6bfd753d90","bdp_trlrn","Wed Mar 15 2023 20:46:11 GMT-0700 (Pacific Daylight Time)","529394","Trustworthy,Untrustworthy","","836","","","","rating","","trustrating_stim/white_mw071.bmp","7","","","","","","","","","","",""
"image-keyboard-response","92","114470","0.0-6.0-2.43","63fac97f0d4e8f6bfd753d90","bdp_trlrn","Wed Mar 15 2023 20:46:11 GMT-0700 (Pacific Daylight Time)","529394","Trustworthy,Untrustworthy","","null","","","","ratingFB","","trustrating_stim/white_mw071.bmp","null","","","","","","","","","","",""
"image-keyboard-response","93","115290","0.0-6.0-1.44","63fac97f0d4e8f6bfd753d90","bdp_trlrn","Wed Mar 15 2023 20:46:11 GMT-0700 (Pacific Daylight Time)","529394","Trustworthy,Untrustworthy","","711","","","","rating","","trustrating_stim/white_00602_940928_fb_edt.bmp","2","","","","","","","","","","",""
"image-keyboard-response","94","115500","0.0-6.0-2.44","63fac97f0d4e8f6bfd753d90","bdp_trlrn","Wed Mar 15 2023 20:46:11 GMT-0700 (Pacific Daylight Time)","529394","Trustworthy,Untrustworthy","","null","","","","ratingFB","","trustrating_stim/white_00602_940928_fb_edt.bmp","null","","","","","","","","","","",""
"image-keyboard-response","95","118330","0.0-6.0-1.45","63fac97f0d4e8f6bfd753d90","bdp_trlrn","Wed Mar 15 2023 20:46:11 GMT-0700 (Pacific Daylight Time)","529394","Trustworthy,Untrustworthy","","2722","","","","rating","","trustrating_stim/white_00898_960530_fa_edt.bmp","4","","","","","","","","","","",""
"image-keyboard-response","96","118537","0.0-6.0-2.45","63fac97f0d4e8f6bfd753d90","bdp_trlrn","Wed Mar 15 2023 20:46:11 GMT-0700 (Pacific Daylight Time)","529394","Trustworthy,Untrustworthy","","null","","","","ratingFB","","trustrating_stim/white_00898_960530_fa_edt.bmp","null","","","","","","","","","","",""
"image-keyboard-response","97","119340","0.0-6.0-1.46","63fac97f0d4e8f6bfd753d90","bdp_trlrn","Wed Mar 15 2023 20:46:11 GMT-0700 (Pacific Daylight Time)","529394","Trustworthy,Untrustworthy","","694","","","","rating","","trustrating_stim/white_00785_941205_fb_edt.bmp","2","","","","","","","","","","",""
"image-keyboard-response","98","119544","0.0-6.0-2.46","63fac97f0d4e8f6bfd753d90","bdp_trlrn","Wed Mar 15 2023 20:46:11 GMT-0700 (Pacific Daylight Time)","529394","Trustworthy,Untrustworthy","","null","","","","ratingFB","","trustrating_stim/white_00785_941205_fb_edt.bmp","null","","","","","","","","","","",""
"image-keyboard-response","99","120850","0.0-6.0-1.47","63fac97f0d4e8f6bfd753d90","bdp_trlrn","Wed Mar 15 2023 20:46:11 GMT-0700 (Pacific Daylight Time)","529394","Trustworthy,Untrustworthy","","1197","","","","rating","","trustrating_stim/white_00340_940422_fa_edt.bmp","2","","","","","","","","","","",""
"image-keyboard-response","100","121052","0.0-6.0-2.47","63fac97f0d4e8f6bfd753d90","bdp_trlrn","Wed Mar 15 2023 20:46:11 GMT-0700 (Pacific Daylight Time)","529394","Trustworthy,Untrustworthy","","null","","","","ratingFB","","trustrating_stim/white_00340_940422_fa_edt.bmp","null","","","","","","","","","","",""
"image-keyboard-response","101","122319","0.0-6.0-1.48","63fac97f0d4e8f6bfd753d90","bdp_trlrn","Wed Mar 15 2023 20:46:11 GMT-0700 (Pacific Daylight Time)","529394","Trustworthy,Untrustworthy","","1166","","","","rating","","trustrating_stim/white_00109_931230_fa_edt.bmp","7","","","","","","","","","","",""
"image-keyboard-response","102","122526","0.0-6.0-2.48","63fac97f0d4e8f6bfd753d90","bdp_trlrn","Wed Mar 15 2023 20:46:11 GMT-0700 (Pacific Daylight Time)","529394","Trustworthy,Untrustworthy","","null","","","","ratingFB","","trustrating_stim/white_00109_931230_fa_edt.bmp","null","","","","","","","","","","",""
"image-keyboard-response","103","123409","0.0-6.0-1.49","63fac97f0d4e8f6bfd753d90","bdp_trlrn","Wed Mar 15 2023 20:46:11 GMT-0700 (Pacific Daylight Time)","529394","Trustworthy,Untrustworthy","","781","","","","rating","","trustrating_stim/white_00757_941201_fa_edt.bmp","2","","","","","","","","","","",""
"image-keyboard-response","104","123620","0.0-6.0-2.49","63fac97f0d4e8f6bfd753d90","bdp_trlrn","Wed Mar 15 2023 20:46:11 GMT-0700 (Pacific Daylight Time)","529394","Trustworthy,Untrustworthy","","null","","","","ratingFB","","trustrating_stim/white_00757_941201_fa_edt.bmp","null","","","","","","","","","","",""
"image-keyboard-response","105","124279","0.0-6.0-1.50","63fac97f0d4e8f6bfd753d90","bdp_trlrn","Wed Mar 15 2023 20:46:11 GMT-0700 (Pacific Daylight Time)","529394","Trustworthy,Untrustworthy","","551","","","","rating","","trustrating_stim/white_mw053.bmp","2","","","","","","","","","","",""
"image-keyboard-response","106","124489","0.0-6.0-2.50","63fac97f0d4e8f6bfd753d90","bdp_trlrn","Wed Mar 15 2023 20:46:11 GMT-0700 (Pacific Daylight Time)","529394","Trustworthy,Untrustworthy","","null","","","","ratingFB","","trustrating_stim/white_mw053.bmp","null","","","","","","","","","","",""
"image-keyboard-response","107","125629","0.0-6.0-1.51","63fac97f0d4e8f6bfd753d90","bdp_trlrn","Wed Mar 15 2023 20:46:11 GMT-0700 (Pacific Daylight Time)","529394","Trustworthy,Untrustworthy","","1038","","","","rating","","trustrating_stim/white_00120_931230_fa_edt.bmp","7","","","","","","","","","","",""
"image-keyboard-response","108","125838","0.0-6.0-2.51","63fac97f0d4e8f6bfd753d90","bdp_trlrn","Wed Mar 15 2023 20:46:11 GMT-0700 (Pacific Daylight Time)","529394","Trustworthy,Untrustworthy","","null","","","","ratingFB","","trustrating_stim/white_00120_931230_fa_edt.bmp","null","","","","","","","","","","",""
"image-keyboard-response","109","126499","0.0-6.0-1.52","63fac97f0d4e8f6bfd753d90","bdp_trlrn","Wed Mar 15 2023 20:46:11 GMT-0700 (Pacific Daylight Time)","529394","Trustworthy,Untrustworthy","","552","","","","rating","","trustrating_stim/white_mw046.bmp","2","","","","","","","","","","",""
"image-keyboard-response","110","126711","0.0-6.0-2.52","63fac97f0d4e8f6bfd753d90","bdp_trlrn","Wed Mar 15 2023 20:46:11 GMT-0700 (Pacific Daylight Time)","529394","Trustworthy,Untrustworthy","","null","","","","ratingFB","","trustrating_stim/white_mw046.bmp","null","","","","","","","","","","",""
"image-keyboard-response","111","127448","0.0-6.0-1.53","63fac97f0d4e8f6bfd753d90","bdp_trlrn","Wed Mar 15 2023 20:46:11 GMT-0700 (Pacific Daylight Time)","529394","Trustworthy,Untrustworthy","","636","","","","rating","","trustrating_stim/white_mw056.bmp","2","","","","","","","","","","",""
"image-keyboard-response","112","127651","0.0-6.0-2.53","63fac97f0d4e8f6bfd753d90","bdp_trlrn","Wed Mar 15 2023 20:46:11 GMT-0700 (Pacific Daylight Time)","529394","Trustworthy,Untrustworthy","","null","","","","ratingFB","","trustrating_stim/white_mw056.bmp","null","","","","","","","","","","",""
"image-keyboard-response","113","128428","0.0-6.0-1.54","63fac97f0d4e8f6bfd753d90","bdp_trlrn","Wed Mar 15 2023 20:46:11 GMT-0700 (Pacific Daylight Time)","529394","Trustworthy,Untrustworthy","","676","","","","rating","","trustrating_stim/white_mw097.bmp","2","","","","","","","","","","",""
"image-keyboard-response","114","128630","0.0-6.0-2.54","63fac97f0d4e8f6bfd753d90","bdp_trlrn","Wed Mar 15 2023 20:46:11 GMT-0700 (Pacific Daylight Time)","529394","Trustworthy,Untrustworthy","","null","","","","ratingFB","","trustrating_stim/white_mw097.bmp","null","","","","","","","","","","",""
"image-keyboard-response","115","129378","0.0-6.0-1.55","63fac97f0d4e8f6bfd753d90","bdp_trlrn","Wed Mar 15 2023 20:46:11 GMT-0700 (Pacific Daylight Time)","529394","Trustworthy,Untrustworthy","","638","","","","rating","","trustrating_stim/white_mw060.bmp","2","","","","","","","","","","",""
"image-keyboard-response","116","129589","0.0-6.0-2.55","63fac97f0d4e8f6bfd753d90","bdp_trlrn","Wed Mar 15 2023 20:46:11 GMT-0700 (Pacific Daylight Time)","529394","Trustworthy,Untrustworthy","","null","","","","ratingFB","","trustrating_stim/white_mw060.bmp","null","","","","","","","","","","",""
"image-keyboard-response","117","130248","0.0-6.0-1.56","63fac97f0d4e8f6bfd753d90","bdp_trlrn","Wed Mar 15 2023 20:46:11 GMT-0700 (Pacific Daylight Time)","529394","Trustworthy,Untrustworthy","","557","","","","rating","","trustrating_stim/white_mw035.bmp","2","","","","","","","","","","",""
"image-keyboard-response","118","130456","0.0-6.0-2.56","63fac97f0d4e8f6bfd753d90","bdp_trlrn","Wed Mar 15 2023 20:46:11 GMT-0700 (Pacific Daylight Time)","529394","Trustworthy,Untrustworthy","","null","","","","ratingFB","","trustrating_stim/white_mw035.bmp","null","","","","","","","","","","",""
"image-keyboard-response","119","131438","0.0-6.0-1.57","63fac97f0d4e8f6bfd753d90","bdp_trlrn","Wed Mar 15 2023 20:46:11 GMT-0700 (Pacific Daylight Time)","529394","Trustworthy,Untrustworthy","","880","","","","rating","","trustrating_stim/white_00761_941201_fb_edt.bmp","2","","","","","","","","","","",""
"image-keyboard-response","120","131640","0.0-6.0-2.57","63fac97f0d4e8f6bfd753d90","bdp_trlrn","Wed Mar 15 2023 20:46:11 GMT-0700 (Pacific Daylight Time)","529394","Trustworthy,Untrustworthy","","null","","","","ratingFB","","trustrating_stim/white_00761_941201_fb_edt.bmp","null","","","","","","","","","","",""
"image-keyboard-response","121","132919","0.0-6.0-1.58","63fac97f0d4e8f6bfd753d90","bdp_trlrn","Wed Mar 15 2023 20:46:11 GMT-0700 (Pacific Daylight Time)","529394","Trustworthy,Untrustworthy","","1168","","","","rating","","trustrating_stim/white_00577_940928_fa_edt.bmp","3","","","","","","","","","","",""
"image-keyboard-response","122","133121","0.0-6.0-2.58","63fac97f0d4e8f6bfd753d90","bdp_trlrn","Wed Mar 15 2023 20:46:11 GMT-0700 (Pacific Daylight Time)","529394","Trustworthy,Untrustworthy","","null","","","","ratingFB","","trustrating_stim/white_00577_940928_fa_edt.bmp","null","","","","","","","","","","",""
"image-keyboard-response","123","133847","0.0-6.0-1.59","63fac97f0d4e8f6bfd753d90","bdp_trlrn","Wed Mar 15 2023 20:46:11 GMT-0700 (Pacific Daylight Time)","529394","Trustworthy,Untrustworthy","","625","","","","rating","","trustrating_stim/white_00519_940519_fb_edt.bmp","3","","","","","","","","","","",""
"image-keyboard-response","124","134053","0.0-6.0-2.59","63fac97f0d4e8f6bfd753d90","bdp_trlrn","Wed Mar 15 2023 20:46:11 GMT-0700 (Pacific Daylight Time)","529394","Trustworthy,Untrustworthy","","null","","","","ratingFB","","trustrating_stim/white_00519_940519_fb_edt.bmp","null","","","","","","","","","","",""
"instructions","125","135277","0.0-7.0","63fac97f0d4e8f6bfd753d90","bdp_trlrn","Wed Mar 15 2023 20:46:11 GMT-0700 (Pacific Daylight Time)","529394","Trustworthy,Untrustworthy","[{""page_index"":0,""viewing_time"":1115}]","1115","","","","","","","","","","","","","","","","","",""
"instructions","126","230254","0.0-8.0","63fac97f0d4e8f6bfd753d90","bdp_trlrn","Wed Mar 15 2023 20:46:11 GMT-0700 (Pacific Daylight Time)","529394","Trustworthy,Untrustworthy","[{""page_index"":0,""viewing_time"":20295},{""page_index"":1,""viewing_time"":9468},{""page_index"":2,""viewing_time"":9119},{""page_index"":3,""viewing_time"":11888},{""page_index"":4,""viewing_time"":10049},{""page_index"":5,""viewing_time"":12468},{""page_index"":6,""viewing_time"":13658},{""page_index"":7,""viewing_time"":7919}]","94864","","","","","","","","","","","","","","","","","",""
"html-keyboard-response","127","235424","0.0-9.0","63fac97f0d4e8f6bfd753d90","bdp_trlrn","Wed Mar 15 2023 20:46:11 GMT-0700 (Pacific Daylight Time)","529394","Trustworthy,Untrustworthy","","5168","","","","","","<div class='header' style='text-align:left; position: absolute; top: 5%; left: 5%;'><small>Task 2 of 5</small></div><div class='instruxDiv'><p><strong>1) What is the minimum number of points you can choose to send to your partner?</strong></p><p>a) 0</p><p>b) 1</p><p>c) 5</p>","B","","","","","","","","","","",""
"html-keyboard-response","128","237373","0.0-10.0","63fac97f0d4e8f6bfd753d90","bdp_trlrn","Wed Mar 15 2023 20:46:11 GMT-0700 (Pacific Daylight Time)","529394","Trustworthy,Untrustworthy","","1840","","","","","","<div class='header' style='text-align:left; position: absolute; top: 5%; left: 5%;'><small>Task 2 of 5</small></div><div class='instruxDiv'><p><strong>1) What is the minimum number of points you can choose to send to your partner?</strong></p><p>a) 0</p><p style='color:#00FF00'>b) 1</p><p>c) 5</p><h3 style='color:#00FF00'>Correct!</h3><h3 class='center-content'>The correct response is b).</h3><h3 class='center-content'>The minimum number of points you can choose to send to your partner is 1 point.</h3><p><em>Press SPACEBAR to continue</em></p></div>"," ","","","","","","","","","","",""
"html-keyboard-response","129","240413","0.0-11.0","63fac97f0d4e8f6bfd753d90","bdp_trlrn","Wed Mar 15 2023 20:46:11 GMT-0700 (Pacific Daylight Time)","529394","Trustworthy,Untrustworthy","","2934","","","","","","<div class='header' style='text-align:left; position: absolute; top: 5%; left: 5%;'><small>Task 2 of 5</small></div><div class='instruxDiv'><p><strong>2) What is the maximum number of points you can choose to send to your partner?</strong></p><p>a) 8</p><p>b) 5</p><p>c) 3</p>","B","","","","","","","","","","",""
"html-keyboard-response","130","242682","0.0-12.0","63fac97f0d4e8f6bfd753d90","bdp_trlrn","Wed Mar 15 2023 20:46:11 GMT-0700 (Pacific Daylight Time)","529394","Trustworthy,Untrustworthy","","2155","","","","","","<div class='header' style='text-align:left; position: absolute; top: 5%; left: 5%;'><small>Task 2 of 5</small></div><div class='instruxDiv'><p><strong>2) What is the maximum number of points you can choose to send to your partner?</strong></p><p>a) 8</p><p style='color:#00FF00'>b) 5</p><p>c) 3</p><h3 style='color:#00FF00'>Correct!</h3><h3 class='center-content'>The correct response is b).</h3><h3 class='center-content'>The maximum number of points you can choose to send to your partner is 5 points.</h3><p><em>Press SPACEBAR to continue</em></p></div>"," ","","","","","","","","","","",""
"html-keyboard-response","131","246883","0.0-13.0","63fac97f0d4e8f6bfd753d90","bdp_trlrn","Wed Mar 15 2023 20:46:11 GMT-0700 (Pacific Daylight Time)","529394","Trustworthy,Untrustworthy","","4100","","","","","","<div class='header' style='text-align:left; position: absolute; top: 5%; left: 5%;'><small>Task 2 of 5</small></div><div class='instruxDiv'><p><strong>3) What happens to the amount of points you send to your partner?</strong></p><p>a) Nothing</p><p>b) It doubles</p><p>c) It quadruples</p>","C","","","","","","","","","","",""
"html-keyboard-response","132","247893","0.0-14.0","63fac97f0d4e8f6bfd753d90","bdp_trlrn","Wed Mar 15 2023 20:46:11 GMT-0700 (Pacific Daylight Time)","529394","Trustworthy,Untrustworthy","","904","","","","","","<div class='header' style='text-align:left; position: absolute; top: 5%; left: 5%;'><small>Task 2 of 5</small></div><div class='instruxDiv'><p><strong>3) What happens to the amount of points you send to your partner?</strong></p><p>a) Nothing</p><p>b) It doubles</p><p style='color:#00FF00'>c) It quadruples</p><h3 style='color:#00FF00'>Correct!</h3><h3 class='center-content'>The correct response is c).</h3><h3 class='center-content'>The amount of points you send to your partner quadruples.</h3><p><em>Press SPACEBAR to continue</em></p></div>"," ","","","","","","","","","","",""
"html-keyboard-response","133","254532","0.0-15.0","63fac97f0d4e8f6bfd753d90","bdp_trlrn","Wed Mar 15 2023 20:46:11 GMT-0700 (Pacific Daylight Time)","529394","Trustworthy,Untrustworthy","","6531","","","","","","<div class='header' style='text-align:left; position: absolute; top: 5%; left: 5%;'><small>Task 2 of 5</small></div><div class='instruxDiv'><p><strong>4) If you decided to share 4 out of 5 points with your partner, and they decided to share half of the amount they received with you, how many points would you receive back from them on this round?</strong></p><p>a) 16</p><p>b) 0</p><p>c) 8</p>","C","","","","","","","","","","",""
"html-keyboard-response","134","255932","0.0-16.0","63fac97f0d4e8f6bfd753d90","bdp_trlrn","Wed Mar 15 2023 20:46:11 GMT-0700 (Pacific Daylight Time)","529394","Trustworthy,Untrustworthy","","1288","","","","","","<div class='header' style='text-align:left; position: absolute; top: 5%; left: 5%;'><small>Task 2 of 5</small></div><div class='instruxDiv'><p><strong>4) If you decided to share 4 out of 5 points with your partner, and they decided to share half of the amount they received with you, how many points would you receive back from them on this round?</strong></p><p>a) 16</p><p>b) 0</p><p style='color:#00FF00'>c) 8</p><h3 style='color:#00FF00'>Correct!</h3><h3 class='center-content'>The correct response is c).</h3><h3 class='center-content'>If you shared 4 out of 5 points with your partner and they decided to share half of the amount they received with you, you would receive 8 points back (i.e. (4 x 4)/2 = 8).</h3><p><em>Press SPACEBAR to continue</em></p></div>"," ","","","","","","","","","","",""
"html-keyboard-response","135","261054","0.0-17.0","63fac97f0d4e8f6bfd753d90","bdp_trlrn","Wed Mar 15 2023 20:46:11 GMT-0700 (Pacific Daylight Time)","529394","Trustworthy,Untrustworthy","","null","","","","","","<div class='header' style='text-align:left; position: absolute; top: 5%; left: 5%;'><small>Task 2 of 5</small></div><div class='instruxDiv'><p>Thank you for completing the quiz<p>These are the actual partners you will be interacting with in the next block:<p><div class='tc' align='center'><img class='introPic' src='trustrating_stim/white_mw048.bmp'><br><strong>Jason</strong></div><div class='bl' align='center'><img class='introPic' src='trustrating_stim/white_00340_940422_fa_edt.bmp'><br><strong>James</strong></div><div class='br' align='center'><img class='introPic' src='trustrating_stim/white_00120_931230_fa_edt.bmp'><br><strong>Caleb</strong></div></div><p>Across <strong>66 rounds</strong> you will interact with each partner <strong>22 times</strong> (in random order).<p style='align:center; color:white'><font <em>Press SPACEBAR to continue</em></p>","null","","","","","","","","","","",""
"instructions","136","267250","0.0-18.0","63fac97f0d4e8f6bfd753d90","bdp_trlrn","Wed Mar 15 2023 20:46:11 GMT-0700 (Pacific Daylight Time)","529394","Trustworthy,Untrustworthy","[{""page_index"":0,""viewing_time"":2276},{""page_index"":1,""viewing_time"":3919}]","6195","","","","","","","","","","","","","","","","","",""
"html-keyboard-response","137","269770","0.0-19.0-1.0","63fac97f0d4e8f6bfd753d90","bdp_trlrn","Wed Mar 15 2023 20:46:11 GMT-0700 (Pacific Daylight Time)","529394","Trustworthy,Untrustworthy","","2414","","","","decision","","<div class='trialDiv'><img src='trustrating_stim/white_00120_931230_fa_edt.bmp'><br><font class='baseline'><strong>Caleb</strong><p>Choose number of points to send.</font><div class='respPicDiv'><img src='img/responseButtonOffersNo0L.png' class='respPic'></div></div>","1","1","Caleb","8","Kept","0.35,0.8","11","0.35","trustrating_stim/white_00120_931230_fa_edt.bmp","6.5","5","1"
"html-keyboard-response","138","270034","0.0-19.0-2.0","63fac97f0d4e8f6bfd753d90","bdp_trlrn","Wed Mar 15 2023 20:46:11 GMT-0700 (Pacific Daylight Time)","529394","Trustworthy,Untrustworthy","","null","","","","decisionFB","","<div class='trialDiv'><img src='trustrating_stim/white_00120_931230_fa_edt.bmp'><br><font class='baseline'><strong>Caleb</strong><p>Choose number of points to send.</font><div class='respPicDiv'><img src='img/responseButtonOffersNo0L1.png' class='respPic'></div></div>","null","1","Caleb","8","Kept","0.35,0.8","11","0.35","trustrating_stim/white_00120_931230_fa_edt.bmp","6.5","4","1"
"html-keyboard-response","139","271043","0.0-19.0-3.0","63fac97f0d4e8f6bfd753d90","bdp_trlrn","Wed Mar 15 2023 20:46:11 GMT-0700 (Pacific Daylight Time)","529394","Trustworthy,Untrustworthy","","null","","","","feedback","","<div class='trialDiv'><img src='trustrating_stim/white_00120_931230_fa_edt.bmp'><br><font class='baseline'><strong>Caleb</strong><p>Received: <strong>4</strong></font> &nbsp; &nbsp; &nbsp; &nbsp; &nbsp; &nbsp;<font class='negOutcome'>Shared back: <strong>0</strong></font></font><div class='respPicDiv'><img src='img/responseButtonOffersNo0_wht.png' class='respPic'></div></div>","null","1","Caleb","8","Kept","0.35,0.8","11","0.35","trustrating_stim/white_00120_931230_fa_edt.bmp","6.5","4","1"
"html-keyboard-response","140","272109","0.0-19.0-1.1","63fac97f0d4e8f6bfd753d90","bdp_trlrn","Wed Mar 15 2023 20:46:11 GMT-0700 (Pacific Daylight Time)","529394","Trustworthy,Untrustworthy","","1066","","","","decision","","<div class='trialDiv'><img src='trustrating_stim/white_00340_940422_fa_edt.bmp'><br><font class='baseline'><strong>James</strong><p>Choose number of points to send.</font><div class='respPicDiv'><img src='img/responseButtonOffersNo0L.png' class='respPic'></div></div>","1","1","James","6","Shared","0.65,0.2","14","0.65","trustrating_stim/white_00340_940422_fa_edt.bmp","2.5","9","2"
"html-keyboard-response","141","272370","0.0-19.0-2.1","63fac97f0d4e8f6bfd753d90","bdp_trlrn","Wed Mar 15 2023 20:46:11 GMT-0700 (Pacific Daylight Time)","529394","Trustworthy,Untrustworthy","","null","","","","decisionFB","","<div class='trialDiv'><img src='trustrating_stim/white_00340_940422_fa_edt.bmp'><br><font class='baseline'><strong>James</strong><p>Choose number of points to send.</font><div class='respPicDiv'><img src='img/responseButtonOffersNo0L1.png' class='respPic'></div></div>","null","1","James","6","Shared","0.65,0.2","14","0.65","trustrating_stim/white_00340_940422_fa_edt.bmp","2.5","8","2"
"html-keyboard-response","142","273381","0.0-19.0-3.1","63fac97f0d4e8f6bfd753d90","bdp_trlrn","Wed Mar 15 2023 20:46:11 GMT-0700 (Pacific Daylight Time)","529394","Trustworthy,Untrustworthy","","null","","","","feedback","","<div class='trialDiv'><img src='trustrating_stim/white_00340_940422_fa_edt.bmp'><br><font class='baseline'><strong>James</strong><p>Received: <strong>4</strong></font> &nbsp; &nbsp; &nbsp; &nbsp; &nbsp; &nbsp;<font class='posOutcome'>Shared back: <strong>2</strong></font></font><div class='respPicDiv'><img src='img/responseButtonOffersNo0_wht.png' class='respPic'></div></div>","null","1","James","6","Shared","0.65,0.2","14","0.65","trustrating_stim/white_00340_940422_fa_edt.bmp","2.5","10","2"
"html-keyboard-response","143","273680","0.0-19.0-1.2","63fac97f0d4e8f6bfd753d90","bdp_trlrn","Wed Mar 15 2023 20:46:11 GMT-0700 (Pacific Daylight Time)","529394","Trustworthy,Untrustworthy","","299","","","","decision","","<div class='trialDiv'><img src='trustrating_stim/white_mw048.bmp'><br><font class='baseline'><strong>Jason</strong><p>Choose number of points to send.</font><div class='respPicDiv'><img src='img/responseButtonOffersNo0L.png' class='respPic'></div></div>","1","1","Jason","0","Kept","0.2,0.8","12","0.2","trustrating_stim/white_mw048.bmp","1.5","15","3"
"html-keyboard-response","144","273939","0.0-19.0-2.2","63fac97f0d4e8f6bfd753d90","bdp_trlrn","Wed Mar 15 2023 20:46:11 GMT-0700 (Pacific Daylight Time)","529394","Trustworthy,Untrustworthy","","null","","","","decisionFB","","<div class='trialDiv'><img src='trustrating_stim/white_mw048.bmp'><br><font class='baseline'><strong>Jason</strong><p>Choose number of points to send.</font><div class='respPicDiv'><img src='img/responseButtonOffersNo0L1.png' class='respPic'></div></div>","null","1","Jason","0","Kept","0.2,0.8","12","0.2","trustrating_stim/white_mw048.bmp","1.5","14","3"
"html-keyboard-response","145","274953","0.0-19.0-3.2","63fac97f0d4e8f6bfd753d90","bdp_trlrn","Wed Mar 15 2023 20:46:11 GMT-0700 (Pacific Daylight Time)","529394","Trustworthy,Untrustworthy","","null","","","","feedback","","<div class='trialDiv'><img src='trustrating_stim/white_mw048.bmp'><br><font class='baseline'><strong>Jason</strong><p>Received: <strong>4</strong></font> &nbsp; &nbsp; &nbsp; &nbsp; &nbsp; &nbsp;<font class='negOutcome'>Shared back: <strong>0</strong></font></font><div class='respPicDiv'><img src='img/responseButtonOffersNo0_wht.png' class='respPic'></div></div>","null","1","Jason","0","Kept","0.2,0.8","12","0.2","trustrating_stim/white_mw048.bmp","1.5","14","3"
"html-keyboard-response","146","275119","0.0-19.0-1.3","63fac97f0d4e8f6bfd753d90","bdp_trlrn","Wed Mar 15 2023 20:46:11 GMT-0700 (Pacific Daylight Time)","529394","Trustworthy,Untrustworthy","","166","","","","decision","","<div class='trialDiv'><img src='trustrating_stim/white_00120_931230_fa_edt.bmp'><br><font class='baseline'><strong>Caleb</strong><p>Choose number of points to send.</font><div class='respPicDiv'><img src='img/responseButtonOffersNo0L.png' class='respPic'></div></div>","1","2","Caleb","8","Shared","0.35,0.8","11","0.35","trustrating_stim/white_00120_931230_fa_edt.bmp","6.5","19","4"
"html-keyboard-response","147","275370","0.0-19.0-2.3","63fac97f0d4e8f6bfd753d90","bdp_trlrn","Wed Mar 15 2023 20:46:11 GMT-0700 (Pacific Daylight Time)","529394","Trustworthy,Untrustworthy","","null","","","","decisionFB","","<div class='trialDiv'><img src='trustrating_stim/white_00120_931230_fa_edt.bmp'><br><font class='baseline'><strong>Caleb</strong><p>Choose number of points to send.</font><div class='respPicDiv'><img src='img/responseButtonOffersNo0L1.png' class='respPic'></div></div>","null","2","Caleb","8","Shared","0.35,0.8","11","0.35","trustrating_stim/white_00120_931230_fa_edt.bmp","6.5","18","4"
"html-keyboard-response","148","276377","0.0-19.0-3.3","63fac97f0d4e8f6bfd753d90","bdp_trlrn","Wed Mar 15 2023 20:46:11 GMT-0700 (Pacific Daylight Time)","529394","Trustworthy,Untrustworthy","","null","","","","feedback","","<div class='trialDiv'><img src='trustrating_stim/white_00120_931230_fa_edt.bmp'><br><font class='baseline'><strong>Caleb</strong><p>Received: <strong>4</strong></font> &nbsp; &nbsp; &nbsp; &nbsp; &nbsp; &nbsp;<font class='posOutcome'>Shared back: <strong>2</strong></font></font><div class='respPicDiv'><img src='img/responseButtonOffersNo0_wht.png' class='respPic'></div></div>","null","2","Caleb","8","Shared","0.35,0.8","11","0.35","trustrating_stim/white_00120_931230_fa_edt.bmp","6.5","20","4"
"html-keyboard-response","149","276429","0.0-19.0-1.4","63fac97f0d4e8f6bfd753d90","bdp_trlrn","Wed Mar 15 2023 20:46:11 GMT-0700 (Pacific Daylight Time)","529394","Trustworthy,Untrustworthy","","51","","","","decision","","<div class='trialDiv'><img src='trustrating_stim/white_mw048.bmp'><br><font class='baseline'><strong>Jason</strong><p>Choose number of points to send.</font><div class='respPicDiv'><img src='img/responseButtonOffersNo0L.png' class='respPic'></div></div>","1","2","Jason","0","Kept","0.2,0.8","12","0.2","trustrating_stim/white_mw048.bmp","1.5","25","5"
"html-keyboard-response","150","276686","0.0-19.0-2.4","63fac97f0d4e8f6bfd753d90","bdp_trlrn","Wed Mar 15 2023 20:46:11 GMT-0700 (Pacific Daylight Time)","529394","Trustworthy,Untrustworthy","","null","","","","decisionFB","","<div class='trialDiv'><img src='trustrating_stim/white_mw048.bmp'><br><font class='baseline'><strong>Jason</strong><p>Choose number of points to send.</font><div class='respPicDiv'><img src='img/responseButtonOffersNo0L1.png' class='respPic'></div></div>","null","2","Jason","0","Kept","0.2,0.8","12","0.2","trustrating_stim/white_mw048.bmp","1.5","24","5"
"html-keyboard-response","151","277699","0.0-19.0-3.4","63fac97f0d4e8f6bfd753d90","bdp_trlrn","Wed Mar 15 2023 20:46:11 GMT-0700 (Pacific Daylight Time)","529394","Trustworthy,Untrustworthy","","null","","","","feedback","","<div class='trialDiv'><img src='trustrating_stim/white_mw048.bmp'><br><font class='baseline'><strong>Jason</strong><p>Received: <strong>4</strong></font> &nbsp; &nbsp; &nbsp; &nbsp; &nbsp; &nbsp;<font class='negOutcome'>Shared back: <strong>0</strong></font></font><div class='respPicDiv'><img src='img/responseButtonOffersNo0_wht.png' class='respPic'></div></div>","null","2","Jason","0","Kept","0.2,0.8","12","0.2","trustrating_stim/white_mw048.bmp","1.5","24","5"
"html-keyboard-response","152","277878","0.0-19.0-1.5","63fac97f0d4e8f6bfd753d90","bdp_trlrn","Wed Mar 15 2023 20:46:11 GMT-0700 (Pacific Daylight Time)","529394","Trustworthy,Untrustworthy","","179","","","","decision","","<div class='trialDiv'><img src='trustrating_stim/white_00340_940422_fa_edt.bmp'><br><font class='baseline'><strong>James</strong><p>Choose number of points to send.</font><div class='respPicDiv'><img src='img/responseButtonOffersNo0L.png' class='respPic'></div></div>","1","2","James","6","Shared","0.65,0.2","14","0.65","trustrating_stim/white_00340_940422_fa_edt.bmp","2.5","29","6"
"html-keyboard-response","153","278137","0.0-19.0-2.5","63fac97f0d4e8f6bfd753d90","bdp_trlrn","Wed Mar 15 2023 20:46:11 GMT-0700 (Pacific Daylight Time)","529394","Trustworthy,Untrustworthy","","null","","","","decisionFB","","<div class='trialDiv'><img src='trustrating_stim/white_00340_940422_fa_edt.bmp'><br><font class='baseline'><strong>James</strong><p>Choose number of points to send.</font><div class='respPicDiv'><img src='img/responseButtonOffersNo0L1.png' class='respPic'></div></div>","null","2","James","6","Shared","0.65,0.2","14","0.65","trustrating_stim/white_00340_940422_fa_edt.bmp","2.5","28","6"
"html-keyboard-response","154","279152","0.0-19.0-3.5","63fac97f0d4e8f6bfd753d90","bdp_trlrn","Wed Mar 15 2023 20:46:11 GMT-0700 (Pacific Daylight Time)","529394","Trustworthy,Untrustworthy","","null","","","","feedback","","<div class='trialDiv'><img src='trustrating_stim/white_00340_940422_fa_edt.bmp'><br><font class='baseline'><strong>James</strong><p>Received: <strong>4</strong></font> &nbsp; &nbsp; &nbsp; &nbsp; &nbsp; &nbsp;<font class='posOutcome'>Shared back: <strong>2</strong></font></font><div class='respPicDiv'><img src='img/responseButtonOffersNo0_wht.png' class='respPic'></div></div>","null","2","James","6","Shared","0.65,0.2","14","0.65","trustrating_stim/white_00340_940422_fa_edt.bmp","2.5","30","6"
"html-keyboard-response","155","279208","0.0-19.0-1.6","63fac97f0d4e8f6bfd753d90","bdp_trlrn","Wed Mar 15 2023 20:46:11 GMT-0700 (Pacific Daylight Time)","529394","Trustworthy,Untrustworthy","","56","","","","decision","","<div class='trialDiv'><img src='trustrating_stim/white_00120_931230_fa_edt.bmp'><br><font class='baseline'><strong>Caleb</strong><p>Choose number of points to send.</font><div class='respPicDiv'><img src='img/responseButtonOffersNo0L.png' class='respPic'></div></div>","1","3","Caleb","8","Kept","0.35,0.8","11","0.35","trustrating_stim/white_00120_931230_fa_edt.bmp","6.5","35","7"
"html-keyboard-response","156","279462","0.0-19.0-2.6","63fac97f0d4e8f6bfd753d90","bdp_trlrn","Wed Mar 15 2023 20:46:11 GMT-0700 (Pacific Daylight Time)","529394","Trustworthy,Untrustworthy","","null","","","","decisionFB","","<div class='trialDiv'><img src='trustrating_stim/white_00120_931230_fa_edt.bmp'><br><font class='baseline'><strong>Caleb</strong><p>Choose number of points to send.</font><div class='respPicDiv'><img src='img/responseButtonOffersNo0L1.png' class='respPic'></div></div>","null","3","Caleb","8","Kept","0.35,0.8","11","0.35","trustrating_stim/white_00120_931230_fa_edt.bmp","6.5","34","7"
"html-keyboard-response","157","280476","0.0-19.0-3.6","63fac97f0d4e8f6bfd753d90","bdp_trlrn","Wed Mar 15 2023 20:46:11 GMT-0700 (Pacific Daylight Time)","529394","Trustworthy,Untrustworthy","","null","","","","feedback","","<div class='trialDiv'><img src='trustrating_stim/white_00120_931230_fa_edt.bmp'><br><font class='baseline'><strong>Caleb</strong><p>Received: <strong>4</strong></font> &nbsp; &nbsp; &nbsp; &nbsp; &nbsp; &nbsp;<font class='negOutcome'>Shared back: <strong>0</strong></font></font><div class='respPicDiv'><img src='img/responseButtonOffersNo0_wht.png' class='respPic'></div></div>","null","3","Caleb","8","Kept","0.35,0.8","11","0.35","trustrating_stim/white_00120_931230_fa_edt.bmp","6.5","34","7"
"html-keyboard-response","158","280548","0.0-19.0-1.7","63fac97f0d4e8f6bfd753d90","bdp_trlrn","Wed Mar 15 2023 20:46:11 GMT-0700 (Pacific Daylight Time)","529394","Trustworthy,Untrustworthy","","71","","","","decision","","<div class='trialDiv'><img src='trustrating_stim/white_00340_940422_fa_edt.bmp'><br><font class='baseline'><strong>James</strong><p>Choose number of points to send.</font><div class='respPicDiv'><img src='img/responseButtonOffersNo0L.png' class='respPic'></div></div>","1","3","James","6","Shared","0.65,0.2","14","0.65","trustrating_stim/white_00340_940422_fa_edt.bmp","2.5","39","8"
"html-keyboard-response","159","280804","0.0-19.0-2.7","63fac97f0d4e8f6bfd753d90","bdp_trlrn","Wed Mar 15 2023 20:46:11 GMT-0700 (Pacific Daylight Time)","529394","Trustworthy,Untrustworthy","","null","","","","decisionFB","","<div class='trialDiv'><img src='trustrating_stim/white_00340_940422_fa_edt.bmp'><br><font class='baseline'><strong>James</strong><p>Choose number of points to send.</font><div class='respPicDiv'><img src='img/responseButtonOffersNo0L1.png' class='respPic'></div></div>","null","3","James","6","Shared","0.65,0.2","14","0.65","trustrating_stim/white_00340_940422_fa_edt.bmp","2.5","38","8"
"html-keyboard-response","160","281817","0.0-19.0-3.7","63fac97f0d4e8f6bfd753d90","bdp_trlrn","Wed Mar 15 2023 20:46:11 GMT-0700 (Pacific Daylight Time)","529394","Trustworthy,Untrustworthy","","null","","","","feedback","","<div class='trialDiv'><img src='trustrating_stim/white_00340_940422_fa_edt.bmp'><br><font class='baseline'><strong>James</strong><p>Received: <strong>4</strong></font> &nbsp; &nbsp; &nbsp; &nbsp; &nbsp; &nbsp;<font class='posOutcome'>Shared back: <strong>2</strong></font></font><div class='respPicDiv'><img src='img/responseButtonOffersNo0_wht.png' class='respPic'></div></div>","null","3","James","6","Shared","0.65,0.2","14","0.65","trustrating_stim/white_00340_940422_fa_edt.bmp","2.5","40","8"
"html-keyboard-response","161","281988","0.0-19.0-1.8","63fac97f0d4e8f6bfd753d90","bdp_trlrn","Wed Mar 15 2023 20:46:11 GMT-0700 (Pacific Daylight Time)","529394","Trustworthy,Untrustworthy","","171","","","","decision","","<div class='trialDiv'><img src='trustrating_stim/white_mw048.bmp'><br><font class='baseline'><strong>Jason</strong><p>Choose number of points to send.</font><div class='respPicDiv'><img src='img/responseButtonOffersNo0L.png' class='respPic'></div></div>","1","3","Jason","0","Kept","0.2,0.8","12","0.2","trustrating_stim/white_mw048.bmp","1.5","45","9"
"html-keyboard-response","162","282254","0.0-19.0-2.8","63fac97f0d4e8f6bfd753d90","bdp_trlrn","Wed Mar 15 2023 20:46:11 GMT-0700 (Pacific Daylight Time)","529394","Trustworthy,Untrustworthy","","null","","","","decisionFB","","<div class='trialDiv'><img src='trustrating_stim/white_mw048.bmp'><br><font class='baseline'><strong>Jason</strong><p>Choose number of points to send.</font><div class='respPicDiv'><img src='img/responseButtonOffersNo0L1.png' class='respPic'></div></div>","null","3","Jason","0","Kept","0.2,0.8","12","0.2","trustrating_stim/white_mw048.bmp","1.5","44","9"
"html-keyboard-response","163","283264","0.0-19.0-3.8","63fac97f0d4e8f6bfd753d90","bdp_trlrn","Wed Mar 15 2023 20:46:11 GMT-0700 (Pacific Daylight Time)","529394","Trustworthy,Untrustworthy","","null","","","","feedback","","<div class='trialDiv'><img src='trustrating_stim/white_mw048.bmp'><br><font class='baseline'><strong>Jason</strong><p>Received: <strong>4</strong></font> &nbsp; &nbsp; &nbsp; &nbsp; &nbsp; &nbsp;<font class='negOutcome'>Shared back: <strong>0</strong></font></font><div class='respPicDiv'><img src='img/responseButtonOffersNo0_wht.png' class='respPic'></div></div>","null","3","Jason","0","Kept","0.2,0.8","12","0.2","trustrating_stim/white_mw048.bmp","1.5","44","9"
"html-keyboard-response","164","283448","0.0-19.0-1.9","63fac97f0d4e8f6bfd753d90","bdp_trlrn","Wed Mar 15 2023 20:46:11 GMT-0700 (Pacific Daylight Time)","529394","Trustworthy,Untrustworthy","","183","","","","decision","","<div class='trialDiv'><img src='trustrating_stim/white_00120_931230_fa_edt.bmp'><br><font class='baseline'><strong>Caleb</strong><p>Choose number of points to send.</font><div class='respPicDiv'><img src='img/responseButtonOffersNo0L.png' class='respPic'></div></div>","1","4","Caleb","8","Shared","0.35,0.8","11","0.35","trustrating_stim/white_00120_931230_fa_edt.bmp","6.5","49","10"
"html-keyboard-response","165","283699","0.0-19.0-2.9","63fac97f0d4e8f6bfd753d90","bdp_trlrn","Wed Mar 15 2023 20:46:11 GMT-0700 (Pacific Daylight Time)","529394","Trustworthy,Untrustworthy","","null","","","","decisionFB","","<div class='trialDiv'><img src='trustrating_stim/white_00120_931230_fa_edt.bmp'><br><font class='baseline'><strong>Caleb</strong><p>Choose number of points to send.</font><div class='respPicDiv'><img src='img/responseButtonOffersNo0L1.png' class='respPic'></div></div>","null","4","Caleb","8","Shared","0.35,0.8","11","0.35","trustrating_stim/white_00120_931230_fa_edt.bmp","6.5","48","10"
"html-keyboard-response","166","284708","0.0-19.0-3.9","63fac97f0d4e8f6bfd753d90","bdp_trlrn","Wed Mar 15 2023 20:46:11 GMT-0700 (Pacific Daylight Time)","529394","Trustworthy,Untrustworthy","","null","","","","feedback","","<div class='trialDiv'><img src='trustrating_stim/white_00120_931230_fa_edt.bmp'><br><font class='baseline'><strong>Caleb</strong><p>Received: <strong>4</strong></font> &nbsp; &nbsp; &nbsp; &nbsp; &nbsp; &nbsp;<font class='posOutcome'>Shared back: <strong>2</strong></font></font><div class='respPicDiv'><img src='img/responseButtonOffersNo0_wht.png' class='respPic'></div></div>","null","4","Caleb","8","Shared","0.35,0.8","11","0.35","trustrating_stim/white_00120_931230_fa_edt.bmp","6.5","50","10"
"html-keyboard-response","167","284928","0.0-19.0-1.10","63fac97f0d4e8f6bfd753d90","bdp_trlrn","Wed Mar 15 2023 20:46:11 GMT-0700 (Pacific Daylight Time)","529394","Trustworthy,Untrustworthy","","219","","","","decision","","<div class='trialDiv'><img src='trustrating_stim/white_00340_940422_fa_edt.bmp'><br><font class='baseline'><strong>James</strong><p>Choose number of points to send.</font><div class='respPicDiv'><img src='img/responseButtonOffersNo0L.png' class='respPic'></div></div>","1","4","James","6","Shared","0.65,0.2","14","0.65","trustrating_stim/white_00340_940422_fa_edt.bmp","2.5","55","11"
"html-keyboard-response","168","285184","0.0-19.0-2.10","63fac97f0d4e8f6bfd753d90","bdp_trlrn","Wed Mar 15 2023 20:46:11 GMT-0700 (Pacific Daylight Time)","529394","Trustworthy,Untrustworthy","","null","","","","decisionFB","","<div class='trialDiv'><img src='trustrating_stim/white_00340_940422_fa_edt.bmp'><br><font class='baseline'><strong>James</strong><p>Choose number of points to send.</font><div class='respPicDiv'><img src='img/responseButtonOffersNo0L1.png' class='respPic'></div></div>","null","4","James","6","Shared","0.65,0.2","14","0.65","trustrating_stim/white_00340_940422_fa_edt.bmp","2.5","54","11"
"html-keyboard-response","169","286185","0.0-19.0-3.10","63fac97f0d4e8f6bfd753d90","bdp_trlrn","Wed Mar 15 2023 20:46:11 GMT-0700 (Pacific Daylight Time)","529394","Trustworthy,Untrustworthy","","null","","","","feedback","","<div class='trialDiv'><img src='trustrating_stim/white_00340_940422_fa_edt.bmp'><br><font class='baseline'><strong>James</strong><p>Received: <strong>4</strong></font> &nbsp; &nbsp; &nbsp; &nbsp; &nbsp; &nbsp;<font class='posOutcome'>Shared back: <strong>2</strong></font></font><div class='respPicDiv'><img src='img/responseButtonOffersNo0_wht.png' class='respPic'></div></div>","null","4","James","6","Shared","0.65,0.2","14","0.65","trustrating_stim/white_00340_940422_fa_edt.bmp","2.5","56","11"
"html-keyboard-response","170","286337","0.0-19.0-1.11","63fac97f0d4e8f6bfd753d90","bdp_trlrn","Wed Mar 15 2023 20:46:11 GMT-0700 (Pacific Daylight Time)","529394","Trustworthy,Untrustworthy","","152","","","","decision","","<div class='trialDiv'><img src='trustrating_stim/white_mw048.bmp'><br><font class='baseline'><strong>Jason</strong><p>Choose number of points to send.</font><div class='respPicDiv'><img src='img/responseButtonOffersNo0L.png' class='respPic'></div></div>","1","4","Jason","0","Kept","0.2,0.8","12","0.2","trustrating_stim/white_mw048.bmp","1.5","61","12"
"html-keyboard-response","171","286598","0.0-19.0-2.11","63fac97f0d4e8f6bfd753d90","bdp_trlrn","Wed Mar 15 2023 20:46:11 GMT-0700 (Pacific Daylight Time)","529394","Trustworthy,Untrustworthy","","null","","","","decisionFB","","<div class='trialDiv'><img src='trustrating_stim/white_mw048.bmp'><br><font class='baseline'><strong>Jason</strong><p>Choose number of points to send.</font><div class='respPicDiv'><img src='img/responseButtonOffersNo0L1.png' class='respPic'></div></div>","null","4","Jason","0","Kept","0.2,0.8","12","0.2","trustrating_stim/white_mw048.bmp","1.5","60","12"
"html-keyboard-response","172","287609","0.0-19.0-3.11","63fac97f0d4e8f6bfd753d90","bdp_trlrn","Wed Mar 15 2023 20:46:11 GMT-0700 (Pacific Daylight Time)","529394","Trustworthy,Untrustworthy","","null","","","","feedback","","<div class='trialDiv'><img src='trustrating_stim/white_mw048.bmp'><br><font class='baseline'><strong>Jason</strong><p>Received: <strong>4</strong></font> &nbsp; &nbsp; &nbsp; &nbsp; &nbsp; &nbsp;<font class='negOutcome'>Shared back: <strong>0</strong></font></font><div class='respPicDiv'><img src='img/responseButtonOffersNo0_wht.png' class='respPic'></div></div>","null","4","Jason","0","Kept","0.2,0.8","12","0.2","trustrating_stim/white_mw048.bmp","1.5","60","12"
"html-keyboard-response","173","287687","0.0-19.0-1.12","63fac97f0d4e8f6bfd753d90","bdp_trlrn","Wed Mar 15 2023 20:46:11 GMT-0700 (Pacific Daylight Time)","529394","Trustworthy,Untrustworthy","","77","","","","decision","","<div class='trialDiv'><img src='trustrating_stim/white_00120_931230_fa_edt.bmp'><br><font class='baseline'><strong>Caleb</strong><p>Choose number of points to send.</font><div class='respPicDiv'><img src='img/responseButtonOffersNo0L.png' class='respPic'></div></div>","1","5","Caleb","8","Kept","0.35,0.8","11","0.35","trustrating_stim/white_00120_931230_fa_edt.bmp","6.5","65","13"
"html-keyboard-response","174","287948","0.0-19.0-2.12","63fac97f0d4e8f6bfd753d90","bdp_trlrn","Wed Mar 15 2023 20:46:11 GMT-0700 (Pacific Daylight Time)","529394","Trustworthy,Untrustworthy","","null","","","","decisionFB","","<div class='trialDiv'><img src='trustrating_stim/white_00120_931230_fa_edt.bmp'><br><font class='baseline'><strong>Caleb</strong><p>Choose number of points to send.</font><div class='respPicDiv'><img src='img/responseButtonOffersNo0L1.png' class='respPic'></div></div>","null","5","Caleb","8","Kept","0.35,0.8","11","0.35","trustrating_stim/white_00120_931230_fa_edt.bmp","6.5","64","13"
"html-keyboard-response","175","288957","0.0-19.0-3.12","63fac97f0d4e8f6bfd753d90","bdp_trlrn","Wed Mar 15 2023 20:46:11 GMT-0700 (Pacific Daylight Time)","529394","Trustworthy,Untrustworthy","","null","","","","feedback","","<div class='trialDiv'><img src='trustrating_stim/white_00120_931230_fa_edt.bmp'><br><font class='baseline'><strong>Caleb</strong><p>Received: <strong>4</strong></font> &nbsp; &nbsp; &nbsp; &nbsp; &nbsp; &nbsp;<font class='negOutcome'>Shared back: <strong>0</strong></font></font><div class='respPicDiv'><img src='img/responseButtonOffersNo0_wht.png' class='respPic'></div></div>","null","5","Caleb","8","Kept","0.35,0.8","11","0.35","trustrating_stim/white_00120_931230_fa_edt.bmp","6.5","64","13"
"html-keyboard-response","176","289097","0.0-19.0-1.13","63fac97f0d4e8f6bfd753d90","bdp_trlrn","Wed Mar 15 2023 20:46:11 GMT-0700 (Pacific Daylight Time)","529394","Trustworthy,Untrustworthy","","139","","","","decision","","<div class='trialDiv'><img src='trustrating_stim/white_mw048.bmp'><br><font class='baseline'><strong>Jason</strong><p>Choose number of points to send.</font><div class='respPicDiv'><img src='img/responseButtonOffersNo0L.png' class='respPic'></div></div>","1","5","Jason","0","Shared","0.2,0.8","12","0.2","trustrating_stim/white_mw048.bmp","1.5","69","14"
"html-keyboard-response","177","289361","0.0-19.0-2.13","63fac97f0d4e8f6bfd753d90","bdp_trlrn","Wed Mar 15 2023 20:46:11 GMT-0700 (Pacific Daylight Time)","529394","Trustworthy,Untrustworthy","","null","","","","decisionFB","","<div class='trialDiv'><img src='trustrating_stim/white_mw048.bmp'><br><font class='baseline'><strong>Jason</strong><p>Choose number of points to send.</font><div class='respPicDiv'><img src='img/responseButtonOffersNo0L1.png' class='respPic'></div></div>","null","5","Jason","0","Shared","0.2,0.8","12","0.2","trustrating_stim/white_mw048.bmp","1.5","68","14"
"html-keyboard-response","178","290362","0.0-19.0-3.13","63fac97f0d4e8f6bfd753d90","bdp_trlrn","Wed Mar 15 2023 20:46:11 GMT-0700 (Pacific Daylight Time)","529394","Trustworthy,Untrustworthy","","null","","","","feedback","","<div class='trialDiv'><img src='trustrating_stim/white_mw048.bmp'><br><font class='baseline'><strong>Jason</strong><p>Received: <strong>4</strong></font> &nbsp; &nbsp; &nbsp; &nbsp; &nbsp; &nbsp;<font class='posOutcome'>Shared back: <strong>2</strong></font></font><div class='respPicDiv'><img src='img/responseButtonOffersNo0_wht.png' class='respPic'></div></div>","null","5","Jason","0","Shared","0.2,0.8","12","0.2","trustrating_stim/white_mw048.bmp","1.5","70","14"
"html-keyboard-response","179","290407","0.0-19.0-1.14","63fac97f0d4e8f6bfd753d90","bdp_trlrn","Wed Mar 15 2023 20:46:11 GMT-0700 (Pacific Daylight Time)","529394","Trustworthy,Untrustworthy","","44","","","","decision","","<div class='trialDiv'><img src='trustrating_stim/white_00340_940422_fa_edt.bmp'><br><font class='baseline'><strong>James</strong><p>Choose number of points to send.</font><div class='respPicDiv'><img src='img/responseButtonOffersNo0L.png' class='respPic'></div></div>","1","5","James","6","Shared","0.65,0.2","14","0.65","trustrating_stim/white_00340_940422_fa_edt.bmp","2.5","75","15"
"html-keyboard-response","180","290662","0.0-19.0-2.14","63fac97f0d4e8f6bfd753d90","bdp_trlrn","Wed Mar 15 2023 20:46:11 GMT-0700 (Pacific Daylight Time)","529394","Trustworthy,Untrustworthy","","null","","","","decisionFB","","<div class='trialDiv'><img src='trustrating_stim/white_00340_940422_fa_edt.bmp'><br><font class='baseline'><strong>James</strong><p>Choose number of points to send.</font><div class='respPicDiv'><img src='img/responseButtonOffersNo0L1.png' class='respPic'></div></div>","null","5","James","6","Shared","0.65,0.2","14","0.65","trustrating_stim/white_00340_940422_fa_edt.bmp","2.5","74","15"
"html-keyboard-response","181","291672","0.0-19.0-3.14","63fac97f0d4e8f6bfd753d90","bdp_trlrn","Wed Mar 15 2023 20:46:11 GMT-0700 (Pacific Daylight Time)","529394","Trustworthy,Untrustworthy","","null","","","","feedback","","<div class='trialDiv'><img src='trustrating_stim/white_00340_940422_fa_edt.bmp'><br><font class='baseline'><strong>James</strong><p>Received: <strong>4</strong></font> &nbsp; &nbsp; &nbsp; &nbsp; &nbsp; &nbsp;<font class='posOutcome'>Shared back: <strong>2</strong></font></font><div class='respPicDiv'><img src='img/responseButtonOffersNo0_wht.png' class='respPic'></div></div>","null","5","James","6","Shared","0.65,0.2","14","0.65","trustrating_stim/white_00340_940422_fa_edt.bmp","2.5","76","15"
"html-keyboard-response","182","291697","0.0-19.0-1.15","63fac97f0d4e8f6bfd753d90","bdp_trlrn","Wed Mar 15 2023 20:46:11 GMT-0700 (Pacific Daylight Time)","529394","Trustworthy,Untrustworthy","","24","","","","decision","","<div class='trialDiv'><img src='trustrating_stim/white_mw048.bmp'><br><font class='baseline'><strong>Jason</strong><p>Choose number of points to send.</font><div class='respPicDiv'><img src='img/responseButtonOffersNo0L.png' class='respPic'></div></div>","1","6","Jason","0","Kept","0.2,0.8","12","0.2","trustrating_stim/white_mw048.bmp","1.5","81","16"
"html-keyboard-response","183","291954","0.0-19.0-2.15","63fac97f0d4e8f6bfd753d90","bdp_trlrn","Wed Mar 15 2023 20:46:11 GMT-0700 (Pacific Daylight Time)","529394","Trustworthy,Untrustworthy","","null","","","","decisionFB","","<div class='trialDiv'><img src='trustrating_stim/white_mw048.bmp'><br><font class='baseline'><strong>Jason</strong><p>Choose number of points to send.</font><div class='respPicDiv'><img src='img/responseButtonOffersNo0L1.png' class='respPic'></div></div>","null","6","Jason","0","Kept","0.2,0.8","12","0.2","trustrating_stim/white_mw048.bmp","1.5","80","16"
"html-keyboard-response","184","292964","0.0-19.0-3.15","63fac97f0d4e8f6bfd753d90","bdp_trlrn","Wed Mar 15 2023 20:46:11 GMT-0700 (Pacific Daylight Time)","529394","Trustworthy,Untrustworthy","","null","","","","feedback","","<div class='trialDiv'><img src='trustrating_stim/white_mw048.bmp'><br><font class='baseline'><strong>Jason</strong><p>Received: <strong>4</strong></font> &nbsp; &nbsp; &nbsp; &nbsp; &nbsp; &nbsp;<font class='negOutcome'>Shared back: <strong>0</strong></font></font><div class='respPicDiv'><img src='img/responseButtonOffersNo0_wht.png' class='respPic'></div></div>","null","6","Jason","0","Kept","0.2,0.8","12","0.2","trustrating_stim/white_mw048.bmp","1.5","80","16"
"html-keyboard-response","185","293117","0.0-19.0-1.16","63fac97f0d4e8f6bfd753d90","bdp_trlrn","Wed Mar 15 2023 20:46:11 GMT-0700 (Pacific Daylight Time)","529394","Trustworthy,Untrustworthy","","153","","","","decision","","<div class='trialDiv'><img src='trustrating_stim/white_00340_940422_fa_edt.bmp'><br><font class='baseline'><strong>James</strong><p>Choose number of points to send.</font><div class='respPicDiv'><img src='img/responseButtonOffersNo0L.png' class='respPic'></div></div>","1","6","James","6","Shared","0.65,0.2","14","0.65","trustrating_stim/white_00340_940422_fa_edt.bmp","2.5","85","17"
"html-keyboard-response","186","293370","0.0-19.0-2.16","63fac97f0d4e8f6bfd753d90","bdp_trlrn","Wed Mar 15 2023 20:46:11 GMT-0700 (Pacific Daylight Time)","529394","Trustworthy,Untrustworthy","","null","","","","decisionFB","","<div class='trialDiv'><img src='trustrating_stim/white_00340_940422_fa_edt.bmp'><br><font class='baseline'><strong>James</strong><p>Choose number of points to send.</font><div class='respPicDiv'><img src='img/responseButtonOffersNo0L1.png' class='respPic'></div></div>","null","6","James","6","Shared","0.65,0.2","14","0.65","trustrating_stim/white_00340_940422_fa_edt.bmp","2.5","84","17"
"html-keyboard-response","187","294383","0.0-19.0-3.16","63fac97f0d4e8f6bfd753d90","bdp_trlrn","Wed Mar 15 2023 20:46:11 GMT-0700 (Pacific Daylight Time)","529394","Trustworthy,Untrustworthy","","null","","","","feedback","","<div class='trialDiv'><img src='trustrating_stim/white_00340_940422_fa_edt.bmp'><br><font class='baseline'><strong>James</strong><p>Received: <strong>4</strong></font> &nbsp; &nbsp; &nbsp; &nbsp; &nbsp; &nbsp;<font class='posOutcome'>Shared back: <strong>2</strong></font></font><div class='respPicDiv'><img src='img/responseButtonOffersNo0_wht.png' class='respPic'></div></div>","null","6","James","6","Shared","0.65,0.2","14","0.65","trustrating_stim/white_00340_940422_fa_edt.bmp","2.5","86","17"
"html-keyboard-response","188","294777","0.0-19.0-1.17","63fac97f0d4e8f6bfd753d90","bdp_trlrn","Wed Mar 15 2023 20:46:11 GMT-0700 (Pacific Daylight Time)","529394","Trustworthy,Untrustworthy","","394","","","","decision","","<div class='trialDiv'><img src='trustrating_stim/white_00120_931230_fa_edt.bmp'><br><font class='baseline'><strong>Caleb</strong><p>Choose number of points to send.</font><div class='respPicDiv'><img src='img/responseButtonOffersNo0L.png' class='respPic'></div></div>","1","6","Caleb","8","Kept","0.35,0.8","11","0.35","trustrating_stim/white_00120_931230_fa_edt.bmp","6.5","91","18"
"html-keyboard-response","189","295037","0.0-19.0-2.17","63fac97f0d4e8f6bfd753d90","bdp_trlrn","Wed Mar 15 2023 20:46:11 GMT-0700 (Pacific Daylight Time)","529394","Trustworthy,Untrustworthy","","null","","","","decisionFB","","<div class='trialDiv'><img src='trustrating_stim/white_00120_931230_fa_edt.bmp'><br><font class='baseline'><strong>Caleb</strong><p>Choose number of points to send.</font><div class='respPicDiv'><img src='img/responseButtonOffersNo0L1.png' class='respPic'></div></div>","null","6","Caleb","8","Kept","0.35,0.8","11","0.35","trustrating_stim/white_00120_931230_fa_edt.bmp","6.5","90","18"
"html-keyboard-response","190","296046","0.0-19.0-3.17","63fac97f0d4e8f6bfd753d90","bdp_trlrn","Wed Mar 15 2023 20:46:11 GMT-0700 (Pacific Daylight Time)","529394","Trustworthy,Untrustworthy","","null","","","","feedback","","<div class='trialDiv'><img src='trustrating_stim/white_00120_931230_fa_edt.bmp'><br><font class='baseline'><strong>Caleb</strong><p>Received: <strong>4</strong></font> &nbsp; &nbsp; &nbsp; &nbsp; &nbsp; &nbsp;<font class='negOutcome'>Shared back: <strong>0</strong></font></font><div class='respPicDiv'><img src='img/responseButtonOffersNo0_wht.png' class='respPic'></div></div>","null","6","Caleb","8","Kept","0.35,0.8","11","0.35","trustrating_stim/white_00120_931230_fa_edt.bmp","6.5","90","18"
"html-keyboard-response","191","296656","0.0-19.0-1.18","63fac97f0d4e8f6bfd753d90","bdp_trlrn","Wed Mar 15 2023 20:46:11 GMT-0700 (Pacific Daylight Time)","529394","Trustworthy,Untrustworthy","","610","","","","decision","","<div class='trialDiv'><img src='trustrating_stim/white_00340_940422_fa_edt.bmp'><br><font class='baseline'><strong>James</strong><p>Choose number of points to send.</font><div class='respPicDiv'><img src='img/responseButtonOffersNo0L.png' class='respPic'></div></div>","1","7","James","6","Shared","0.65,0.2","14","0.65","trustrating_stim/white_00340_940422_fa_edt.bmp","2.5","95","19"
"html-keyboard-response","192","296920","0.0-19.0-2.18","63fac97f0d4e8f6bfd753d90","bdp_trlrn","Wed Mar 15 2023 20:46:11 GMT-0700 (Pacific Daylight Time)","529394","Trustworthy,Untrustworthy","","null","","","","decisionFB","","<div class='trialDiv'><img src='trustrating_stim/white_00340_940422_fa_edt.bmp'><br><font class='baseline'><strong>James</strong><p>Choose number of points to send.</font><div class='respPicDiv'><img src='img/responseButtonOffersNo0L1.png' class='respPic'></div></div>","null","7","James","6","Shared","0.65,0.2","14","0.65","trustrating_stim/white_00340_940422_fa_edt.bmp","2.5","94","19"
"html-keyboard-response","193","297935","0.0-19.0-3.18","63fac97f0d4e8f6bfd753d90","bdp_trlrn","Wed Mar 15 2023 20:46:11 GMT-0700 (Pacific Daylight Time)","529394","Trustworthy,Untrustworthy","","null","","","","feedback","","<div class='trialDiv'><img src='trustrating_stim/white_00340_940422_fa_edt.bmp'><br><font class='baseline'><strong>James</strong><p>Received: <strong>4</strong></font> &nbsp; &nbsp; &nbsp; &nbsp; &nbsp; &nbsp;<font class='posOutcome'>Shared back: <strong>2</strong></font></font><div class='respPicDiv'><img src='img/responseButtonOffersNo0_wht.png' class='respPic'></div></div>","null","7","James","6","Shared","0.65,0.2","14","0.65","trustrating_stim/white_00340_940422_fa_edt.bmp","2.5","96","19"
"html-keyboard-response","194","298846","0.0-19.0-1.19","63fac97f0d4e8f6bfd753d90","bdp_trlrn","Wed Mar 15 2023 20:46:11 GMT-0700 (Pacific Daylight Time)","529394","Trustworthy,Untrustworthy","","910","","","","decision","","<div class='trialDiv'><img src='trustrating_stim/white_mw048.bmp'><br><font class='baseline'><strong>Jason</strong><p>Choose number of points to send.</font><div class='respPicDiv'><img src='img/responseButtonOffersNo0L.png' class='respPic'></div></div>","1","7","Jason","0","Kept","0.2,0.8","12","0.2","trustrating_stim/white_mw048.bmp","1.5","101","20"
"html-keyboard-response","195","299105","0.0-19.0-2.19","63fac97f0d4e8f6bfd753d90","bdp_trlrn","Wed Mar 15 2023 20:46:11 GMT-0700 (Pacific Daylight Time)","529394","Trustworthy,Untrustworthy","","null","","","","decisionFB","","<div class='trialDiv'><img src='trustrating_stim/white_mw048.bmp'><br><font class='baseline'><strong>Jason</strong><p>Choose number of points to send.</font><div class='respPicDiv'><img src='img/responseButtonOffersNo0L1.png' class='respPic'></div></div>","null","7","Jason","0","Kept","0.2,0.8","12","0.2","trustrating_stim/white_mw048.bmp","1.5","100","20"
"html-keyboard-response","196","300122","0.0-19.0-3.19","63fac97f0d4e8f6bfd753d90","bdp_trlrn","Wed Mar 15 2023 20:46:11 GMT-0700 (Pacific Daylight Time)","529394","Trustworthy,Untrustworthy","","null","","","","feedback","","<div class='trialDiv'><img src='trustrating_stim/white_mw048.bmp'><br><font class='baseline'><strong>Jason</strong><p>Received: <strong>4</strong></font> &nbsp; &nbsp; &nbsp; &nbsp; &nbsp; &nbsp;<font class='negOutcome'>Shared back: <strong>0</strong></font></font><div class='respPicDiv'><img src='img/responseButtonOffersNo0_wht.png' class='respPic'></div></div>","null","7","Jason","0","Kept","0.2,0.8","12","0.2","trustrating_stim/white_mw048.bmp","1.5","100","20"
"html-keyboard-response","197","302365","0.0-19.0-1.20","63fac97f0d4e8f6bfd753d90","bdp_trlrn","Wed Mar 15 2023 20:46:11 GMT-0700 (Pacific Daylight Time)","529394","Trustworthy,Untrustworthy","","2243","","","","decision","","<div class='trialDiv'><img src='trustrating_stim/white_00120_931230_fa_edt.bmp'><br><font class='baseline'><strong>Caleb</strong><p>Choose number of points to send.</font><div class='respPicDiv'><img src='img/responseButtonOffersNo0L.png' class='respPic'></div></div>","1","7","Caleb","8","Kept","0.35,0.8","11","0.35","trustrating_stim/white_00120_931230_fa_edt.bmp","6.5","105","21"
"html-keyboard-response","198","302624","0.0-19.0-2.20","63fac97f0d4e8f6bfd753d90","bdp_trlrn","Wed Mar 15 2023 20:46:11 GMT-0700 (Pacific Daylight Time)","529394","Trustworthy,Untrustworthy","","null","","","","decisionFB","","<div class='trialDiv'><img src='trustrating_stim/white_00120_931230_fa_edt.bmp'><br><font class='baseline'><strong>Caleb</strong><p>Choose number of points to send.</font><div class='respPicDiv'><img src='img/responseButtonOffersNo0L1.png' class='respPic'></div></div>","null","7","Caleb","8","Kept","0.35,0.8","11","0.35","trustrating_stim/white_00120_931230_fa_edt.bmp","6.5","104","21"
"html-keyboard-response","199","303638","0.0-19.0-3.20","63fac97f0d4e8f6bfd753d90","bdp_trlrn","Wed Mar 15 2023 20:46:11 GMT-0700 (Pacific Daylight Time)","529394","Trustworthy,Untrustworthy","","null","","","","feedback","","<div class='trialDiv'><img src='trustrating_stim/white_00120_931230_fa_edt.bmp'><br><font class='baseline'><strong>Caleb</strong><p>Received: <strong>4</strong></font> &nbsp; &nbsp; &nbsp; &nbsp; &nbsp; &nbsp;<font class='negOutcome'>Shared back: <strong>0</strong></font></font><div class='respPicDiv'><img src='img/responseButtonOffersNo0_wht.png' class='respPic'></div></div>","null","7","Caleb","8","Kept","0.35,0.8","11","0.35","trustrating_stim/white_00120_931230_fa_edt.bmp","6.5","104","21"
"html-keyboard-response","200","304595","0.0-19.0-1.21","63fac97f0d4e8f6bfd753d90","bdp_trlrn","Wed Mar 15 2023 20:46:11 GMT-0700 (Pacific Daylight Time)","529394","Trustworthy,Untrustworthy","","957","","","","decision","","<div class='trialDiv'><img src='trustrating_stim/white_mw048.bmp'><br><font class='baseline'><strong>Jason</strong><p>Choose number of points to send.</font><div class='respPicDiv'><img src='img/responseButtonOffersNo0L.png' class='respPic'></div></div>","1","8","Jason","0","Kept","0.2,0.8","12","0.2","trustrating_stim/white_mw048.bmp","1.5","109","22"
"html-keyboard-response","201","304857","0.0-19.0-2.21","63fac97f0d4e8f6bfd753d90","bdp_trlrn","Wed Mar 15 2023 20:46:11 GMT-0700 (Pacific Daylight Time)","529394","Trustworthy,Untrustworthy","","null","","","","decisionFB","","<div class='trialDiv'><img src='trustrating_stim/white_mw048.bmp'><br><font class='baseline'><strong>Jason</strong><p>Choose number of points to send.</font><div class='respPicDiv'><img src='img/responseButtonOffersNo0L1.png' class='respPic'></div></div>","null","8","Jason","0","Kept","0.2,0.8","12","0.2","trustrating_stim/white_mw048.bmp","1.5","108","22"
"html-keyboard-response","202","305868","0.0-19.0-3.21","63fac97f0d4e8f6bfd753d90","bdp_trlrn","Wed Mar 15 2023 20:46:11 GMT-0700 (Pacific Daylight Time)","529394","Trustworthy,Untrustworthy","","null","","","","feedback","","<div class='trialDiv'><img src='trustrating_stim/white_mw048.bmp'><br><font class='baseline'><strong>Jason</strong><p>Received: <strong>4</strong></font> &nbsp; &nbsp; &nbsp; &nbsp; &nbsp; &nbsp;<font class='negOutcome'>Shared back: <strong>0</strong></font></font><div class='respPicDiv'><img src='img/responseButtonOffersNo0_wht.png' class='respPic'></div></div>","null","8","Jason","0","Kept","0.2,0.8","12","0.2","trustrating_stim/white_mw048.bmp","1.5","108","22"
"html-keyboard-response","203","307274","0.0-19.0-1.22","63fac97f0d4e8f6bfd753d90","bdp_trlrn","Wed Mar 15 2023 20:46:11 GMT-0700 (Pacific Daylight Time)","529394","Trustworthy,Untrustworthy","","1406","","","","decision","","<div class='trialDiv'><img src='trustrating_stim/white_00120_931230_fa_edt.bmp'><br><font class='baseline'><strong>Caleb</strong><p>Choose number of points to send.</font><div class='respPicDiv'><img src='img/responseButtonOffersNo0L.png' class='respPic'></div></div>","1","8","Caleb","8","Kept","0.35,0.8","11","0.35","trustrating_stim/white_00120_931230_fa_edt.bmp","6.5","113","23"
"html-keyboard-response","204","307529","0.0-19.0-2.22","63fac97f0d4e8f6bfd753d90","bdp_trlrn","Wed Mar 15 2023 20:46:11 GMT-0700 (Pacific Daylight Time)","529394","Trustworthy,Untrustworthy","","null","","","","decisionFB","","<div class='trialDiv'><img src='trustrating_stim/white_00120_931230_fa_edt.bmp'><br><font class='baseline'><strong>Caleb</strong><p>Choose number of points to send.</font><div class='respPicDiv'><img src='img/responseButtonOffersNo0L1.png' class='respPic'></div></div>","null","8","Caleb","8","Kept","0.35,0.8","11","0.35","trustrating_stim/white_00120_931230_fa_edt.bmp","6.5","112","23"
"html-keyboard-response","205","308533","0.0-19.0-3.22","63fac97f0d4e8f6bfd753d90","bdp_trlrn","Wed Mar 15 2023 20:46:11 GMT-0700 (Pacific Daylight Time)","529394","Trustworthy,Untrustworthy","","null","","","","feedback","","<div class='trialDiv'><img src='trustrating_stim/white_00120_931230_fa_edt.bmp'><br><font class='baseline'><strong>Caleb</strong><p>Received: <strong>4</strong></font> &nbsp; &nbsp; &nbsp; &nbsp; &nbsp; &nbsp;<font class='negOutcome'>Shared back: <strong>0</strong></font></font><div class='respPicDiv'><img src='img/responseButtonOffersNo0_wht.png' class='respPic'></div></div>","null","8","Caleb","8","Kept","0.35,0.8","11","0.35","trustrating_stim/white_00120_931230_fa_edt.bmp","6.5","112","23"
"html-keyboard-response","206","314402","0.0-19.0-1.23","63fac97f0d4e8f6bfd753d90","bdp_trlrn","Wed Mar 15 2023 20:46:11 GMT-0700 (Pacific Daylight Time)","529394","Trustworthy,Untrustworthy","","5869","","","","decision","","<div class='trialDiv'><img src='trustrating_stim/white_00340_940422_fa_edt.bmp'><br><font class='baseline'><strong>James</strong><p>Choose number of points to send.</font><div class='respPicDiv'><img src='img/responseButtonOffersNo0L.png' class='respPic'></div></div>","4","8","James","6","Shared","0.65,0.2","14","0.65","trustrating_stim/white_00340_940422_fa_edt.bmp","2.5","117","24"
"html-keyboard-response","207","314661","0.0-19.0-2.23","63fac97f0d4e8f6bfd753d90","bdp_trlrn","Wed Mar 15 2023 20:46:11 GMT-0700 (Pacific Daylight Time)","529394","Trustworthy,Untrustworthy","","null","","","","decisionFB","","<div class='trialDiv'><img src='trustrating_stim/white_00340_940422_fa_edt.bmp'><br><font class='baseline'><strong>James</strong><p>Choose number of points to send.</font><div class='respPicDiv'><img src='img/responseButtonOffersNo0L4.png' class='respPic'></div></div>","null","8","James","6","Shared","0.65,0.2","14","0.65","trustrating_stim/white_00340_940422_fa_edt.bmp","2.5","113","24"
"html-keyboard-response","208","315675","0.0-19.0-3.23","63fac97f0d4e8f6bfd753d90","bdp_trlrn","Wed Mar 15 2023 20:46:11 GMT-0700 (Pacific Daylight Time)","529394","Trustworthy,Untrustworthy","","null","","","","feedback","","<div class='trialDiv'><img src='trustrating_stim/white_00340_940422_fa_edt.bmp'><br><font class='baseline'><strong>James</strong><p>Received: <strong>16</strong></font> &nbsp; &nbsp; &nbsp; &nbsp; &nbsp; &nbsp;<font class='posOutcome'>Shared back: <strong>8</strong></font></font><div class='respPicDiv'><img src='img/responseButtonOffersNo0_wht.png' class='respPic'></div></div>","null","8","James","6","Shared","0.65,0.2","14","0.65","trustrating_stim/white_00340_940422_fa_edt.bmp","2.5","121","24"
"html-keyboard-response","209","317183","0.0-19.0-1.24","63fac97f0d4e8f6bfd753d90","bdp_trlrn","Wed Mar 15 2023 20:46:11 GMT-0700 (Pacific Daylight Time)","529394","Trustworthy,Untrustworthy","","1506","","","","decision","","<div class='trialDiv'><img src='trustrating_stim/white_00120_931230_fa_edt.bmp'><br><font class='baseline'><strong>Caleb</strong><p>Choose number of points to send.</font><div class='respPicDiv'><img src='img/responseButtonOffersNo0L.png' class='respPic'></div></div>","1","9","Caleb","8","Kept","0.35,0.8","11","0.35","trustrating_stim/white_00120_931230_fa_edt.bmp","6.5","126","25"
"html-keyboard-response","210","317441","0.0-19.0-2.24","63fac97f0d4e8f6bfd753d90","bdp_trlrn","Wed Mar 15 2023 20:46:11 GMT-0700 (Pacific Daylight Time)","529394","Trustworthy,Untrustworthy","","null","","","","decisionFB","","<div class='trialDiv'><img src='trustrating_stim/white_00120_931230_fa_edt.bmp'><br><font class='baseline'><strong>Caleb</strong><p>Choose number of points to send.</font><div class='respPicDiv'><img src='img/responseButtonOffersNo0L1.png' class='respPic'></div></div>","null","9","Caleb","8","Kept","0.35,0.8","11","0.35","trustrating_stim/white_00120_931230_fa_edt.bmp","6.5","125","25"
"html-keyboard-response","211","318457","0.0-19.0-3.24","63fac97f0d4e8f6bfd753d90","bdp_trlrn","Wed Mar 15 2023 20:46:11 GMT-0700 (Pacific Daylight Time)","529394","Trustworthy,Untrustworthy","","null","","","","feedback","","<div class='trialDiv'><img src='trustrating_stim/white_00120_931230_fa_edt.bmp'><br><font class='baseline'><strong>Caleb</strong><p>Received: <strong>4</strong></font> &nbsp; &nbsp; &nbsp; &nbsp; &nbsp; &nbsp;<font class='negOutcome'>Shared back: <strong>0</strong></font></font><div class='respPicDiv'><img src='img/responseButtonOffersNo0_wht.png' class='respPic'></div></div>","null","9","Caleb","8","Kept","0.35,0.8","11","0.35","trustrating_stim/white_00120_931230_fa_edt.bmp","6.5","125","25"
"html-keyboard-response","212","319073","0.0-19.0-1.25","63fac97f0d4e8f6bfd753d90","bdp_trlrn","Wed Mar 15 2023 20:46:11 GMT-0700 (Pacific Daylight Time)","529394","Trustworthy,Untrustworthy","","615","","","","decision","","<div class='trialDiv'><img src='trustrating_stim/white_mw048.bmp'><br><font class='baseline'><strong>Jason</strong><p>Choose number of points to send.</font><div class='respPicDiv'><img src='img/responseButtonOffersNo0L.png' class='respPic'></div></div>","1","9","Jason","0","Kept","0.2,0.8","12","0.2","trustrating_stim/white_mw048.bmp","1.5","130","26"
"html-keyboard-response","213","319328","0.0-19.0-2.25","63fac97f0d4e8f6bfd753d90","bdp_trlrn","Wed Mar 15 2023 20:46:11 GMT-0700 (Pacific Daylight Time)","529394","Trustworthy,Untrustworthy","","null","","","","decisionFB","","<div class='trialDiv'><img src='trustrating_stim/white_mw048.bmp'><br><font class='baseline'><strong>Jason</strong><p>Choose number of points to send.</font><div class='respPicDiv'><img src='img/responseButtonOffersNo0L1.png' class='respPic'></div></div>","null","9","Jason","0","Kept","0.2,0.8","12","0.2","trustrating_stim/white_mw048.bmp","1.5","129","26"
"html-keyboard-response","214","320335","0.0-19.0-3.25","63fac97f0d4e8f6bfd753d90","bdp_trlrn","Wed Mar 15 2023 20:46:11 GMT-0700 (Pacific Daylight Time)","529394","Trustworthy,Untrustworthy","","null","","","","feedback","","<div class='trialDiv'><img src='trustrating_stim/white_mw048.bmp'><br><font class='baseline'><strong>Jason</strong><p>Received: <strong>4</strong></font> &nbsp; &nbsp; &nbsp; &nbsp; &nbsp; &nbsp;<font class='negOutcome'>Shared back: <strong>0</strong></font></font><div class='respPicDiv'><img src='img/responseButtonOffersNo0_wht.png' class='respPic'></div></div>","null","9","Jason","0","Kept","0.2,0.8","12","0.2","trustrating_stim/white_mw048.bmp","1.5","129","26"
"html-keyboard-response","215","322852","0.0-19.0-1.26","63fac97f0d4e8f6bfd753d90","bdp_trlrn","Wed Mar 15 2023 20:46:11 GMT-0700 (Pacific Daylight Time)","529394","Trustworthy,Untrustworthy","","2517","","","","decision","","<div class='trialDiv'><img src='trustrating_stim/white_00340_940422_fa_edt.bmp'><br><font class='baseline'><strong>James</strong><p>Choose number of points to send.</font><div class='respPicDiv'><img src='img/responseButtonOffersNo0L.png' class='respPic'></div></div>","5","9","James","6","Shared","0.65,0.2","14","0.65","trustrating_stim/white_00340_940422_fa_edt.bmp","2.5","134","27"
"html-keyboard-response","216","323114","0.0-19.0-2.26","63fac97f0d4e8f6bfd753d90","bdp_trlrn","Wed Mar 15 2023 20:46:11 GMT-0700 (Pacific Daylight Time)","529394","Trustworthy,Untrustworthy","","null","","","","decisionFB","","<div class='trialDiv'><img src='trustrating_stim/white_00340_940422_fa_edt.bmp'><br><font class='baseline'><strong>James</strong><p>Choose number of points to send.</font><div class='respPicDiv'><img src='img/responseButtonOffersNo0L5.png' class='respPic'></div></div>","null","9","James","6","Shared","0.65,0.2","14","0.65","trustrating_stim/white_00340_940422_fa_edt.bmp","2.5","129","27"
"html-keyboard-response","217","324121","0.0-19.0-3.26","63fac97f0d4e8f6bfd753d90","bdp_trlrn","Wed Mar 15 2023 20:46:11 GMT-0700 (Pacific Daylight Time)","529394","Trustworthy,Untrustworthy","","null","","","","feedback","","<div class='trialDiv'><img src='trustrating_stim/white_00340_940422_fa_edt.bmp'><br><font class='baseline'><strong>James</strong><p>Received: <strong>20</strong></font> &nbsp; &nbsp; &nbsp; &nbsp; &nbsp; &nbsp;<font class='posOutcome'>Shared back: <strong>10</strong></font></font><div class='respPicDiv'><img src='img/responseButtonOffersNo0_wht.png' class='respPic'></div></div>","null","9","James","6","Shared","0.65,0.2","14","0.65","trustrating_stim/white_00340_940422_fa_edt.bmp","2.5","139","27"
"html-keyboard-response","218","326641","0.0-19.0-1.27","63fac97f0d4e8f6bfd753d90","bdp_trlrn","Wed Mar 15 2023 20:46:11 GMT-0700 (Pacific Daylight Time)","529394","Trustworthy,Untrustworthy","","2520","","","","decision","","<div class='trialDiv'><img src='trustrating_stim/white_00120_931230_fa_edt.bmp'><br><font class='baseline'><strong>Caleb</strong><p>Choose number of points to send.</font><div class='respPicDiv'><img src='img/responseButtonOffersNo0L.png' class='respPic'></div></div>","1","10","Caleb","8","Kept","0.35,0.8","11","0.35","trustrating_stim/white_00120_931230_fa_edt.bmp","6.5","144","28"
"html-keyboard-response","219","326896","0.0-19.0-2.27","63fac97f0d4e8f6bfd753d90","bdp_trlrn","Wed Mar 15 2023 20:46:11 GMT-0700 (Pacific Daylight Time)","529394","Trustworthy,Untrustworthy","","null","","","","decisionFB","","<div class='trialDiv'><img src='trustrating_stim/white_00120_931230_fa_edt.bmp'><br><font class='baseline'><strong>Caleb</strong><p>Choose number of points to send.</font><div class='respPicDiv'><img src='img/responseButtonOffersNo0L1.png' class='respPic'></div></div>","null","10","Caleb","8","Kept","0.35,0.8","11","0.35","trustrating_stim/white_00120_931230_fa_edt.bmp","6.5","143","28"
