"trial_type","trial_index","time_elapsed","internal_node_id","subject_id","task","startTime","totalTime","labels","view_history","rt","event","trial","time","trialtype","success","stimulus","key_press","aground","name","faceID","outcome","agenttype","agentswpt","agentcurrpshare","face","avgRating","point_total","round"
"pavlovia","0","4","0.0-0.0","6361769fee0c219b0f1cc480","bdp_trlrn","Sun Mar 12 2023 22:21:38 GMT-0500 (Central Daylight Time)","744178","Trustworthy,Untrustworthy","","","","","","","","","","","","","","","","","","","",""
"instructions","1","5475","0.0-1.0","6361769fee0c219b0f1cc480","bdp_trlrn","Sun Mar 12 2023 22:21:38 GMT-0500 (Central Daylight Time)","744178","Trustworthy,Untrustworthy","[{""page_index"":0,""viewing_time"":5470}]","5471","","","","","","","","","","","","","","","","","",""
"","","","","6361769fee0c219b0f1cc480","bdp_trlrn","Sun Mar 12 2023 22:21:38 GMT-0500 (Central Daylight Time)","744178","Trustworthy,Untrustworthy","","","fullscreenenter","2","9220","fullscreenenter","","","","","","","","","","","","","",""
"fullscreen","2","10217","0.0-2.0","6361769fee0c219b0f1cc480","bdp_trlrn","Sun Mar 12 2023 22:21:38 GMT-0500 (Central Daylight Time)","744178","Trustworthy,Untrustworthy","","","","","","","true","","","","","","","","","","","","",""
"instructions","3","46834","0.0-4.0","6361769fee0c219b0f1cc480","bdp_trlrn","Sun Mar 12 2023 22:21:38 GMT-0500 (Central Daylight Time)","744178","Trustworthy,Untrustworthy","[{""page_index"":0,""viewing_time"":23659},{""page_index"":1,""viewing_time"":12957}]","36616","","","","","","","","","","","","","","","","","",""
"instructions","4","50993","0.0-5.0","6361769fee0c219b0f1cc480","bdp_trlrn","Sun Mar 12 2023 22:21:38 GMT-0500 (Central Daylight Time)","744178","Trustworthy,Untrustworthy","[{""page_index"":0,""viewing_time"":4158}]","4158","","","","","","","","","","","","","","","","","",""
"image-keyboard-response","5","56661","0.0-6.0-1.0","6361769fee0c219b0f1cc480","bdp_trlrn","Sun Mar 12 2023 22:21:38 GMT-0500 (Central Daylight Time)","744178","Trustworthy,Untrustworthy","","5561","","","","rating","","trustrating_stim/white_mw033.bmp","4","","","","","","","","","","",""
"image-keyboard-response","6","56875","0.0-6.0-2.0","6361769fee0c219b0f1cc480","bdp_trlrn","Sun Mar 12 2023 22:21:38 GMT-0500 (Central Daylight Time)","744178","Trustworthy,Untrustworthy","","null","","","","ratingFB","","trustrating_stim/white_mw033.bmp","null","","","","","","","","","","",""
"image-keyboard-response","7","61484","0.0-6.0-1.1","6361769fee0c219b0f1cc480","bdp_trlrn","Sun Mar 12 2023 22:21:38 GMT-0500 (Central Daylight Time)","744178","Trustworthy,Untrustworthy","","4501","","","","rating","","trustrating_stim/white_mw071.bmp","3","","","","","","","","","","",""
"image-keyboard-response","8","61701","0.0-6.0-2.1","6361769fee0c219b0f1cc480","bdp_trlrn","Sun Mar 12 2023 22:21:38 GMT-0500 (Central Daylight Time)","744178","Trustworthy,Untrustworthy","","null","","","","ratingFB","","trustrating_stim/white_mw071.bmp","null","","","","","","","","","","",""
"image-keyboard-response","9","64568","0.0-6.0-1.2","6361769fee0c219b0f1cc480","bdp_trlrn","Sun Mar 12 2023 22:21:38 GMT-0500 (Central Daylight Time)","744178","Trustworthy,Untrustworthy","","2759","","","","rating","","trustrating_stim/white_mw089.bmp","4","","","","","","","","","","",""
"image-keyboard-response","10","64783","0.0-6.0-2.2","6361769fee0c219b0f1cc480","bdp_trlrn","Sun Mar 12 2023 22:21:38 GMT-0500 (Central Daylight Time)","744178","Trustworthy,Untrustworthy","","null","","","","ratingFB","","trustrating_stim/white_mw089.bmp","null","","","","","","","","","","",""
"image-keyboard-response","11","68601","0.0-6.0-1.3","6361769fee0c219b0f1cc480","bdp_trlrn","Sun Mar 12 2023 22:21:38 GMT-0500 (Central Daylight Time)","744178","Trustworthy,Untrustworthy","","3711","","","","rating","","trustrating_stim/white_mw053.bmp","2","","","","","","","","","","",""
"image-keyboard-response","12","68817","0.0-6.0-2.3","6361769fee0c219b0f1cc480","bdp_trlrn","Sun Mar 12 2023 22:21:38 GMT-0500 (Central Daylight Time)","744178","Trustworthy,Untrustworthy","","null","","","","ratingFB","","trustrating_stim/white_mw053.bmp","null","","","","","","","","","","",""
"image-keyboard-response","13","71206","0.0-6.0-1.4","6361769fee0c219b0f1cc480","bdp_trlrn","Sun Mar 12 2023 22:21:38 GMT-0500 (Central Daylight Time)","744178","Trustworthy,Untrustworthy","","2283","","","","rating","","trustrating_stim/white_00120_931230_fa_edt.bmp","2","","","","","","","","","","",""
"image-keyboard-response","14","71423","0.0-6.0-2.4","6361769fee0c219b0f1cc480","bdp_trlrn","Sun Mar 12 2023 22:21:38 GMT-0500 (Central Daylight Time)","744178","Trustworthy,Untrustworthy","","null","","","","ratingFB","","trustrating_stim/white_00120_931230_fa_edt.bmp","null","","","","","","","","","","",""
"image-keyboard-response","15","75293","0.0-6.0-1.5","6361769fee0c219b0f1cc480","bdp_trlrn","Sun Mar 12 2023 22:21:38 GMT-0500 (Central Daylight Time)","744178","Trustworthy,Untrustworthy","","3753","","","","rating","","trustrating_stim/white_00129_931230_fb_edt.bmp","5","","","","","","","","","","",""
"image-keyboard-response","16","75501","0.0-6.0-2.5","6361769fee0c219b0f1cc480","bdp_trlrn","Sun Mar 12 2023 22:21:38 GMT-0500 (Central Daylight Time)","744178","Trustworthy,Untrustworthy","","null","","","","ratingFB","","trustrating_stim/white_00129_931230_fb_edt.bmp","null","","","","","","","","","","",""
"image-keyboard-response","17","78589","0.0-6.0-1.6","6361769fee0c219b0f1cc480","bdp_trlrn","Sun Mar 12 2023 22:21:38 GMT-0500 (Central Daylight Time)","744178","Trustworthy,Untrustworthy","","2979","","","","rating","","trustrating_stim/white_00109_931230_fa_edt.bmp","5","","","","","","","","","","",""
"image-keyboard-response","18","78801","0.0-6.0-2.6","6361769fee0c219b0f1cc480","bdp_trlrn","Sun Mar 12 2023 22:21:38 GMT-0500 (Central Daylight Time)","744178","Trustworthy,Untrustworthy","","null","","","","ratingFB","","trustrating_stim/white_00109_931230_fa_edt.bmp","null","","","","","","","","","","",""
"image-keyboard-response","19","81847","0.0-6.0-1.7","6361769fee0c219b0f1cc480","bdp_trlrn","Sun Mar 12 2023 22:21:38 GMT-0500 (Central Daylight Time)","744178","Trustworthy,Untrustworthy","","2940","","","","rating","","trustrating_stim/white_00519_940519_fb_edt.bmp","3","","","","","","","","","","",""
"image-keyboard-response","20","82053","0.0-6.0-2.7","6361769fee0c219b0f1cc480","bdp_trlrn","Sun Mar 12 2023 22:21:38 GMT-0500 (Central Daylight Time)","744178","Trustworthy,Untrustworthy","","null","","","","ratingFB","","trustrating_stim/white_00519_940519_fb_edt.bmp","null","","","","","","","","","","",""
"image-keyboard-response","21","84458","0.0-6.0-1.8","6361769fee0c219b0f1cc480","bdp_trlrn","Sun Mar 12 2023 22:21:38 GMT-0500 (Central Daylight Time)","744178","Trustworthy,Untrustworthy","","2301","","","","rating","","trustrating_stim/white_mw048.bmp","1","","","","","","","","","","",""
"image-keyboard-response","22","84671","0.0-6.0-2.8","6361769fee0c219b0f1cc480","bdp_trlrn","Sun Mar 12 2023 22:21:38 GMT-0500 (Central Daylight Time)","744178","Trustworthy,Untrustworthy","","null","","","","ratingFB","","trustrating_stim/white_mw048.bmp","null","","","","","","","","","","",""
"image-keyboard-response","23","89061","0.0-6.0-1.9","6361769fee0c219b0f1cc480","bdp_trlrn","Sun Mar 12 2023 22:21:38 GMT-0500 (Central Daylight Time)","744178","Trustworthy,Untrustworthy","","4271","","","","rating","","trustrating_stim/white_00785_941205_fb_edt.bmp","3","","","","","","","","","","",""
"image-keyboard-response","24","89267","0.0-6.0-2.9","6361769fee0c219b0f1cc480","bdp_trlrn","Sun Mar 12 2023 22:21:38 GMT-0500 (Central Daylight Time)","744178","Trustworthy,Untrustworthy","","null","","","","ratingFB","","trustrating_stim/white_00785_941205_fb_edt.bmp","null","","","","","","","","","","",""
"image-keyboard-response","25","94018","0.0-6.0-1.10","6361769fee0c219b0f1cc480","bdp_trlrn","Sun Mar 12 2023 22:21:38 GMT-0500 (Central Daylight Time)","744178","Trustworthy,Untrustworthy","","4644","","","","rating","","trustrating_stim/white_00761_941201_fb_edt.bmp","4","","","","","","","","","","",""
"image-keyboard-response","26","94223","0.0-6.0-2.10","6361769fee0c219b0f1cc480","bdp_trlrn","Sun Mar 12 2023 22:21:38 GMT-0500 (Central Daylight Time)","744178","Trustworthy,Untrustworthy","","null","","","","ratingFB","","trustrating_stim/white_00761_941201_fb_edt.bmp","null","","","","","","","","","","",""
"image-keyboard-response","27","95605","0.0-6.0-1.11","6361769fee0c219b0f1cc480","bdp_trlrn","Sun Mar 12 2023 22:21:38 GMT-0500 (Central Daylight Time)","744178","Trustworthy,Untrustworthy","","1280","","","","rating","","trustrating_stim/white_mw049.bmp","2","","","","","","","","","","",""
"image-keyboard-response","28","95821","0.0-6.0-2.11","6361769fee0c219b0f1cc480","bdp_trlrn","Sun Mar 12 2023 22:21:38 GMT-0500 (Central Daylight Time)","744178","Trustworthy,Untrustworthy","","null","","","","ratingFB","","trustrating_stim/white_mw049.bmp","null","","","","","","","","","","",""
"image-keyboard-response","29","98025","0.0-6.0-1.12","6361769fee0c219b0f1cc480","bdp_trlrn","Sun Mar 12 2023 22:21:38 GMT-0500 (Central Daylight Time)","744178","Trustworthy,Untrustworthy","","2103","","","","rating","","trustrating_stim/white_mw066.bmp","2","","","","","","","","","","",""
"image-keyboard-response","30","98233","0.0-6.0-2.12","6361769fee0c219b0f1cc480","bdp_trlrn","Sun Mar 12 2023 22:21:38 GMT-0500 (Central Daylight Time)","744178","Trustworthy,Untrustworthy","","null","","","","ratingFB","","trustrating_stim/white_mw066.bmp","null","","","","","","","","","","",""
"image-keyboard-response","31","103559","0.0-6.0-1.13","6361769fee0c219b0f1cc480","bdp_trlrn","Sun Mar 12 2023 22:21:38 GMT-0500 (Central Daylight Time)","744178","Trustworthy,Untrustworthy","","5219","","","","rating","","trustrating_stim/white_00602_940928_fb_edt.bmp","5","","","","","","","","","","",""
"image-keyboard-response","32","103771","0.0-6.0-2.13","6361769fee0c219b0f1cc480","bdp_trlrn","Sun Mar 12 2023 22:21:38 GMT-0500 (Central Daylight Time)","744178","Trustworthy,Untrustworthy","","null","","","","ratingFB","","trustrating_stim/white_00602_940928_fb_edt.bmp","null","","","","","","","","","","",""
"image-keyboard-response","33","106007","0.0-6.0-1.14","6361769fee0c219b0f1cc480","bdp_trlrn","Sun Mar 12 2023 22:21:38 GMT-0500 (Central Daylight Time)","744178","Trustworthy,Untrustworthy","","2135","","","","rating","","trustrating_stim/white_mw063.bmp","1","","","","","","","","","","",""
"image-keyboard-response","34","106217","0.0-6.0-2.14","6361769fee0c219b0f1cc480","bdp_trlrn","Sun Mar 12 2023 22:21:38 GMT-0500 (Central Daylight Time)","744178","Trustworthy,Untrustworthy","","null","","","","ratingFB","","trustrating_stim/white_mw063.bmp","null","","","","","","","","","","",""
"image-keyboard-response","35","108386","0.0-6.0-1.15","6361769fee0c219b0f1cc480","bdp_trlrn","Sun Mar 12 2023 22:21:38 GMT-0500 (Central Daylight Time)","744178","Trustworthy,Untrustworthy","","2063","","","","rating","","trustrating_stim/white_mw097.bmp","2","","","","","","","","","","",""
"image-keyboard-response","36","108599","0.0-6.0-2.15","6361769fee0c219b0f1cc480","bdp_trlrn","Sun Mar 12 2023 22:21:38 GMT-0500 (Central Daylight Time)","744178","Trustworthy,Untrustworthy","","null","","","","ratingFB","","trustrating_stim/white_mw097.bmp","null","","","","","","","","","","",""
"image-keyboard-response","37","110188","0.0-6.0-1.16","6361769fee0c219b0f1cc480","bdp_trlrn","Sun Mar 12 2023 22:21:38 GMT-0500 (Central Daylight Time)","744178","Trustworthy,Untrustworthy","","1482","","","","rating","","trustrating_stim/white_00223_940128_fb_edt.bmp","1","","","","","","","","","","",""
"image-keyboard-response","38","110403","0.0-6.0-2.16","6361769fee0c219b0f1cc480","bdp_trlrn","Sun Mar 12 2023 22:21:38 GMT-0500 (Central Daylight Time)","744178","Trustworthy,Untrustworthy","","null","","","","ratingFB","","trustrating_stim/white_00223_940128_fb_edt.bmp","null","","","","","","","","","","",""
"image-keyboard-response","39","112634","0.0-6.0-1.17","6361769fee0c219b0f1cc480","bdp_trlrn","Sun Mar 12 2023 22:21:38 GMT-0500 (Central Daylight Time)","744178","Trustworthy,Untrustworthy","","2113","","","","rating","","trustrating_stim/white_00807_941205_fb_edt.bmp","4","","","","","","","","","","",""
"image-keyboard-response","40","112850","0.0-6.0-2.17","6361769fee0c219b0f1cc480","bdp_trlrn","Sun Mar 12 2023 22:21:38 GMT-0500 (Central Daylight Time)","744178","Trustworthy,Untrustworthy","","null","","","","ratingFB","","trustrating_stim/white_00807_941205_fb_edt.bmp","null","","","","","","","","","","",""
"image-keyboard-response","41","115057","0.0-6.0-1.18","6361769fee0c219b0f1cc480","bdp_trlrn","Sun Mar 12 2023 22:21:38 GMT-0500 (Central Daylight Time)","744178","Trustworthy,Untrustworthy","","2100","","","","rating","","trustrating_stim/white_mw060.bmp","1","","","","","","","","","","",""
"image-keyboard-response","42","115269","0.0-6.0-2.18","6361769fee0c219b0f1cc480","bdp_trlrn","Sun Mar 12 2023 22:21:38 GMT-0500 (Central Daylight Time)","744178","Trustworthy,Untrustworthy","","null","","","","ratingFB","","trustrating_stim/white_mw060.bmp","null","","","","","","","","","","",""
"image-keyboard-response","43","119030","0.0-6.0-1.19","6361769fee0c219b0f1cc480","bdp_trlrn","Sun Mar 12 2023 22:21:38 GMT-0500 (Central Daylight Time)","744178","Trustworthy,Untrustworthy","","3657","","","","rating","","trustrating_stim/white_00898_960530_fa_edt.bmp","5","","","","","","","","","","",""
"image-keyboard-response","44","119237","0.0-6.0-2.19","6361769fee0c219b0f1cc480","bdp_trlrn","Sun Mar 12 2023 22:21:38 GMT-0500 (Central Daylight Time)","744178","Trustworthy,Untrustworthy","","null","","","","ratingFB","","trustrating_stim/white_00898_960530_fa_edt.bmp","null","","","","","","","","","","",""
"image-keyboard-response","45","122764","0.0-6.0-1.20","6361769fee0c219b0f1cc480","bdp_trlrn","Sun Mar 12 2023 22:21:38 GMT-0500 (Central Daylight Time)","744178","Trustworthy,Untrustworthy","","3422","","","","rating","","trustrating_stim/white_mw084.bmp","4","","","","","","","","","","",""
"image-keyboard-response","46","122971","0.0-6.0-2.20","6361769fee0c219b0f1cc480","bdp_trlrn","Sun Mar 12 2023 22:21:38 GMT-0500 (Central Daylight Time)","744178","Trustworthy,Untrustworthy","","null","","","","ratingFB","","trustrating_stim/white_mw084.bmp","null","","","","","","","","","","",""
"image-keyboard-response","47","127129","0.0-6.0-1.21","6361769fee0c219b0f1cc480","bdp_trlrn","Sun Mar 12 2023 22:21:38 GMT-0500 (Central Daylight Time)","744178","Trustworthy,Untrustworthy","","4042","","","","rating","","trustrating_stim/white_mw056.bmp","4","","","","","","","","","","",""
"image-keyboard-response","48","127332","0.0-6.0-2.21","6361769fee0c219b0f1cc480","bdp_trlrn","Sun Mar 12 2023 22:21:38 GMT-0500 (Central Daylight Time)","744178","Trustworthy,Untrustworthy","","null","","","","ratingFB","","trustrating_stim/white_mw056.bmp","null","","","","","","","","","","",""
"image-keyboard-response","49","132347","0.0-6.0-1.22","6361769fee0c219b0f1cc480","bdp_trlrn","Sun Mar 12 2023 22:21:38 GMT-0500 (Central Daylight Time)","744178","Trustworthy,Untrustworthy","","4909","","","","rating","","trustrating_stim/white_mw035.bmp","4","","","","","","","","","","",""
"image-keyboard-response","50","132563","0.0-6.0-2.22","6361769fee0c219b0f1cc480","bdp_trlrn","Sun Mar 12 2023 22:21:38 GMT-0500 (Central Daylight Time)","744178","Trustworthy,Untrustworthy","","null","","","","ratingFB","","trustrating_stim/white_mw035.bmp","null","","","","","","","","","","",""
"image-keyboard-response","51","134532","0.0-6.0-1.23","6361769fee0c219b0f1cc480","bdp_trlrn","Sun Mar 12 2023 22:21:38 GMT-0500 (Central Daylight Time)","744178","Trustworthy,Untrustworthy","","1862","","","","rating","","trustrating_stim/white_00299_940422_fa_edt.bmp","5","","","","","","","","","","",""
"image-keyboard-response","52","134736","0.0-6.0-2.23","6361769fee0c219b0f1cc480","bdp_trlrn","Sun Mar 12 2023 22:21:38 GMT-0500 (Central Daylight Time)","744178","Trustworthy,Untrustworthy","","null","","","","ratingFB","","trustrating_stim/white_00299_940422_fa_edt.bmp","null","","","","","","","","","","",""
"image-keyboard-response","53","138824","0.0-6.0-1.24","6361769fee0c219b0f1cc480","bdp_trlrn","Sun Mar 12 2023 22:21:38 GMT-0500 (Central Daylight Time)","744178","Trustworthy,Untrustworthy","","3971","","","","rating","","trustrating_stim/white_00757_941201_fa_edt.bmp","3","","","","","","","","","","",""
"image-keyboard-response","54","139037","0.0-6.0-2.24","6361769fee0c219b0f1cc480","bdp_trlrn","Sun Mar 12 2023 22:21:38 GMT-0500 (Central Daylight Time)","744178","Trustworthy,Untrustworthy","","null","","","","ratingFB","","trustrating_stim/white_00757_941201_fa_edt.bmp","null","","","","","","","","","","",""
"image-keyboard-response","55","140336","0.0-6.0-1.25","6361769fee0c219b0f1cc480","bdp_trlrn","Sun Mar 12 2023 22:21:38 GMT-0500 (Central Daylight Time)","744178","Trustworthy,Untrustworthy","","1182","","","","rating","","trustrating_stim/white_00659_941121_fa_edt.bmp","1","","","","","","","","","","",""
"image-keyboard-response","56","140547","0.0-6.0-2.25","6361769fee0c219b0f1cc480","bdp_trlrn","Sun Mar 12 2023 22:21:38 GMT-0500 (Central Daylight Time)","744178","Trustworthy,Untrustworthy","","null","","","","ratingFB","","trustrating_stim/white_00659_941121_fa_edt.bmp","null","","","","","","","","","","",""
"image-keyboard-response","57","147424","0.0-6.0-1.26","6361769fee0c219b0f1cc480","bdp_trlrn","Sun Mar 12 2023 22:21:38 GMT-0500 (Central Daylight Time)","744178","Trustworthy,Untrustworthy","","6769","","","","rating","","trustrating_stim/white_00577_940928_fa_edt.bmp","3","","","","","","","","","","",""
"image-keyboard-response","58","147631","0.0-6.0-2.26","6361769fee0c219b0f1cc480","bdp_trlrn","Sun Mar 12 2023 22:21:38 GMT-0500 (Central Daylight Time)","744178","Trustworthy,Untrustworthy","","null","","","","ratingFB","","trustrating_stim/white_00577_940928_fa_edt.bmp","null","","","","","","","","","","",""
"image-keyboard-response","59","150982","0.0-6.0-1.27","6361769fee0c219b0f1cc480","bdp_trlrn","Sun Mar 12 2023 22:21:38 GMT-0500 (Central Daylight Time)","744178","Trustworthy,Untrustworthy","","3245","","","","rating","","trustrating_stim/white_mw099.bmp","3","","","","","","","","","","",""
"image-keyboard-response","60","151187","0.0-6.0-2.27","6361769fee0c219b0f1cc480","bdp_trlrn","Sun Mar 12 2023 22:21:38 GMT-0500 (Central Daylight Time)","744178","Trustworthy,Untrustworthy","","null","","","","ratingFB","","trustrating_stim/white_mw099.bmp","null","","","","","","","","","","",""
"image-keyboard-response","61","153455","0.0-6.0-1.28","6361769fee0c219b0f1cc480","bdp_trlrn","Sun Mar 12 2023 22:21:38 GMT-0500 (Central Daylight Time)","744178","Trustworthy,Untrustworthy","","2152","","","","rating","","trustrating_stim/white_mw046.bmp","2","","","","","","","","","","",""
"image-keyboard-response","62","153665","0.0-6.0-2.28","6361769fee0c219b0f1cc480","bdp_trlrn","Sun Mar 12 2023 22:21:38 GMT-0500 (Central Daylight Time)","744178","Trustworthy,Untrustworthy","","null","","","","ratingFB","","trustrating_stim/white_mw046.bmp","null","","","","","","","","","","",""
"image-keyboard-response","63","157504","0.0-6.0-1.29","6361769fee0c219b0f1cc480","bdp_trlrn","Sun Mar 12 2023 22:21:38 GMT-0500 (Central Daylight Time)","744178","Trustworthy,Untrustworthy","","3734","","","","rating","","trustrating_stim/white_00340_940422_fa_edt.bmp","3","","","","","","","","","","",""
"image-keyboard-response","64","157714","0.0-6.0-2.29","6361769fee0c219b0f1cc480","bdp_trlrn","Sun Mar 12 2023 22:21:38 GMT-0500 (Central Daylight Time)","744178","Trustworthy,Untrustworthy","","null","","","","ratingFB","","trustrating_stim/white_00340_940422_fa_edt.bmp","null","","","","","","","","","","",""
"image-keyboard-response","65","160486","0.0-6.0-1.30","6361769fee0c219b0f1cc480","bdp_trlrn","Sun Mar 12 2023 22:21:38 GMT-0500 (Central Daylight Time)","744178","Trustworthy,Untrustworthy","","2667","","","","rating","","trustrating_stim/white_mw071.bmp","2","","","","","","","","","","",""
"image-keyboard-response","66","160698","0.0-6.0-2.30","6361769fee0c219b0f1cc480","bdp_trlrn","Sun Mar 12 2023 22:21:38 GMT-0500 (Central Daylight Time)","744178","Trustworthy,Untrustworthy","","null","","","","ratingFB","","trustrating_stim/white_mw071.bmp","null","","","","","","","","","","",""
"image-keyboard-response","67","165432","0.0-6.0-1.31","6361769fee0c219b0f1cc480","bdp_trlrn","Sun Mar 12 2023 22:21:38 GMT-0500 (Central Daylight Time)","744178","Trustworthy,Untrustworthy","","4628","","","","rating","","trustrating_stim/white_00519_940519_fb_edt.bmp","5","","","","","","","","","","",""
"image-keyboard-response","68","165647","0.0-6.0-2.31","6361769fee0c219b0f1cc480","bdp_trlrn","Sun Mar 12 2023 22:21:38 GMT-0500 (Central Daylight Time)","744178","Trustworthy,Untrustworthy","","null","","","","ratingFB","","trustrating_stim/white_00519_940519_fb_edt.bmp","null","","","","","","","","","","",""
"image-keyboard-response","69","167052","0.0-6.0-1.32","6361769fee0c219b0f1cc480","bdp_trlrn","Sun Mar 12 2023 22:21:38 GMT-0500 (Central Daylight Time)","744178","Trustworthy,Untrustworthy","","1298","","","","rating","","trustrating_stim/white_00129_931230_fb_edt.bmp","5","","","","","","","","","","",""
"image-keyboard-response","70","167264","0.0-6.0-2.32","6361769fee0c219b0f1cc480","bdp_trlrn","Sun Mar 12 2023 22:21:38 GMT-0500 (Central Daylight Time)","744178","Trustworthy,Untrustworthy","","null","","","","ratingFB","","trustrating_stim/white_00129_931230_fb_edt.bmp","null","","","","","","","","","","",""
"image-keyboard-response","71","168903","0.0-6.0-1.33","6361769fee0c219b0f1cc480","bdp_trlrn","Sun Mar 12 2023 22:21:38 GMT-0500 (Central Daylight Time)","744178","Trustworthy,Untrustworthy","","1534","","","","rating","","trustrating_stim/white_00602_940928_fb_edt.bmp","4","","","","","","","","","","",""
"image-keyboard-response","72","169117","0.0-6.0-2.33","6361769fee0c219b0f1cc480","bdp_trlrn","Sun Mar 12 2023 22:21:38 GMT-0500 (Central Daylight Time)","744178","Trustworthy,Untrustworthy","","null","","","","ratingFB","","trustrating_stim/white_00602_940928_fb_edt.bmp","null","","","","","","","","","","",""
"image-keyboard-response","73","170440","0.0-6.0-1.34","6361769fee0c219b0f1cc480","bdp_trlrn","Sun Mar 12 2023 22:21:38 GMT-0500 (Central Daylight Time)","744178","Trustworthy,Untrustworthy","","1205","","","","rating","","trustrating_stim/white_00577_940928_fa_edt.bmp","3","","","","","","","","","","",""
"image-keyboard-response","74","170647","0.0-6.0-2.34","6361769fee0c219b0f1cc480","bdp_trlrn","Sun Mar 12 2023 22:21:38 GMT-0500 (Central Daylight Time)","744178","Trustworthy,Untrustworthy","","null","","","","ratingFB","","trustrating_stim/white_00577_940928_fa_edt.bmp","null","","","","","","","","","","",""
"image-keyboard-response","75","171985","0.0-6.0-1.35","6361769fee0c219b0f1cc480","bdp_trlrn","Sun Mar 12 2023 22:21:38 GMT-0500 (Central Daylight Time)","744178","Trustworthy,Untrustworthy","","1232","","","","rating","","trustrating_stim/white_mw033.bmp","3","","","","","","","","","","",""
"image-keyboard-response","76","172198","0.0-6.0-2.35","6361769fee0c219b0f1cc480","bdp_trlrn","Sun Mar 12 2023 22:21:38 GMT-0500 (Central Daylight Time)","744178","Trustworthy,Untrustworthy","","null","","","","ratingFB","","trustrating_stim/white_mw033.bmp","null","","","","","","","","","","",""
"image-keyboard-response","77","174043","0.0-6.0-1.36","6361769fee0c219b0f1cc480","bdp_trlrn","Sun Mar 12 2023 22:21:38 GMT-0500 (Central Daylight Time)","744178","Trustworthy,Untrustworthy","","1740","","","","rating","","trustrating_stim/white_00785_941205_fb_edt.bmp","3","","","","","","","","","","",""
"image-keyboard-response","78","174253","0.0-6.0-2.36","6361769fee0c219b0f1cc480","bdp_trlrn","Sun Mar 12 2023 22:21:38 GMT-0500 (Central Daylight Time)","744178","Trustworthy,Untrustworthy","","null","","","","ratingFB","","trustrating_stim/white_00785_941205_fb_edt.bmp","null","","","","","","","","","","",""
"image-keyboard-response","79","176112","0.0-6.0-1.37","6361769fee0c219b0f1cc480","bdp_trlrn","Sun Mar 12 2023 22:21:38 GMT-0500 (Central Daylight Time)","744178","Trustworthy,Untrustworthy","","1744","","","","rating","","trustrating_stim/white_00120_931230_fa_edt.bmp","2","","","","","","","","","","",""
"image-keyboard-response","80","176315","0.0-6.0-2.37","6361769fee0c219b0f1cc480","bdp_trlrn","Sun Mar 12 2023 22:21:38 GMT-0500 (Central Daylight Time)","744178","Trustworthy,Untrustworthy","","null","","","","ratingFB","","trustrating_stim/white_00120_931230_fa_edt.bmp","null","","","","","","","","","","",""
"image-keyboard-response","81","177435","0.0-6.0-1.38","6361769fee0c219b0f1cc480","bdp_trlrn","Sun Mar 12 2023 22:21:38 GMT-0500 (Central Daylight Time)","744178","Trustworthy,Untrustworthy","","1014","","","","rating","","trustrating_stim/white_00223_940128_fb_edt.bmp","1","","","","","","","","","","",""
"image-keyboard-response","82","177652","0.0-6.0-2.38","6361769fee0c219b0f1cc480","bdp_trlrn","Sun Mar 12 2023 22:21:38 GMT-0500 (Central Daylight Time)","744178","Trustworthy,Untrustworthy","","null","","","","ratingFB","","trustrating_stim/white_00223_940128_fb_edt.bmp","null","","","","","","","","","","",""
"image-keyboard-response","83","179140","0.0-6.0-1.39","6361769fee0c219b0f1cc480","bdp_trlrn","Sun Mar 12 2023 22:21:38 GMT-0500 (Central Daylight Time)","744178","Trustworthy,Untrustworthy","","1372","","","","rating","","trustrating_stim/white_mw097.bmp","2","","","","","","","","","","",""
"image-keyboard-response","84","179347","0.0-6.0-2.39","6361769fee0c219b0f1cc480","bdp_trlrn","Sun Mar 12 2023 22:21:38 GMT-0500 (Central Daylight Time)","744178","Trustworthy,Untrustworthy","","null","","","","ratingFB","","trustrating_stim/white_mw097.bmp","null","","","","","","","","","","",""
"image-keyboard-response","85","181857","0.0-6.0-1.40","6361769fee0c219b0f1cc480","bdp_trlrn","Sun Mar 12 2023 22:21:38 GMT-0500 (Central Daylight Time)","744178","Trustworthy,Untrustworthy","","2405","","","","rating","","trustrating_stim/white_00757_941201_fa_edt.bmp","2","","","","","","","","","","",""
"image-keyboard-response","86","182069","0.0-6.0-2.40","6361769fee0c219b0f1cc480","bdp_trlrn","Sun Mar 12 2023 22:21:38 GMT-0500 (Central Daylight Time)","744178","Trustworthy,Untrustworthy","","null","","","","ratingFB","","trustrating_stim/white_00757_941201_fa_edt.bmp","null","","","","","","","","","","",""
"image-keyboard-response","87","183365","0.0-6.0-1.41","6361769fee0c219b0f1cc480","bdp_trlrn","Sun Mar 12 2023 22:21:38 GMT-0500 (Central Daylight Time)","744178","Trustworthy,Untrustworthy","","1180","","","","rating","","trustrating_stim/white_00898_960530_fa_edt.bmp","5","","","","","","","","","","",""
"image-keyboard-response","88","183575","0.0-6.0-2.41","6361769fee0c219b0f1cc480","bdp_trlrn","Sun Mar 12 2023 22:21:38 GMT-0500 (Central Daylight Time)","744178","Trustworthy,Untrustworthy","","null","","","","ratingFB","","trustrating_stim/white_00898_960530_fa_edt.bmp","null","","","","","","","","","","",""
"image-keyboard-response","89","187735","0.0-6.0-1.42","6361769fee0c219b0f1cc480","bdp_trlrn","Sun Mar 12 2023 22:21:38 GMT-0500 (Central Daylight Time)","744178","Trustworthy,Untrustworthy","","4040","","","","rating","","trustrating_stim/white_00109_931230_fa_edt.bmp","5","","","","","","","","","","",""
"image-keyboard-response","90","187940","0.0-6.0-2.42","6361769fee0c219b0f1cc480","bdp_trlrn","Sun Mar 12 2023 22:21:38 GMT-0500 (Central Daylight Time)","744178","Trustworthy,Untrustworthy","","null","","","","ratingFB","","trustrating_stim/white_00109_931230_fa_edt.bmp","null","","","","","","","","","","",""
"image-keyboard-response","91","191833","0.0-6.0-1.43","6361769fee0c219b0f1cc480","bdp_trlrn","Sun Mar 12 2023 22:21:38 GMT-0500 (Central Daylight Time)","744178","Trustworthy,Untrustworthy","","3787","","","","rating","","trustrating_stim/white_00659_941121_fa_edt.bmp","2","","","","","","","","","","",""
"image-keyboard-response","92","192044","0.0-6.0-2.43","6361769fee0c219b0f1cc480","bdp_trlrn","Sun Mar 12 2023 22:21:38 GMT-0500 (Central Daylight Time)","744178","Trustworthy,Untrustworthy","","null","","","","ratingFB","","trustrating_stim/white_00659_941121_fa_edt.bmp","null","","","","","","","","","","",""
"image-keyboard-response","93","193220","0.0-6.0-1.44","6361769fee0c219b0f1cc480","bdp_trlrn","Sun Mar 12 2023 22:21:38 GMT-0500 (Central Daylight Time)","744178","Trustworthy,Untrustworthy","","1058","","","","rating","","trustrating_stim/white_mw060.bmp","1","","","","","","","","","","",""
"image-keyboard-response","94","193422","0.0-6.0-2.44","6361769fee0c219b0f1cc480","bdp_trlrn","Sun Mar 12 2023 22:21:38 GMT-0500 (Central Daylight Time)","744178","Trustworthy,Untrustworthy","","null","","","","ratingFB","","trustrating_stim/white_mw060.bmp","null","","","","","","","","","","",""
"image-keyboard-response","95","194951","0.0-6.0-1.45","6361769fee0c219b0f1cc480","bdp_trlrn","Sun Mar 12 2023 22:21:38 GMT-0500 (Central Daylight Time)","744178","Trustworthy,Untrustworthy","","1422","","","","rating","","trustrating_stim/white_mw056.bmp","2","","","","","","","","","","",""
"image-keyboard-response","96","195160","0.0-6.0-2.45","6361769fee0c219b0f1cc480","bdp_trlrn","Sun Mar 12 2023 22:21:38 GMT-0500 (Central Daylight Time)","744178","Trustworthy,Untrustworthy","","null","","","","ratingFB","","trustrating_stim/white_mw056.bmp","null","","","","","","","","","","",""
"image-keyboard-response","97","196841","0.0-6.0-1.46","6361769fee0c219b0f1cc480","bdp_trlrn","Sun Mar 12 2023 22:21:38 GMT-0500 (Central Daylight Time)","744178","Trustworthy,Untrustworthy","","1577","","","","rating","","trustrating_stim/white_mw053.bmp","2","","","","","","","","","","",""
"image-keyboard-response","98","197044","0.0-6.0-2.46","6361769fee0c219b0f1cc480","bdp_trlrn","Sun Mar 12 2023 22:21:38 GMT-0500 (Central Daylight Time)","744178","Trustworthy,Untrustworthy","","null","","","","ratingFB","","trustrating_stim/white_mw053.bmp","null","","","","","","","","","","",""
"image-keyboard-response","99","199463","0.0-6.0-1.47","6361769fee0c219b0f1cc480","bdp_trlrn","Sun Mar 12 2023 22:21:38 GMT-0500 (Central Daylight Time)","744178","Trustworthy,Untrustworthy","","2300","","","","rating","","trustrating_stim/white_00299_940422_fa_edt.bmp","4","","","","","","","","","","",""
"image-keyboard-response","100","199676","0.0-6.0-2.47","6361769fee0c219b0f1cc480","bdp_trlrn","Sun Mar 12 2023 22:21:38 GMT-0500 (Central Daylight Time)","744178","Trustworthy,Untrustworthy","","null","","","","ratingFB","","trustrating_stim/white_00299_940422_fa_edt.bmp","null","","","","","","","","","","",""
"image-keyboard-response","101","202709","0.0-6.0-1.48","6361769fee0c219b0f1cc480","bdp_trlrn","Sun Mar 12 2023 22:21:38 GMT-0500 (Central Daylight Time)","744178","Trustworthy,Untrustworthy","","2916","","","","rating","","trustrating_stim/white_mw089.bmp","4","","","","","","","","","","",""
"image-keyboard-response","102","202924","0.0-6.0-2.48","6361769fee0c219b0f1cc480","bdp_trlrn","Sun Mar 12 2023 22:21:38 GMT-0500 (Central Daylight Time)","744178","Trustworthy,Untrustworthy","","null","","","","ratingFB","","trustrating_stim/white_mw089.bmp","null","","","","","","","","","","",""
"image-keyboard-response","103","204221","0.0-6.0-1.49","6361769fee0c219b0f1cc480","bdp_trlrn","Sun Mar 12 2023 22:21:38 GMT-0500 (Central Daylight Time)","744178","Trustworthy,Untrustworthy","","1191","","","","rating","","trustrating_stim/white_mw084.bmp","2","","","","","","","","","","",""
"image-keyboard-response","104","204437","0.0-6.0-2.49","6361769fee0c219b0f1cc480","bdp_trlrn","Sun Mar 12 2023 22:21:38 GMT-0500 (Central Daylight Time)","744178","Trustworthy,Untrustworthy","","null","","","","ratingFB","","trustrating_stim/white_mw084.bmp","null","","","","","","","","","","",""
"image-keyboard-response","105","205893","0.0-6.0-1.50","6361769fee0c219b0f1cc480","bdp_trlrn","Sun Mar 12 2023 22:21:38 GMT-0500 (Central Daylight Time)","744178","Trustworthy,Untrustworthy","","1347","","","","rating","","trustrating_stim/white_mw049.bmp","3","","","","","","","","","","",""
"image-keyboard-response","106","206095","0.0-6.0-2.50","6361769fee0c219b0f1cc480","bdp_trlrn","Sun Mar 12 2023 22:21:38 GMT-0500 (Central Daylight Time)","744178","Trustworthy,Untrustworthy","","null","","","","ratingFB","","trustrating_stim/white_mw049.bmp","null","","","","","","","","","","",""
"image-keyboard-response","107","207849","0.0-6.0-1.51","6361769fee0c219b0f1cc480","bdp_trlrn","Sun Mar 12 2023 22:21:38 GMT-0500 (Central Daylight Time)","744178","Trustworthy,Untrustworthy","","1638","","","","rating","","trustrating_stim/white_mw099.bmp","3","","","","","","","","","","",""
"image-keyboard-response","108","208057","0.0-6.0-2.51","6361769fee0c219b0f1cc480","bdp_trlrn","Sun Mar 12 2023 22:21:38 GMT-0500 (Central Daylight Time)","744178","Trustworthy,Untrustworthy","","null","","","","ratingFB","","trustrating_stim/white_mw099.bmp","null","","","","","","","","","","",""
"image-keyboard-response","109","210830","0.0-6.0-1.52","6361769fee0c219b0f1cc480","bdp_trlrn","Sun Mar 12 2023 22:21:38 GMT-0500 (Central Daylight Time)","744178","Trustworthy,Untrustworthy","","2668","","","","rating","","trustrating_stim/white_mw048.bmp","3","","","","","","","","","","",""
"image-keyboard-response","110","211040","0.0-6.0-2.52","6361769fee0c219b0f1cc480","bdp_trlrn","Sun Mar 12 2023 22:21:38 GMT-0500 (Central Daylight Time)","744178","Trustworthy,Untrustworthy","","null","","","","ratingFB","","trustrating_stim/white_mw048.bmp","null","","","","","","","","","","",""
"image-keyboard-response","111","214836","0.0-6.0-1.53","6361769fee0c219b0f1cc480","bdp_trlrn","Sun Mar 12 2023 22:21:38 GMT-0500 (Central Daylight Time)","744178","Trustworthy,Untrustworthy","","3690","","","","rating","","trustrating_stim/white_00807_941205_fb_edt.bmp","4","","","","","","","","","","",""
"image-keyboard-response","112","215039","0.0-6.0-2.53","6361769fee0c219b0f1cc480","bdp_trlrn","Sun Mar 12 2023 22:21:38 GMT-0500 (Central Daylight Time)","744178","Trustworthy,Untrustworthy","","null","","","","ratingFB","","trustrating_stim/white_00807_941205_fb_edt.bmp","null","","","","","","","","","","",""
"image-keyboard-response","113","216114","0.0-6.0-1.54","6361769fee0c219b0f1cc480","bdp_trlrn","Sun Mar 12 2023 22:21:38 GMT-0500 (Central Daylight Time)","744178","Trustworthy,Untrustworthy","","968","","","","rating","","trustrating_stim/white_mw063.bmp","1","","","","","","","","","","",""
"image-keyboard-response","114","216324","0.0-6.0-2.54","6361769fee0c219b0f1cc480","bdp_trlrn","Sun Mar 12 2023 22:21:38 GMT-0500 (Central Daylight Time)","744178","Trustworthy,Untrustworthy","","null","","","","ratingFB","","trustrating_stim/white_mw063.bmp","null","","","","","","","","","","",""
"image-keyboard-response","115","218095","0.0-6.0-1.55","6361769fee0c219b0f1cc480","bdp_trlrn","Sun Mar 12 2023 22:21:38 GMT-0500 (Central Daylight Time)","744178","Trustworthy,Untrustworthy","","1667","","","","rating","","trustrating_stim/white_00340_940422_fa_edt.bmp","2","","","","","","","","","","",""
"image-keyboard-response","116","218307","0.0-6.0-2.55","6361769fee0c219b0f1cc480","bdp_trlrn","Sun Mar 12 2023 22:21:38 GMT-0500 (Central Daylight Time)","744178","Trustworthy,Untrustworthy","","null","","","","ratingFB","","trustrating_stim/white_00340_940422_fa_edt.bmp","null","","","","","","","","","","",""
"image-keyboard-response","117","219676","0.0-6.0-1.56","6361769fee0c219b0f1cc480","bdp_trlrn","Sun Mar 12 2023 22:21:38 GMT-0500 (Central Daylight Time)","744178","Trustworthy,Untrustworthy","","1265","","","","rating","","trustrating_stim/white_mw046.bmp","2","","","","","","","","","","",""
"image-keyboard-response","118","219889","0.0-6.0-2.56","6361769fee0c219b0f1cc480","bdp_trlrn","Sun Mar 12 2023 22:21:38 GMT-0500 (Central Daylight Time)","744178","Trustworthy,Untrustworthy","","null","","","","ratingFB","","trustrating_stim/white_mw046.bmp","null","","","","","","","","","","",""
"image-keyboard-response","119","220854","0.0-6.0-1.57","6361769fee0c219b0f1cc480","bdp_trlrn","Sun Mar 12 2023 22:21:38 GMT-0500 (Central Daylight Time)","744178","Trustworthy,Untrustworthy","","860","","","","rating","","trustrating_stim/white_mw066.bmp","2","","","","","","","","","","",""
"image-keyboard-response","120","221061","0.0-6.0-2.57","6361769fee0c219b0f1cc480","bdp_trlrn","Sun Mar 12 2023 22:21:38 GMT-0500 (Central Daylight Time)","744178","Trustworthy,Untrustworthy","","null","","","","ratingFB","","trustrating_stim/white_mw066.bmp","null","","","","","","","","","","",""
"image-keyboard-response","121","224742","0.0-6.0-1.58","6361769fee0c219b0f1cc480","bdp_trlrn","Sun Mar 12 2023 22:21:38 GMT-0500 (Central Daylight Time)","744178","Trustworthy,Untrustworthy","","3578","","","","rating","","trustrating_stim/white_mw035.bmp","3","","","","","","","","","","",""
"image-keyboard-response","122","224945","0.0-6.0-2.58","6361769fee0c219b0f1cc480","bdp_trlrn","Sun Mar 12 2023 22:21:38 GMT-0500 (Central Daylight Time)","744178","Trustworthy,Untrustworthy","","null","","","","ratingFB","","trustrating_stim/white_mw035.bmp","null","","","","","","","","","","",""
"image-keyboard-response","123","226808","0.0-6.0-1.59","6361769fee0c219b0f1cc480","bdp_trlrn","Sun Mar 12 2023 22:21:38 GMT-0500 (Central Daylight Time)","744178","Trustworthy,Untrustworthy","","1746","","","","rating","","trustrating_stim/white_00761_941201_fb_edt.bmp","4","","","","","","","","","","",""
"image-keyboard-response","124","227011","0.0-6.0-2.59","6361769fee0c219b0f1cc480","bdp_trlrn","Sun Mar 12 2023 22:21:38 GMT-0500 (Central Daylight Time)","744178","Trustworthy,Untrustworthy","","null","","","","ratingFB","","trustrating_stim/white_00761_941201_fb_edt.bmp","null","","","","","","","","","","",""
"instructions","125","229009","0.0-7.0","6361769fee0c219b0f1cc480","bdp_trlrn","Sun Mar 12 2023 22:21:38 GMT-0500 (Central Daylight Time)","744178","Trustworthy,Untrustworthy","[{""page_index"":0,""viewing_time"":1881}]","1881","","","","","","","","","","","","","","","","","",""
"instructions","126","377518","0.0-8.0","6361769fee0c219b0f1cc480","bdp_trlrn","Sun Mar 12 2023 22:21:38 GMT-0500 (Central Daylight Time)","744178","Trustworthy,Untrustworthy","[{""page_index"":0,""viewing_time"":30901},{""page_index"":1,""viewing_time"":16519},{""page_index"":2,""viewing_time"":17513},{""page_index"":3,""viewing_time"":22810},{""page_index"":4,""viewing_time"":10554},{""page_index"":5,""viewing_time"":17676},{""page_index"":6,""viewing_time"":17945},{""page_index"":7,""viewing_time"":14488}]","148406","","","","","","","","","","","","","","","","","",""
"html-keyboard-response","127","384999","0.0-9.0","6361769fee0c219b0f1cc480","bdp_trlrn","Sun Mar 12 2023 22:21:38 GMT-0500 (Central Daylight Time)","744178","Trustworthy,Untrustworthy","","7479","","","","","","<div class='header' style='text-align:left; position: absolute; top: 5%; left: 5%;'><small>Task 2 of 5</small></div><div class='instruxDiv'><p><strong>1) What is the minimum number of points you can choose to send to your partner?</strong></p><p>a) 0</p><p>b) 1</p><p>c) 5</p>","A","","","","","","","","","","",""
"html-keyboard-response","128","389375","0.0-10.0","6361769fee0c219b0f1cc480","bdp_trlrn","Sun Mar 12 2023 22:21:38 GMT-0500 (Central Daylight Time)","744178","Trustworthy,Untrustworthy","","4273","","","","","","<div class='header' style='text-align:left; position: absolute; top: 5%; left: 5%;'><small>Task 2 of 5</small></div><div class='instruxDiv'><p><strong>1) What is the minimum number of points you can choose to send to your partner?</strong></p><p style='color:#FF0000'>a) 0</p><p>b) 1</p><p>c) 5</p><h3 style='color:#FF0000'>Incorrect!</h3><h3 class='center-content'>The correct response is b).</h3><h3 class='center-content'>The minimum number of points you can choose to send to your partner is 1 point.</h3><p><em>Press SPACEBAR to continue</em></p></div>"," ","","","","","","","","","","",""
"html-keyboard-response","129","391497","0.0-11.0","6361769fee0c219b0f1cc480","bdp_trlrn","Sun Mar 12 2023 22:21:38 GMT-0500 (Central Daylight Time)","744178","Trustworthy,Untrustworthy","","2017","","","","","","<div class='header' style='text-align:left; position: absolute; top: 5%; left: 5%;'><small>Task 2 of 5</small></div><div class='instruxDiv'><p><strong>2) What is the maximum number of points you can choose to send to your partner?</strong></p><p>a) 8</p><p>b) 5</p><p>c) 3</p>","B","","","","","","","","","","",""
"html-keyboard-response","130","395988","0.0-12.0","6361769fee0c219b0f1cc480","bdp_trlrn","Sun Mar 12 2023 22:21:38 GMT-0500 (Central Daylight Time)","744178","Trustworthy,Untrustworthy","","4376","","","","","","<div class='header' style='text-align:left; position: absolute; top: 5%; left: 5%;'><small>Task 2 of 5</small></div><div class='instruxDiv'><p><strong>2) What is the maximum number of points you can choose to send to your partner?</strong></p><p>a) 8</p><p style='color:#00FF00'>b) 5</p><p>c) 3</p><h3 style='color:#00FF00'>Correct!</h3><h3 class='center-content'>The correct response is b).</h3><h3 class='center-content'>The maximum number of points you can choose to send to your partner is 5 points.</h3><p><em>Press SPACEBAR to continue</em></p></div>"," ","","","","","","","","","","",""
"html-keyboard-response","131","398918","0.0-13.0","6361769fee0c219b0f1cc480","bdp_trlrn","Sun Mar 12 2023 22:21:38 GMT-0500 (Central Daylight Time)","744178","Trustworthy,Untrustworthy","","2821","","","","","","<div class='header' style='text-align:left; position: absolute; top: 5%; left: 5%;'><small>Task 2 of 5</small></div><div class='instruxDiv'><p><strong>3) What happens to the amount of points you send to your partner?</strong></p><p>a) Nothing</p><p>b) It doubles</p><p>c) It quadruples</p>","C","","","","","","","","","","",""
"html-keyboard-response","132","400075","0.0-14.0","6361769fee0c219b0f1cc480","bdp_trlrn","Sun Mar 12 2023 22:21:38 GMT-0500 (Central Daylight Time)","744178","Trustworthy,Untrustworthy","","1046","","","","","","<div class='header' style='text-align:left; position: absolute; top: 5%; left: 5%;'><small>Task 2 of 5</small></div><div class='instruxDiv'><p><strong>3) What happens to the amount of points you send to your partner?</strong></p><p>a) Nothing</p><p>b) It doubles</p><p style='color:#00FF00'>c) It quadruples</p><h3 style='color:#00FF00'>Correct!</h3><h3 class='center-content'>The correct response is c).</h3><h3 class='center-content'>The amount of points you send to your partner quadruples.</h3><p><em>Press SPACEBAR to continue</em></p></div>"," ","","","","","","","","","","",""
"html-keyboard-response","133","406306","0.0-15.0","6361769fee0c219b0f1cc480","bdp_trlrn","Sun Mar 12 2023 22:21:38 GMT-0500 (Central Daylight Time)","744178","Trustworthy,Untrustworthy","","6126","","","","","","<div class='header' style='text-align:left; position: absolute; top: 5%; left: 5%;'><small>Task 2 of 5</small></div><div class='instruxDiv'><p><strong>4) If you decided to share 4 out of 5 points with your partner, and they decided to share half of the amount they received with you, how many points would you receive back from them on this round?</strong></p><p>a) 16</p><p>b) 0</p><p>c) 8</p>","C","","","","","","","","","","",""
"html-keyboard-response","134","408072","0.0-16.0","6361769fee0c219b0f1cc480","bdp_trlrn","Sun Mar 12 2023 22:21:38 GMT-0500 (Central Daylight Time)","744178","Trustworthy,Untrustworthy","","1657","","","","","","<div class='header' style='text-align:left; position: absolute; top: 5%; left: 5%;'><small>Task 2 of 5</small></div><div class='instruxDiv'><p><strong>4) If you decided to share 4 out of 5 points with your partner, and they decided to share half of the amount they received with you, how many points would you receive back from them on this round?</strong></p><p>a) 16</p><p>b) 0</p><p style='color:#00FF00'>c) 8</p><h3 style='color:#00FF00'>Correct!</h3><h3 class='center-content'>The correct response is c).</h3><h3 class='center-content'>If you shared 4 out of 5 points with your partner and they decided to share half of the amount they received with you, you would receive 8 points back (i.e. (4 x 4)/2 = 8).</h3><p><em>Press SPACEBAR to continue</em></p></div>"," ","","","","","","","","","","",""
"html-keyboard-response","135","413195","0.0-17.0","6361769fee0c219b0f1cc480","bdp_trlrn","Sun Mar 12 2023 22:21:38 GMT-0500 (Central Daylight Time)","744178","Trustworthy,Untrustworthy","","null","","","","","","<div class='header' style='text-align:left; position: absolute; top: 5%; left: 5%;'><small>Task 2 of 5</small></div><div class='instruxDiv'><p>Thank you for completing the quiz<p>These are the actual partners you will be interacting with in the next block:<p><div class='tc' align='center'><img class='introPic' src='trustrating_stim/white_00659_941121_fa_edt.bmp'><br><strong>Matthew</strong></div><div class='bl' align='center'><img class='introPic' src='trustrating_stim/white_mw099.bmp'><br><strong>Brian</strong></div><div class='br' align='center'><img class='introPic' src='trustrating_stim/white_00109_931230_fa_edt.bmp'><br><strong>Daniel</strong></div></div><p>Across <strong>66 rounds</strong> you will interact with each partner <strong>22 times</strong> (in random order).<p style='align:center; color:white'><font <em>Press SPACEBAR to continue</em></p>","null","","","","","","","","","","",""
"instructions","136","420900","0.0-18.0","6361769fee0c219b0f1cc480","bdp_trlrn","Sun Mar 12 2023 22:21:38 GMT-0500 (Central Daylight Time)","744178","Trustworthy,Untrustworthy","[{""page_index"":0,""viewing_time"":4880},{""page_index"":1,""viewing_time"":2824}]","7704","","","","","","","","","","","","","","","","","",""
"html-keyboard-response","137","423629","0.0-19.0-1.0","6361769fee0c219b0f1cc480","bdp_trlrn","Sun Mar 12 2023 22:21:38 GMT-0500 (Central Daylight Time)","744178","Trustworthy,Untrustworthy","","2617","","","","decision","","<div class='trialDiv'><img src='trustrating_stim/white_00109_931230_fa_edt.bmp'><br><font class='baseline'><strong>Daniel</strong><p>Choose number of points to send.</font><div class='respPicDiv'><img src='img/responseButtonOffersNo0L.png' class='respPic'></div></div>","1","1","Daniel","9","Kept","0.2,0.65","9","0.2","trustrating_stim/white_00109_931230_fa_edt.bmp","5","5","1"
"html-keyboard-response","138","423894","0.0-19.0-2.0","6361769fee0c219b0f1cc480","bdp_trlrn","Sun Mar 12 2023 22:21:38 GMT-0500 (Central Daylight Time)","744178","Trustworthy,Untrustworthy","","null","","","","decisionFB","","<div class='trialDiv'><img src='trustrating_stim/white_00109_931230_fa_edt.bmp'><br><font class='baseline'><strong>Daniel</strong><p>Choose number of points to send.</font><div class='respPicDiv'><img src='img/responseButtonOffersNo0L1.png' class='respPic'></div></div>","null","1","Daniel","9","Kept","0.2,0.65","9","0.2","trustrating_stim/white_00109_931230_fa_edt.bmp","5","4","1"
"html-keyboard-response","139","424911","0.0-19.0-3.0","6361769fee0c219b0f1cc480","bdp_trlrn","Sun Mar 12 2023 22:21:38 GMT-0500 (Central Daylight Time)","744178","Trustworthy,Untrustworthy","","null","","","","feedback","","<div class='trialDiv'><img src='trustrating_stim/white_00109_931230_fa_edt.bmp'><br><font class='baseline'><strong>Daniel</strong><p>Received: <strong>4</strong></font> &nbsp; &nbsp; &nbsp; &nbsp; &nbsp; &nbsp;<font class='negOutcome'>Shared back: <strong>0</strong></font></font><div class='respPicDiv'><img src='img/responseButtonOffersNo0_wht.png' class='respPic'></div></div>","null","1","Daniel","9","Kept","0.2,0.65","9","0.2","trustrating_stim/white_00109_931230_fa_edt.bmp","5","4","1"
"html-keyboard-response","140","427077","0.0-19.0-1.1","6361769fee0c219b0f1cc480","bdp_trlrn","Sun Mar 12 2023 22:21:38 GMT-0500 (Central Daylight Time)","744178","Trustworthy,Untrustworthy","","2163","","","","decision","","<div class='trialDiv'><img src='trustrating_stim/white_mw099.bmp'><br><font class='baseline'><strong>Brian</strong><p>Choose number of points to send.</font><div class='respPicDiv'><img src='img/responseButtonOffersNo0L.png' class='respPic'></div></div>","1","1","Brian","7","Kept","0.65,0.2","12","0.65","trustrating_stim/white_mw099.bmp","3","9","2"
"html-keyboard-response","141","427338","0.0-19.0-2.1","6361769fee0c219b0f1cc480","bdp_trlrn","Sun Mar 12 2023 22:21:38 GMT-0500 (Central Daylight Time)","744178","Trustworthy,Untrustworthy","","null","","","","decisionFB","","<div class='trialDiv'><img src='trustrating_stim/white_mw099.bmp'><br><font class='baseline'><strong>Brian</strong><p>Choose number of points to send.</font><div class='respPicDiv'><img src='img/responseButtonOffersNo0L1.png' class='respPic'></div></div>","null","1","Brian","7","Kept","0.65,0.2","12","0.65","trustrating_stim/white_mw099.bmp","3","8","2"
"html-keyboard-response","142","428357","0.0-19.0-3.1","6361769fee0c219b0f1cc480","bdp_trlrn","Sun Mar 12 2023 22:21:38 GMT-0500 (Central Daylight Time)","744178","Trustworthy,Untrustworthy","","null","","","","feedback","","<div class='trialDiv'><img src='trustrating_stim/white_mw099.bmp'><br><font class='baseline'><strong>Brian</strong><p>Received: <strong>4</strong></font> &nbsp; &nbsp; &nbsp; &nbsp; &nbsp; &nbsp;<font class='negOutcome'>Shared back: <strong>0</strong></font></font><div class='respPicDiv'><img src='img/responseButtonOffersNo0_wht.png' class='respPic'></div></div>","null","1","Brian","7","Kept","0.65,0.2","12","0.65","trustrating_stim/white_mw099.bmp","3","8","2"
"html-keyboard-response","143","431163","0.0-19.0-1.2","6361769fee0c219b0f1cc480","bdp_trlrn","Sun Mar 12 2023 22:21:38 GMT-0500 (Central Daylight Time)","744178","Trustworthy,Untrustworthy","","2805","","","","decision","","<div class='trialDiv'><img src='trustrating_stim/white_00659_941121_fa_edt.bmp'><br><font class='baseline'><strong>Matthew</strong><p>Choose number of points to send.</font><div class='respPicDiv'><img src='img/responseButtonOffersNo0L.png' class='respPic'></div></div>","1","1","Matthew","3","Kept","0.35,0.65","11","0.35","trustrating_stim/white_00659_941121_fa_edt.bmp","1.5","13","3"
"html-keyboard-response","144","431424","0.0-19.0-2.2","6361769fee0c219b0f1cc480","bdp_trlrn","Sun Mar 12 2023 22:21:38 GMT-0500 (Central Daylight Time)","744178","Trustworthy,Untrustworthy","","null","","","","decisionFB","","<div class='trialDiv'><img src='trustrating_stim/white_00659_941121_fa_edt.bmp'><br><font class='baseline'><strong>Matthew</strong><p>Choose number of points to send.</font><div class='respPicDiv'><img src='img/responseButtonOffersNo0L1.png' class='respPic'></div></div>","null","1","Matthew","3","Kept","0.35,0.65","11","0.35","trustrating_stim/white_00659_941121_fa_edt.bmp","1.5","12","3"
"html-keyboard-response","145","432428","0.0-19.0-3.2","6361769fee0c219b0f1cc480","bdp_trlrn","Sun Mar 12 2023 22:21:38 GMT-0500 (Central Daylight Time)","744178","Trustworthy,Untrustworthy","","null","","","","feedback","","<div class='trialDiv'><img src='trustrating_stim/white_00659_941121_fa_edt.bmp'><br><font class='baseline'><strong>Matthew</strong><p>Received: <strong>4</strong></font> &nbsp; &nbsp; &nbsp; &nbsp; &nbsp; &nbsp;<font class='negOutcome'>Shared back: <strong>0</strong></font></font><div class='respPicDiv'><img src='img/responseButtonOffersNo0_wht.png' class='respPic'></div></div>","null","1","Matthew","3","Kept","0.35,0.65","11","0.35","trustrating_stim/white_00659_941121_fa_edt.bmp","1.5","12","3"
"html-keyboard-response","146","434631","0.0-19.0-1.3","6361769fee0c219b0f1cc480","bdp_trlrn","Sun Mar 12 2023 22:21:38 GMT-0500 (Central Daylight Time)","744178","Trustworthy,Untrustworthy","","2200","","","","decision","","<div class='trialDiv'><img src='trustrating_stim/white_mw099.bmp'><br><font class='baseline'><strong>Brian</strong><p>Choose number of points to send.</font><div class='respPicDiv'><img src='img/responseButtonOffersNo0L.png' class='respPic'></div></div>","1","2","Brian","7","Kept","0.65,0.2","12","0.65","trustrating_stim/white_mw099.bmp","3","17","4"
"html-keyboard-response","147","434893","0.0-19.0-2.3","6361769fee0c219b0f1cc480","bdp_trlrn","Sun Mar 12 2023 22:21:38 GMT-0500 (Central Daylight Time)","744178","Trustworthy,Untrustworthy","","null","","","","decisionFB","","<div class='trialDiv'><img src='trustrating_stim/white_mw099.bmp'><br><font class='baseline'><strong>Brian</strong><p>Choose number of points to send.</font><div class='respPicDiv'><img src='img/responseButtonOffersNo0L1.png' class='respPic'></div></div>","null","2","Brian","7","Kept","0.65,0.2","12","0.65","trustrating_stim/white_mw099.bmp","3","16","4"
"html-keyboard-response","148","435908","0.0-19.0-3.3","6361769fee0c219b0f1cc480","bdp_trlrn","Sun Mar 12 2023 22:21:38 GMT-0500 (Central Daylight Time)","744178","Trustworthy,Untrustworthy","","null","","","","feedback","","<div class='trialDiv'><img src='trustrating_stim/white_mw099.bmp'><br><font class='baseline'><strong>Brian</strong><p>Received: <strong>4</strong></font> &nbsp; &nbsp; &nbsp; &nbsp; &nbsp; &nbsp;<font class='negOutcome'>Shared back: <strong>0</strong></font></font><div class='respPicDiv'><img src='img/responseButtonOffersNo0_wht.png' class='respPic'></div></div>","null","2","Brian","7","Kept","0.65,0.2","12","0.65","trustrating_stim/white_mw099.bmp","3","16","4"
"html-keyboard-response","149","437270","0.0-19.0-1.4","6361769fee0c219b0f1cc480","bdp_trlrn","Sun Mar 12 2023 22:21:38 GMT-0500 (Central Daylight Time)","744178","Trustworthy,Untrustworthy","","1361","","","","decision","","<div class='trialDiv'><img src='trustrating_stim/white_00659_941121_fa_edt.bmp'><br><font class='baseline'><strong>Matthew</strong><p>Choose number of points to send.</font><div class='respPicDiv'><img src='img/responseButtonOffersNo0L.png' class='respPic'></div></div>","1","2","Matthew","3","Shared","0.35,0.65","11","0.35","trustrating_stim/white_00659_941121_fa_edt.bmp","1.5","21","5"
"html-keyboard-response","150","437538","0.0-19.0-2.4","6361769fee0c219b0f1cc480","bdp_trlrn","Sun Mar 12 2023 22:21:38 GMT-0500 (Central Daylight Time)","744178","Trustworthy,Untrustworthy","","null","","","","decisionFB","","<div class='trialDiv'><img src='trustrating_stim/white_00659_941121_fa_edt.bmp'><br><font class='baseline'><strong>Matthew</strong><p>Choose number of points to send.</font><div class='respPicDiv'><img src='img/responseButtonOffersNo0L1.png' class='respPic'></div></div>","null","2","Matthew","3","Shared","0.35,0.65","11","0.35","trustrating_stim/white_00659_941121_fa_edt.bmp","1.5","20","5"
"html-keyboard-response","151","438541","0.0-19.0-3.4","6361769fee0c219b0f1cc480","bdp_trlrn","Sun Mar 12 2023 22:21:38 GMT-0500 (Central Daylight Time)","744178","Trustworthy,Untrustworthy","","null","","","","feedback","","<div class='trialDiv'><img src='trustrating_stim/white_00659_941121_fa_edt.bmp'><br><font class='baseline'><strong>Matthew</strong><p>Received: <strong>4</strong></font> &nbsp; &nbsp; &nbsp; &nbsp; &nbsp; &nbsp;<font class='posOutcome'>Shared back: <strong>2</strong></font></font><div class='respPicDiv'><img src='img/responseButtonOffersNo0_wht.png' class='respPic'></div></div>","null","2","Matthew","3","Shared","0.35,0.65","11","0.35","trustrating_stim/white_00659_941121_fa_edt.bmp","1.5","22","5"
"html-keyboard-response","152","439653","0.0-19.0-1.5","6361769fee0c219b0f1cc480","bdp_trlrn","Sun Mar 12 2023 22:21:38 GMT-0500 (Central Daylight Time)","744178","Trustworthy,Untrustworthy","","1111","","","","decision","","<div class='trialDiv'><img src='trustrating_stim/white_00109_931230_fa_edt.bmp'><br><font class='baseline'><strong>Daniel</strong><p>Choose number of points to send.</font><div class='respPicDiv'><img src='img/responseButtonOffersNo0L.png' class='respPic'></div></div>","1","2","Daniel","9","Kept","0.2,0.65","9","0.2","trustrating_stim/white_00109_931230_fa_edt.bmp","5","27","6"
"html-keyboard-response","153","439906","0.0-19.0-2.5","6361769fee0c219b0f1cc480","bdp_trlrn","Sun Mar 12 2023 22:21:38 GMT-0500 (Central Daylight Time)","744178","Trustworthy,Untrustworthy","","null","","","","decisionFB","","<div class='trialDiv'><img src='trustrating_stim/white_00109_931230_fa_edt.bmp'><br><font class='baseline'><strong>Daniel</strong><p>Choose number of points to send.</font><div class='respPicDiv'><img src='img/responseButtonOffersNo0L1.png' class='respPic'></div></div>","null","2","Daniel","9","Kept","0.2,0.65","9","0.2","trustrating_stim/white_00109_931230_fa_edt.bmp","5","26","6"
"html-keyboard-response","154","440923","0.0-19.0-3.5","6361769fee0c219b0f1cc480","bdp_trlrn","Sun Mar 12 2023 22:21:38 GMT-0500 (Central Daylight Time)","744178","Trustworthy,Untrustworthy","","null","","","","feedback","","<div class='trialDiv'><img src='trustrating_stim/white_00109_931230_fa_edt.bmp'><br><font class='baseline'><strong>Daniel</strong><p>Received: <strong>4</strong></font> &nbsp; &nbsp; &nbsp; &nbsp; &nbsp; &nbsp;<font class='negOutcome'>Shared back: <strong>0</strong></font></font><div class='respPicDiv'><img src='img/responseButtonOffersNo0_wht.png' class='respPic'></div></div>","null","2","Daniel","9","Kept","0.2,0.65","9","0.2","trustrating_stim/white_00109_931230_fa_edt.bmp","5","26","6"
"html-keyboard-response","155","442112","0.0-19.0-1.6","6361769fee0c219b0f1cc480","bdp_trlrn","Sun Mar 12 2023 22:21:38 GMT-0500 (Central Daylight Time)","744178","Trustworthy,Untrustworthy","","1186","","","","decision","","<div class='trialDiv'><img src='trustrating_stim/white_mw099.bmp'><br><font class='baseline'><strong>Brian</strong><p>Choose number of points to send.</font><div class='respPicDiv'><img src='img/responseButtonOffersNo0L.png' class='respPic'></div></div>","1","3","Brian","7","Kept","0.65,0.2","12","0.65","trustrating_stim/white_mw099.bmp","3","31","7"
"html-keyboard-response","156","442376","0.0-19.0-2.6","6361769fee0c219b0f1cc480","bdp_trlrn","Sun Mar 12 2023 22:21:38 GMT-0500 (Central Daylight Time)","744178","Trustworthy,Untrustworthy","","null","","","","decisionFB","","<div class='trialDiv'><img src='trustrating_stim/white_mw099.bmp'><br><font class='baseline'><strong>Brian</strong><p>Choose number of points to send.</font><div class='respPicDiv'><img src='img/responseButtonOffersNo0L1.png' class='respPic'></div></div>","null","3","Brian","7","Kept","0.65,0.2","12","0.65","trustrating_stim/white_mw099.bmp","3","30","7"
"html-keyboard-response","157","443389","0.0-19.0-3.6","6361769fee0c219b0f1cc480","bdp_trlrn","Sun Mar 12 2023 22:21:38 GMT-0500 (Central Daylight Time)","744178","Trustworthy,Untrustworthy","","null","","","","feedback","","<div class='trialDiv'><img src='trustrating_stim/white_mw099.bmp'><br><font class='baseline'><strong>Brian</strong><p>Received: <strong>4</strong></font> &nbsp; &nbsp; &nbsp; &nbsp; &nbsp; &nbsp;<font class='negOutcome'>Shared back: <strong>0</strong></font></font><div class='respPicDiv'><img src='img/responseButtonOffersNo0_wht.png' class='respPic'></div></div>","null","3","Brian","7","Kept","0.65,0.2","12","0.65","trustrating_stim/white_mw099.bmp","3","30","7"
"html-keyboard-response","158","443959","0.0-19.0-1.7","6361769fee0c219b0f1cc480","bdp_trlrn","Sun Mar 12 2023 22:21:38 GMT-0500 (Central Daylight Time)","744178","Trustworthy,Untrustworthy","","569","","","","decision","","<div class='trialDiv'><img src='trustrating_stim/white_00109_931230_fa_edt.bmp'><br><font class='baseline'><strong>Daniel</strong><p>Choose number of points to send.</font><div class='respPicDiv'><img src='img/responseButtonOffersNo0L.png' class='respPic'></div></div>","1","3","Daniel","9","Kept","0.2,0.65","9","0.2","trustrating_stim/white_00109_931230_fa_edt.bmp","5","35","8"
"html-keyboard-response","159","444226","0.0-19.0-2.7","6361769fee0c219b0f1cc480","bdp_trlrn","Sun Mar 12 2023 22:21:38 GMT-0500 (Central Daylight Time)","744178","Trustworthy,Untrustworthy","","null","","","","decisionFB","","<div class='trialDiv'><img src='trustrating_stim/white_00109_931230_fa_edt.bmp'><br><font class='baseline'><strong>Daniel</strong><p>Choose number of points to send.</font><div class='respPicDiv'><img src='img/responseButtonOffersNo0L1.png' class='respPic'></div></div>","null","3","Daniel","9","Kept","0.2,0.65","9","0.2","trustrating_stim/white_00109_931230_fa_edt.bmp","5","34","8"
"html-keyboard-response","160","445242","0.0-19.0-3.7","6361769fee0c219b0f1cc480","bdp_trlrn","Sun Mar 12 2023 22:21:38 GMT-0500 (Central Daylight Time)","744178","Trustworthy,Untrustworthy","","null","","","","feedback","","<div class='trialDiv'><img src='trustrating_stim/white_00109_931230_fa_edt.bmp'><br><font class='baseline'><strong>Daniel</strong><p>Received: <strong>4</strong></font> &nbsp; &nbsp; &nbsp; &nbsp; &nbsp; &nbsp;<font class='negOutcome'>Shared back: <strong>0</strong></font></font><div class='respPicDiv'><img src='img/responseButtonOffersNo0_wht.png' class='respPic'></div></div>","null","3","Daniel","9","Kept","0.2,0.65","9","0.2","trustrating_stim/white_00109_931230_fa_edt.bmp","5","34","8"
"html-keyboard-response","161","445784","0.0-19.0-1.8","6361769fee0c219b0f1cc480","bdp_trlrn","Sun Mar 12 2023 22:21:38 GMT-0500 (Central Daylight Time)","744178","Trustworthy,Untrustworthy","","541","","","","decision","","<div class='trialDiv'><img src='trustrating_stim/white_00659_941121_fa_edt.bmp'><br><font class='baseline'><strong>Matthew</strong><p>Choose number of points to send.</font><div class='respPicDiv'><img src='img/responseButtonOffersNo0L.png' class='respPic'></div></div>","1","3","Matthew","3","Shared","0.35,0.65","11","0.35","trustrating_stim/white_00659_941121_fa_edt.bmp","1.5","39","9"
"html-keyboard-response","162","446040","0.0-19.0-2.8","6361769fee0c219b0f1cc480","bdp_trlrn","Sun Mar 12 2023 22:21:38 GMT-0500 (Central Daylight Time)","744178","Trustworthy,Untrustworthy","","null","","","","decisionFB","","<div class='trialDiv'><img src='trustrating_stim/white_00659_941121_fa_edt.bmp'><br><font class='baseline'><strong>Matthew</strong><p>Choose number of points to send.</font><div class='respPicDiv'><img src='img/responseButtonOffersNo0L1.png' class='respPic'></div></div>","null","3","Matthew","3","Shared","0.35,0.65","11","0.35","trustrating_stim/white_00659_941121_fa_edt.bmp","1.5","38","9"
"html-keyboard-response","163","447042","0.0-19.0-3.8","6361769fee0c219b0f1cc480","bdp_trlrn","Sun Mar 12 2023 22:21:38 GMT-0500 (Central Daylight Time)","744178","Trustworthy,Untrustworthy","","null","","","","feedback","","<div class='trialDiv'><img src='trustrating_stim/white_00659_941121_fa_edt.bmp'><br><font class='baseline'><strong>Matthew</strong><p>Received: <strong>4</strong></font> &nbsp; &nbsp; &nbsp; &nbsp; &nbsp; &nbsp;<font class='posOutcome'>Shared back: <strong>2</strong></font></font><div class='respPicDiv'><img src='img/responseButtonOffersNo0_wht.png' class='respPic'></div></div>","null","3","Matthew","3","Shared","0.35,0.65","11","0.35","trustrating_stim/white_00659_941121_fa_edt.bmp","1.5","40","9"
"html-keyboard-response","164","447658","0.0-19.0-1.9","6361769fee0c219b0f1cc480","bdp_trlrn","Sun Mar 12 2023 22:21:38 GMT-0500 (Central Daylight Time)","744178","Trustworthy,Untrustworthy","","614","","","","decision","","<div class='trialDiv'><img src='trustrating_stim/white_mw099.bmp'><br><font class='baseline'><strong>Brian</strong><p>Choose number of points to send.</font><div class='respPicDiv'><img src='img/responseButtonOffersNo0L.png' class='respPic'></div></div>","1","4","Brian","7","Shared","0.65,0.2","12","0.65","trustrating_stim/white_mw099.bmp","3","45","10"
"html-keyboard-response","165","447929","0.0-19.0-2.9","6361769fee0c219b0f1cc480","bdp_trlrn","Sun Mar 12 2023 22:21:38 GMT-0500 (Central Daylight Time)","744178","Trustworthy,Untrustworthy","","null","","","","decisionFB","","<div class='trialDiv'><img src='trustrating_stim/white_mw099.bmp'><br><font class='baseline'><strong>Brian</strong><p>Choose number of points to send.</font><div class='respPicDiv'><img src='img/responseButtonOffersNo0L1.png' class='respPic'></div></div>","null","4","Brian","7","Shared","0.65,0.2","12","0.65","trustrating_stim/white_mw099.bmp","3","44","10"
"html-keyboard-response","166","448942","0.0-19.0-3.9","6361769fee0c219b0f1cc480","bdp_trlrn","Sun Mar 12 2023 22:21:38 GMT-0500 (Central Daylight Time)","744178","Trustworthy,Untrustworthy","","null","","","","feedback","","<div class='trialDiv'><img src='trustrating_stim/white_mw099.bmp'><br><font class='baseline'><strong>Brian</strong><p>Received: <strong>4</strong></font> &nbsp; &nbsp; &nbsp; &nbsp; &nbsp; &nbsp;<font class='posOutcome'>Shared back: <strong>2</strong></font></font><div class='respPicDiv'><img src='img/responseButtonOffersNo0_wht.png' class='respPic'></div></div>","null","4","Brian","7","Shared","0.65,0.2","12","0.65","trustrating_stim/white_mw099.bmp","3","46","10"
"html-keyboard-response","167","449515","0.0-19.0-1.10","6361769fee0c219b0f1cc480","bdp_trlrn","Sun Mar 12 2023 22:21:38 GMT-0500 (Central Daylight Time)","744178","Trustworthy,Untrustworthy","","571","","","","decision","","<div class='trialDiv'><img src='trustrating_stim/white_00109_931230_fa_edt.bmp'><br><font class='baseline'><strong>Daniel</strong><p>Choose number of points to send.</font><div class='respPicDiv'><img src='img/responseButtonOffersNo0L.png' class='respPic'></div></div>","1","4","Daniel","9","Kept","0.2,0.65","9","0.2","trustrating_stim/white_00109_931230_fa_edt.bmp","5","51","11"
"html-keyboard-response","168","449779","0.0-19.0-2.10","6361769fee0c219b0f1cc480","bdp_trlrn","Sun Mar 12 2023 22:21:38 GMT-0500 (Central Daylight Time)","744178","Trustworthy,Untrustworthy","","null","","","","decisionFB","","<div class='trialDiv'><img src='trustrating_stim/white_00109_931230_fa_edt.bmp'><br><font class='baseline'><strong>Daniel</strong><p>Choose number of points to send.</font><div class='respPicDiv'><img src='img/responseButtonOffersNo0L1.png' class='respPic'></div></div>","null","4","Daniel","9","Kept","0.2,0.65","9","0.2","trustrating_stim/white_00109_931230_fa_edt.bmp","5","50","11"
"html-keyboard-response","169","450781","0.0-19.0-3.10","6361769fee0c219b0f1cc480","bdp_trlrn","Sun Mar 12 2023 22:21:38 GMT-0500 (Central Daylight Time)","744178","Trustworthy,Untrustworthy","","null","","","","feedback","","<div class='trialDiv'><img src='trustrating_stim/white_00109_931230_fa_edt.bmp'><br><font class='baseline'><strong>Daniel</strong><p>Received: <strong>4</strong></font> &nbsp; &nbsp; &nbsp; &nbsp; &nbsp; &nbsp;<font class='negOutcome'>Shared back: <strong>0</strong></font></font><div class='respPicDiv'><img src='img/responseButtonOffersNo0_wht.png' class='respPic'></div></div>","null","4","Daniel","9","Kept","0.2,0.65","9","0.2","trustrating_stim/white_00109_931230_fa_edt.bmp","5","50","11"
"html-keyboard-response","170","451779","0.0-19.0-1.11","6361769fee0c219b0f1cc480","bdp_trlrn","Sun Mar 12 2023 22:21:38 GMT-0500 (Central Daylight Time)","744178","Trustworthy,Untrustworthy","","996","","","","decision","","<div class='trialDiv'><img src='trustrating_stim/white_00659_941121_fa_edt.bmp'><br><font class='baseline'><strong>Matthew</strong><p>Choose number of points to send.</font><div class='respPicDiv'><img src='img/responseButtonOffersNo0L.png' class='respPic'></div></div>","2","4","Matthew","3","Kept","0.35,0.65","11","0.35","trustrating_stim/white_00659_941121_fa_edt.bmp","1.5","55","12"
"html-keyboard-response","171","452037","0.0-19.0-2.11","6361769fee0c219b0f1cc480","bdp_trlrn","Sun Mar 12 2023 22:21:38 GMT-0500 (Central Daylight Time)","744178","Trustworthy,Untrustworthy","","null","","","","decisionFB","","<div class='trialDiv'><img src='trustrating_stim/white_00659_941121_fa_edt.bmp'><br><font class='baseline'><strong>Matthew</strong><p>Choose number of points to send.</font><div class='respPicDiv'><img src='img/responseButtonOffersNo0L2.png' class='respPic'></div></div>","null","4","Matthew","3","Kept","0.35,0.65","11","0.35","trustrating_stim/white_00659_941121_fa_edt.bmp","1.5","53","12"
"html-keyboard-response","172","453052","0.0-19.0-3.11","6361769fee0c219b0f1cc480","bdp_trlrn","Sun Mar 12 2023 22:21:38 GMT-0500 (Central Daylight Time)","744178","Trustworthy,Untrustworthy","","null","","","","feedback","","<div class='trialDiv'><img src='trustrating_stim/white_00659_941121_fa_edt.bmp'><br><font class='baseline'><strong>Matthew</strong><p>Received: <strong>8</strong></font> &nbsp; &nbsp; &nbsp; &nbsp; &nbsp; &nbsp;<font class='negOutcome'>Shared back: <strong>0</strong></font></font><div class='respPicDiv'><img src='img/responseButtonOffersNo0_wht.png' class='respPic'></div></div>","null","4","Matthew","3","Kept","0.35,0.65","11","0.35","trustrating_stim/white_00659_941121_fa_edt.bmp","1.5","53","12"
"html-keyboard-response","173","454738","0.0-19.0-1.12","6361769fee0c219b0f1cc480","bdp_trlrn","Sun Mar 12 2023 22:21:38 GMT-0500 (Central Daylight Time)","744178","Trustworthy,Untrustworthy","","1684","","","","decision","","<div class='trialDiv'><img src='trustrating_stim/white_mw099.bmp'><br><font class='baseline'><strong>Brian</strong><p>Choose number of points to send.</font><div class='respPicDiv'><img src='img/responseButtonOffersNo0L.png' class='respPic'></div></div>","2","5","Brian","7","Shared","0.65,0.2","12","0.65","trustrating_stim/white_mw099.bmp","3","58","13"
"html-keyboard-response","174","454995","0.0-19.0-2.12","6361769fee0c219b0f1cc480","bdp_trlrn","Sun Mar 12 2023 22:21:38 GMT-0500 (Central Daylight Time)","744178","Trustworthy,Untrustworthy","","null","","","","decisionFB","","<div class='trialDiv'><img src='trustrating_stim/white_mw099.bmp'><br><font class='baseline'><strong>Brian</strong><p>Choose number of points to send.</font><div class='respPicDiv'><img src='img/responseButtonOffersNo0L2.png' class='respPic'></div></div>","null","5","Brian","7","Shared","0.65,0.2","12","0.65","trustrating_stim/white_mw099.bmp","3","56","13"
"html-keyboard-response","175","456011","0.0-19.0-3.12","6361769fee0c219b0f1cc480","bdp_trlrn","Sun Mar 12 2023 22:21:38 GMT-0500 (Central Daylight Time)","744178","Trustworthy,Untrustworthy","","null","","","","feedback","","<div class='trialDiv'><img src='trustrating_stim/white_mw099.bmp'><br><font class='baseline'><strong>Brian</strong><p>Received: <strong>8</strong></font> &nbsp; &nbsp; &nbsp; &nbsp; &nbsp; &nbsp;<font class='posOutcome'>Shared back: <strong>4</strong></font></font><div class='respPicDiv'><img src='img/responseButtonOffersNo0_wht.png' class='respPic'></div></div>","null","5","Brian","7","Shared","0.65,0.2","12","0.65","trustrating_stim/white_mw099.bmp","3","60","13"
"html-keyboard-response","176","456401","0.0-19.0-1.13","6361769fee0c219b0f1cc480","bdp_trlrn","Sun Mar 12 2023 22:21:38 GMT-0500 (Central Daylight Time)","744178","Trustworthy,Untrustworthy","","389","","","","decision","","<div class='trialDiv'><img src='trustrating_stim/white_00109_931230_fa_edt.bmp'><br><font class='baseline'><strong>Daniel</strong><p>Choose number of points to send.</font><div class='respPicDiv'><img src='img/responseButtonOffersNo0L.png' class='respPic'></div></div>","1","5","Daniel","9","Kept","0.2,0.65","9","0.2","trustrating_stim/white_00109_931230_fa_edt.bmp","5","65","14"
"html-keyboard-response","177","456654","0.0-19.0-2.13","6361769fee0c219b0f1cc480","bdp_trlrn","Sun Mar 12 2023 22:21:38 GMT-0500 (Central Daylight Time)","744178","Trustworthy,Untrustworthy","","null","","","","decisionFB","","<div class='trialDiv'><img src='trustrating_stim/white_00109_931230_fa_edt.bmp'><br><font class='baseline'><strong>Daniel</strong><p>Choose number of points to send.</font><div class='respPicDiv'><img src='img/responseButtonOffersNo0L1.png' class='respPic'></div></div>","null","5","Daniel","9","Kept","0.2,0.65","9","0.2","trustrating_stim/white_00109_931230_fa_edt.bmp","5","64","14"
"html-keyboard-response","178","457666","0.0-19.0-3.13","6361769fee0c219b0f1cc480","bdp_trlrn","Sun Mar 12 2023 22:21:38 GMT-0500 (Central Daylight Time)","744178","Trustworthy,Untrustworthy","","null","","","","feedback","","<div class='trialDiv'><img src='trustrating_stim/white_00109_931230_fa_edt.bmp'><br><font class='baseline'><strong>Daniel</strong><p>Received: <strong>4</strong></font> &nbsp; &nbsp; &nbsp; &nbsp; &nbsp; &nbsp;<font class='negOutcome'>Shared back: <strong>0</strong></font></font><div class='respPicDiv'><img src='img/responseButtonOffersNo0_wht.png' class='respPic'></div></div>","null","5","Daniel","9","Kept","0.2,0.65","9","0.2","trustrating_stim/white_00109_931230_fa_edt.bmp","5","64","14"
"html-keyboard-response","179","458268","0.0-19.0-1.14","6361769fee0c219b0f1cc480","bdp_trlrn","Sun Mar 12 2023 22:21:38 GMT-0500 (Central Daylight Time)","744178","Trustworthy,Untrustworthy","","600","","","","decision","","<div class='trialDiv'><img src='trustrating_stim/white_00659_941121_fa_edt.bmp'><br><font class='baseline'><strong>Matthew</strong><p>Choose number of points to send.</font><div class='respPicDiv'><img src='img/responseButtonOffersNo0L.png' class='respPic'></div></div>","1","5","Matthew","3","Kept","0.35,0.65","11","0.35","trustrating_stim/white_00659_941121_fa_edt.bmp","1.5","69","15"
"html-keyboard-response","180","458535","0.0-19.0-2.14","6361769fee0c219b0f1cc480","bdp_trlrn","Sun Mar 12 2023 22:21:38 GMT-0500 (Central Daylight Time)","744178","Trustworthy,Untrustworthy","","null","","","","decisionFB","","<div class='trialDiv'><img src='trustrating_stim/white_00659_941121_fa_edt.bmp'><br><font class='baseline'><strong>Matthew</strong><p>Choose number of points to send.</font><div class='respPicDiv'><img src='img/responseButtonOffersNo0L1.png' class='respPic'></div></div>","null","5","Matthew","3","Kept","0.35,0.65","11","0.35","trustrating_stim/white_00659_941121_fa_edt.bmp","1.5","68","15"
"html-keyboard-response","181","459537","0.0-19.0-3.14","6361769fee0c219b0f1cc480","bdp_trlrn","Sun Mar 12 2023 22:21:38 GMT-0500 (Central Daylight Time)","744178","Trustworthy,Untrustworthy","","null","","","","feedback","","<div class='trialDiv'><img src='trustrating_stim/white_00659_941121_fa_edt.bmp'><br><font class='baseline'><strong>Matthew</strong><p>Received: <strong>4</strong></font> &nbsp; &nbsp; &nbsp; &nbsp; &nbsp; &nbsp;<font class='negOutcome'>Shared back: <strong>0</strong></font></font><div class='respPicDiv'><img src='img/responseButtonOffersNo0_wht.png' class='respPic'></div></div>","null","5","Matthew","3","Kept","0.35,0.65","11","0.35","trustrating_stim/white_00659_941121_fa_edt.bmp","1.5","68","15"
"html-keyboard-response","182","459929","0.0-19.0-1.15","6361769fee0c219b0f1cc480","bdp_trlrn","Sun Mar 12 2023 22:21:38 GMT-0500 (Central Daylight Time)","744178","Trustworthy,Untrustworthy","","391","","","","decision","","<div class='trialDiv'><img src='trustrating_stim/white_mw099.bmp'><br><font class='baseline'><strong>Brian</strong><p>Choose number of points to send.</font><div class='respPicDiv'><img src='img/responseButtonOffersNo0L.png' class='respPic'></div></div>","2","6","Brian","7","Shared","0.65,0.2","12","0.65","trustrating_stim/white_mw099.bmp","3","73","16"
"html-keyboard-response","183","460194","0.0-19.0-2.15","6361769fee0c219b0f1cc480","bdp_trlrn","Sun Mar 12 2023 22:21:38 GMT-0500 (Central Daylight Time)","744178","Trustworthy,Untrustworthy","","null","","","","decisionFB","","<div class='trialDiv'><img src='trustrating_stim/white_mw099.bmp'><br><font class='baseline'><strong>Brian</strong><p>Choose number of points to send.</font><div class='respPicDiv'><img src='img/responseButtonOffersNo0L2.png' class='respPic'></div></div>","null","6","Brian","7","Shared","0.65,0.2","12","0.65","trustrating_stim/white_mw099.bmp","3","71","16"
"html-keyboard-response","184","461211","0.0-19.0-3.15","6361769fee0c219b0f1cc480","bdp_trlrn","Sun Mar 12 2023 22:21:38 GMT-0500 (Central Daylight Time)","744178","Trustworthy,Untrustworthy","","null","","","","feedback","","<div class='trialDiv'><img src='trustrating_stim/white_mw099.bmp'><br><font class='baseline'><strong>Brian</strong><p>Received: <strong>8</strong></font> &nbsp; &nbsp; &nbsp; &nbsp; &nbsp; &nbsp;<font class='posOutcome'>Shared back: <strong>4</strong></font></font><div class='respPicDiv'><img src='img/responseButtonOffersNo0_wht.png' class='respPic'></div></div>","null","6","Brian","7","Shared","0.65,0.2","12","0.65","trustrating_stim/white_mw099.bmp","3","75","16"
"html-keyboard-response","185","461547","0.0-19.0-1.16","6361769fee0c219b0f1cc480","bdp_trlrn","Sun Mar 12 2023 22:21:38 GMT-0500 (Central Daylight Time)","744178","Trustworthy,Untrustworthy","","335","","","","decision","","<div class='trialDiv'><img src='trustrating_stim/white_00109_931230_fa_edt.bmp'><br><font class='baseline'><strong>Daniel</strong><p>Choose number of points to send.</font><div class='respPicDiv'><img src='img/responseButtonOffersNo0L.png' class='respPic'></div></div>","1","6","Daniel","9","Kept","0.2,0.65","9","0.2","trustrating_stim/white_00109_931230_fa_edt.bmp","5","80","17"
"html-keyboard-response","186","461814","0.0-19.0-2.16","6361769fee0c219b0f1cc480","bdp_trlrn","Sun Mar 12 2023 22:21:38 GMT-0500 (Central Daylight Time)","744178","Trustworthy,Untrustworthy","","null","","","","decisionFB","","<div class='trialDiv'><img src='trustrating_stim/white_00109_931230_fa_edt.bmp'><br><font class='baseline'><strong>Daniel</strong><p>Choose number of points to send.</font><div class='respPicDiv'><img src='img/responseButtonOffersNo0L1.png' class='respPic'></div></div>","null","6","Daniel","9","Kept","0.2,0.65","9","0.2","trustrating_stim/white_00109_931230_fa_edt.bmp","5","79","17"
"html-keyboard-response","187","462821","0.0-19.0-3.16","6361769fee0c219b0f1cc480","bdp_trlrn","Sun Mar 12 2023 22:21:38 GMT-0500 (Central Daylight Time)","744178","Trustworthy,Untrustworthy","","null","","","","feedback","","<div class='trialDiv'><img src='trustrating_stim/white_00109_931230_fa_edt.bmp'><br><font class='baseline'><strong>Daniel</strong><p>Received: <strong>4</strong></font> &nbsp; &nbsp; &nbsp; &nbsp; &nbsp; &nbsp;<font class='negOutcome'>Shared back: <strong>0</strong></font></font><div class='respPicDiv'><img src='img/responseButtonOffersNo0_wht.png' class='respPic'></div></div>","null","6","Daniel","9","Kept","0.2,0.65","9","0.2","trustrating_stim/white_00109_931230_fa_edt.bmp","5","79","17"
"html-keyboard-response","188","462964","0.0-19.0-1.17","6361769fee0c219b0f1cc480","bdp_trlrn","Sun Mar 12 2023 22:21:38 GMT-0500 (Central Daylight Time)","744178","Trustworthy,Untrustworthy","","142","","","","decision","","<div class='trialDiv'><img src='trustrating_stim/white_00659_941121_fa_edt.bmp'><br><font class='baseline'><strong>Matthew</strong><p>Choose number of points to send.</font><div class='respPicDiv'><img src='img/responseButtonOffersNo0L.png' class='respPic'></div></div>","1","6","Matthew","3","Kept","0.35,0.65","11","0.35","trustrating_stim/white_00659_941121_fa_edt.bmp","1.5","84","18"
"html-keyboard-response","189","463230","0.0-19.0-2.17","6361769fee0c219b0f1cc480","bdp_trlrn","Sun Mar 12 2023 22:21:38 GMT-0500 (Central Daylight Time)","744178","Trustworthy,Untrustworthy","","null","","","","decisionFB","","<div class='trialDiv'><img src='trustrating_stim/white_00659_941121_fa_edt.bmp'><br><font class='baseline'><strong>Matthew</strong><p>Choose number of points to send.</font><div class='respPicDiv'><img src='img/responseButtonOffersNo0L1.png' class='respPic'></div></div>","null","6","Matthew","3","Kept","0.35,0.65","11","0.35","trustrating_stim/white_00659_941121_fa_edt.bmp","1.5","83","18"
"html-keyboard-response","190","464235","0.0-19.0-3.17","6361769fee0c219b0f1cc480","bdp_trlrn","Sun Mar 12 2023 22:21:38 GMT-0500 (Central Daylight Time)","744178","Trustworthy,Untrustworthy","","null","","","","feedback","","<div class='trialDiv'><img src='trustrating_stim/white_00659_941121_fa_edt.bmp'><br><font class='baseline'><strong>Matthew</strong><p>Received: <strong>4</strong></font> &nbsp; &nbsp; &nbsp; &nbsp; &nbsp; &nbsp;<font class='negOutcome'>Shared back: <strong>0</strong></font></font><div class='respPicDiv'><img src='img/responseButtonOffersNo0_wht.png' class='respPic'></div></div>","null","6","Matthew","3","Kept","0.35,0.65","11","0.35","trustrating_stim/white_00659_941121_fa_edt.bmp","1.5","83","18"
"html-keyboard-response","191","464476","0.0-19.0-1.18","6361769fee0c219b0f1cc480","bdp_trlrn","Sun Mar 12 2023 22:21:38 GMT-0500 (Central Daylight Time)","744178","Trustworthy,Untrustworthy","","239","","","","decision","","<div class='trialDiv'><img src='trustrating_stim/white_00109_931230_fa_edt.bmp'><br><font class='baseline'><strong>Daniel</strong><p>Choose number of points to send.</font><div class='respPicDiv'><img src='img/responseButtonOffersNo0L.png' class='respPic'></div></div>","2","7","Daniel","9","Kept","0.2,0.65","9","0.2","trustrating_stim/white_00109_931230_fa_edt.bmp","5","88","19"
"html-keyboard-response","192","464730","0.0-19.0-2.18","6361769fee0c219b0f1cc480","bdp_trlrn","Sun Mar 12 2023 22:21:38 GMT-0500 (Central Daylight Time)","744178","Trustworthy,Untrustworthy","","null","","","","decisionFB","","<div class='trialDiv'><img src='trustrating_stim/white_00109_931230_fa_edt.bmp'><br><font class='baseline'><strong>Daniel</strong><p>Choose number of points to send.</font><div class='respPicDiv'><img src='img/responseButtonOffersNo0L2.png' class='respPic'></div></div>","null","7","Daniel","9","Kept","0.2,0.65","9","0.2","trustrating_stim/white_00109_931230_fa_edt.bmp","5","86","19"
"html-keyboard-response","193","465737","0.0-19.0-3.18","6361769fee0c219b0f1cc480","bdp_trlrn","Sun Mar 12 2023 22:21:38 GMT-0500 (Central Daylight Time)","744178","Trustworthy,Untrustworthy","","null","","","","feedback","","<div class='trialDiv'><img src='trustrating_stim/white_00109_931230_fa_edt.bmp'><br><font class='baseline'><strong>Daniel</strong><p>Received: <strong>8</strong></font> &nbsp; &nbsp; &nbsp; &nbsp; &nbsp; &nbsp;<font class='negOutcome'>Shared back: <strong>0</strong></font></font><div class='respPicDiv'><img src='img/responseButtonOffersNo0_wht.png' class='respPic'></div></div>","null","7","Daniel","9","Kept","0.2,0.65","9","0.2","trustrating_stim/white_00109_931230_fa_edt.bmp","5","86","19"
"html-keyboard-response","194","465803","0.0-19.0-1.19","6361769fee0c219b0f1cc480","bdp_trlrn","Sun Mar 12 2023 22:21:38 GMT-0500 (Central Daylight Time)","744178","Trustworthy,Untrustworthy","","64","","","","decision","","<div class='trialDiv'><img src='trustrating_stim/white_00659_941121_fa_edt.bmp'><br><font class='baseline'><strong>Matthew</strong><p>Choose number of points to send.</font><div class='respPicDiv'><img src='img/responseButtonOffersNo0L.png' class='respPic'></div></div>","1","7","Matthew","3","Shared","0.35,0.65","11","0.35","trustrating_stim/white_00659_941121_fa_edt.bmp","1.5","91","20"
"html-keyboard-response","195","466062","0.0-19.0-2.19","6361769fee0c219b0f1cc480","bdp_trlrn","Sun Mar 12 2023 22:21:38 GMT-0500 (Central Daylight Time)","744178","Trustworthy,Untrustworthy","","null","","","","decisionFB","","<div class='trialDiv'><img src='trustrating_stim/white_00659_941121_fa_edt.bmp'><br><font class='baseline'><strong>Matthew</strong><p>Choose number of points to send.</font><div class='respPicDiv'><img src='img/responseButtonOffersNo0L1.png' class='respPic'></div></div>","null","7","Matthew","3","Shared","0.35,0.65","11","0.35","trustrating_stim/white_00659_941121_fa_edt.bmp","1.5","90","20"
"html-keyboard-response","196","467079","0.0-19.0-3.19","6361769fee0c219b0f1cc480","bdp_trlrn","Sun Mar 12 2023 22:21:38 GMT-0500 (Central Daylight Time)","744178","Trustworthy,Untrustworthy","","null","","","","feedback","","<div class='trialDiv'><img src='trustrating_stim/white_00659_941121_fa_edt.bmp'><br><font class='baseline'><strong>Matthew</strong><p>Received: <strong>4</strong></font> &nbsp; &nbsp; &nbsp; &nbsp; &nbsp; &nbsp;<font class='posOutcome'>Shared back: <strong>2</strong></font></font><div class='respPicDiv'><img src='img/responseButtonOffersNo0_wht.png' class='respPic'></div></div>","null","7","Matthew","3","Shared","0.35,0.65","11","0.35","trustrating_stim/white_00659_941121_fa_edt.bmp","1.5","92","20"
"html-keyboard-response","197","467790","0.0-19.0-1.20","6361769fee0c219b0f1cc480","bdp_trlrn","Sun Mar 12 2023 22:21:38 GMT-0500 (Central Daylight Time)","744178","Trustworthy,Untrustworthy","","709","","","","decision","","<div class='trialDiv'><img src='trustrating_stim/white_mw099.bmp'><br><font class='baseline'><strong>Brian</strong><p>Choose number of points to send.</font><div class='respPicDiv'><img src='img/responseButtonOffersNo0L.png' class='respPic'></div></div>","2","7","Brian","7","Shared","0.65,0.2","12","0.65","trustrating_stim/white_mw099.bmp","3","97","21"
"html-keyboard-response","198","468046","0.0-19.0-2.20","6361769fee0c219b0f1cc480","bdp_trlrn","Sun Mar 12 2023 22:21:38 GMT-0500 (Central Daylight Time)","744178","Trustworthy,Untrustworthy","","null","","","","decisionFB","","<div class='trialDiv'><img src='trustrating_stim/white_mw099.bmp'><br><font class='baseline'><strong>Brian</strong><p>Choose number of points to send.</font><div class='respPicDiv'><img src='img/responseButtonOffersNo0L2.png' class='respPic'></div></div>","null","7","Brian","7","Shared","0.65,0.2","12","0.65","trustrating_stim/white_mw099.bmp","3","95","21"
"html-keyboard-response","199","469049","0.0-19.0-3.20","6361769fee0c219b0f1cc480","bdp_trlrn","Sun Mar 12 2023 22:21:38 GMT-0500 (Central Daylight Time)","744178","Trustworthy,Untrustworthy","","null","","","","feedback","","<div class='trialDiv'><img src='trustrating_stim/white_mw099.bmp'><br><font class='baseline'><strong>Brian</strong><p>Received: <strong>8</strong></font> &nbsp; &nbsp; &nbsp; &nbsp; &nbsp; &nbsp;<font class='posOutcome'>Shared back: <strong>4</strong></font></font><div class='respPicDiv'><img src='img/responseButtonOffersNo0_wht.png' class='respPic'></div></div>","null","7","Brian","7","Shared","0.65,0.2","12","0.65","trustrating_stim/white_mw099.bmp","3","99","21"
"html-keyboard-response","200","469467","0.0-19.0-1.21","6361769fee0c219b0f1cc480","bdp_trlrn","Sun Mar 12 2023 22:21:38 GMT-0500 (Central Daylight Time)","744178","Trustworthy,Untrustworthy","","416","","","","decision","","<div class='trialDiv'><img src='trustrating_stim/white_00659_941121_fa_edt.bmp'><br><font class='baseline'><strong>Matthew</strong><p>Choose number of points to send.</font><div class='respPicDiv'><img src='img/responseButtonOffersNo0L.png' class='respPic'></div></div>","1","8","Matthew","3","Kept","0.35,0.65","11","0.35","trustrating_stim/white_00659_941121_fa_edt.bmp","1.5","104","22"
"html-keyboard-response","201","469727","0.0-19.0-2.21","6361769fee0c219b0f1cc480","bdp_trlrn","Sun Mar 12 2023 22:21:38 GMT-0500 (Central Daylight Time)","744178","Trustworthy,Untrustworthy","","null","","","","decisionFB","","<div class='trialDiv'><img src='trustrating_stim/white_00659_941121_fa_edt.bmp'><br><font class='baseline'><strong>Matthew</strong><p>Choose number of points to send.</font><div class='respPicDiv'><img src='img/responseButtonOffersNo0L1.png' class='respPic'></div></div>","null","8","Matthew","3","Kept","0.35,0.65","11","0.35","trustrating_stim/white_00659_941121_fa_edt.bmp","1.5","103","22"
"html-keyboard-response","202","470743","0.0-19.0-3.21","6361769fee0c219b0f1cc480","bdp_trlrn","Sun Mar 12 2023 22:21:38 GMT-0500 (Central Daylight Time)","744178","Trustworthy,Untrustworthy","","null","","","","feedback","","<div class='trialDiv'><img src='trustrating_stim/white_00659_941121_fa_edt.bmp'><br><font class='baseline'><strong>Matthew</strong><p>Received: <strong>4</strong></font> &nbsp; &nbsp; &nbsp; &nbsp; &nbsp; &nbsp;<font class='negOutcome'>Shared back: <strong>0</strong></font></font><div class='respPicDiv'><img src='img/responseButtonOffersNo0_wht.png' class='respPic'></div></div>","null","8","Matthew","3","Kept","0.35,0.65","11","0.35","trustrating_stim/white_00659_941121_fa_edt.bmp","1.5","103","22"
"html-keyboard-response","203","472153","0.0-19.0-1.22","6361769fee0c219b0f1cc480","bdp_trlrn","Sun Mar 12 2023 22:21:38 GMT-0500 (Central Daylight Time)","744178","Trustworthy,Untrustworthy","","1408","","","","decision","","<div class='trialDiv'><img src='trustrating_stim/white_mw099.bmp'><br><font class='baseline'><strong>Brian</strong><p>Choose number of points to send.</font><div class='respPicDiv'><img src='img/responseButtonOffersNo0L.png' class='respPic'></div></div>","3","8","Brian","7","Shared","0.65,0.2","12","0.65","trustrating_stim/white_mw099.bmp","3","108","23"
"html-keyboard-response","204","472420","0.0-19.0-2.22","6361769fee0c219b0f1cc480","bdp_trlrn","Sun Mar 12 2023 22:21:38 GMT-0500 (Central Daylight Time)","744178","Trustworthy,Untrustworthy","","null","","","","decisionFB","","<div class='trialDiv'><img src='trustrating_stim/white_mw099.bmp'><br><font class='baseline'><strong>Brian</strong><p>Choose number of points to send.</font><div class='respPicDiv'><img src='img/responseButtonOffersNo0L3.png' class='respPic'></div></div>","null","8","Brian","7","Shared","0.65,0.2","12","0.65","trustrating_stim/white_mw099.bmp","3","105","23"
"html-keyboard-response","205","473438","0.0-19.0-3.22","6361769fee0c219b0f1cc480","bdp_trlrn","Sun Mar 12 2023 22:21:38 GMT-0500 (Central Daylight Time)","744178","Trustworthy,Untrustworthy","","null","","","","feedback","","<div class='trialDiv'><img src='trustrating_stim/white_mw099.bmp'><br><font class='baseline'><strong>Brian</strong><p>Received: <strong>12</strong></font> &nbsp; &nbsp; &nbsp; &nbsp; &nbsp; &nbsp;<font class='posOutcome'>Shared back: <strong>6</strong></font></font><div class='respPicDiv'><img src='img/responseButtonOffersNo0_wht.png' class='respPic'></div></div>","null","8","Brian","7","Shared","0.65,0.2","12","0.65","trustrating_stim/white_mw099.bmp","3","111","23"
"html-keyboard-response","206","473926","0.0-19.0-1.23","6361769fee0c219b0f1cc480","bdp_trlrn","Sun Mar 12 2023 22:21:38 GMT-0500 (Central Daylight Time)","744178","Trustworthy,Untrustworthy","","487","","","","decision","","<div class='trialDiv'><img src='trustrating_stim/white_00109_931230_fa_edt.bmp'><br><font class='baseline'><strong>Daniel</strong><p>Choose number of points to send.</font><div class='respPicDiv'><img src='img/responseButtonOffersNo0L.png' class='respPic'></div></div>","1","8","Daniel","9","Kept","0.2,0.65","9","0.2","trustrating_stim/white_00109_931230_fa_edt.bmp","5","116","24"
"html-keyboard-response","207","474182","0.0-19.0-2.23","6361769fee0c219b0f1cc480","bdp_trlrn","Sun Mar 12 2023 22:21:38 GMT-0500 (Central Daylight Time)","744178","Trustworthy,Untrustworthy","","null","","","","decisionFB","","<div class='trialDiv'><img src='trustrating_stim/white_00109_931230_fa_edt.bmp'><br><font class='baseline'><strong>Daniel</strong><p>Choose number of points to send.</font><div class='respPicDiv'><img src='img/responseButtonOffersNo0L1.png' class='respPic'></div></div>","null","8","Daniel","9","Kept","0.2,0.65","9","0.2","trustrating_stim/white_00109_931230_fa_edt.bmp","5","115","24"
"html-keyboard-response","208","475187","0.0-19.0-3.23","6361769fee0c219b0f1cc480","bdp_trlrn","Sun Mar 12 2023 22:21:38 GMT-0500 (Central Daylight Time)","744178","Trustworthy,Untrustworthy","","null","","","","feedback","","<div class='trialDiv'><img src='trustrating_stim/white_00109_931230_fa_edt.bmp'><br><font class='baseline'><strong>Daniel</strong><p>Received: <strong>4</strong></font> &nbsp; &nbsp; &nbsp; &nbsp; &nbsp; &nbsp;<font class='negOutcome'>Shared back: <strong>0</strong></font></font><div class='respPicDiv'><img src='img/responseButtonOffersNo0_wht.png' class='respPic'></div></div>","null","8","Daniel","9","Kept","0.2,0.65","9","0.2","trustrating_stim/white_00109_931230_fa_edt.bmp","5","115","24"
"html-keyboard-response","209","476175","0.0-19.0-1.24","6361769fee0c219b0f1cc480","bdp_trlrn","Sun Mar 12 2023 22:21:38 GMT-0500 (Central Daylight Time)","744178","Trustworthy,Untrustworthy","","987","","","","decision","","<div class='trialDiv'><img src='trustrating_stim/white_mw099.bmp'><br><font class='baseline'><strong>Brian</strong><p>Choose number of points to send.</font><div class='respPicDiv'><img src='img/responseButtonOffersNo0L.png' class='respPic'></div></div>","3","9","Brian","7","Kept","0.65,0.2","12","0.65","trustrating_stim/white_mw099.bmp","3","120","25"
"html-keyboard-response","210","476431","0.0-19.0-2.24","6361769fee0c219b0f1cc480","bdp_trlrn","Sun Mar 12 2023 22:21:38 GMT-0500 (Central Daylight Time)","744178","Trustworthy,Untrustworthy","","null","","","","decisionFB","","<div class='trialDiv'><img src='trustrating_stim/white_mw099.bmp'><br><font class='baseline'><strong>Brian</strong><p>Choose number of points to send.</font><div class='respPicDiv'><img src='img/responseButtonOffersNo0L3.png' class='respPic'></div></div>","null","9","Brian","7","Kept","0.65,0.2","12","0.65","trustrating_stim/white_mw099.bmp","3","117","25"
"html-keyboard-response","211","477434","0.0-19.0-3.24","6361769fee0c219b0f1cc480","bdp_trlrn","Sun Mar 12 2023 22:21:38 GMT-0500 (Central Daylight Time)","744178","Trustworthy,Untrustworthy","","null","","","","feedback","","<div class='trialDiv'><img src='trustrating_stim/white_mw099.bmp'><br><font class='baseline'><strong>Brian</strong><p>Received: <strong>12</strong></font> &nbsp; &nbsp; &nbsp; &nbsp; &nbsp; &nbsp;<font class='negOutcome'>Shared back: <strong>0</strong></font></font><div class='respPicDiv'><img src='img/responseButtonOffersNo0_wht.png' class='respPic'></div></div>","null","9","Brian","7","Kept","0.65,0.2","12","0.65","trustrating_stim/white_mw099.bmp","3","117","25"
"html-keyboard-response","212","477716","0.0-19.0-1.25","6361769fee0c219b0f1cc480","bdp_trlrn","Sun Mar 12 2023 22:21:38 GMT-0500 (Central Daylight Time)","744178","Trustworthy,Untrustworthy","","280","","","","decision","","<div class='trialDiv'><img src='trustrating_stim/white_00659_941121_fa_edt.bmp'><br><font class='baseline'><strong>Matthew</strong><p>Choose number of points to send.</font><div class='respPicDiv'><img src='img/responseButtonOffersNo0L.png' class='respPic'></div></div>","1","9","Matthew","3","Kept","0.35,0.65","11","0.35","trustrating_stim/white_00659_941121_fa_edt.bmp","1.5","122","26"
"html-keyboard-response","213","477978","0.0-19.0-2.25","6361769fee0c219b0f1cc480","bdp_trlrn","Sun Mar 12 2023 22:21:38 GMT-0500 (Central Daylight Time)","744178","Trustworthy,Untrustworthy","","null","","","","decisionFB","","<div class='trialDiv'><img src='trustrating_stim/white_00659_941121_fa_edt.bmp'><br><font class='baseline'><strong>Matthew</strong><p>Choose number of points to send.</font><div class='respPicDiv'><img src='img/responseButtonOffersNo0L1.png' class='respPic'></div></div>","null","9","Matthew","3","Kept","0.35,0.65","11","0.35","trustrating_stim/white_00659_941121_fa_edt.bmp","1.5","121","26"
"html-keyboard-response","214","478979","0.0-19.0-3.25","6361769fee0c219b0f1cc480","bdp_trlrn","Sun Mar 12 2023 22:21:38 GMT-0500 (Central Daylight Time)","744178","Trustworthy,Untrustworthy","","null","","","","feedback","","<div class='trialDiv'><img src='trustrating_stim/white_00659_941121_fa_edt.bmp'><br><font class='baseline'><strong>Matthew</strong><p>Received: <strong>4</strong></font> &nbsp; &nbsp; &nbsp; &nbsp; &nbsp; &nbsp;<font class='negOutcome'>Shared back: <strong>0</strong></font></font><div class='respPicDiv'><img src='img/responseButtonOffersNo0_wht.png' class='respPic'></div></div>","null","9","Matthew","3","Kept","0.35,0.65","11","0.35","trustrating_stim/white_00659_941121_fa_edt.bmp","1.5","121","26"
"html-keyboard-response","215","479179","0.0-19.0-1.26","6361769fee0c219b0f1cc480","bdp_trlrn","Sun Mar 12 2023 22:21:38 GMT-0500 (Central Daylight Time)","744178","Trustworthy,Untrustworthy","","198","","","","decision","","<div class='trialDiv'><img src='trustrating_stim/white_00109_931230_fa_edt.bmp'><br><font class='baseline'><strong>Daniel</strong><p>Choose number of points to send.</font><div class='respPicDiv'><img src='img/responseButtonOffersNo0L.png' class='respPic'></div></div>","1","9","Daniel","9","Shared","0.2,0.65","9","0.2","trustrating_stim/white_00109_931230_fa_edt.bmp","5","126","27"
"html-keyboard-response","216","479436","0.0-19.0-2.26","6361769fee0c219b0f1cc480","bdp_trlrn","Sun Mar 12 2023 22:21:38 GMT-0500 (Central Daylight Time)","744178","Trustworthy,Untrustworthy","","null","","","","decisionFB","","<div class='trialDiv'><img src='trustrating_stim/white_00109_931230_fa_edt.bmp'><br><font class='baseline'><strong>Daniel</strong><p>Choose number of points to send.</font><div class='respPicDiv'><img src='img/responseButtonOffersNo0L1.png' class='respPic'></div></div>","null","9","Daniel","9","Shared","0.2,0.65","9","0.2","trustrating_stim/white_00109_931230_fa_edt.bmp","5","125","27"
"html-keyboard-response","217","480449","0.0-19.0-3.26","6361769fee0c219b0f1cc480","bdp_trlrn","Sun Mar 12 2023 22:21:38 GMT-0500 (Central Daylight Time)","744178","Trustworthy,Untrustworthy","","null","","","","feedback","","<div class='trialDiv'><img src='trustrating_stim/white_00109_931230_fa_edt.bmp'><br><font class='baseline'><strong>Daniel</strong><p>Received: <strong>4</strong></font> &nbsp; &nbsp; &nbsp; &nbsp; &nbsp; &nbsp;<font class='posOutcome'>Shared back: <strong>2</strong></font></font><div class='respPicDiv'><img src='img/responseButtonOffersNo0_wht.png' class='respPic'></div></div>","null","9","Daniel","9","Shared","0.2,0.65","9","0.2","trustrating_stim/white_00109_931230_fa_edt.bmp","5","127","27"
"html-keyboard-response","218","480712","0.0-19.0-1.27","6361769fee0c219b0f1cc480","bdp_trlrn","Sun Mar 12 2023 22:21:38 GMT-0500 (Central Daylight Time)","744178","Trustworthy,Untrustworthy","","262","","","","decision","","<div class='trialDiv'><img src='trustrating_stim/white_mw099.bmp'><br><font class='baseline'><strong>Brian</strong><p>Choose number of points to send.</font><div class='respPicDiv'><img src='img/responseButtonOffersNo0L.png' class='respPic'></div></div>","1","10","Brian","7","Kept","0.65,0.2","12","0.65","trustrating_stim/white_mw099.bmp","3","132","28"
"html-keyboard-response","219","480969","0.0-19.0-2.27","6361769fee0c219b0f1cc480","bdp_trlrn","Sun Mar 12 2023 22:21:38 GMT-0500 (Central Daylight Time)","744178","Trustworthy,Untrustworthy","","null","","","","decisionFB","","<div class='trialDiv'><img src='trustrating_stim/white_mw099.bmp'><br><font class='baseline'><strong>Brian</strong><p>Choose number of points to send.</font><div class='respPicDiv'><img src='img/responseButtonOffersNo0L1.png' class='respPic'></div></div>","null","10","Brian","7","Kept","0.65,0.2","12","0.65","trustrating_stim/white_mw099.bmp","3","131","28"
