"trial_type","trial_index","time_elapsed","internal_node_id","subject_id","task","startTime","totalTime","labels","view_history","rt","event","trial","time","trialtype","success","stimulus","key_press","aground","name","faceID","outcome","agenttype","agentswpt","agentcurrpshare","face","avgRating","point_total","round"
"pavlovia","0","1","0.0-0.0","63d40583fbdb78bfb9b0d3a4","bdp_trlrn","Tue Mar 14 2023 20:43:03 GMT-0400 (Eastern Daylight Time)","467354","Untrustworthy,Trustworthy","","","","","","","","","","","","","","","","","","","",""
"instructions","1","4350","0.0-1.0","63d40583fbdb78bfb9b0d3a4","bdp_trlrn","Tue Mar 14 2023 20:43:03 GMT-0400 (Eastern Daylight Time)","467354","Untrustworthy,Trustworthy","[{""page_index"":0,""viewing_time"":4348}]","4348","","","","","","","","","","","","","","","","","",""
"","","","","63d40583fbdb78bfb9b0d3a4","bdp_trlrn","Tue Mar 14 2023 20:43:03 GMT-0400 (Eastern Daylight Time)","467354","Untrustworthy,Trustworthy","","","fullscreenenter","2","5871","fullscreenenter","","","","","","","","","","","","","",""
"fullscreen","2","6862","0.0-2.0","63d40583fbdb78bfb9b0d3a4","bdp_trlrn","Tue Mar 14 2023 20:43:03 GMT-0400 (Eastern Daylight Time)","467354","Untrustworthy,Trustworthy","","","","","","","true","","","","","","","","","","","","",""
"instructions","3","10364","0.0-4.0","63d40583fbdb78bfb9b0d3a4","bdp_trlrn","Tue Mar 14 2023 20:43:03 GMT-0400 (Eastern Daylight Time)","467354","Untrustworthy,Trustworthy","[{""page_index"":0,""viewing_time"":2374},{""page_index"":1,""viewing_time"":1128}]","3502","","","","","","","","","","","","","","","","","",""
"instructions","4","10985","0.0-5.0","63d40583fbdb78bfb9b0d3a4","bdp_trlrn","Tue Mar 14 2023 20:43:03 GMT-0400 (Eastern Daylight Time)","467354","Untrustworthy,Trustworthy","[{""page_index"":0,""viewing_time"":621}]","621","","","","","","","","","","","","","","","","","",""
"image-keyboard-response","5","12797","0.0-6.0-1.0","63d40583fbdb78bfb9b0d3a4","bdp_trlrn","Tue Mar 14 2023 20:43:03 GMT-0400 (Eastern Daylight Time)","467354","Untrustworthy,Trustworthy","","1701","","","","rating","","trustrating_stim/white_mw084.bmp","4","","","","","","","","","","",""
"image-keyboard-response","6","13004","0.0-6.0-2.0","63d40583fbdb78bfb9b0d3a4","bdp_trlrn","Tue Mar 14 2023 20:43:03 GMT-0400 (Eastern Daylight Time)","467354","Untrustworthy,Trustworthy","","null","","","","ratingFB","","trustrating_stim/white_mw084.bmp","null","","","","","","","","","","",""
"image-keyboard-response","7","14606","0.0-6.0-1.1","63d40583fbdb78bfb9b0d3a4","bdp_trlrn","Tue Mar 14 2023 20:43:03 GMT-0400 (Eastern Daylight Time)","467354","Untrustworthy,Trustworthy","","1501","","","","rating","","trustrating_stim/white_00807_941205_fb_edt.bmp","5","","","","","","","","","","",""
"image-keyboard-response","8","14809","0.0-6.0-2.1","63d40583fbdb78bfb9b0d3a4","bdp_trlrn","Tue Mar 14 2023 20:43:03 GMT-0400 (Eastern Daylight Time)","467354","Untrustworthy,Trustworthy","","null","","","","ratingFB","","trustrating_stim/white_00807_941205_fb_edt.bmp","null","","","","","","","","","","",""
"image-keyboard-response","9","15957","0.0-6.0-1.2","63d40583fbdb78bfb9b0d3a4","bdp_trlrn","Tue Mar 14 2023 20:43:03 GMT-0400 (Eastern Daylight Time)","467354","Untrustworthy,Trustworthy","","1040","","","","rating","","trustrating_stim/white_00519_940519_fb_edt.bmp","2","","","","","","","","","","",""
"image-keyboard-response","10","16165","0.0-6.0-2.2","63d40583fbdb78bfb9b0d3a4","bdp_trlrn","Tue Mar 14 2023 20:43:03 GMT-0400 (Eastern Daylight Time)","467354","Untrustworthy,Trustworthy","","null","","","","ratingFB","","trustrating_stim/white_00519_940519_fb_edt.bmp","null","","","","","","","","","","",""
"image-keyboard-response","11","17700","0.0-6.0-1.3","63d40583fbdb78bfb9b0d3a4","bdp_trlrn","Tue Mar 14 2023 20:43:03 GMT-0400 (Eastern Daylight Time)","467354","Untrustworthy,Trustworthy","","1434","","","","rating","","trustrating_stim/white_mw099.bmp","6","","","","","","","","","","",""
"image-keyboard-response","12","17917","0.0-6.0-2.3","63d40583fbdb78bfb9b0d3a4","bdp_trlrn","Tue Mar 14 2023 20:43:03 GMT-0400 (Eastern Daylight Time)","467354","Untrustworthy,Trustworthy","","null","","","","ratingFB","","trustrating_stim/white_mw099.bmp","null","","","","","","","","","","",""
"image-keyboard-response","13","19444","0.0-6.0-1.4","63d40583fbdb78bfb9b0d3a4","bdp_trlrn","Tue Mar 14 2023 20:43:03 GMT-0400 (Eastern Daylight Time)","467354","Untrustworthy,Trustworthy","","1418","","","","rating","","trustrating_stim/white_mw049.bmp","4","","","","","","","","","","",""
"image-keyboard-response","14","19655","0.0-6.0-2.4","63d40583fbdb78bfb9b0d3a4","bdp_trlrn","Tue Mar 14 2023 20:43:03 GMT-0400 (Eastern Daylight Time)","467354","Untrustworthy,Trustworthy","","null","","","","ratingFB","","trustrating_stim/white_mw049.bmp","null","","","","","","","","","","",""
"image-keyboard-response","15","21010","0.0-6.0-1.5","63d40583fbdb78bfb9b0d3a4","bdp_trlrn","Tue Mar 14 2023 20:43:03 GMT-0400 (Eastern Daylight Time)","467354","Untrustworthy,Trustworthy","","1248","","","","rating","","trustrating_stim/white_00659_941121_fa_edt.bmp","5","","","","","","","","","","",""
"image-keyboard-response","16","21223","0.0-6.0-2.5","63d40583fbdb78bfb9b0d3a4","bdp_trlrn","Tue Mar 14 2023 20:43:03 GMT-0400 (Eastern Daylight Time)","467354","Untrustworthy,Trustworthy","","null","","","","ratingFB","","trustrating_stim/white_00659_941121_fa_edt.bmp","null","","","","","","","","","","",""
"image-keyboard-response","17","22660","0.0-6.0-1.6","63d40583fbdb78bfb9b0d3a4","bdp_trlrn","Tue Mar 14 2023 20:43:03 GMT-0400 (Eastern Daylight Time)","467354","Untrustworthy,Trustworthy","","1336","","","","rating","","trustrating_stim/white_mw035.bmp","7","","","","","","","","","","",""
"image-keyboard-response","18","22868","0.0-6.0-2.6","63d40583fbdb78bfb9b0d3a4","bdp_trlrn","Tue Mar 14 2023 20:43:03 GMT-0400 (Eastern Daylight Time)","467354","Untrustworthy,Trustworthy","","null","","","","ratingFB","","trustrating_stim/white_mw035.bmp","null","","","","","","","","","","",""
"image-keyboard-response","19","24583","0.0-6.0-1.7","63d40583fbdb78bfb9b0d3a4","bdp_trlrn","Tue Mar 14 2023 20:43:03 GMT-0400 (Eastern Daylight Time)","467354","Untrustworthy,Trustworthy","","1615","","","","rating","","trustrating_stim/white_00109_931230_fa_edt.bmp","6","","","","","","","","","","",""
"image-keyboard-response","20","24788","0.0-6.0-2.7","63d40583fbdb78bfb9b0d3a4","bdp_trlrn","Tue Mar 14 2023 20:43:03 GMT-0400 (Eastern Daylight Time)","467354","Untrustworthy,Trustworthy","","null","","","","ratingFB","","trustrating_stim/white_00109_931230_fa_edt.bmp","null","","","","","","","","","","",""
"image-keyboard-response","21","26850","0.0-6.0-1.8","63d40583fbdb78bfb9b0d3a4","bdp_trlrn","Tue Mar 14 2023 20:43:03 GMT-0400 (Eastern Daylight Time)","467354","Untrustworthy,Trustworthy","","1954","","","","rating","","trustrating_stim/white_mw056.bmp","6","","","","","","","","","","",""
"image-keyboard-response","22","27063","0.0-6.0-2.8","63d40583fbdb78bfb9b0d3a4","bdp_trlrn","Tue Mar 14 2023 20:43:03 GMT-0400 (Eastern Daylight Time)","467354","Untrustworthy,Trustworthy","","null","","","","ratingFB","","trustrating_stim/white_mw056.bmp","null","","","","","","","","","","",""
"image-keyboard-response","23","28470","0.0-6.0-1.9","63d40583fbdb78bfb9b0d3a4","bdp_trlrn","Tue Mar 14 2023 20:43:03 GMT-0400 (Eastern Daylight Time)","467354","Untrustworthy,Trustworthy","","1299","","","","rating","","trustrating_stim/white_mw066.bmp","4","","","","","","","","","","",""
"image-keyboard-response","24","28678","0.0-6.0-2.9","63d40583fbdb78bfb9b0d3a4","bdp_trlrn","Tue Mar 14 2023 20:43:03 GMT-0400 (Eastern Daylight Time)","467354","Untrustworthy,Trustworthy","","null","","","","ratingFB","","trustrating_stim/white_mw066.bmp","null","","","","","","","","","","",""
"image-keyboard-response","25","31254","0.0-6.0-1.10","63d40583fbdb78bfb9b0d3a4","bdp_trlrn","Tue Mar 14 2023 20:43:03 GMT-0400 (Eastern Daylight Time)","467354","Untrustworthy,Trustworthy","","2468","","","","rating","","trustrating_stim/white_mw089.bmp","2","","","","","","","","","","",""
"image-keyboard-response","26","31455","0.0-6.0-2.10","63d40583fbdb78bfb9b0d3a4","bdp_trlrn","Tue Mar 14 2023 20:43:03 GMT-0400 (Eastern Daylight Time)","467354","Untrustworthy,Trustworthy","","null","","","","ratingFB","","trustrating_stim/white_mw089.bmp","null","","","","","","","","","","",""
"image-keyboard-response","27","32922","0.0-6.0-1.11","63d40583fbdb78bfb9b0d3a4","bdp_trlrn","Tue Mar 14 2023 20:43:03 GMT-0400 (Eastern Daylight Time)","467354","Untrustworthy,Trustworthy","","1366","","","","rating","","trustrating_stim/white_00785_941205_fb_edt.bmp","2","","","","","","","","","","",""
"image-keyboard-response","28","33123","0.0-6.0-2.11","63d40583fbdb78bfb9b0d3a4","bdp_trlrn","Tue Mar 14 2023 20:43:03 GMT-0400 (Eastern Daylight Time)","467354","Untrustworthy,Trustworthy","","null","","","","ratingFB","","trustrating_stim/white_00785_941205_fb_edt.bmp","null","","","","","","","","","","",""
"image-keyboard-response","29","34422","0.0-6.0-1.12","63d40583fbdb78bfb9b0d3a4","bdp_trlrn","Tue Mar 14 2023 20:43:03 GMT-0400 (Eastern Daylight Time)","467354","Untrustworthy,Trustworthy","","1198","","","","rating","","trustrating_stim/white_mw048.bmp","3","","","","","","","","","","",""
"image-keyboard-response","30","34622","0.0-6.0-2.12","63d40583fbdb78bfb9b0d3a4","bdp_trlrn","Tue Mar 14 2023 20:43:03 GMT-0400 (Eastern Daylight Time)","467354","Untrustworthy,Trustworthy","","null","","","","ratingFB","","trustrating_stim/white_mw048.bmp","null","","","","","","","","","","",""
"image-keyboard-response","31","36142","0.0-6.0-1.13","63d40583fbdb78bfb9b0d3a4","bdp_trlrn","Tue Mar 14 2023 20:43:03 GMT-0400 (Eastern Daylight Time)","467354","Untrustworthy,Trustworthy","","1419","","","","rating","","trustrating_stim/white_00340_940422_fa_edt.bmp","7","","","","","","","","","","",""
"image-keyboard-response","32","36343","0.0-6.0-2.13","63d40583fbdb78bfb9b0d3a4","bdp_trlrn","Tue Mar 14 2023 20:43:03 GMT-0400 (Eastern Daylight Time)","467354","Untrustworthy,Trustworthy","","null","","","","ratingFB","","trustrating_stim/white_00340_940422_fa_edt.bmp","null","","","","","","","","","","",""
"image-keyboard-response","33","37624","0.0-6.0-1.14","63d40583fbdb78bfb9b0d3a4","bdp_trlrn","Tue Mar 14 2023 20:43:03 GMT-0400 (Eastern Daylight Time)","467354","Untrustworthy,Trustworthy","","1180","","","","rating","","trustrating_stim/white_00757_941201_fa_edt.bmp","6","","","","","","","","","","",""
"image-keyboard-response","34","37825","0.0-6.0-2.14","63d40583fbdb78bfb9b0d3a4","bdp_trlrn","Tue Mar 14 2023 20:43:03 GMT-0400 (Eastern Daylight Time)","467354","Untrustworthy,Trustworthy","","null","","","","ratingFB","","trustrating_stim/white_00757_941201_fa_edt.bmp","null","","","","","","","","","","",""
"image-keyboard-response","35","39094","0.0-6.0-1.15","63d40583fbdb78bfb9b0d3a4","bdp_trlrn","Tue Mar 14 2023 20:43:03 GMT-0400 (Eastern Daylight Time)","467354","Untrustworthy,Trustworthy","","1168","","","","rating","","trustrating_stim/white_mw071.bmp","4","","","","","","","","","","",""
"image-keyboard-response","36","39295","0.0-6.0-2.15","63d40583fbdb78bfb9b0d3a4","bdp_trlrn","Tue Mar 14 2023 20:43:03 GMT-0400 (Eastern Daylight Time)","467354","Untrustworthy,Trustworthy","","null","","","","ratingFB","","trustrating_stim/white_mw071.bmp","null","","","","","","","","","","",""
"image-keyboard-response","37","41708","0.0-6.0-1.16","63d40583fbdb78bfb9b0d3a4","bdp_trlrn","Tue Mar 14 2023 20:43:03 GMT-0400 (Eastern Daylight Time)","467354","Untrustworthy,Trustworthy","","2312","","","","rating","","trustrating_stim/white_00898_960530_fa_edt.bmp","7","","","","","","","","","","",""
"image-keyboard-response","38","41910","0.0-6.0-2.16","63d40583fbdb78bfb9b0d3a4","bdp_trlrn","Tue Mar 14 2023 20:43:03 GMT-0400 (Eastern Daylight Time)","467354","Untrustworthy,Trustworthy","","null","","","","ratingFB","","trustrating_stim/white_00898_960530_fa_edt.bmp","null","","","","","","","","","","",""
"image-keyboard-response","39","43703","0.0-6.0-1.17","63d40583fbdb78bfb9b0d3a4","bdp_trlrn","Tue Mar 14 2023 20:43:03 GMT-0400 (Eastern Daylight Time)","467354","Untrustworthy,Trustworthy","","1692","","","","rating","","trustrating_stim/white_00120_931230_fa_edt.bmp","7","","","","","","","","","","",""
"image-keyboard-response","40","43904","0.0-6.0-2.17","63d40583fbdb78bfb9b0d3a4","bdp_trlrn","Tue Mar 14 2023 20:43:03 GMT-0400 (Eastern Daylight Time)","467354","Untrustworthy,Trustworthy","","null","","","","ratingFB","","trustrating_stim/white_00120_931230_fa_edt.bmp","null","","","","","","","","","","",""
"image-keyboard-response","41","44781","0.0-6.0-1.18","63d40583fbdb78bfb9b0d3a4","bdp_trlrn","Tue Mar 14 2023 20:43:03 GMT-0400 (Eastern Daylight Time)","467354","Untrustworthy,Trustworthy","","776","","","","rating","","trustrating_stim/white_00223_940128_fb_edt.bmp","6","","","","","","","","","","",""
"image-keyboard-response","42","44982","0.0-6.0-2.18","63d40583fbdb78bfb9b0d3a4","bdp_trlrn","Tue Mar 14 2023 20:43:03 GMT-0400 (Eastern Daylight Time)","467354","Untrustworthy,Trustworthy","","null","","","","ratingFB","","trustrating_stim/white_00223_940128_fb_edt.bmp","null","","","","","","","","","","",""
"image-keyboard-response","43","46089","0.0-6.0-1.19","63d40583fbdb78bfb9b0d3a4","bdp_trlrn","Tue Mar 14 2023 20:43:03 GMT-0400 (Eastern Daylight Time)","467354","Untrustworthy,Trustworthy","","1006","","","","rating","","trustrating_stim/white_00577_940928_fa_edt.bmp","5","","","","","","","","","","",""
"image-keyboard-response","44","46290","0.0-6.0-2.19","63d40583fbdb78bfb9b0d3a4","bdp_trlrn","Tue Mar 14 2023 20:43:03 GMT-0400 (Eastern Daylight Time)","467354","Untrustworthy,Trustworthy","","null","","","","ratingFB","","trustrating_stim/white_00577_940928_fa_edt.bmp","null","","","","","","","","","","",""
"image-keyboard-response","45","47496","0.0-6.0-1.20","63d40583fbdb78bfb9b0d3a4","bdp_trlrn","Tue Mar 14 2023 20:43:03 GMT-0400 (Eastern Daylight Time)","467354","Untrustworthy,Trustworthy","","1105","","","","rating","","trustrating_stim/white_00602_940928_fb_edt.bmp","7","","","","","","","","","","",""
"image-keyboard-response","46","47697","0.0-6.0-2.20","63d40583fbdb78bfb9b0d3a4","bdp_trlrn","Tue Mar 14 2023 20:43:03 GMT-0400 (Eastern Daylight Time)","467354","Untrustworthy,Trustworthy","","null","","","","ratingFB","","trustrating_stim/white_00602_940928_fb_edt.bmp","null","","","","","","","","","","",""
"image-keyboard-response","47","48646","0.0-6.0-1.21","63d40583fbdb78bfb9b0d3a4","bdp_trlrn","Tue Mar 14 2023 20:43:03 GMT-0400 (Eastern Daylight Time)","467354","Untrustworthy,Trustworthy","","848","","","","rating","","trustrating_stim/white_mw060.bmp","4","","","","","","","","","","",""
"image-keyboard-response","48","48847","0.0-6.0-2.21","63d40583fbdb78bfb9b0d3a4","bdp_trlrn","Tue Mar 14 2023 20:43:03 GMT-0400 (Eastern Daylight Time)","467354","Untrustworthy,Trustworthy","","null","","","","ratingFB","","trustrating_stim/white_mw060.bmp","null","","","","","","","","","","",""
"image-keyboard-response","49","49795","0.0-6.0-1.22","63d40583fbdb78bfb9b0d3a4","bdp_trlrn","Tue Mar 14 2023 20:43:03 GMT-0400 (Eastern Daylight Time)","467354","Untrustworthy,Trustworthy","","847","","","","rating","","trustrating_stim/white_mw063.bmp","6","","","","","","","","","","",""
"image-keyboard-response","50","49996","0.0-6.0-2.22","63d40583fbdb78bfb9b0d3a4","bdp_trlrn","Tue Mar 14 2023 20:43:03 GMT-0400 (Eastern Daylight Time)","467354","Untrustworthy,Trustworthy","","null","","","","ratingFB","","trustrating_stim/white_mw063.bmp","null","","","","","","","","","","",""
"image-keyboard-response","51","51649","0.0-6.0-1.23","63d40583fbdb78bfb9b0d3a4","bdp_trlrn","Tue Mar 14 2023 20:43:03 GMT-0400 (Eastern Daylight Time)","467354","Untrustworthy,Trustworthy","","1552","","","","rating","","trustrating_stim/white_00299_940422_fa_edt.bmp","3","","","","","","","","","","",""
"image-keyboard-response","52","51850","0.0-6.0-2.23","63d40583fbdb78bfb9b0d3a4","bdp_trlrn","Tue Mar 14 2023 20:43:03 GMT-0400 (Eastern Daylight Time)","467354","Untrustworthy,Trustworthy","","null","","","","ratingFB","","trustrating_stim/white_00299_940422_fa_edt.bmp","null","","","","","","","","","","",""
"image-keyboard-response","53","52945","0.0-6.0-1.24","63d40583fbdb78bfb9b0d3a4","bdp_trlrn","Tue Mar 14 2023 20:43:03 GMT-0400 (Eastern Daylight Time)","467354","Untrustworthy,Trustworthy","","994","","","","rating","","trustrating_stim/white_mw097.bmp","2","","","","","","","","","","",""
"image-keyboard-response","54","53146","0.0-6.0-2.24","63d40583fbdb78bfb9b0d3a4","bdp_trlrn","Tue Mar 14 2023 20:43:03 GMT-0400 (Eastern Daylight Time)","467354","Untrustworthy,Trustworthy","","null","","","","ratingFB","","trustrating_stim/white_mw097.bmp","null","","","","","","","","","","",""
"image-keyboard-response","55","55826","0.0-6.0-1.25","63d40583fbdb78bfb9b0d3a4","bdp_trlrn","Tue Mar 14 2023 20:43:03 GMT-0400 (Eastern Daylight Time)","467354","Untrustworthy,Trustworthy","","2579","","","","rating","","trustrating_stim/white_mw046.bmp","2","","","","","","","","","","",""
"image-keyboard-response","56","56027","0.0-6.0-2.25","63d40583fbdb78bfb9b0d3a4","bdp_trlrn","Tue Mar 14 2023 20:43:03 GMT-0400 (Eastern Daylight Time)","467354","Untrustworthy,Trustworthy","","null","","","","ratingFB","","trustrating_stim/white_mw046.bmp","null","","","","","","","","","","",""
"image-keyboard-response","57","57216","0.0-6.0-1.26","63d40583fbdb78bfb9b0d3a4","bdp_trlrn","Tue Mar 14 2023 20:43:03 GMT-0400 (Eastern Daylight Time)","467354","Untrustworthy,Trustworthy","","1088","","","","rating","","trustrating_stim/white_mw033.bmp","4","","","","","","","","","","",""
"image-keyboard-response","58","57417","0.0-6.0-2.26","63d40583fbdb78bfb9b0d3a4","bdp_trlrn","Tue Mar 14 2023 20:43:03 GMT-0400 (Eastern Daylight Time)","467354","Untrustworthy,Trustworthy","","null","","","","ratingFB","","trustrating_stim/white_mw033.bmp","null","","","","","","","","","","",""
"image-keyboard-response","59","58455","0.0-6.0-1.27","63d40583fbdb78bfb9b0d3a4","bdp_trlrn","Tue Mar 14 2023 20:43:03 GMT-0400 (Eastern Daylight Time)","467354","Untrustworthy,Trustworthy","","937","","","","rating","","trustrating_stim/white_00129_931230_fb_edt.bmp","5","","","","","","","","","","",""
"image-keyboard-response","60","58656","0.0-6.0-2.27","63d40583fbdb78bfb9b0d3a4","bdp_trlrn","Tue Mar 14 2023 20:43:03 GMT-0400 (Eastern Daylight Time)","467354","Untrustworthy,Trustworthy","","null","","","","ratingFB","","trustrating_stim/white_00129_931230_fb_edt.bmp","null","","","","","","","","","","",""
"image-keyboard-response","61","62542","0.0-6.0-1.28","63d40583fbdb78bfb9b0d3a4","bdp_trlrn","Tue Mar 14 2023 20:43:03 GMT-0400 (Eastern Daylight Time)","467354","Untrustworthy,Trustworthy","","3785","","","","rating","","trustrating_stim/white_00761_941201_fb_edt.bmp","2","","","","","","","","","","",""
"image-keyboard-response","62","62743","0.0-6.0-2.28","63d40583fbdb78bfb9b0d3a4","bdp_trlrn","Tue Mar 14 2023 20:43:03 GMT-0400 (Eastern Daylight Time)","467354","Untrustworthy,Trustworthy","","null","","","","ratingFB","","trustrating_stim/white_00761_941201_fb_edt.bmp","null","","","","","","","","","","",""
"image-keyboard-response","63","63916","0.0-6.0-1.29","63d40583fbdb78bfb9b0d3a4","bdp_trlrn","Tue Mar 14 2023 20:43:03 GMT-0400 (Eastern Daylight Time)","467354","Untrustworthy,Trustworthy","","1072","","","","rating","","trustrating_stim/white_mw053.bmp","3","","","","","","","","","","",""
"image-keyboard-response","64","64117","0.0-6.0-2.29","63d40583fbdb78bfb9b0d3a4","bdp_trlrn","Tue Mar 14 2023 20:43:03 GMT-0400 (Eastern Daylight Time)","467354","Untrustworthy,Trustworthy","","null","","","","ratingFB","","trustrating_stim/white_mw053.bmp","null","","","","","","","","","","",""
"image-keyboard-response","65","65075","0.0-6.0-1.30","63d40583fbdb78bfb9b0d3a4","bdp_trlrn","Tue Mar 14 2023 20:43:03 GMT-0400 (Eastern Daylight Time)","467354","Untrustworthy,Trustworthy","","857","","","","rating","","trustrating_stim/white_00129_931230_fb_edt.bmp","4","","","","","","","","","","",""
"image-keyboard-response","66","65276","0.0-6.0-2.30","63d40583fbdb78bfb9b0d3a4","bdp_trlrn","Tue Mar 14 2023 20:43:03 GMT-0400 (Eastern Daylight Time)","467354","Untrustworthy,Trustworthy","","null","","","","ratingFB","","trustrating_stim/white_00129_931230_fb_edt.bmp","null","","","","","","","","","","",""
"image-keyboard-response","67","66894","0.0-6.0-1.31","63d40583fbdb78bfb9b0d3a4","bdp_trlrn","Tue Mar 14 2023 20:43:03 GMT-0400 (Eastern Daylight Time)","467354","Untrustworthy,Trustworthy","","1517","","","","rating","","trustrating_stim/white_00807_941205_fb_edt.bmp","7","","","","","","","","","","",""
"image-keyboard-response","68","67095","0.0-6.0-2.31","63d40583fbdb78bfb9b0d3a4","bdp_trlrn","Tue Mar 14 2023 20:43:03 GMT-0400 (Eastern Daylight Time)","467354","Untrustworthy,Trustworthy","","null","","","","ratingFB","","trustrating_stim/white_00807_941205_fb_edt.bmp","null","","","","","","","","","","",""
"image-keyboard-response","69","68012","0.0-6.0-1.32","63d40583fbdb78bfb9b0d3a4","bdp_trlrn","Tue Mar 14 2023 20:43:03 GMT-0400 (Eastern Daylight Time)","467354","Untrustworthy,Trustworthy","","815","","","","rating","","trustrating_stim/white_mw035.bmp","6","","","","","","","","","","",""
"image-keyboard-response","70","68213","0.0-6.0-2.32","63d40583fbdb78bfb9b0d3a4","bdp_trlrn","Tue Mar 14 2023 20:43:03 GMT-0400 (Eastern Daylight Time)","467354","Untrustworthy,Trustworthy","","null","","","","ratingFB","","trustrating_stim/white_mw035.bmp","null","","","","","","","","","","",""
"image-keyboard-response","71","69228","0.0-6.0-1.33","63d40583fbdb78bfb9b0d3a4","bdp_trlrn","Tue Mar 14 2023 20:43:03 GMT-0400 (Eastern Daylight Time)","467354","Untrustworthy,Trustworthy","","913","","","","rating","","trustrating_stim/white_00299_940422_fa_edt.bmp","4","","","","","","","","","","",""
"image-keyboard-response","72","69429","0.0-6.0-2.33","63d40583fbdb78bfb9b0d3a4","bdp_trlrn","Tue Mar 14 2023 20:43:03 GMT-0400 (Eastern Daylight Time)","467354","Untrustworthy,Trustworthy","","null","","","","ratingFB","","trustrating_stim/white_00299_940422_fa_edt.bmp","null","","","","","","","","","","",""
"image-keyboard-response","73","71010","0.0-6.0-1.34","63d40583fbdb78bfb9b0d3a4","bdp_trlrn","Tue Mar 14 2023 20:43:03 GMT-0400 (Eastern Daylight Time)","467354","Untrustworthy,Trustworthy","","1480","","","","rating","","trustrating_stim/white_00223_940128_fb_edt.bmp","4","","","","","","","","","","",""
"image-keyboard-response","74","71211","0.0-6.0-2.34","63d40583fbdb78bfb9b0d3a4","bdp_trlrn","Tue Mar 14 2023 20:43:03 GMT-0400 (Eastern Daylight Time)","467354","Untrustworthy,Trustworthy","","null","","","","ratingFB","","trustrating_stim/white_00223_940128_fb_edt.bmp","null","","","","","","","","","","",""
"image-keyboard-response","75","72929","0.0-6.0-1.35","63d40583fbdb78bfb9b0d3a4","bdp_trlrn","Tue Mar 14 2023 20:43:03 GMT-0400 (Eastern Daylight Time)","467354","Untrustworthy,Trustworthy","","1617","","","","rating","","trustrating_stim/white_mw060.bmp","6","","","","","","","","","","",""
"image-keyboard-response","76","73130","0.0-6.0-2.35","63d40583fbdb78bfb9b0d3a4","bdp_trlrn","Tue Mar 14 2023 20:43:03 GMT-0400 (Eastern Daylight Time)","467354","Untrustworthy,Trustworthy","","null","","","","ratingFB","","trustrating_stim/white_mw060.bmp","null","","","","","","","","","","",""
"image-keyboard-response","77","74051","0.0-6.0-1.36","63d40583fbdb78bfb9b0d3a4","bdp_trlrn","Tue Mar 14 2023 20:43:03 GMT-0400 (Eastern Daylight Time)","467354","Untrustworthy,Trustworthy","","820","","","","rating","","trustrating_stim/white_mw084.bmp","4","","","","","","","","","","",""
"image-keyboard-response","78","74252","0.0-6.0-2.36","63d40583fbdb78bfb9b0d3a4","bdp_trlrn","Tue Mar 14 2023 20:43:03 GMT-0400 (Eastern Daylight Time)","467354","Untrustworthy,Trustworthy","","null","","","","ratingFB","","trustrating_stim/white_mw084.bmp","null","","","","","","","","","","",""
"image-keyboard-response","79","75371","0.0-6.0-1.37","63d40583fbdb78bfb9b0d3a4","bdp_trlrn","Tue Mar 14 2023 20:43:03 GMT-0400 (Eastern Daylight Time)","467354","Untrustworthy,Trustworthy","","1018","","","","rating","","trustrating_stim/white_00340_940422_fa_edt.bmp","3","","","","","","","","","","",""
"image-keyboard-response","80","75572","0.0-6.0-2.37","63d40583fbdb78bfb9b0d3a4","bdp_trlrn","Tue Mar 14 2023 20:43:03 GMT-0400 (Eastern Daylight Time)","467354","Untrustworthy,Trustworthy","","null","","","","ratingFB","","trustrating_stim/white_00340_940422_fa_edt.bmp","null","","","","","","","","","","",""
"image-keyboard-response","81","77364","0.0-6.0-1.38","63d40583fbdb78bfb9b0d3a4","bdp_trlrn","Tue Mar 14 2023 20:43:03 GMT-0400 (Eastern Daylight Time)","467354","Untrustworthy,Trustworthy","","1691","","","","rating","","trustrating_stim/white_mw066.bmp","5","","","","","","","","","","",""
"image-keyboard-response","82","77565","0.0-6.0-2.38","63d40583fbdb78bfb9b0d3a4","bdp_trlrn","Tue Mar 14 2023 20:43:03 GMT-0400 (Eastern Daylight Time)","467354","Untrustworthy,Trustworthy","","null","","","","ratingFB","","trustrating_stim/white_mw066.bmp","null","","","","","","","","","","",""
"image-keyboard-response","83","78495","0.0-6.0-1.39","63d40583fbdb78bfb9b0d3a4","bdp_trlrn","Tue Mar 14 2023 20:43:03 GMT-0400 (Eastern Daylight Time)","467354","Untrustworthy,Trustworthy","","829","","","","rating","","trustrating_stim/white_00785_941205_fb_edt.bmp","2","","","","","","","","","","",""
"image-keyboard-response","84","78696","0.0-6.0-2.39","63d40583fbdb78bfb9b0d3a4","bdp_trlrn","Tue Mar 14 2023 20:43:03 GMT-0400 (Eastern Daylight Time)","467354","Untrustworthy,Trustworthy","","null","","","","ratingFB","","trustrating_stim/white_00785_941205_fb_edt.bmp","null","","","","","","","","","","",""
"image-keyboard-response","85","79704","0.0-6.0-1.40","63d40583fbdb78bfb9b0d3a4","bdp_trlrn","Tue Mar 14 2023 20:43:03 GMT-0400 (Eastern Daylight Time)","467354","Untrustworthy,Trustworthy","","907","","","","rating","","trustrating_stim/white_mw056.bmp","6","","","","","","","","","","",""
"image-keyboard-response","86","79905","0.0-6.0-2.40","63d40583fbdb78bfb9b0d3a4","bdp_trlrn","Tue Mar 14 2023 20:43:03 GMT-0400 (Eastern Daylight Time)","467354","Untrustworthy,Trustworthy","","null","","","","ratingFB","","trustrating_stim/white_mw056.bmp","null","","","","","","","","","","",""
"image-keyboard-response","87","81040","0.0-6.0-1.41","63d40583fbdb78bfb9b0d3a4","bdp_trlrn","Tue Mar 14 2023 20:43:03 GMT-0400 (Eastern Daylight Time)","467354","Untrustworthy,Trustworthy","","1034","","","","rating","","trustrating_stim/white_00519_940519_fb_edt.bmp","1","","","","","","","","","","",""
"image-keyboard-response","88","81241","0.0-6.0-2.41","63d40583fbdb78bfb9b0d3a4","bdp_trlrn","Tue Mar 14 2023 20:43:03 GMT-0400 (Eastern Daylight Time)","467354","Untrustworthy,Trustworthy","","null","","","","ratingFB","","trustrating_stim/white_00519_940519_fb_edt.bmp","null","","","","","","","","","","",""
"image-keyboard-response","89","82249","0.0-6.0-1.42","63d40583fbdb78bfb9b0d3a4","bdp_trlrn","Tue Mar 14 2023 20:43:03 GMT-0400 (Eastern Daylight Time)","467354","Untrustworthy,Trustworthy","","907","","","","rating","","trustrating_stim/white_mw063.bmp","3","","","","","","","","","","",""
"image-keyboard-response","90","82450","0.0-6.0-2.42","63d40583fbdb78bfb9b0d3a4","bdp_trlrn","Tue Mar 14 2023 20:43:03 GMT-0400 (Eastern Daylight Time)","467354","Untrustworthy,Trustworthy","","null","","","","ratingFB","","trustrating_stim/white_mw063.bmp","null","","","","","","","","","","",""
"image-keyboard-response","91","83651","0.0-6.0-1.43","63d40583fbdb78bfb9b0d3a4","bdp_trlrn","Tue Mar 14 2023 20:43:03 GMT-0400 (Eastern Daylight Time)","467354","Untrustworthy,Trustworthy","","1100","","","","rating","","trustrating_stim/white_00659_941121_fa_edt.bmp","5","","","","","","","","","","",""
"image-keyboard-response","92","83852","0.0-6.0-2.43","63d40583fbdb78bfb9b0d3a4","bdp_trlrn","Tue Mar 14 2023 20:43:03 GMT-0400 (Eastern Daylight Time)","467354","Untrustworthy,Trustworthy","","null","","","","ratingFB","","trustrating_stim/white_00659_941121_fa_edt.bmp","null","","","","","","","","","","",""
"image-keyboard-response","93","84725","0.0-6.0-1.44","63d40583fbdb78bfb9b0d3a4","bdp_trlrn","Tue Mar 14 2023 20:43:03 GMT-0400 (Eastern Daylight Time)","467354","Untrustworthy,Trustworthy","","772","","","","rating","","trustrating_stim/white_00109_931230_fa_edt.bmp","5","","","","","","","","","","",""
"image-keyboard-response","94","84926","0.0-6.0-2.44","63d40583fbdb78bfb9b0d3a4","bdp_trlrn","Tue Mar 14 2023 20:43:03 GMT-0400 (Eastern Daylight Time)","467354","Untrustworthy,Trustworthy","","null","","","","ratingFB","","trustrating_stim/white_00109_931230_fa_edt.bmp","null","","","","","","","","","","",""
"image-keyboard-response","95","86103","0.0-6.0-1.45","63d40583fbdb78bfb9b0d3a4","bdp_trlrn","Tue Mar 14 2023 20:43:03 GMT-0400 (Eastern Daylight Time)","467354","Untrustworthy,Trustworthy","","1077","","","","rating","","trustrating_stim/white_mw071.bmp","4","","","","","","","","","","",""
"image-keyboard-response","96","86304","0.0-6.0-2.45","63d40583fbdb78bfb9b0d3a4","bdp_trlrn","Tue Mar 14 2023 20:43:03 GMT-0400 (Eastern Daylight Time)","467354","Untrustworthy,Trustworthy","","null","","","","ratingFB","","trustrating_stim/white_mw071.bmp","null","","","","","","","","","","",""
"image-keyboard-response","97","87275","0.0-6.0-1.46","63d40583fbdb78bfb9b0d3a4","bdp_trlrn","Tue Mar 14 2023 20:43:03 GMT-0400 (Eastern Daylight Time)","467354","Untrustworthy,Trustworthy","","870","","","","rating","","trustrating_stim/white_00602_940928_fb_edt.bmp","4","","","","","","","","","","",""
"image-keyboard-response","98","87476","0.0-6.0-2.46","63d40583fbdb78bfb9b0d3a4","bdp_trlrn","Tue Mar 14 2023 20:43:03 GMT-0400 (Eastern Daylight Time)","467354","Untrustworthy,Trustworthy","","null","","","","ratingFB","","trustrating_stim/white_00602_940928_fb_edt.bmp","null","","","","","","","","","","",""
"image-keyboard-response","99","88338","0.0-6.0-1.47","63d40583fbdb78bfb9b0d3a4","bdp_trlrn","Tue Mar 14 2023 20:43:03 GMT-0400 (Eastern Daylight Time)","467354","Untrustworthy,Trustworthy","","762","","","","rating","","trustrating_stim/white_00757_941201_fa_edt.bmp","5","","","","","","","","","","",""
"image-keyboard-response","100","88539","0.0-6.0-2.47","63d40583fbdb78bfb9b0d3a4","bdp_trlrn","Tue Mar 14 2023 20:43:03 GMT-0400 (Eastern Daylight Time)","467354","Untrustworthy,Trustworthy","","null","","","","ratingFB","","trustrating_stim/white_00757_941201_fa_edt.bmp","null","","","","","","","","","","",""
"image-keyboard-response","101","90018","0.0-6.0-1.48","63d40583fbdb78bfb9b0d3a4","bdp_trlrn","Tue Mar 14 2023 20:43:03 GMT-0400 (Eastern Daylight Time)","467354","Untrustworthy,Trustworthy","","1378","","","","rating","","trustrating_stim/white_mw046.bmp","3","","","","","","","","","","",""
"image-keyboard-response","102","90219","0.0-6.0-2.48","63d40583fbdb78bfb9b0d3a4","bdp_trlrn","Tue Mar 14 2023 20:43:03 GMT-0400 (Eastern Daylight Time)","467354","Untrustworthy,Trustworthy","","null","","","","ratingFB","","trustrating_stim/white_mw046.bmp","null","","","","","","","","","","",""
"image-keyboard-response","103","91306","0.0-6.0-1.49","63d40583fbdb78bfb9b0d3a4","bdp_trlrn","Tue Mar 14 2023 20:43:03 GMT-0400 (Eastern Daylight Time)","467354","Untrustworthy,Trustworthy","","986","","","","rating","","trustrating_stim/white_mw097.bmp","1","","","","","","","","","","",""
"image-keyboard-response","104","91508","0.0-6.0-2.49","63d40583fbdb78bfb9b0d3a4","bdp_trlrn","Tue Mar 14 2023 20:43:03 GMT-0400 (Eastern Daylight Time)","467354","Untrustworthy,Trustworthy","","null","","","","ratingFB","","trustrating_stim/white_mw097.bmp","null","","","","","","","","","","",""
"image-keyboard-response","105","92716","0.0-6.0-1.50","63d40583fbdb78bfb9b0d3a4","bdp_trlrn","Tue Mar 14 2023 20:43:03 GMT-0400 (Eastern Daylight Time)","467354","Untrustworthy,Trustworthy","","1107","","","","rating","","trustrating_stim/white_mw099.bmp","4","","","","","","","","","","",""
"image-keyboard-response","106","92917","0.0-6.0-2.50","63d40583fbdb78bfb9b0d3a4","bdp_trlrn","Tue Mar 14 2023 20:43:03 GMT-0400 (Eastern Daylight Time)","467354","Untrustworthy,Trustworthy","","null","","","","ratingFB","","trustrating_stim/white_mw099.bmp","null","","","","","","","","","","",""
"image-keyboard-response","107","93700","0.0-6.0-1.51","63d40583fbdb78bfb9b0d3a4","bdp_trlrn","Tue Mar 14 2023 20:43:03 GMT-0400 (Eastern Daylight Time)","467354","Untrustworthy,Trustworthy","","682","","","","rating","","trustrating_stim/white_mw048.bmp","2","","","","","","","","","","",""
"image-keyboard-response","108","93902","0.0-6.0-2.51","63d40583fbdb78bfb9b0d3a4","bdp_trlrn","Tue Mar 14 2023 20:43:03 GMT-0400 (Eastern Daylight Time)","467354","Untrustworthy,Trustworthy","","null","","","","ratingFB","","trustrating_stim/white_mw048.bmp","null","","","","","","","","","","",""
"image-keyboard-response","109","95484","0.0-6.0-1.52","63d40583fbdb78bfb9b0d3a4","bdp_trlrn","Tue Mar 14 2023 20:43:03 GMT-0400 (Eastern Daylight Time)","467354","Untrustworthy,Trustworthy","","1480","","","","rating","","trustrating_stim/white_00761_941201_fb_edt.bmp","4","","","","","","","","","","",""
"image-keyboard-response","110","95684","0.0-6.0-2.52","63d40583fbdb78bfb9b0d3a4","bdp_trlrn","Tue Mar 14 2023 20:43:03 GMT-0400 (Eastern Daylight Time)","467354","Untrustworthy,Trustworthy","","null","","","","ratingFB","","trustrating_stim/white_00761_941201_fb_edt.bmp","null","","","","","","","","","","",""
"image-keyboard-response","111","97415","0.0-6.0-1.53","63d40583fbdb78bfb9b0d3a4","bdp_trlrn","Tue Mar 14 2023 20:43:03 GMT-0400 (Eastern Daylight Time)","467354","Untrustworthy,Trustworthy","","1629","","","","rating","","trustrating_stim/white_00120_931230_fa_edt.bmp","5","","","","","","","","","","",""
"image-keyboard-response","112","97616","0.0-6.0-2.53","63d40583fbdb78bfb9b0d3a4","bdp_trlrn","Tue Mar 14 2023 20:43:03 GMT-0400 (Eastern Daylight Time)","467354","Untrustworthy,Trustworthy","","null","","","","ratingFB","","trustrating_stim/white_00120_931230_fa_edt.bmp","null","","","","","","","","","","",""
"image-keyboard-response","113","100023","0.0-6.0-1.54","63d40583fbdb78bfb9b0d3a4","bdp_trlrn","Tue Mar 14 2023 20:43:03 GMT-0400 (Eastern Daylight Time)","467354","Untrustworthy,Trustworthy","","2306","","","","rating","","trustrating_stim/white_mw089.bmp","3","","","","","","","","","","",""
"image-keyboard-response","114","100225","0.0-6.0-2.54","63d40583fbdb78bfb9b0d3a4","bdp_trlrn","Tue Mar 14 2023 20:43:03 GMT-0400 (Eastern Daylight Time)","467354","Untrustworthy,Trustworthy","","null","","","","ratingFB","","trustrating_stim/white_mw089.bmp","null","","","","","","","","","","",""
"image-keyboard-response","115","101770","0.0-6.0-1.55","63d40583fbdb78bfb9b0d3a4","bdp_trlrn","Tue Mar 14 2023 20:43:03 GMT-0400 (Eastern Daylight Time)","467354","Untrustworthy,Trustworthy","","1444","","","","rating","","trustrating_stim/white_00577_940928_fa_edt.bmp","2","","","","","","","","","","",""
"image-keyboard-response","116","101971","0.0-6.0-2.55","63d40583fbdb78bfb9b0d3a4","bdp_trlrn","Tue Mar 14 2023 20:43:03 GMT-0400 (Eastern Daylight Time)","467354","Untrustworthy,Trustworthy","","null","","","","ratingFB","","trustrating_stim/white_00577_940928_fa_edt.bmp","null","","","","","","","","","","",""
"image-keyboard-response","117","103441","0.0-6.0-1.56","63d40583fbdb78bfb9b0d3a4","bdp_trlrn","Tue Mar 14 2023 20:43:03 GMT-0400 (Eastern Daylight Time)","467354","Untrustworthy,Trustworthy","","1368","","","","rating","","trustrating_stim/white_mw053.bmp","4","","","","","","","","","","",""
"image-keyboard-response","118","103643","0.0-6.0-2.56","63d40583fbdb78bfb9b0d3a4","bdp_trlrn","Tue Mar 14 2023 20:43:03 GMT-0400 (Eastern Daylight Time)","467354","Untrustworthy,Trustworthy","","null","","","","ratingFB","","trustrating_stim/white_mw053.bmp","null","","","","","","","","","","",""
"image-keyboard-response","119","104575","0.0-6.0-1.57","63d40583fbdb78bfb9b0d3a4","bdp_trlrn","Tue Mar 14 2023 20:43:03 GMT-0400 (Eastern Daylight Time)","467354","Untrustworthy,Trustworthy","","831","","","","rating","","trustrating_stim/white_00898_960530_fa_edt.bmp","7","","","","","","","","","","",""
"image-keyboard-response","120","104776","0.0-6.0-2.57","63d40583fbdb78bfb9b0d3a4","bdp_trlrn","Tue Mar 14 2023 20:43:03 GMT-0400 (Eastern Daylight Time)","467354","Untrustworthy,Trustworthy","","null","","","","ratingFB","","trustrating_stim/white_00898_960530_fa_edt.bmp","null","","","","","","","","","","",""
"image-keyboard-response","121","105644","0.0-6.0-1.58","63d40583fbdb78bfb9b0d3a4","bdp_trlrn","Tue Mar 14 2023 20:43:03 GMT-0400 (Eastern Daylight Time)","467354","Untrustworthy,Trustworthy","","765","","","","rating","","trustrating_stim/white_mw049.bmp","6","","","","","","","","","","",""
"image-keyboard-response","122","105845","0.0-6.0-2.58","63d40583fbdb78bfb9b0d3a4","bdp_trlrn","Tue Mar 14 2023 20:43:03 GMT-0400 (Eastern Daylight Time)","467354","Untrustworthy,Trustworthy","","null","","","","ratingFB","","trustrating_stim/white_mw049.bmp","null","","","","","","","","","","",""
"image-keyboard-response","123","107237","0.0-6.0-1.59","63d40583fbdb78bfb9b0d3a4","bdp_trlrn","Tue Mar 14 2023 20:43:03 GMT-0400 (Eastern Daylight Time)","467354","Untrustworthy,Trustworthy","","1291","","","","rating","","trustrating_stim/white_mw033.bmp","4","","","","","","","","","","",""
"image-keyboard-response","124","107438","0.0-6.0-2.59","63d40583fbdb78bfb9b0d3a4","bdp_trlrn","Tue Mar 14 2023 20:43:03 GMT-0400 (Eastern Daylight Time)","467354","Untrustworthy,Trustworthy","","null","","","","ratingFB","","trustrating_stim/white_mw033.bmp","null","","","","","","","","","","",""
"instructions","125","108287","0.0-7.0","63d40583fbdb78bfb9b0d3a4","bdp_trlrn","Tue Mar 14 2023 20:43:03 GMT-0400 (Eastern Daylight Time)","467354","Untrustworthy,Trustworthy","[{""page_index"":0,""viewing_time"":747}]","747","","","","","","","","","","","","","","","","","",""
"instructions","126","161572","0.0-8.0","63d40583fbdb78bfb9b0d3a4","bdp_trlrn","Tue Mar 14 2023 20:43:03 GMT-0400 (Eastern Daylight Time)","467354","Untrustworthy,Trustworthy","[{""page_index"":0,""viewing_time"":22364},{""page_index"":1,""viewing_time"":3447},{""page_index"":2,""viewing_time"":11187},{""page_index"":3,""viewing_time"":5154},{""page_index"":4,""viewing_time"":1201},{""page_index"":5,""viewing_time"":5756},{""page_index"":6,""viewing_time"":2913},{""page_index"":7,""viewing_time"":1162}]","53184","","","","","","","","","","","","","","","","","",""
"html-keyboard-response","127","165629","0.0-9.0","63d40583fbdb78bfb9b0d3a4","bdp_trlrn","Tue Mar 14 2023 20:43:03 GMT-0400 (Eastern Daylight Time)","467354","Untrustworthy,Trustworthy","","4056","","","","","","<div class='header' style='text-align:left; position: absolute; top: 5%; left: 5%;'><small>Task 3 of 5</small></div><div class='instruxDiv'><p><strong>1) What is the minimum number of points you can choose to send to your partner?</strong></p><p>a) 0</p><p>b) 1</p><p>c) 5</p>","B","","","","","","","","","","",""
"html-keyboard-response","128","166611","0.0-10.0","63d40583fbdb78bfb9b0d3a4","bdp_trlrn","Tue Mar 14 2023 20:43:03 GMT-0400 (Eastern Daylight Time)","467354","Untrustworthy,Trustworthy","","880","","","","","","<div class='header' style='text-align:left; position: absolute; top: 5%; left: 5%;'><small>Task 3 of 5</small></div><div class='instruxDiv'><p><strong>1) What is the minimum number of points you can choose to send to your partner?</strong></p><p>a) 0</p><p style='color:#00FF00'>b) 1</p><p>c) 5</p><h3 style='color:#00FF00'>Correct!</h3><h3 class='center-content'>The correct response is b).</h3><h3 class='center-content'>The minimum number of points you can choose to send to your partner is 1 point.</h3><p><em>Press SPACEBAR to continue</em></p></div>"," ","","","","","","","","","","",""
"html-keyboard-response","129","169876","0.0-11.0","63d40583fbdb78bfb9b0d3a4","bdp_trlrn","Tue Mar 14 2023 20:43:03 GMT-0400 (Eastern Daylight Time)","467354","Untrustworthy,Trustworthy","","3164","","","","","","<div class='header' style='text-align:left; position: absolute; top: 5%; left: 5%;'><small>Task 3 of 5</small></div><div class='instruxDiv'><p><strong>2) What is the maximum number of points you can choose to send to your partner?</strong></p><p>a) 8</p><p>b) 5</p><p>c) 3</p>","B","","","","","","","","","","",""
"html-keyboard-response","130","170518","0.0-12.0","63d40583fbdb78bfb9b0d3a4","bdp_trlrn","Tue Mar 14 2023 20:43:03 GMT-0400 (Eastern Daylight Time)","467354","Untrustworthy,Trustworthy","","542","","","","","","<div class='header' style='text-align:left; position: absolute; top: 5%; left: 5%;'><small>Task 3 of 5</small></div><div class='instruxDiv'><p><strong>2) What is the maximum number of points you can choose to send to your partner?</strong></p><p>a) 8</p><p style='color:#00FF00'>b) 5</p><p>c) 3</p><h3 style='color:#00FF00'>Correct!</h3><h3 class='center-content'>The correct response is b).</h3><h3 class='center-content'>The maximum number of points you can choose to send to your partner is 5 points.</h3><p><em>Press SPACEBAR to continue</em></p></div>"," ","","","","","","","","","","",""
"html-keyboard-response","131","173167","0.0-13.0","63d40583fbdb78bfb9b0d3a4","bdp_trlrn","Tue Mar 14 2023 20:43:03 GMT-0400 (Eastern Daylight Time)","467354","Untrustworthy,Trustworthy","","2548","","","","","","<div class='header' style='text-align:left; position: absolute; top: 5%; left: 5%;'><small>Task 3 of 5</small></div><div class='instruxDiv'><p><strong>3) What happens to the amount of points you send to your partner?</strong></p><p>a) Nothing</p><p>b) It doubles</p><p>c) It quadruples</p>","C","","","","","","","","","","",""
"html-keyboard-response","132","173696","0.0-14.0","63d40583fbdb78bfb9b0d3a4","bdp_trlrn","Tue Mar 14 2023 20:43:03 GMT-0400 (Eastern Daylight Time)","467354","Untrustworthy,Trustworthy","","428","","","","","","<div class='header' style='text-align:left; position: absolute; top: 5%; left: 5%;'><small>Task 3 of 5</small></div><div class='instruxDiv'><p><strong>3) What happens to the amount of points you send to your partner?</strong></p><p>a) Nothing</p><p>b) It doubles</p><p style='color:#00FF00'>c) It quadruples</p><h3 style='color:#00FF00'>Correct!</h3><h3 class='center-content'>The correct response is c).</h3><h3 class='center-content'>The amount of points you send to your partner quadruples.</h3><p><em>Press SPACEBAR to continue</em></p></div>"," ","","","","","","","","","","",""
"html-keyboard-response","133","180004","0.0-15.0","63d40583fbdb78bfb9b0d3a4","bdp_trlrn","Tue Mar 14 2023 20:43:03 GMT-0400 (Eastern Daylight Time)","467354","Untrustworthy,Trustworthy","","6205","","","","","","<div class='header' style='text-align:left; position: absolute; top: 5%; left: 5%;'><small>Task 3 of 5</small></div><div class='instruxDiv'><p><strong>4) If you decided to share 4 out of 5 points with your partner, and they decided to share half of the amount they received with you, how many points would you receive back from them on this round?</strong></p><p>a) 16</p><p>b) 0</p><p>c) 8</p>","C","","","","","","","","","","",""
"html-keyboard-response","134","180601","0.0-16.0","63d40583fbdb78bfb9b0d3a4","bdp_trlrn","Tue Mar 14 2023 20:43:03 GMT-0400 (Eastern Daylight Time)","467354","Untrustworthy,Trustworthy","","497","","","","","","<div class='header' style='text-align:left; position: absolute; top: 5%; left: 5%;'><small>Task 3 of 5</small></div><div class='instruxDiv'><p><strong>4) If you decided to share 4 out of 5 points with your partner, and they decided to share half of the amount they received with you, how many points would you receive back from them on this round?</strong></p><p>a) 16</p><p>b) 0</p><p style='color:#00FF00'>c) 8</p><h3 style='color:#00FF00'>Correct!</h3><h3 class='center-content'>The correct response is c).</h3><h3 class='center-content'>If you shared 4 out of 5 points with your partner and they decided to share half of the amount they received with you, you would receive 8 points back (i.e. (4 x 4)/2 = 8).</h3><p><em>Press SPACEBAR to continue</em></p></div>"," ","","","","","","","","","","",""
"html-keyboard-response","135","185703","0.0-17.0","63d40583fbdb78bfb9b0d3a4","bdp_trlrn","Tue Mar 14 2023 20:43:03 GMT-0400 (Eastern Daylight Time)","467354","Untrustworthy,Trustworthy","","null","","","","","","<div class='header' style='text-align:left; position: absolute; top: 5%; left: 5%;'><small>Task 3 of 5</small></div><div class='instruxDiv'><p>Thank you for completing the quiz<p>These are the actual partners you will be interacting with in the next block:<p><div class='tc' align='center'><img class='introPic' src='trustrating_stim/white_00519_940519_fb_edt.bmp'><br><strong>Nathan</strong></div><div class='bl' align='center'><img class='introPic' src='trustrating_stim/white_mw060.bmp'><br><strong>David</strong></div><div class='br' align='center'><img class='introPic' src='trustrating_stim/white_00898_960530_fa_edt.bmp'><br><strong>Ethan</strong></div></div><p>Across <strong>66 rounds</strong> you will interact with each partner <strong>22 times</strong> (in random order).<p style='align:center; color:white'><font <em>Press SPACEBAR to continue</em></p>","null","","","","","","","","","","",""
"instructions","136","187109","0.0-18.0","63d40583fbdb78bfb9b0d3a4","bdp_trlrn","Tue Mar 14 2023 20:43:03 GMT-0400 (Eastern Daylight Time)","467354","Untrustworthy,Trustworthy","[{""page_index"":0,""viewing_time"":818},{""page_index"":1,""viewing_time"":588}]","1406","","","","","","","","","","","","","","","","","",""
"html-keyboard-response","137","188768","0.0-19.0-1.0","63d40583fbdb78bfb9b0d3a4","bdp_trlrn","Tue Mar 14 2023 20:43:03 GMT-0400 (Eastern Daylight Time)","467354","Untrustworthy,Trustworthy","","1558","","","","decision","","<div class='trialDiv'><img src='trustrating_stim/white_mw060.bmp'><br><font class='baseline'><strong>David</strong><p>Choose number of points to send.</font><div class='respPicDiv'><img src='img/responseButtonOffersNo0L.png' class='respPic'></div></div>","3","1","David","7","Shared","0.65,0.35","9","0.65","trustrating_stim/white_mw060.bmp","5","5","1"
"html-keyboard-response","138","189019","0.0-19.0-2.0","63d40583fbdb78bfb9b0d3a4","bdp_trlrn","Tue Mar 14 2023 20:43:03 GMT-0400 (Eastern Daylight Time)","467354","Untrustworthy,Trustworthy","","null","","","","decisionFB","","<div class='trialDiv'><img src='trustrating_stim/white_mw060.bmp'><br><font class='baseline'><strong>David</strong><p>Choose number of points to send.</font><div class='respPicDiv'><img src='img/responseButtonOffersNo0L3.png' class='respPic'></div></div>","null","1","David","7","Shared","0.65,0.35","9","0.65","trustrating_stim/white_mw060.bmp","5","2","1"
"html-keyboard-response","139","190021","0.0-19.0-3.0","63d40583fbdb78bfb9b0d3a4","bdp_trlrn","Tue Mar 14 2023 20:43:03 GMT-0400 (Eastern Daylight Time)","467354","Untrustworthy,Trustworthy","","null","","","","feedback","","<div class='trialDiv'><img src='trustrating_stim/white_mw060.bmp'><br><font class='baseline'><strong>David</strong><p>Received: <strong>12</strong></font> &nbsp; &nbsp; &nbsp; &nbsp; &nbsp; &nbsp;<font class='posOutcome'>Shared back: <strong>6</strong></font></font><div class='respPicDiv'><img src='img/responseButtonOffersNo0_wht.png' class='respPic'></div></div>","null","1","David","7","Shared","0.65,0.35","9","0.65","trustrating_stim/white_mw060.bmp","5","8","1"
"html-keyboard-response","140","192404","0.0-19.0-1.1","63d40583fbdb78bfb9b0d3a4","bdp_trlrn","Tue Mar 14 2023 20:43:03 GMT-0400 (Eastern Daylight Time)","467354","Untrustworthy,Trustworthy","","2383","","","","decision","","<div class='trialDiv'><img src='trustrating_stim/white_00519_940519_fb_edt.bmp'><br><font class='baseline'><strong>Nathan</strong><p>Choose number of points to send.</font><div class='respPicDiv'><img src='img/responseButtonOffersNo0L.png' class='respPic'></div></div>","2","1","Nathan","0","Shared","0.65,0.2","13","0.65","trustrating_stim/white_00519_940519_fb_edt.bmp","1.5","13","2"
"html-keyboard-response","141","192655","0.0-19.0-2.1","63d40583fbdb78bfb9b0d3a4","bdp_trlrn","Tue Mar 14 2023 20:43:03 GMT-0400 (Eastern Daylight Time)","467354","Untrustworthy,Trustworthy","","null","","","","decisionFB","","<div class='trialDiv'><img src='trustrating_stim/white_00519_940519_fb_edt.bmp'><br><font class='baseline'><strong>Nathan</strong><p>Choose number of points to send.</font><div class='respPicDiv'><img src='img/responseButtonOffersNo0L2.png' class='respPic'></div></div>","null","1","Nathan","0","Shared","0.65,0.2","13","0.65","trustrating_stim/white_00519_940519_fb_edt.bmp","1.5","11","2"
"html-keyboard-response","142","193655","0.0-19.0-3.1","63d40583fbdb78bfb9b0d3a4","bdp_trlrn","Tue Mar 14 2023 20:43:03 GMT-0400 (Eastern Daylight Time)","467354","Untrustworthy,Trustworthy","","null","","","","feedback","","<div class='trialDiv'><img src='trustrating_stim/white_00519_940519_fb_edt.bmp'><br><font class='baseline'><strong>Nathan</strong><p>Received: <strong>8</strong></font> &nbsp; &nbsp; &nbsp; &nbsp; &nbsp; &nbsp;<font class='posOutcome'>Shared back: <strong>4</strong></font></font><div class='respPicDiv'><img src='img/responseButtonOffersNo0_wht.png' class='respPic'></div></div>","null","1","Nathan","0","Shared","0.65,0.2","13","0.65","trustrating_stim/white_00519_940519_fb_edt.bmp","1.5","15","2"
"html-keyboard-response","143","195666","0.0-19.0-1.2","63d40583fbdb78bfb9b0d3a4","bdp_trlrn","Tue Mar 14 2023 20:43:03 GMT-0400 (Eastern Daylight Time)","467354","Untrustworthy,Trustworthy","","2010","","","","decision","","<div class='trialDiv'><img src='trustrating_stim/white_00898_960530_fa_edt.bmp'><br><font class='baseline'><strong>Ethan</strong><p>Choose number of points to send.</font><div class='respPicDiv'><img src='img/responseButtonOffersNo0L.png' class='respPic'></div></div>","3","1","Ethan","11","Kept","0.2,0.65","11","0.2","trustrating_stim/white_00898_960530_fa_edt.bmp","7","20","3"
"html-keyboard-response","144","195917","0.0-19.0-2.2","63d40583fbdb78bfb9b0d3a4","bdp_trlrn","Tue Mar 14 2023 20:43:03 GMT-0400 (Eastern Daylight Time)","467354","Untrustworthy,Trustworthy","","null","","","","decisionFB","","<div class='trialDiv'><img src='trustrating_stim/white_00898_960530_fa_edt.bmp'><br><font class='baseline'><strong>Ethan</strong><p>Choose number of points to send.</font><div class='respPicDiv'><img src='img/responseButtonOffersNo0L3.png' class='respPic'></div></div>","null","1","Ethan","11","Kept","0.2,0.65","11","0.2","trustrating_stim/white_00898_960530_fa_edt.bmp","7","17","3"
"html-keyboard-response","145","196918","0.0-19.0-3.2","63d40583fbdb78bfb9b0d3a4","bdp_trlrn","Tue Mar 14 2023 20:43:03 GMT-0400 (Eastern Daylight Time)","467354","Untrustworthy,Trustworthy","","null","","","","feedback","","<div class='trialDiv'><img src='trustrating_stim/white_00898_960530_fa_edt.bmp'><br><font class='baseline'><strong>Ethan</strong><p>Received: <strong>12</strong></font> &nbsp; &nbsp; &nbsp; &nbsp; &nbsp; &nbsp;<font class='negOutcome'>Shared back: <strong>0</strong></font></font><div class='respPicDiv'><img src='img/responseButtonOffersNo0_wht.png' class='respPic'></div></div>","null","1","Ethan","11","Kept","0.2,0.65","11","0.2","trustrating_stim/white_00898_960530_fa_edt.bmp","7","17","3"
"html-keyboard-response","146","199669","0.0-19.0-1.3","63d40583fbdb78bfb9b0d3a4","bdp_trlrn","Tue Mar 14 2023 20:43:03 GMT-0400 (Eastern Daylight Time)","467354","Untrustworthy,Trustworthy","","2751","","","","decision","","<div class='trialDiv'><img src='trustrating_stim/white_00519_940519_fb_edt.bmp'><br><font class='baseline'><strong>Nathan</strong><p>Choose number of points to send.</font><div class='respPicDiv'><img src='img/responseButtonOffersNo0L.png' class='respPic'></div></div>","5","2","Nathan","0","Shared","0.65,0.2","13","0.65","trustrating_stim/white_00519_940519_fb_edt.bmp","1.5","22","4"
"html-keyboard-response","147","199921","0.0-19.0-2.3","63d40583fbdb78bfb9b0d3a4","bdp_trlrn","Tue Mar 14 2023 20:43:03 GMT-0400 (Eastern Daylight Time)","467354","Untrustworthy,Trustworthy","","null","","","","decisionFB","","<div class='trialDiv'><img src='trustrating_stim/white_00519_940519_fb_edt.bmp'><br><font class='baseline'><strong>Nathan</strong><p>Choose number of points to send.</font><div class='respPicDiv'><img src='img/responseButtonOffersNo0L5.png' class='respPic'></div></div>","null","2","Nathan","0","Shared","0.65,0.2","13","0.65","trustrating_stim/white_00519_940519_fb_edt.bmp","1.5","17","4"
"html-keyboard-response","148","200922","0.0-19.0-3.3","63d40583fbdb78bfb9b0d3a4","bdp_trlrn","Tue Mar 14 2023 20:43:03 GMT-0400 (Eastern Daylight Time)","467354","Untrustworthy,Trustworthy","","null","","","","feedback","","<div class='trialDiv'><img src='trustrating_stim/white_00519_940519_fb_edt.bmp'><br><font class='baseline'><strong>Nathan</strong><p>Received: <strong>20</strong></font> &nbsp; &nbsp; &nbsp; &nbsp; &nbsp; &nbsp;<font class='posOutcome'>Shared back: <strong>10</strong></font></font><div class='respPicDiv'><img src='img/responseButtonOffersNo0_wht.png' class='respPic'></div></div>","null","2","Nathan","0","Shared","0.65,0.2","13","0.65","trustrating_stim/white_00519_940519_fb_edt.bmp","1.5","27","4"
"html-keyboard-response","149","203304","0.0-19.0-1.4","63d40583fbdb78bfb9b0d3a4","bdp_trlrn","Tue Mar 14 2023 20:43:03 GMT-0400 (Eastern Daylight Time)","467354","Untrustworthy,Trustworthy","","2380","","","","decision","","<div class='trialDiv'><img src='trustrating_stim/white_00898_960530_fa_edt.bmp'><br><font class='baseline'><strong>Ethan</strong><p>Choose number of points to send.</font><div class='respPicDiv'><img src='img/responseButtonOffersNo0L.png' class='respPic'></div></div>","1","2","Ethan","11","Kept","0.2,0.65","11","0.2","trustrating_stim/white_00898_960530_fa_edt.bmp","7","32","5"
"html-keyboard-response","150","203554","0.0-19.0-2.4","63d40583fbdb78bfb9b0d3a4","bdp_trlrn","Tue Mar 14 2023 20:43:03 GMT-0400 (Eastern Daylight Time)","467354","Untrustworthy,Trustworthy","","null","","","","decisionFB","","<div class='trialDiv'><img src='trustrating_stim/white_00898_960530_fa_edt.bmp'><br><font class='baseline'><strong>Ethan</strong><p>Choose number of points to send.</font><div class='respPicDiv'><img src='img/responseButtonOffersNo0L1.png' class='respPic'></div></div>","null","2","Ethan","11","Kept","0.2,0.65","11","0.2","trustrating_stim/white_00898_960530_fa_edt.bmp","7","31","5"
"html-keyboard-response","151","204555","0.0-19.0-3.4","63d40583fbdb78bfb9b0d3a4","bdp_trlrn","Tue Mar 14 2023 20:43:03 GMT-0400 (Eastern Daylight Time)","467354","Untrustworthy,Trustworthy","","null","","","","feedback","","<div class='trialDiv'><img src='trustrating_stim/white_00898_960530_fa_edt.bmp'><br><font class='baseline'><strong>Ethan</strong><p>Received: <strong>4</strong></font> &nbsp; &nbsp; &nbsp; &nbsp; &nbsp; &nbsp;<font class='negOutcome'>Shared back: <strong>0</strong></font></font><div class='respPicDiv'><img src='img/responseButtonOffersNo0_wht.png' class='respPic'></div></div>","null","2","Ethan","11","Kept","0.2,0.65","11","0.2","trustrating_stim/white_00898_960530_fa_edt.bmp","7","31","5"
"html-keyboard-response","152","205197","0.0-19.0-1.5","63d40583fbdb78bfb9b0d3a4","bdp_trlrn","Tue Mar 14 2023 20:43:03 GMT-0400 (Eastern Daylight Time)","467354","Untrustworthy,Trustworthy","","642","","","","decision","","<div class='trialDiv'><img src='trustrating_stim/white_mw060.bmp'><br><font class='baseline'><strong>David</strong><p>Choose number of points to send.</font><div class='respPicDiv'><img src='img/responseButtonOffersNo0L.png' class='respPic'></div></div>","5","2","David","7","Shared","0.65,0.35","9","0.65","trustrating_stim/white_mw060.bmp","5","36","6"
"html-keyboard-response","153","205448","0.0-19.0-2.5","63d40583fbdb78bfb9b0d3a4","bdp_trlrn","Tue Mar 14 2023 20:43:03 GMT-0400 (Eastern Daylight Time)","467354","Untrustworthy,Trustworthy","","null","","","","decisionFB","","<div class='trialDiv'><img src='trustrating_stim/white_mw060.bmp'><br><font class='baseline'><strong>David</strong><p>Choose number of points to send.</font><div class='respPicDiv'><img src='img/responseButtonOffersNo0L5.png' class='respPic'></div></div>","null","2","David","7","Shared","0.65,0.35","9","0.65","trustrating_stim/white_mw060.bmp","5","31","6"
"html-keyboard-response","154","206449","0.0-19.0-3.5","63d40583fbdb78bfb9b0d3a4","bdp_trlrn","Tue Mar 14 2023 20:43:03 GMT-0400 (Eastern Daylight Time)","467354","Untrustworthy,Trustworthy","","null","","","","feedback","","<div class='trialDiv'><img src='trustrating_stim/white_mw060.bmp'><br><font class='baseline'><strong>David</strong><p>Received: <strong>20</strong></font> &nbsp; &nbsp; &nbsp; &nbsp; &nbsp; &nbsp;<font class='posOutcome'>Shared back: <strong>10</strong></font></font><div class='respPicDiv'><img src='img/responseButtonOffersNo0_wht.png' class='respPic'></div></div>","null","2","David","7","Shared","0.65,0.35","9","0.65","trustrating_stim/white_mw060.bmp","5","41","6"
"html-keyboard-response","155","207282","0.0-19.0-1.6","63d40583fbdb78bfb9b0d3a4","bdp_trlrn","Tue Mar 14 2023 20:43:03 GMT-0400 (Eastern Daylight Time)","467354","Untrustworthy,Trustworthy","","833","","","","decision","","<div class='trialDiv'><img src='trustrating_stim/white_00898_960530_fa_edt.bmp'><br><font class='baseline'><strong>Ethan</strong><p>Choose number of points to send.</font><div class='respPicDiv'><img src='img/responseButtonOffersNo0L.png' class='respPic'></div></div>","1","3","Ethan","11","Kept","0.2,0.65","11","0.2","trustrating_stim/white_00898_960530_fa_edt.bmp","7","46","7"
"html-keyboard-response","156","207533","0.0-19.0-2.6","63d40583fbdb78bfb9b0d3a4","bdp_trlrn","Tue Mar 14 2023 20:43:03 GMT-0400 (Eastern Daylight Time)","467354","Untrustworthy,Trustworthy","","null","","","","decisionFB","","<div class='trialDiv'><img src='trustrating_stim/white_00898_960530_fa_edt.bmp'><br><font class='baseline'><strong>Ethan</strong><p>Choose number of points to send.</font><div class='respPicDiv'><img src='img/responseButtonOffersNo0L1.png' class='respPic'></div></div>","null","3","Ethan","11","Kept","0.2,0.65","11","0.2","trustrating_stim/white_00898_960530_fa_edt.bmp","7","45","7"
"html-keyboard-response","157","208535","0.0-19.0-3.6","63d40583fbdb78bfb9b0d3a4","bdp_trlrn","Tue Mar 14 2023 20:43:03 GMT-0400 (Eastern Daylight Time)","467354","Untrustworthy,Trustworthy","","null","","","","feedback","","<div class='trialDiv'><img src='trustrating_stim/white_00898_960530_fa_edt.bmp'><br><font class='baseline'><strong>Ethan</strong><p>Received: <strong>4</strong></font> &nbsp; &nbsp; &nbsp; &nbsp; &nbsp; &nbsp;<font class='negOutcome'>Shared back: <strong>0</strong></font></font><div class='respPicDiv'><img src='img/responseButtonOffersNo0_wht.png' class='respPic'></div></div>","null","3","Ethan","11","Kept","0.2,0.65","11","0.2","trustrating_stim/white_00898_960530_fa_edt.bmp","7","45","7"
"html-keyboard-response","158","208965","0.0-19.0-1.7","63d40583fbdb78bfb9b0d3a4","bdp_trlrn","Tue Mar 14 2023 20:43:03 GMT-0400 (Eastern Daylight Time)","467354","Untrustworthy,Trustworthy","","429","","","","decision","","<div class='trialDiv'><img src='trustrating_stim/white_mw060.bmp'><br><font class='baseline'><strong>David</strong><p>Choose number of points to send.</font><div class='respPicDiv'><img src='img/responseButtonOffersNo0L.png' class='respPic'></div></div>","5","3","David","7","Shared","0.65,0.35","9","0.65","trustrating_stim/white_mw060.bmp","5","50","8"
"html-keyboard-response","159","209217","0.0-19.0-2.7","63d40583fbdb78bfb9b0d3a4","bdp_trlrn","Tue Mar 14 2023 20:43:03 GMT-0400 (Eastern Daylight Time)","467354","Untrustworthy,Trustworthy","","null","","","","decisionFB","","<div class='trialDiv'><img src='trustrating_stim/white_mw060.bmp'><br><font class='baseline'><strong>David</strong><p>Choose number of points to send.</font><div class='respPicDiv'><img src='img/responseButtonOffersNo0L5.png' class='respPic'></div></div>","null","3","David","7","Shared","0.65,0.35","9","0.65","trustrating_stim/white_mw060.bmp","5","45","8"
"html-keyboard-response","160","210219","0.0-19.0-3.7","63d40583fbdb78bfb9b0d3a4","bdp_trlrn","Tue Mar 14 2023 20:43:03 GMT-0400 (Eastern Daylight Time)","467354","Untrustworthy,Trustworthy","","null","","","","feedback","","<div class='trialDiv'><img src='trustrating_stim/white_mw060.bmp'><br><font class='baseline'><strong>David</strong><p>Received: <strong>20</strong></font> &nbsp; &nbsp; &nbsp; &nbsp; &nbsp; &nbsp;<font class='posOutcome'>Shared back: <strong>10</strong></font></font><div class='respPicDiv'><img src='img/responseButtonOffersNo0_wht.png' class='respPic'></div></div>","null","3","David","7","Shared","0.65,0.35","9","0.65","trustrating_stim/white_mw060.bmp","5","55","8"
"html-keyboard-response","161","210649","0.0-19.0-1.8","63d40583fbdb78bfb9b0d3a4","bdp_trlrn","Tue Mar 14 2023 20:43:03 GMT-0400 (Eastern Daylight Time)","467354","Untrustworthy,Trustworthy","","430","","","","decision","","<div class='trialDiv'><img src='trustrating_stim/white_00519_940519_fb_edt.bmp'><br><font class='baseline'><strong>Nathan</strong><p>Choose number of points to send.</font><div class='respPicDiv'><img src='img/responseButtonOffersNo0L.png' class='respPic'></div></div>","5","3","Nathan","0","Shared","0.65,0.2","13","0.65","trustrating_stim/white_00519_940519_fb_edt.bmp","1.5","60","9"
"html-keyboard-response","162","210901","0.0-19.0-2.8","63d40583fbdb78bfb9b0d3a4","bdp_trlrn","Tue Mar 14 2023 20:43:03 GMT-0400 (Eastern Daylight Time)","467354","Untrustworthy,Trustworthy","","null","","","","decisionFB","","<div class='trialDiv'><img src='trustrating_stim/white_00519_940519_fb_edt.bmp'><br><font class='baseline'><strong>Nathan</strong><p>Choose number of points to send.</font><div class='respPicDiv'><img src='img/responseButtonOffersNo0L5.png' class='respPic'></div></div>","null","3","Nathan","0","Shared","0.65,0.2","13","0.65","trustrating_stim/white_00519_940519_fb_edt.bmp","1.5","55","9"
"html-keyboard-response","163","211917","0.0-19.0-3.8","63d40583fbdb78bfb9b0d3a4","bdp_trlrn","Tue Mar 14 2023 20:43:03 GMT-0400 (Eastern Daylight Time)","467354","Untrustworthy,Trustworthy","","null","","","","feedback","","<div class='trialDiv'><img src='trustrating_stim/white_00519_940519_fb_edt.bmp'><br><font class='baseline'><strong>Nathan</strong><p>Received: <strong>20</strong></font> &nbsp; &nbsp; &nbsp; &nbsp; &nbsp; &nbsp;<font class='posOutcome'>Shared back: <strong>10</strong></font></font><div class='respPicDiv'><img src='img/responseButtonOffersNo0_wht.png' class='respPic'></div></div>","null","3","Nathan","0","Shared","0.65,0.2","13","0.65","trustrating_stim/white_00519_940519_fb_edt.bmp","1.5","65","9"
"html-keyboard-response","164","212363","0.0-19.0-1.9","63d40583fbdb78bfb9b0d3a4","bdp_trlrn","Tue Mar 14 2023 20:43:03 GMT-0400 (Eastern Daylight Time)","467354","Untrustworthy,Trustworthy","","445","","","","decision","","<div class='trialDiv'><img src='trustrating_stim/white_00898_960530_fa_edt.bmp'><br><font class='baseline'><strong>Ethan</strong><p>Choose number of points to send.</font><div class='respPicDiv'><img src='img/responseButtonOffersNo0L.png' class='respPic'></div></div>","1","4","Ethan","11","Kept","0.2,0.65","11","0.2","trustrating_stim/white_00898_960530_fa_edt.bmp","7","70","10"
"html-keyboard-response","165","212615","0.0-19.0-2.9","63d40583fbdb78bfb9b0d3a4","bdp_trlrn","Tue Mar 14 2023 20:43:03 GMT-0400 (Eastern Daylight Time)","467354","Untrustworthy,Trustworthy","","null","","","","decisionFB","","<div class='trialDiv'><img src='trustrating_stim/white_00898_960530_fa_edt.bmp'><br><font class='baseline'><strong>Ethan</strong><p>Choose number of points to send.</font><div class='respPicDiv'><img src='img/responseButtonOffersNo0L1.png' class='respPic'></div></div>","null","4","Ethan","11","Kept","0.2,0.65","11","0.2","trustrating_stim/white_00898_960530_fa_edt.bmp","7","69","10"
"html-keyboard-response","166","213616","0.0-19.0-3.9","63d40583fbdb78bfb9b0d3a4","bdp_trlrn","Tue Mar 14 2023 20:43:03 GMT-0400 (Eastern Daylight Time)","467354","Untrustworthy,Trustworthy","","null","","","","feedback","","<div class='trialDiv'><img src='trustrating_stim/white_00898_960530_fa_edt.bmp'><br><font class='baseline'><strong>Ethan</strong><p>Received: <strong>4</strong></font> &nbsp; &nbsp; &nbsp; &nbsp; &nbsp; &nbsp;<font class='negOutcome'>Shared back: <strong>0</strong></font></font><div class='respPicDiv'><img src='img/responseButtonOffersNo0_wht.png' class='respPic'></div></div>","null","4","Ethan","11","Kept","0.2,0.65","11","0.2","trustrating_stim/white_00898_960530_fa_edt.bmp","7","69","10"
"html-keyboard-response","167","214071","0.0-19.0-1.10","63d40583fbdb78bfb9b0d3a4","bdp_trlrn","Tue Mar 14 2023 20:43:03 GMT-0400 (Eastern Daylight Time)","467354","Untrustworthy,Trustworthy","","454","","","","decision","","<div class='trialDiv'><img src='trustrating_stim/white_mw060.bmp'><br><font class='baseline'><strong>David</strong><p>Choose number of points to send.</font><div class='respPicDiv'><img src='img/responseButtonOffersNo0L.png' class='respPic'></div></div>","5","4","David","7","Shared","0.65,0.35","9","0.65","trustrating_stim/white_mw060.bmp","5","74","11"
"html-keyboard-response","168","214322","0.0-19.0-2.10","63d40583fbdb78bfb9b0d3a4","bdp_trlrn","Tue Mar 14 2023 20:43:03 GMT-0400 (Eastern Daylight Time)","467354","Untrustworthy,Trustworthy","","null","","","","decisionFB","","<div class='trialDiv'><img src='trustrating_stim/white_mw060.bmp'><br><font class='baseline'><strong>David</strong><p>Choose number of points to send.</font><div class='respPicDiv'><img src='img/responseButtonOffersNo0L5.png' class='respPic'></div></div>","null","4","David","7","Shared","0.65,0.35","9","0.65","trustrating_stim/white_mw060.bmp","5","69","11"
"html-keyboard-response","169","215323","0.0-19.0-3.10","63d40583fbdb78bfb9b0d3a4","bdp_trlrn","Tue Mar 14 2023 20:43:03 GMT-0400 (Eastern Daylight Time)","467354","Untrustworthy,Trustworthy","","null","","","","feedback","","<div class='trialDiv'><img src='trustrating_stim/white_mw060.bmp'><br><font class='baseline'><strong>David</strong><p>Received: <strong>20</strong></font> &nbsp; &nbsp; &nbsp; &nbsp; &nbsp; &nbsp;<font class='posOutcome'>Shared back: <strong>10</strong></font></font><div class='respPicDiv'><img src='img/responseButtonOffersNo0_wht.png' class='respPic'></div></div>","null","4","David","7","Shared","0.65,0.35","9","0.65","trustrating_stim/white_mw060.bmp","5","79","11"
"html-keyboard-response","170","215799","0.0-19.0-1.11","63d40583fbdb78bfb9b0d3a4","bdp_trlrn","Tue Mar 14 2023 20:43:03 GMT-0400 (Eastern Daylight Time)","467354","Untrustworthy,Trustworthy","","475","","","","decision","","<div class='trialDiv'><img src='trustrating_stim/white_00519_940519_fb_edt.bmp'><br><font class='baseline'><strong>Nathan</strong><p>Choose number of points to send.</font><div class='respPicDiv'><img src='img/responseButtonOffersNo0L.png' class='respPic'></div></div>","5","4","Nathan","0","Kept","0.65,0.2","13","0.65","trustrating_stim/white_00519_940519_fb_edt.bmp","1.5","84","12"
"html-keyboard-response","171","216051","0.0-19.0-2.11","63d40583fbdb78bfb9b0d3a4","bdp_trlrn","Tue Mar 14 2023 20:43:03 GMT-0400 (Eastern Daylight Time)","467354","Untrustworthy,Trustworthy","","null","","","","decisionFB","","<div class='trialDiv'><img src='trustrating_stim/white_00519_940519_fb_edt.bmp'><br><font class='baseline'><strong>Nathan</strong><p>Choose number of points to send.</font><div class='respPicDiv'><img src='img/responseButtonOffersNo0L5.png' class='respPic'></div></div>","null","4","Nathan","0","Kept","0.65,0.2","13","0.65","trustrating_stim/white_00519_940519_fb_edt.bmp","1.5","79","12"
"html-keyboard-response","172","217053","0.0-19.0-3.11","63d40583fbdb78bfb9b0d3a4","bdp_trlrn","Tue Mar 14 2023 20:43:03 GMT-0400 (Eastern Daylight Time)","467354","Untrustworthy,Trustworthy","","null","","","","feedback","","<div class='trialDiv'><img src='trustrating_stim/white_00519_940519_fb_edt.bmp'><br><font class='baseline'><strong>Nathan</strong><p>Received: <strong>20</strong></font> &nbsp; &nbsp; &nbsp; &nbsp; &nbsp; &nbsp;<font class='negOutcome'>Shared back: <strong>0</strong></font></font><div class='respPicDiv'><img src='img/responseButtonOffersNo0_wht.png' class='respPic'></div></div>","null","4","Nathan","0","Kept","0.65,0.2","13","0.65","trustrating_stim/white_00519_940519_fb_edt.bmp","1.5","79","12"
"html-keyboard-response","173","217428","0.0-19.0-1.12","63d40583fbdb78bfb9b0d3a4","bdp_trlrn","Tue Mar 14 2023 20:43:03 GMT-0400 (Eastern Daylight Time)","467354","Untrustworthy,Trustworthy","","375","","","","decision","","<div class='trialDiv'><img src='trustrating_stim/white_00898_960530_fa_edt.bmp'><br><font class='baseline'><strong>Ethan</strong><p>Choose number of points to send.</font><div class='respPicDiv'><img src='img/responseButtonOffersNo0L.png' class='respPic'></div></div>","5","5","Ethan","11","Kept","0.2,0.65","11","0.2","trustrating_stim/white_00898_960530_fa_edt.bmp","7","84","13"
"html-keyboard-response","174","217680","0.0-19.0-2.12","63d40583fbdb78bfb9b0d3a4","bdp_trlrn","Tue Mar 14 2023 20:43:03 GMT-0400 (Eastern Daylight Time)","467354","Untrustworthy,Trustworthy","","null","","","","decisionFB","","<div class='trialDiv'><img src='trustrating_stim/white_00898_960530_fa_edt.bmp'><br><font class='baseline'><strong>Ethan</strong><p>Choose number of points to send.</font><div class='respPicDiv'><img src='img/responseButtonOffersNo0L5.png' class='respPic'></div></div>","null","5","Ethan","11","Kept","0.2,0.65","11","0.2","trustrating_stim/white_00898_960530_fa_edt.bmp","7","79","13"
"html-keyboard-response","175","218681","0.0-19.0-3.12","63d40583fbdb78bfb9b0d3a4","bdp_trlrn","Tue Mar 14 2023 20:43:03 GMT-0400 (Eastern Daylight Time)","467354","Untrustworthy,Trustworthy","","null","","","","feedback","","<div class='trialDiv'><img src='trustrating_stim/white_00898_960530_fa_edt.bmp'><br><font class='baseline'><strong>Ethan</strong><p>Received: <strong>20</strong></font> &nbsp; &nbsp; &nbsp; &nbsp; &nbsp; &nbsp;<font class='negOutcome'>Shared back: <strong>0</strong></font></font><div class='respPicDiv'><img src='img/responseButtonOffersNo0_wht.png' class='respPic'></div></div>","null","5","Ethan","11","Kept","0.2,0.65","11","0.2","trustrating_stim/white_00898_960530_fa_edt.bmp","7","79","13"
"html-keyboard-response","176","220390","0.0-19.0-1.13","63d40583fbdb78bfb9b0d3a4","bdp_trlrn","Tue Mar 14 2023 20:43:03 GMT-0400 (Eastern Daylight Time)","467354","Untrustworthy,Trustworthy","","1708","","","","decision","","<div class='trialDiv'><img src='trustrating_stim/white_00519_940519_fb_edt.bmp'><br><font class='baseline'><strong>Nathan</strong><p>Choose number of points to send.</font><div class='respPicDiv'><img src='img/responseButtonOffersNo0L.png' class='respPic'></div></div>","2","5","Nathan","0","Shared","0.65,0.2","13","0.65","trustrating_stim/white_00519_940519_fb_edt.bmp","1.5","84","14"
"html-keyboard-response","177","220641","0.0-19.0-2.13","63d40583fbdb78bfb9b0d3a4","bdp_trlrn","Tue Mar 14 2023 20:43:03 GMT-0400 (Eastern Daylight Time)","467354","Untrustworthy,Trustworthy","","null","","","","decisionFB","","<div class='trialDiv'><img src='trustrating_stim/white_00519_940519_fb_edt.bmp'><br><font class='baseline'><strong>Nathan</strong><p>Choose number of points to send.</font><div class='respPicDiv'><img src='img/responseButtonOffersNo0L2.png' class='respPic'></div></div>","null","5","Nathan","0","Shared","0.65,0.2","13","0.65","trustrating_stim/white_00519_940519_fb_edt.bmp","1.5","82","14"
"html-keyboard-response","178","221643","0.0-19.0-3.13","63d40583fbdb78bfb9b0d3a4","bdp_trlrn","Tue Mar 14 2023 20:43:03 GMT-0400 (Eastern Daylight Time)","467354","Untrustworthy,Trustworthy","","null","","","","feedback","","<div class='trialDiv'><img src='trustrating_stim/white_00519_940519_fb_edt.bmp'><br><font class='baseline'><strong>Nathan</strong><p>Received: <strong>8</strong></font> &nbsp; &nbsp; &nbsp; &nbsp; &nbsp; &nbsp;<font class='posOutcome'>Shared back: <strong>4</strong></font></font><div class='respPicDiv'><img src='img/responseButtonOffersNo0_wht.png' class='respPic'></div></div>","null","5","Nathan","0","Shared","0.65,0.2","13","0.65","trustrating_stim/white_00519_940519_fb_edt.bmp","1.5","86","14"
"html-keyboard-response","179","222230","0.0-19.0-1.14","63d40583fbdb78bfb9b0d3a4","bdp_trlrn","Tue Mar 14 2023 20:43:03 GMT-0400 (Eastern Daylight Time)","467354","Untrustworthy,Trustworthy","","587","","","","decision","","<div class='trialDiv'><img src='trustrating_stim/white_mw060.bmp'><br><font class='baseline'><strong>David</strong><p>Choose number of points to send.</font><div class='respPicDiv'><img src='img/responseButtonOffersNo0L.png' class='respPic'></div></div>","5","5","David","7","Kept","0.65,0.35","9","0.65","trustrating_stim/white_mw060.bmp","5","91","15"
"html-keyboard-response","180","222482","0.0-19.0-2.14","63d40583fbdb78bfb9b0d3a4","bdp_trlrn","Tue Mar 14 2023 20:43:03 GMT-0400 (Eastern Daylight Time)","467354","Untrustworthy,Trustworthy","","null","","","","decisionFB","","<div class='trialDiv'><img src='trustrating_stim/white_mw060.bmp'><br><font class='baseline'><strong>David</strong><p>Choose number of points to send.</font><div class='respPicDiv'><img src='img/responseButtonOffersNo0L5.png' class='respPic'></div></div>","null","5","David","7","Kept","0.65,0.35","9","0.65","trustrating_stim/white_mw060.bmp","5","86","15"
"html-keyboard-response","181","223483","0.0-19.0-3.14","63d40583fbdb78bfb9b0d3a4","bdp_trlrn","Tue Mar 14 2023 20:43:03 GMT-0400 (Eastern Daylight Time)","467354","Untrustworthy,Trustworthy","","null","","","","feedback","","<div class='trialDiv'><img src='trustrating_stim/white_mw060.bmp'><br><font class='baseline'><strong>David</strong><p>Received: <strong>20</strong></font> &nbsp; &nbsp; &nbsp; &nbsp; &nbsp; &nbsp;<font class='negOutcome'>Shared back: <strong>0</strong></font></font><div class='respPicDiv'><img src='img/responseButtonOffersNo0_wht.png' class='respPic'></div></div>","null","5","David","7","Kept","0.65,0.35","9","0.65","trustrating_stim/white_mw060.bmp","5","86","15"
"html-keyboard-response","182","224356","0.0-19.0-1.15","63d40583fbdb78bfb9b0d3a4","bdp_trlrn","Tue Mar 14 2023 20:43:03 GMT-0400 (Eastern Daylight Time)","467354","Untrustworthy,Trustworthy","","871","","","","decision","","<div class='trialDiv'><img src='trustrating_stim/white_00519_940519_fb_edt.bmp'><br><font class='baseline'><strong>Nathan</strong><p>Choose number of points to send.</font><div class='respPicDiv'><img src='img/responseButtonOffersNo0L.png' class='respPic'></div></div>","2","6","Nathan","0","Shared","0.65,0.2","13","0.65","trustrating_stim/white_00519_940519_fb_edt.bmp","1.5","91","16"
"html-keyboard-response","183","224607","0.0-19.0-2.15","63d40583fbdb78bfb9b0d3a4","bdp_trlrn","Tue Mar 14 2023 20:43:03 GMT-0400 (Eastern Daylight Time)","467354","Untrustworthy,Trustworthy","","null","","","","decisionFB","","<div class='trialDiv'><img src='trustrating_stim/white_00519_940519_fb_edt.bmp'><br><font class='baseline'><strong>Nathan</strong><p>Choose number of points to send.</font><div class='respPicDiv'><img src='img/responseButtonOffersNo0L2.png' class='respPic'></div></div>","null","6","Nathan","0","Shared","0.65,0.2","13","0.65","trustrating_stim/white_00519_940519_fb_edt.bmp","1.5","89","16"
"html-keyboard-response","184","225608","0.0-19.0-3.15","63d40583fbdb78bfb9b0d3a4","bdp_trlrn","Tue Mar 14 2023 20:43:03 GMT-0400 (Eastern Daylight Time)","467354","Untrustworthy,Trustworthy","","null","","","","feedback","","<div class='trialDiv'><img src='trustrating_stim/white_00519_940519_fb_edt.bmp'><br><font class='baseline'><strong>Nathan</strong><p>Received: <strong>8</strong></font> &nbsp; &nbsp; &nbsp; &nbsp; &nbsp; &nbsp;<font class='posOutcome'>Shared back: <strong>4</strong></font></font><div class='respPicDiv'><img src='img/responseButtonOffersNo0_wht.png' class='respPic'></div></div>","null","6","Nathan","0","Shared","0.65,0.2","13","0.65","trustrating_stim/white_00519_940519_fb_edt.bmp","1.5","93","16"
"html-keyboard-response","185","226493","0.0-19.0-1.16","63d40583fbdb78bfb9b0d3a4","bdp_trlrn","Tue Mar 14 2023 20:43:03 GMT-0400 (Eastern Daylight Time)","467354","Untrustworthy,Trustworthy","","885","","","","decision","","<div class='trialDiv'><img src='trustrating_stim/white_00898_960530_fa_edt.bmp'><br><font class='baseline'><strong>Ethan</strong><p>Choose number of points to send.</font><div class='respPicDiv'><img src='img/responseButtonOffersNo0L.png' class='respPic'></div></div>","3","6","Ethan","11","Kept","0.2,0.65","11","0.2","trustrating_stim/white_00898_960530_fa_edt.bmp","7","98","17"
"html-keyboard-response","186","226744","0.0-19.0-2.16","63d40583fbdb78bfb9b0d3a4","bdp_trlrn","Tue Mar 14 2023 20:43:03 GMT-0400 (Eastern Daylight Time)","467354","Untrustworthy,Trustworthy","","null","","","","decisionFB","","<div class='trialDiv'><img src='trustrating_stim/white_00898_960530_fa_edt.bmp'><br><font class='baseline'><strong>Ethan</strong><p>Choose number of points to send.</font><div class='respPicDiv'><img src='img/responseButtonOffersNo0L3.png' class='respPic'></div></div>","null","6","Ethan","11","Kept","0.2,0.65","11","0.2","trustrating_stim/white_00898_960530_fa_edt.bmp","7","95","17"
"html-keyboard-response","187","227746","0.0-19.0-3.16","63d40583fbdb78bfb9b0d3a4","bdp_trlrn","Tue Mar 14 2023 20:43:03 GMT-0400 (Eastern Daylight Time)","467354","Untrustworthy,Trustworthy","","null","","","","feedback","","<div class='trialDiv'><img src='trustrating_stim/white_00898_960530_fa_edt.bmp'><br><font class='baseline'><strong>Ethan</strong><p>Received: <strong>12</strong></font> &nbsp; &nbsp; &nbsp; &nbsp; &nbsp; &nbsp;<font class='negOutcome'>Shared back: <strong>0</strong></font></font><div class='respPicDiv'><img src='img/responseButtonOffersNo0_wht.png' class='respPic'></div></div>","null","6","Ethan","11","Kept","0.2,0.65","11","0.2","trustrating_stim/white_00898_960530_fa_edt.bmp","7","95","17"
"html-keyboard-response","188","228231","0.0-19.0-1.17","63d40583fbdb78bfb9b0d3a4","bdp_trlrn","Tue Mar 14 2023 20:43:03 GMT-0400 (Eastern Daylight Time)","467354","Untrustworthy,Trustworthy","","485","","","","decision","","<div class='trialDiv'><img src='trustrating_stim/white_mw060.bmp'><br><font class='baseline'><strong>David</strong><p>Choose number of points to send.</font><div class='respPicDiv'><img src='img/responseButtonOffersNo0L.png' class='respPic'></div></div>","2","6","David","7","Shared","0.65,0.35","9","0.65","trustrating_stim/white_mw060.bmp","5","100","18"
"html-keyboard-response","189","228483","0.0-19.0-2.17","63d40583fbdb78bfb9b0d3a4","bdp_trlrn","Tue Mar 14 2023 20:43:03 GMT-0400 (Eastern Daylight Time)","467354","Untrustworthy,Trustworthy","","null","","","","decisionFB","","<div class='trialDiv'><img src='trustrating_stim/white_mw060.bmp'><br><font class='baseline'><strong>David</strong><p>Choose number of points to send.</font><div class='respPicDiv'><img src='img/responseButtonOffersNo0L2.png' class='respPic'></div></div>","null","6","David","7","Shared","0.65,0.35","9","0.65","trustrating_stim/white_mw060.bmp","5","98","18"
"html-keyboard-response","190","229484","0.0-19.0-3.17","63d40583fbdb78bfb9b0d3a4","bdp_trlrn","Tue Mar 14 2023 20:43:03 GMT-0400 (Eastern Daylight Time)","467354","Untrustworthy,Trustworthy","","null","","","","feedback","","<div class='trialDiv'><img src='trustrating_stim/white_mw060.bmp'><br><font class='baseline'><strong>David</strong><p>Received: <strong>8</strong></font> &nbsp; &nbsp; &nbsp; &nbsp; &nbsp; &nbsp;<font class='posOutcome'>Shared back: <strong>4</strong></font></font><div class='respPicDiv'><img src='img/responseButtonOffersNo0_wht.png' class='respPic'></div></div>","null","6","David","7","Shared","0.65,0.35","9","0.65","trustrating_stim/white_mw060.bmp","5","102","18"
"html-keyboard-response","191","230056","0.0-19.0-1.18","63d40583fbdb78bfb9b0d3a4","bdp_trlrn","Tue Mar 14 2023 20:43:03 GMT-0400 (Eastern Daylight Time)","467354","Untrustworthy,Trustworthy","","571","","","","decision","","<div class='trialDiv'><img src='trustrating_stim/white_00519_940519_fb_edt.bmp'><br><font class='baseline'><strong>Nathan</strong><p>Choose number of points to send.</font><div class='respPicDiv'><img src='img/responseButtonOffersNo0L.png' class='respPic'></div></div>","1","7","Nathan","0","Shared","0.65,0.2","13","0.65","trustrating_stim/white_00519_940519_fb_edt.bmp","1.5","107","19"
"html-keyboard-response","192","230307","0.0-19.0-2.18","63d40583fbdb78bfb9b0d3a4","bdp_trlrn","Tue Mar 14 2023 20:43:03 GMT-0400 (Eastern Daylight Time)","467354","Untrustworthy,Trustworthy","","null","","","","decisionFB","","<div class='trialDiv'><img src='trustrating_stim/white_00519_940519_fb_edt.bmp'><br><font class='baseline'><strong>Nathan</strong><p>Choose number of points to send.</font><div class='respPicDiv'><img src='img/responseButtonOffersNo0L1.png' class='respPic'></div></div>","null","7","Nathan","0","Shared","0.65,0.2","13","0.65","trustrating_stim/white_00519_940519_fb_edt.bmp","1.5","106","19"
"html-keyboard-response","193","231308","0.0-19.0-3.18","63d40583fbdb78bfb9b0d3a4","bdp_trlrn","Tue Mar 14 2023 20:43:03 GMT-0400 (Eastern Daylight Time)","467354","Untrustworthy,Trustworthy","","null","","","","feedback","","<div class='trialDiv'><img src='trustrating_stim/white_00519_940519_fb_edt.bmp'><br><font class='baseline'><strong>Nathan</strong><p>Received: <strong>4</strong></font> &nbsp; &nbsp; &nbsp; &nbsp; &nbsp; &nbsp;<font class='posOutcome'>Shared back: <strong>2</strong></font></font><div class='respPicDiv'><img src='img/responseButtonOffersNo0_wht.png' class='respPic'></div></div>","null","7","Nathan","0","Shared","0.65,0.2","13","0.65","trustrating_stim/white_00519_940519_fb_edt.bmp","1.5","108","19"
"html-keyboard-response","194","232030","0.0-19.0-1.19","63d40583fbdb78bfb9b0d3a4","bdp_trlrn","Tue Mar 14 2023 20:43:03 GMT-0400 (Eastern Daylight Time)","467354","Untrustworthy,Trustworthy","","721","","","","decision","","<div class='trialDiv'><img src='trustrating_stim/white_00898_960530_fa_edt.bmp'><br><font class='baseline'><strong>Ethan</strong><p>Choose number of points to send.</font><div class='respPicDiv'><img src='img/responseButtonOffersNo0L.png' class='respPic'></div></div>","2","7","Ethan","11","Kept","0.2,0.65","11","0.2","trustrating_stim/white_00898_960530_fa_edt.bmp","7","113","20"
"html-keyboard-response","195","232281","0.0-19.0-2.19","63d40583fbdb78bfb9b0d3a4","bdp_trlrn","Tue Mar 14 2023 20:43:03 GMT-0400 (Eastern Daylight Time)","467354","Untrustworthy,Trustworthy","","null","","","","decisionFB","","<div class='trialDiv'><img src='trustrating_stim/white_00898_960530_fa_edt.bmp'><br><font class='baseline'><strong>Ethan</strong><p>Choose number of points to send.</font><div class='respPicDiv'><img src='img/responseButtonOffersNo0L2.png' class='respPic'></div></div>","null","7","Ethan","11","Kept","0.2,0.65","11","0.2","trustrating_stim/white_00898_960530_fa_edt.bmp","7","111","20"
"html-keyboard-response","196","233282","0.0-19.0-3.19","63d40583fbdb78bfb9b0d3a4","bdp_trlrn","Tue Mar 14 2023 20:43:03 GMT-0400 (Eastern Daylight Time)","467354","Untrustworthy,Trustworthy","","null","","","","feedback","","<div class='trialDiv'><img src='trustrating_stim/white_00898_960530_fa_edt.bmp'><br><font class='baseline'><strong>Ethan</strong><p>Received: <strong>8</strong></font> &nbsp; &nbsp; &nbsp; &nbsp; &nbsp; &nbsp;<font class='negOutcome'>Shared back: <strong>0</strong></font></font><div class='respPicDiv'><img src='img/responseButtonOffersNo0_wht.png' class='respPic'></div></div>","null","7","Ethan","11","Kept","0.2,0.65","11","0.2","trustrating_stim/white_00898_960530_fa_edt.bmp","7","111","20"
"html-keyboard-response","197","233939","0.0-19.0-1.20","63d40583fbdb78bfb9b0d3a4","bdp_trlrn","Tue Mar 14 2023 20:43:03 GMT-0400 (Eastern Daylight Time)","467354","Untrustworthy,Trustworthy","","656","","","","decision","","<div class='trialDiv'><img src='trustrating_stim/white_mw060.bmp'><br><font class='baseline'><strong>David</strong><p>Choose number of points to send.</font><div class='respPicDiv'><img src='img/responseButtonOffersNo0L.png' class='respPic'></div></div>","5","7","David","7","Kept","0.65,0.35","9","0.65","trustrating_stim/white_mw060.bmp","5","116","21"
"html-keyboard-response","198","234190","0.0-19.0-2.20","63d40583fbdb78bfb9b0d3a4","bdp_trlrn","Tue Mar 14 2023 20:43:03 GMT-0400 (Eastern Daylight Time)","467354","Untrustworthy,Trustworthy","","null","","","","decisionFB","","<div class='trialDiv'><img src='trustrating_stim/white_mw060.bmp'><br><font class='baseline'><strong>David</strong><p>Choose number of points to send.</font><div class='respPicDiv'><img src='img/responseButtonOffersNo0L5.png' class='respPic'></div></div>","null","7","David","7","Kept","0.65,0.35","9","0.65","trustrating_stim/white_mw060.bmp","5","111","21"
"html-keyboard-response","199","235191","0.0-19.0-3.20","63d40583fbdb78bfb9b0d3a4","bdp_trlrn","Tue Mar 14 2023 20:43:03 GMT-0400 (Eastern Daylight Time)","467354","Untrustworthy,Trustworthy","","null","","","","feedback","","<div class='trialDiv'><img src='trustrating_stim/white_mw060.bmp'><br><font class='baseline'><strong>David</strong><p>Received: <strong>20</strong></font> &nbsp; &nbsp; &nbsp; &nbsp; &nbsp; &nbsp;<font class='negOutcome'>Shared back: <strong>0</strong></font></font><div class='respPicDiv'><img src='img/responseButtonOffersNo0_wht.png' class='respPic'></div></div>","null","7","David","7","Kept","0.65,0.35","9","0.65","trustrating_stim/white_mw060.bmp","5","111","21"
"html-keyboard-response","200","235645","0.0-19.0-1.21","63d40583fbdb78bfb9b0d3a4","bdp_trlrn","Tue Mar 14 2023 20:43:03 GMT-0400 (Eastern Daylight Time)","467354","Untrustworthy,Trustworthy","","452","","","","decision","","<div class='trialDiv'><img src='trustrating_stim/white_00519_940519_fb_edt.bmp'><br><font class='baseline'><strong>Nathan</strong><p>Choose number of points to send.</font><div class='respPicDiv'><img src='img/responseButtonOffersNo0L.png' class='respPic'></div></div>","1","8","Nathan","0","Shared","0.65,0.2","13","0.65","trustrating_stim/white_00519_940519_fb_edt.bmp","1.5","116","22"
"html-keyboard-response","201","235895","0.0-19.0-2.21","63d40583fbdb78bfb9b0d3a4","bdp_trlrn","Tue Mar 14 2023 20:43:03 GMT-0400 (Eastern Daylight Time)","467354","Untrustworthy,Trustworthy","","null","","","","decisionFB","","<div class='trialDiv'><img src='trustrating_stim/white_00519_940519_fb_edt.bmp'><br><font class='baseline'><strong>Nathan</strong><p>Choose number of points to send.</font><div class='respPicDiv'><img src='img/responseButtonOffersNo0L1.png' class='respPic'></div></div>","null","8","Nathan","0","Shared","0.65,0.2","13","0.65","trustrating_stim/white_00519_940519_fb_edt.bmp","1.5","115","22"
"html-keyboard-response","202","236902","0.0-19.0-3.21","63d40583fbdb78bfb9b0d3a4","bdp_trlrn","Tue Mar 14 2023 20:43:03 GMT-0400 (Eastern Daylight Time)","467354","Untrustworthy,Trustworthy","","null","","","","feedback","","<div class='trialDiv'><img src='trustrating_stim/white_00519_940519_fb_edt.bmp'><br><font class='baseline'><strong>Nathan</strong><p>Received: <strong>4</strong></font> &nbsp; &nbsp; &nbsp; &nbsp; &nbsp; &nbsp;<font class='posOutcome'>Shared back: <strong>2</strong></font></font><div class='respPicDiv'><img src='img/responseButtonOffersNo0_wht.png' class='respPic'></div></div>","null","8","Nathan","0","Shared","0.65,0.2","13","0.65","trustrating_stim/white_00519_940519_fb_edt.bmp","1.5","117","22"
"html-keyboard-response","203","237726","0.0-19.0-1.22","63d40583fbdb78bfb9b0d3a4","bdp_trlrn","Tue Mar 14 2023 20:43:03 GMT-0400 (Eastern Daylight Time)","467354","Untrustworthy,Trustworthy","","824","","","","decision","","<div class='trialDiv'><img src='trustrating_stim/white_00898_960530_fa_edt.bmp'><br><font class='baseline'><strong>Ethan</strong><p>Choose number of points to send.</font><div class='respPicDiv'><img src='img/responseButtonOffersNo0L.png' class='respPic'></div></div>","2","8","Ethan","11","Kept","0.2,0.65","11","0.2","trustrating_stim/white_00898_960530_fa_edt.bmp","7","122","23"
"html-keyboard-response","204","237978","0.0-19.0-2.22","63d40583fbdb78bfb9b0d3a4","bdp_trlrn","Tue Mar 14 2023 20:43:03 GMT-0400 (Eastern Daylight Time)","467354","Untrustworthy,Trustworthy","","null","","","","decisionFB","","<div class='trialDiv'><img src='trustrating_stim/white_00898_960530_fa_edt.bmp'><br><font class='baseline'><strong>Ethan</strong><p>Choose number of points to send.</font><div class='respPicDiv'><img src='img/responseButtonOffersNo0L2.png' class='respPic'></div></div>","null","8","Ethan","11","Kept","0.2,0.65","11","0.2","trustrating_stim/white_00898_960530_fa_edt.bmp","7","120","23"
"html-keyboard-response","205","238980","0.0-19.0-3.22","63d40583fbdb78bfb9b0d3a4","bdp_trlrn","Tue Mar 14 2023 20:43:03 GMT-0400 (Eastern Daylight Time)","467354","Untrustworthy,Trustworthy","","null","","","","feedback","","<div class='trialDiv'><img src='trustrating_stim/white_00898_960530_fa_edt.bmp'><br><font class='baseline'><strong>Ethan</strong><p>Received: <strong>8</strong></font> &nbsp; &nbsp; &nbsp; &nbsp; &nbsp; &nbsp;<font class='negOutcome'>Shared back: <strong>0</strong></font></font><div class='respPicDiv'><img src='img/responseButtonOffersNo0_wht.png' class='respPic'></div></div>","null","8","Ethan","11","Kept","0.2,0.65","11","0.2","trustrating_stim/white_00898_960530_fa_edt.bmp","7","120","23"
"html-keyboard-response","206","239403","0.0-19.0-1.23","63d40583fbdb78bfb9b0d3a4","bdp_trlrn","Tue Mar 14 2023 20:43:03 GMT-0400 (Eastern Daylight Time)","467354","Untrustworthy,Trustworthy","","423","","","","decision","","<div class='trialDiv'><img src='trustrating_stim/white_mw060.bmp'><br><font class='baseline'><strong>David</strong><p>Choose number of points to send.</font><div class='respPicDiv'><img src='img/responseButtonOffersNo0L.png' class='respPic'></div></div>","3","8","David","7","Shared","0.65,0.35","9","0.65","trustrating_stim/white_mw060.bmp","5","125","24"
"html-keyboard-response","207","239655","0.0-19.0-2.23","63d40583fbdb78bfb9b0d3a4","bdp_trlrn","Tue Mar 14 2023 20:43:03 GMT-0400 (Eastern Daylight Time)","467354","Untrustworthy,Trustworthy","","null","","","","decisionFB","","<div class='trialDiv'><img src='trustrating_stim/white_mw060.bmp'><br><font class='baseline'><strong>David</strong><p>Choose number of points to send.</font><div class='respPicDiv'><img src='img/responseButtonOffersNo0L3.png' class='respPic'></div></div>","null","8","David","7","Shared","0.65,0.35","9","0.65","trustrating_stim/white_mw060.bmp","5","122","24"
"html-keyboard-response","208","240656","0.0-19.0-3.23","63d40583fbdb78bfb9b0d3a4","bdp_trlrn","Tue Mar 14 2023 20:43:03 GMT-0400 (Eastern Daylight Time)","467354","Untrustworthy,Trustworthy","","null","","","","feedback","","<div class='trialDiv'><img src='trustrating_stim/white_mw060.bmp'><br><font class='baseline'><strong>David</strong><p>Received: <strong>12</strong></font> &nbsp; &nbsp; &nbsp; &nbsp; &nbsp; &nbsp;<font class='posOutcome'>Shared back: <strong>6</strong></font></font><div class='respPicDiv'><img src='img/responseButtonOffersNo0_wht.png' class='respPic'></div></div>","null","8","David","7","Shared","0.65,0.35","9","0.65","trustrating_stim/white_mw060.bmp","5","128","24"
"html-keyboard-response","209","241180","0.0-19.0-1.24","63d40583fbdb78bfb9b0d3a4","bdp_trlrn","Tue Mar 14 2023 20:43:03 GMT-0400 (Eastern Daylight Time)","467354","Untrustworthy,Trustworthy","","524","","","","decision","","<div class='trialDiv'><img src='trustrating_stim/white_00519_940519_fb_edt.bmp'><br><font class='baseline'><strong>Nathan</strong><p>Choose number of points to send.</font><div class='respPicDiv'><img src='img/responseButtonOffersNo0L.png' class='respPic'></div></div>","4","9","Nathan","0","Shared","0.65,0.2","13","0.65","trustrating_stim/white_00519_940519_fb_edt.bmp","1.5","133","25"
"html-keyboard-response","210","241432","0.0-19.0-2.24","63d40583fbdb78bfb9b0d3a4","bdp_trlrn","Tue Mar 14 2023 20:43:03 GMT-0400 (Eastern Daylight Time)","467354","Untrustworthy,Trustworthy","","null","","","","decisionFB","","<div class='trialDiv'><img src='trustrating_stim/white_00519_940519_fb_edt.bmp'><br><font class='baseline'><strong>Nathan</strong><p>Choose number of points to send.</font><div class='respPicDiv'><img src='img/responseButtonOffersNo0L4.png' class='respPic'></div></div>","null","9","Nathan","0","Shared","0.65,0.2","13","0.65","trustrating_stim/white_00519_940519_fb_edt.bmp","1.5","129","25"
"html-keyboard-response","211","242433","0.0-19.0-3.24","63d40583fbdb78bfb9b0d3a4","bdp_trlrn","Tue Mar 14 2023 20:43:03 GMT-0400 (Eastern Daylight Time)","467354","Untrustworthy,Trustworthy","","null","","","","feedback","","<div class='trialDiv'><img src='trustrating_stim/white_00519_940519_fb_edt.bmp'><br><font class='baseline'><strong>Nathan</strong><p>Received: <strong>16</strong></font> &nbsp; &nbsp; &nbsp; &nbsp; &nbsp; &nbsp;<font class='posOutcome'>Shared back: <strong>8</strong></font></font><div class='respPicDiv'><img src='img/responseButtonOffersNo0_wht.png' class='respPic'></div></div>","null","9","Nathan","0","Shared","0.65,0.2","13","0.65","trustrating_stim/white_00519_940519_fb_edt.bmp","1.5","137","25"
"html-keyboard-response","212","243167","0.0-19.0-1.25","63d40583fbdb78bfb9b0d3a4","bdp_trlrn","Tue Mar 14 2023 20:43:03 GMT-0400 (Eastern Daylight Time)","467354","Untrustworthy,Trustworthy","","733","","","","decision","","<div class='trialDiv'><img src='trustrating_stim/white_mw060.bmp'><br><font class='baseline'><strong>David</strong><p>Choose number of points to send.</font><div class='respPicDiv'><img src='img/responseButtonOffersNo0L.png' class='respPic'></div></div>","1","9","David","7","Kept","0.65,0.35","9","0.65","trustrating_stim/white_mw060.bmp","5","142","26"
"html-keyboard-response","213","243418","0.0-19.0-2.25","63d40583fbdb78bfb9b0d3a4","bdp_trlrn","Tue Mar 14 2023 20:43:03 GMT-0400 (Eastern Daylight Time)","467354","Untrustworthy,Trustworthy","","null","","","","decisionFB","","<div class='trialDiv'><img src='trustrating_stim/white_mw060.bmp'><br><font class='baseline'><strong>David</strong><p>Choose number of points to send.</font><div class='respPicDiv'><img src='img/responseButtonOffersNo0L1.png' class='respPic'></div></div>","null","9","David","7","Kept","0.65,0.35","9","0.65","trustrating_stim/white_mw060.bmp","5","141","26"
"html-keyboard-response","214","244420","0.0-19.0-3.25","63d40583fbdb78bfb9b0d3a4","bdp_trlrn","Tue Mar 14 2023 20:43:03 GMT-0400 (Eastern Daylight Time)","467354","Untrustworthy,Trustworthy","","null","","","","feedback","","<div class='trialDiv'><img src='trustrating_stim/white_mw060.bmp'><br><font class='baseline'><strong>David</strong><p>Received: <strong>4</strong></font> &nbsp; &nbsp; &nbsp; &nbsp; &nbsp; &nbsp;<font class='negOutcome'>Shared back: <strong>0</strong></font></font><div class='respPicDiv'><img src='img/responseButtonOffersNo0_wht.png' class='respPic'></div></div>","null","9","David","7","Kept","0.65,0.35","9","0.65","trustrating_stim/white_mw060.bmp","5","141","26"
"html-keyboard-response","215","244940","0.0-19.0-1.26","63d40583fbdb78bfb9b0d3a4","bdp_trlrn","Tue Mar 14 2023 20:43:03 GMT-0400 (Eastern Daylight Time)","467354","Untrustworthy,Trustworthy","","520","","","","decision","","<div class='trialDiv'><img src='trustrating_stim/white_00898_960530_fa_edt.bmp'><br><font class='baseline'><strong>Ethan</strong><p>Choose number of points to send.</font><div class='respPicDiv'><img src='img/responseButtonOffersNo0L.png' class='respPic'></div></div>","1","9","Ethan","11","Kept","0.2,0.65","11","0.2","trustrating_stim/white_00898_960530_fa_edt.bmp","7","146","27"
"html-keyboard-response","216","245191","0.0-19.0-2.26","63d40583fbdb78bfb9b0d3a4","bdp_trlrn","Tue Mar 14 2023 20:43:03 GMT-0400 (Eastern Daylight Time)","467354","Untrustworthy,Trustworthy","","null","","","","decisionFB","","<div class='trialDiv'><img src='trustrating_stim/white_00898_960530_fa_edt.bmp'><br><font class='baseline'><strong>Ethan</strong><p>Choose number of points to send.</font><div class='respPicDiv'><img src='img/responseButtonOffersNo0L1.png' class='respPic'></div></div>","null","9","Ethan","11","Kept","0.2,0.65","11","0.2","trustrating_stim/white_00898_960530_fa_edt.bmp","7","145","27"
"html-keyboard-response","217","246192","0.0-19.0-3.26","63d40583fbdb78bfb9b0d3a4","bdp_trlrn","Tue Mar 14 2023 20:43:03 GMT-0400 (Eastern Daylight Time)","467354","Untrustworthy,Trustworthy","","null","","","","feedback","","<div class='trialDiv'><img src='trustrating_stim/white_00898_960530_fa_edt.bmp'><br><font class='baseline'><strong>Ethan</strong><p>Received: <strong>4</strong></font> &nbsp; &nbsp; &nbsp; &nbsp; &nbsp; &nbsp;<font class='negOutcome'>Shared back: <strong>0</strong></font></font><div class='respPicDiv'><img src='img/responseButtonOffersNo0_wht.png' class='respPic'></div></div>","null","9","Ethan","11","Kept","0.2,0.65","11","0.2","trustrating_stim/white_00898_960530_fa_edt.bmp","7","145","27"
"html-keyboard-response","218","247246","0.0-19.0-1.27","63d40583fbdb78bfb9b0d3a4","bdp_trlrn","Tue Mar 14 2023 20:43:03 GMT-0400 (Eastern Daylight Time)","467354","Untrustworthy,Trustworthy","","1054","","","","decision","","<div class='trialDiv'><img src='trustrating_stim/white_00519_940519_fb_edt.bmp'><br><font class='baseline'><strong>Nathan</strong><p>Choose number of points to send.</font><div class='respPicDiv'><img src='img/responseButtonOffersNo0L.png' class='respPic'></div></div>","3","10","Nathan","0","Shared","0.65,0.2","13","0.65","trustrating_stim/white_00519_940519_fb_edt.bmp","1.5","150","28"
"html-keyboard-response","219","247499","0.0-19.0-2.27","63d40583fbdb78bfb9b0d3a4","bdp_trlrn","Tue Mar 14 2023 20:43:03 GMT-0400 (Eastern Daylight Time)","467354","Untrustworthy,Trustworthy","","null","","","","decisionFB","","<div class='trialDiv'><img src='trustrating_stim/white_00519_940519_fb_edt.bmp'><br><font class='baseline'><strong>Nathan</strong><p>Choose number of points to send.</font><div class='respPicDiv'><img src='img/responseButtonOffersNo0L3.png' class='respPic'></div></div>","null","10","Nathan","0","Shared","0.65,0.2","13","0.65","trustrating_stim/white_00519_940519_fb_edt.bmp","1.5","147","28"
