"trial_type","trial_index","time_elapsed","internal_node_id","subject_id","task","startTime","totalTime","labels","view_history","rt","event","trial","time","trialtype","success","stimulus","key_press","aground","name","faceID","outcome","agenttype","agentswpt","agentcurrpshare","face","avgRating","point_total","round"
"pavlovia","0","3","0.0-0.0","63d18e630e39bc97ef16152b","bdp_trlrn","Tue Mar 14 2023 20:28:37 GMT-0500 (Central Daylight Time)","700342","Untrustworthy,Trustworthy","","","","","","","","","","","","","","","","","","","",""
"instructions","1","3044","0.0-1.0","63d18e630e39bc97ef16152b","bdp_trlrn","Tue Mar 14 2023 20:28:37 GMT-0500 (Central Daylight Time)","700342","Untrustworthy,Trustworthy","[{""page_index"":0,""viewing_time"":3040}]","3041","","","","","","","","","","","","","","","","","",""
"","","","","63d18e630e39bc97ef16152b","bdp_trlrn","Tue Mar 14 2023 20:28:37 GMT-0500 (Central Daylight Time)","700342","Untrustworthy,Trustworthy","","","fullscreenenter","2","7294","fullscreenenter","","","","","","","","","","","","","",""
"fullscreen","2","8281","0.0-2.0","63d18e630e39bc97ef16152b","bdp_trlrn","Tue Mar 14 2023 20:28:37 GMT-0500 (Central Daylight Time)","700342","Untrustworthy,Trustworthy","","","","","","","true","","","","","","","","","","","","",""
"instructions","3","32868","0.0-4.0","63d18e630e39bc97ef16152b","bdp_trlrn","Tue Mar 14 2023 20:28:37 GMT-0500 (Central Daylight Time)","700342","Untrustworthy,Trustworthy","[{""page_index"":0,""viewing_time"":10235},{""page_index"":1,""viewing_time"":14346}]","24581","","","","","","","","","","","","","","","","","",""
"instructions","4","33986","0.0-5.0","63d18e630e39bc97ef16152b","bdp_trlrn","Tue Mar 14 2023 20:28:37 GMT-0500 (Central Daylight Time)","700342","Untrustworthy,Trustworthy","[{""page_index"":0,""viewing_time"":1116}]","1116","","","","","","","","","","","","","","","","","",""
"image-keyboard-response","5","39868","0.0-6.0-1.0","63d18e630e39bc97ef16152b","bdp_trlrn","Tue Mar 14 2023 20:28:37 GMT-0500 (Central Daylight Time)","700342","Untrustworthy,Trustworthy","","5780","","","","rating","","trustrating_stim/white_mw063.bmp","3","","","","","","","","","","",""
"image-keyboard-response","6","40071","0.0-6.0-2.0","63d18e630e39bc97ef16152b","bdp_trlrn","Tue Mar 14 2023 20:28:37 GMT-0500 (Central Daylight Time)","700342","Untrustworthy,Trustworthy","","null","","","","ratingFB","","trustrating_stim/white_mw063.bmp","null","","","","","","","","","","",""
"image-keyboard-response","7","42571","0.0-6.0-1.1","63d18e630e39bc97ef16152b","bdp_trlrn","Tue Mar 14 2023 20:28:37 GMT-0500 (Central Daylight Time)","700342","Untrustworthy,Trustworthy","","2396","","","","rating","","trustrating_stim/white_mw084.bmp","3","","","","","","","","","","",""
"image-keyboard-response","8","42774","0.0-6.0-2.1","63d18e630e39bc97ef16152b","bdp_trlrn","Tue Mar 14 2023 20:28:37 GMT-0500 (Central Daylight Time)","700342","Untrustworthy,Trustworthy","","null","","","","ratingFB","","trustrating_stim/white_mw084.bmp","null","","","","","","","","","","",""
"image-keyboard-response","9","45683","0.0-6.0-1.2","63d18e630e39bc97ef16152b","bdp_trlrn","Tue Mar 14 2023 20:28:37 GMT-0500 (Central Daylight Time)","700342","Untrustworthy,Trustworthy","","2808","","","","rating","","trustrating_stim/white_00757_941201_fa_edt.bmp","2","","","","","","","","","","",""
"image-keyboard-response","10","45885","0.0-6.0-2.2","63d18e630e39bc97ef16152b","bdp_trlrn","Tue Mar 14 2023 20:28:37 GMT-0500 (Central Daylight Time)","700342","Untrustworthy,Trustworthy","","null","","","","ratingFB","","trustrating_stim/white_00757_941201_fa_edt.bmp","null","","","","","","","","","","",""
"image-keyboard-response","11","49602","0.0-6.0-1.3","63d18e630e39bc97ef16152b","bdp_trlrn","Tue Mar 14 2023 20:28:37 GMT-0500 (Central Daylight Time)","700342","Untrustworthy,Trustworthy","","3615","","","","rating","","trustrating_stim/white_mw048.bmp","3","","","","","","","","","","",""
"image-keyboard-response","12","49807","0.0-6.0-2.3","63d18e630e39bc97ef16152b","bdp_trlrn","Tue Mar 14 2023 20:28:37 GMT-0500 (Central Daylight Time)","700342","Untrustworthy,Trustworthy","","null","","","","ratingFB","","trustrating_stim/white_mw048.bmp","null","","","","","","","","","","",""
"image-keyboard-response","13","52482","0.0-6.0-1.4","63d18e630e39bc97ef16152b","bdp_trlrn","Tue Mar 14 2023 20:28:37 GMT-0500 (Central Daylight Time)","700342","Untrustworthy,Trustworthy","","2573","","","","rating","","trustrating_stim/white_mw033.bmp","6","","","","","","","","","","",""
"image-keyboard-response","14","52685","0.0-6.0-2.4","63d18e630e39bc97ef16152b","bdp_trlrn","Tue Mar 14 2023 20:28:37 GMT-0500 (Central Daylight Time)","700342","Untrustworthy,Trustworthy","","null","","","","ratingFB","","trustrating_stim/white_mw033.bmp","null","","","","","","","","","","",""
"image-keyboard-response","15","54169","0.0-6.0-1.5","63d18e630e39bc97ef16152b","bdp_trlrn","Tue Mar 14 2023 20:28:37 GMT-0500 (Central Daylight Time)","700342","Untrustworthy,Trustworthy","","1380","","","","rating","","trustrating_stim/white_00659_941121_fa_edt.bmp","2","","","","","","","","","","",""
"image-keyboard-response","16","54371","0.0-6.0-2.5","63d18e630e39bc97ef16152b","bdp_trlrn","Tue Mar 14 2023 20:28:37 GMT-0500 (Central Daylight Time)","700342","Untrustworthy,Trustworthy","","null","","","","ratingFB","","trustrating_stim/white_00659_941121_fa_edt.bmp","null","","","","","","","","","","",""
"image-keyboard-response","17","56419","0.0-6.0-1.6","63d18e630e39bc97ef16152b","bdp_trlrn","Tue Mar 14 2023 20:28:37 GMT-0500 (Central Daylight Time)","700342","Untrustworthy,Trustworthy","","1945","","","","rating","","trustrating_stim/white_mw071.bmp","4","","","","","","","","","","",""
"image-keyboard-response","18","56622","0.0-6.0-2.6","63d18e630e39bc97ef16152b","bdp_trlrn","Tue Mar 14 2023 20:28:37 GMT-0500 (Central Daylight Time)","700342","Untrustworthy,Trustworthy","","null","","","","ratingFB","","trustrating_stim/white_mw071.bmp","null","","","","","","","","","","",""
"image-keyboard-response","19","59043","0.0-6.0-1.7","63d18e630e39bc97ef16152b","bdp_trlrn","Tue Mar 14 2023 20:28:37 GMT-0500 (Central Daylight Time)","700342","Untrustworthy,Trustworthy","","2319","","","","rating","","trustrating_stim/white_00761_941201_fb_edt.bmp","5","","","","","","","","","","",""
"image-keyboard-response","20","59247","0.0-6.0-2.7","63d18e630e39bc97ef16152b","bdp_trlrn","Tue Mar 14 2023 20:28:37 GMT-0500 (Central Daylight Time)","700342","Untrustworthy,Trustworthy","","null","","","","ratingFB","","trustrating_stim/white_00761_941201_fb_edt.bmp","null","","","","","","","","","","",""
"image-keyboard-response","21","62292","0.0-6.0-1.8","63d18e630e39bc97ef16152b","bdp_trlrn","Tue Mar 14 2023 20:28:37 GMT-0500 (Central Daylight Time)","700342","Untrustworthy,Trustworthy","","2943","","","","rating","","trustrating_stim/white_mw099.bmp","4","","","","","","","","","","",""
"image-keyboard-response","22","62495","0.0-6.0-2.8","63d18e630e39bc97ef16152b","bdp_trlrn","Tue Mar 14 2023 20:28:37 GMT-0500 (Central Daylight Time)","700342","Untrustworthy,Trustworthy","","null","","","","ratingFB","","trustrating_stim/white_mw099.bmp","null","","","","","","","","","","",""
"image-keyboard-response","23","63843","0.0-6.0-1.9","63d18e630e39bc97ef16152b","bdp_trlrn","Tue Mar 14 2023 20:28:37 GMT-0500 (Central Daylight Time)","700342","Untrustworthy,Trustworthy","","1245","","","","rating","","trustrating_stim/white_00299_940422_fa_edt.bmp","5","","","","","","","","","","",""
"image-keyboard-response","24","64045","0.0-6.0-2.9","63d18e630e39bc97ef16152b","bdp_trlrn","Tue Mar 14 2023 20:28:37 GMT-0500 (Central Daylight Time)","700342","Untrustworthy,Trustworthy","","null","","","","ratingFB","","trustrating_stim/white_00299_940422_fa_edt.bmp","null","","","","","","","","","","",""
"image-keyboard-response","25","65818","0.0-6.0-1.10","63d18e630e39bc97ef16152b","bdp_trlrn","Tue Mar 14 2023 20:28:37 GMT-0500 (Central Daylight Time)","700342","Untrustworthy,Trustworthy","","1671","","","","rating","","trustrating_stim/white_00120_931230_fa_edt.bmp","7","","","","","","","","","","",""
"image-keyboard-response","26","66020","0.0-6.0-2.10","63d18e630e39bc97ef16152b","bdp_trlrn","Tue Mar 14 2023 20:28:37 GMT-0500 (Central Daylight Time)","700342","Untrustworthy,Trustworthy","","null","","","","ratingFB","","trustrating_stim/white_00120_931230_fa_edt.bmp","null","","","","","","","","","","",""
"image-keyboard-response","27","68420","0.0-6.0-1.11","63d18e630e39bc97ef16152b","bdp_trlrn","Tue Mar 14 2023 20:28:37 GMT-0500 (Central Daylight Time)","700342","Untrustworthy,Trustworthy","","2297","","","","rating","","trustrating_stim/white_mw046.bmp","3","","","","","","","","","","",""
"image-keyboard-response","28","68622","0.0-6.0-2.11","63d18e630e39bc97ef16152b","bdp_trlrn","Tue Mar 14 2023 20:28:37 GMT-0500 (Central Daylight Time)","700342","Untrustworthy,Trustworthy","","null","","","","ratingFB","","trustrating_stim/white_mw046.bmp","null","","","","","","","","","","",""
"image-keyboard-response","29","71505","0.0-6.0-1.12","63d18e630e39bc97ef16152b","bdp_trlrn","Tue Mar 14 2023 20:28:37 GMT-0500 (Central Daylight Time)","700342","Untrustworthy,Trustworthy","","2781","","","","rating","","trustrating_stim/white_mw056.bmp","6","","","","","","","","","","",""
"image-keyboard-response","30","71707","0.0-6.0-2.12","63d18e630e39bc97ef16152b","bdp_trlrn","Tue Mar 14 2023 20:28:37 GMT-0500 (Central Daylight Time)","700342","Untrustworthy,Trustworthy","","null","","","","ratingFB","","trustrating_stim/white_mw056.bmp","null","","","","","","","","","","",""
"image-keyboard-response","31","73859","0.0-6.0-1.13","63d18e630e39bc97ef16152b","bdp_trlrn","Tue Mar 14 2023 20:28:37 GMT-0500 (Central Daylight Time)","700342","Untrustworthy,Trustworthy","","2050","","","","rating","","trustrating_stim/white_mw089.bmp","3","","","","","","","","","","",""
"image-keyboard-response","32","74061","0.0-6.0-2.13","63d18e630e39bc97ef16152b","bdp_trlrn","Tue Mar 14 2023 20:28:37 GMT-0500 (Central Daylight Time)","700342","Untrustworthy,Trustworthy","","null","","","","ratingFB","","trustrating_stim/white_mw089.bmp","null","","","","","","","","","","",""
"image-keyboard-response","33","75857","0.0-6.0-1.14","63d18e630e39bc97ef16152b","bdp_trlrn","Tue Mar 14 2023 20:28:37 GMT-0500 (Central Daylight Time)","700342","Untrustworthy,Trustworthy","","1693","","","","rating","","trustrating_stim/white_00785_941205_fb_edt.bmp","3","","","","","","","","","","",""
"image-keyboard-response","34","76058","0.0-6.0-2.14","63d18e630e39bc97ef16152b","bdp_trlrn","Tue Mar 14 2023 20:28:37 GMT-0500 (Central Daylight Time)","700342","Untrustworthy,Trustworthy","","null","","","","ratingFB","","trustrating_stim/white_00785_941205_fb_edt.bmp","null","","","","","","","","","","",""
"image-keyboard-response","35","77363","0.0-6.0-1.15","63d18e630e39bc97ef16152b","bdp_trlrn","Tue Mar 14 2023 20:28:37 GMT-0500 (Central Daylight Time)","700342","Untrustworthy,Trustworthy","","1203","","","","rating","","trustrating_stim/white_mw097.bmp","1","","","","","","","","","","",""
"image-keyboard-response","36","77564","0.0-6.0-2.15","63d18e630e39bc97ef16152b","bdp_trlrn","Tue Mar 14 2023 20:28:37 GMT-0500 (Central Daylight Time)","700342","Untrustworthy,Trustworthy","","null","","","","ratingFB","","trustrating_stim/white_mw097.bmp","null","","","","","","","","","","",""
"image-keyboard-response","37","78812","0.0-6.0-1.16","63d18e630e39bc97ef16152b","bdp_trlrn","Tue Mar 14 2023 20:28:37 GMT-0500 (Central Daylight Time)","700342","Untrustworthy,Trustworthy","","1146","","","","rating","","trustrating_stim/white_00223_940128_fb_edt.bmp","2","","","","","","","","","","",""
"image-keyboard-response","38","79015","0.0-6.0-2.16","63d18e630e39bc97ef16152b","bdp_trlrn","Tue Mar 14 2023 20:28:37 GMT-0500 (Central Daylight Time)","700342","Untrustworthy,Trustworthy","","null","","","","ratingFB","","trustrating_stim/white_00223_940128_fb_edt.bmp","null","","","","","","","","","","",""
"image-keyboard-response","39","80955","0.0-6.0-1.17","63d18e630e39bc97ef16152b","bdp_trlrn","Tue Mar 14 2023 20:28:37 GMT-0500 (Central Daylight Time)","700342","Untrustworthy,Trustworthy","","1838","","","","rating","","trustrating_stim/white_00898_960530_fa_edt.bmp","7","","","","","","","","","","",""
"image-keyboard-response","40","81157","0.0-6.0-2.17","63d18e630e39bc97ef16152b","bdp_trlrn","Tue Mar 14 2023 20:28:37 GMT-0500 (Central Daylight Time)","700342","Untrustworthy,Trustworthy","","null","","","","ratingFB","","trustrating_stim/white_00898_960530_fa_edt.bmp","null","","","","","","","","","","",""
"image-keyboard-response","41","83029","0.0-6.0-1.18","63d18e630e39bc97ef16152b","bdp_trlrn","Tue Mar 14 2023 20:28:37 GMT-0500 (Central Daylight Time)","700342","Untrustworthy,Trustworthy","","1769","","","","rating","","trustrating_stim/white_00602_940928_fb_edt.bmp","8","","","","","","","","","","",""
"image-keyboard-response","42","83231","0.0-6.0-2.18","63d18e630e39bc97ef16152b","bdp_trlrn","Tue Mar 14 2023 20:28:37 GMT-0500 (Central Daylight Time)","700342","Untrustworthy,Trustworthy","","null","","","","ratingFB","","trustrating_stim/white_00602_940928_fb_edt.bmp","null","","","","","","","","","","",""
"image-keyboard-response","43","85027","0.0-6.0-1.19","63d18e630e39bc97ef16152b","bdp_trlrn","Tue Mar 14 2023 20:28:37 GMT-0500 (Central Daylight Time)","700342","Untrustworthy,Trustworthy","","1694","","","","rating","","trustrating_stim/white_mw049.bmp","7","","","","","","","","","","",""
"image-keyboard-response","44","85229","0.0-6.0-2.19","63d18e630e39bc97ef16152b","bdp_trlrn","Tue Mar 14 2023 20:28:37 GMT-0500 (Central Daylight Time)","700342","Untrustworthy,Trustworthy","","null","","","","ratingFB","","trustrating_stim/white_mw049.bmp","null","","","","","","","","","","",""
"image-keyboard-response","45","86915","0.0-6.0-1.20","63d18e630e39bc97ef16152b","bdp_trlrn","Tue Mar 14 2023 20:28:37 GMT-0500 (Central Daylight Time)","700342","Untrustworthy,Trustworthy","","1584","","","","rating","","trustrating_stim/white_mw053.bmp","7","","","","","","","","","","",""
"image-keyboard-response","46","87117","0.0-6.0-2.20","63d18e630e39bc97ef16152b","bdp_trlrn","Tue Mar 14 2023 20:28:37 GMT-0500 (Central Daylight Time)","700342","Untrustworthy,Trustworthy","","null","","","","ratingFB","","trustrating_stim/white_mw053.bmp","null","","","","","","","","","","",""
"image-keyboard-response","47","88954","0.0-6.0-1.21","63d18e630e39bc97ef16152b","bdp_trlrn","Tue Mar 14 2023 20:28:37 GMT-0500 (Central Daylight Time)","700342","Untrustworthy,Trustworthy","","1733","","","","rating","","trustrating_stim/white_00129_931230_fb_edt.bmp","6","","","","","","","","","","",""
"image-keyboard-response","48","89155","0.0-6.0-2.21","63d18e630e39bc97ef16152b","bdp_trlrn","Tue Mar 14 2023 20:28:37 GMT-0500 (Central Daylight Time)","700342","Untrustworthy,Trustworthy","","null","","","","ratingFB","","trustrating_stim/white_00129_931230_fb_edt.bmp","null","","","","","","","","","","",""
"image-keyboard-response","49","91755","0.0-6.0-1.22","63d18e630e39bc97ef16152b","bdp_trlrn","Tue Mar 14 2023 20:28:37 GMT-0500 (Central Daylight Time)","700342","Untrustworthy,Trustworthy","","2497","","","","rating","","trustrating_stim/white_00807_941205_fb_edt.bmp","4","","","","","","","","","","",""
"image-keyboard-response","50","91957","0.0-6.0-2.22","63d18e630e39bc97ef16152b","bdp_trlrn","Tue Mar 14 2023 20:28:37 GMT-0500 (Central Daylight Time)","700342","Untrustworthy,Trustworthy","","null","","","","ratingFB","","trustrating_stim/white_00807_941205_fb_edt.bmp","null","","","","","","","","","","",""
"image-keyboard-response","51","94997","0.0-6.0-1.23","63d18e630e39bc97ef16152b","bdp_trlrn","Tue Mar 14 2023 20:28:37 GMT-0500 (Central Daylight Time)","700342","Untrustworthy,Trustworthy","","2937","","","","rating","","trustrating_stim/white_00519_940519_fb_edt.bmp","6","","","","","","","","","","",""
"image-keyboard-response","52","95200","0.0-6.0-2.23","63d18e630e39bc97ef16152b","bdp_trlrn","Tue Mar 14 2023 20:28:37 GMT-0500 (Central Daylight Time)","700342","Untrustworthy,Trustworthy","","null","","","","ratingFB","","trustrating_stim/white_00519_940519_fb_edt.bmp","null","","","","","","","","","","",""
"image-keyboard-response","53","97115","0.0-6.0-1.24","63d18e630e39bc97ef16152b","bdp_trlrn","Tue Mar 14 2023 20:28:37 GMT-0500 (Central Daylight Time)","700342","Untrustworthy,Trustworthy","","1813","","","","rating","","trustrating_stim/white_00109_931230_fa_edt.bmp","8","","","","","","","","","","",""
"image-keyboard-response","54","97318","0.0-6.0-2.24","63d18e630e39bc97ef16152b","bdp_trlrn","Tue Mar 14 2023 20:28:37 GMT-0500 (Central Daylight Time)","700342","Untrustworthy,Trustworthy","","null","","","","ratingFB","","trustrating_stim/white_00109_931230_fa_edt.bmp","null","","","","","","","","","","",""
"image-keyboard-response","55","98875","0.0-6.0-1.25","63d18e630e39bc97ef16152b","bdp_trlrn","Tue Mar 14 2023 20:28:37 GMT-0500 (Central Daylight Time)","700342","Untrustworthy,Trustworthy","","1454","","","","rating","","trustrating_stim/white_mw066.bmp","7","","","","","","","","","","",""
"image-keyboard-response","56","99077","0.0-6.0-2.25","63d18e630e39bc97ef16152b","bdp_trlrn","Tue Mar 14 2023 20:28:37 GMT-0500 (Central Daylight Time)","700342","Untrustworthy,Trustworthy","","null","","","","ratingFB","","trustrating_stim/white_mw066.bmp","null","","","","","","","","","","",""
"image-keyboard-response","57","100908","0.0-6.0-1.26","63d18e630e39bc97ef16152b","bdp_trlrn","Tue Mar 14 2023 20:28:37 GMT-0500 (Central Daylight Time)","700342","Untrustworthy,Trustworthy","","1726","","","","rating","","trustrating_stim/white_mw060.bmp","2","","","","","","","","","","",""
"image-keyboard-response","58","101109","0.0-6.0-2.26","63d18e630e39bc97ef16152b","bdp_trlrn","Tue Mar 14 2023 20:28:37 GMT-0500 (Central Daylight Time)","700342","Untrustworthy,Trustworthy","","null","","","","ratingFB","","trustrating_stim/white_mw060.bmp","null","","","","","","","","","","",""
"image-keyboard-response","59","102747","0.0-6.0-1.27","63d18e630e39bc97ef16152b","bdp_trlrn","Tue Mar 14 2023 20:28:37 GMT-0500 (Central Daylight Time)","700342","Untrustworthy,Trustworthy","","1534","","","","rating","","trustrating_stim/white_00577_940928_fa_edt.bmp","3","","","","","","","","","","",""
"image-keyboard-response","60","102949","0.0-6.0-2.27","63d18e630e39bc97ef16152b","bdp_trlrn","Tue Mar 14 2023 20:28:37 GMT-0500 (Central Daylight Time)","700342","Untrustworthy,Trustworthy","","null","","","","ratingFB","","trustrating_stim/white_00577_940928_fa_edt.bmp","null","","","","","","","","","","",""
"image-keyboard-response","61","104899","0.0-6.0-1.28","63d18e630e39bc97ef16152b","bdp_trlrn","Tue Mar 14 2023 20:28:37 GMT-0500 (Central Daylight Time)","700342","Untrustworthy,Trustworthy","","1845","","","","rating","","trustrating_stim/white_00340_940422_fa_edt.bmp","3","","","","","","","","","","",""
"image-keyboard-response","62","105102","0.0-6.0-2.28","63d18e630e39bc97ef16152b","bdp_trlrn","Tue Mar 14 2023 20:28:37 GMT-0500 (Central Daylight Time)","700342","Untrustworthy,Trustworthy","","null","","","","ratingFB","","trustrating_stim/white_00340_940422_fa_edt.bmp","null","","","","","","","","","","",""
"image-keyboard-response","63","106659","0.0-6.0-1.29","63d18e630e39bc97ef16152b","bdp_trlrn","Tue Mar 14 2023 20:28:37 GMT-0500 (Central Daylight Time)","700342","Untrustworthy,Trustworthy","","1454","","","","rating","","trustrating_stim/white_mw035.bmp","4","","","","","","","","","","",""
"image-keyboard-response","64","106861","0.0-6.0-2.29","63d18e630e39bc97ef16152b","bdp_trlrn","Tue Mar 14 2023 20:28:37 GMT-0500 (Central Daylight Time)","700342","Untrustworthy,Trustworthy","","null","","","","ratingFB","","trustrating_stim/white_mw035.bmp","null","","","","","","","","","","",""
"image-keyboard-response","65","110267","0.0-6.0-1.30","63d18e630e39bc97ef16152b","bdp_trlrn","Tue Mar 14 2023 20:28:37 GMT-0500 (Central Daylight Time)","700342","Untrustworthy,Trustworthy","","3304","","","","rating","","trustrating_stim/white_00807_941205_fb_edt.bmp","4","","","","","","","","","","",""
"image-keyboard-response","66","110469","0.0-6.0-2.30","63d18e630e39bc97ef16152b","bdp_trlrn","Tue Mar 14 2023 20:28:37 GMT-0500 (Central Daylight Time)","700342","Untrustworthy,Trustworthy","","null","","","","ratingFB","","trustrating_stim/white_00807_941205_fb_edt.bmp","null","","","","","","","","","","",""
"image-keyboard-response","67","111868","0.0-6.0-1.31","63d18e630e39bc97ef16152b","bdp_trlrn","Tue Mar 14 2023 20:28:37 GMT-0500 (Central Daylight Time)","700342","Untrustworthy,Trustworthy","","1295","","","","rating","","trustrating_stim/white_mw097.bmp","2","","","","","","","","","","",""
"image-keyboard-response","68","112069","0.0-6.0-2.31","63d18e630e39bc97ef16152b","bdp_trlrn","Tue Mar 14 2023 20:28:37 GMT-0500 (Central Daylight Time)","700342","Untrustworthy,Trustworthy","","null","","","","ratingFB","","trustrating_stim/white_mw097.bmp","null","","","","","","","","","","",""
"image-keyboard-response","69","114595","0.0-6.0-1.32","63d18e630e39bc97ef16152b","bdp_trlrn","Tue Mar 14 2023 20:28:37 GMT-0500 (Central Daylight Time)","700342","Untrustworthy,Trustworthy","","2423","","","","rating","","trustrating_stim/white_mw033.bmp","7","","","","","","","","","","",""
"image-keyboard-response","70","114797","0.0-6.0-2.32","63d18e630e39bc97ef16152b","bdp_trlrn","Tue Mar 14 2023 20:28:37 GMT-0500 (Central Daylight Time)","700342","Untrustworthy,Trustworthy","","null","","","","ratingFB","","trustrating_stim/white_mw033.bmp","null","","","","","","","","","","",""
"image-keyboard-response","71","116291","0.0-6.0-1.33","63d18e630e39bc97ef16152b","bdp_trlrn","Tue Mar 14 2023 20:28:37 GMT-0500 (Central Daylight Time)","700342","Untrustworthy,Trustworthy","","1390","","","","rating","","trustrating_stim/white_00761_941201_fb_edt.bmp","6","","","","","","","","","","",""
"image-keyboard-response","72","116493","0.0-6.0-2.33","63d18e630e39bc97ef16152b","bdp_trlrn","Tue Mar 14 2023 20:28:37 GMT-0500 (Central Daylight Time)","700342","Untrustworthy,Trustworthy","","null","","","","ratingFB","","trustrating_stim/white_00761_941201_fb_edt.bmp","null","","","","","","","","","","",""
"image-keyboard-response","73","118715","0.0-6.0-1.34","63d18e630e39bc97ef16152b","bdp_trlrn","Tue Mar 14 2023 20:28:37 GMT-0500 (Central Daylight Time)","700342","Untrustworthy,Trustworthy","","2117","","","","rating","","trustrating_stim/white_mw046.bmp","3","","","","","","","","","","",""
"image-keyboard-response","74","118917","0.0-6.0-2.34","63d18e630e39bc97ef16152b","bdp_trlrn","Tue Mar 14 2023 20:28:37 GMT-0500 (Central Daylight Time)","700342","Untrustworthy,Trustworthy","","null","","","","ratingFB","","trustrating_stim/white_mw046.bmp","null","","","","","","","","","","",""
"image-keyboard-response","75","120731","0.0-6.0-1.35","63d18e630e39bc97ef16152b","bdp_trlrn","Tue Mar 14 2023 20:28:37 GMT-0500 (Central Daylight Time)","700342","Untrustworthy,Trustworthy","","1711","","","","rating","","trustrating_stim/white_mw053.bmp","7","","","","","","","","","","",""
"image-keyboard-response","76","120932","0.0-6.0-2.35","63d18e630e39bc97ef16152b","bdp_trlrn","Tue Mar 14 2023 20:28:37 GMT-0500 (Central Daylight Time)","700342","Untrustworthy,Trustworthy","","null","","","","ratingFB","","trustrating_stim/white_mw053.bmp","null","","","","","","","","","","",""
"image-keyboard-response","77","122421","0.0-6.0-1.36","63d18e630e39bc97ef16152b","bdp_trlrn","Tue Mar 14 2023 20:28:37 GMT-0500 (Central Daylight Time)","700342","Untrustworthy,Trustworthy","","1386","","","","rating","","trustrating_stim/white_mw060.bmp","2","","","","","","","","","","",""
"image-keyboard-response","78","122623","0.0-6.0-2.36","63d18e630e39bc97ef16152b","bdp_trlrn","Tue Mar 14 2023 20:28:37 GMT-0500 (Central Daylight Time)","700342","Untrustworthy,Trustworthy","","null","","","","ratingFB","","trustrating_stim/white_mw060.bmp","null","","","","","","","","","","",""
"image-keyboard-response","79","124987","0.0-6.0-1.37","63d18e630e39bc97ef16152b","bdp_trlrn","Tue Mar 14 2023 20:28:37 GMT-0500 (Central Daylight Time)","700342","Untrustworthy,Trustworthy","","2261","","","","rating","","trustrating_stim/white_mw084.bmp","8","","","","","","","","","","",""
"image-keyboard-response","80","125190","0.0-6.0-2.37","63d18e630e39bc97ef16152b","bdp_trlrn","Tue Mar 14 2023 20:28:37 GMT-0500 (Central Daylight Time)","700342","Untrustworthy,Trustworthy","","null","","","","ratingFB","","trustrating_stim/white_mw084.bmp","null","","","","","","","","","","",""
"image-keyboard-response","81","126627","0.0-6.0-1.38","63d18e630e39bc97ef16152b","bdp_trlrn","Tue Mar 14 2023 20:28:37 GMT-0500 (Central Daylight Time)","700342","Untrustworthy,Trustworthy","","1333","","","","rating","","trustrating_stim/white_00120_931230_fa_edt.bmp","7","","","","","","","","","","",""
"image-keyboard-response","82","126829","0.0-6.0-2.38","63d18e630e39bc97ef16152b","bdp_trlrn","Tue Mar 14 2023 20:28:37 GMT-0500 (Central Daylight Time)","700342","Untrustworthy,Trustworthy","","null","","","","ratingFB","","trustrating_stim/white_00120_931230_fa_edt.bmp","null","","","","","","","","","","",""
"image-keyboard-response","83","129291","0.0-6.0-1.39","63d18e630e39bc97ef16152b","bdp_trlrn","Tue Mar 14 2023 20:28:37 GMT-0500 (Central Daylight Time)","700342","Untrustworthy,Trustworthy","","2358","","","","rating","","trustrating_stim/white_mw035.bmp","6","","","","","","","","","","",""
"image-keyboard-response","84","129493","0.0-6.0-2.39","63d18e630e39bc97ef16152b","bdp_trlrn","Tue Mar 14 2023 20:28:37 GMT-0500 (Central Daylight Time)","700342","Untrustworthy,Trustworthy","","null","","","","ratingFB","","trustrating_stim/white_mw035.bmp","null","","","","","","","","","","",""
"image-keyboard-response","85","131043","0.0-6.0-1.40","63d18e630e39bc97ef16152b","bdp_trlrn","Tue Mar 14 2023 20:28:37 GMT-0500 (Central Daylight Time)","700342","Untrustworthy,Trustworthy","","1446","","","","rating","","trustrating_stim/white_mw099.bmp","5","","","","","","","","","","",""
"image-keyboard-response","86","131245","0.0-6.0-2.40","63d18e630e39bc97ef16152b","bdp_trlrn","Tue Mar 14 2023 20:28:37 GMT-0500 (Central Daylight Time)","700342","Untrustworthy,Trustworthy","","null","","","","ratingFB","","trustrating_stim/white_mw099.bmp","null","","","","","","","","","","",""
"image-keyboard-response","87","132772","0.0-6.0-1.41","63d18e630e39bc97ef16152b","bdp_trlrn","Tue Mar 14 2023 20:28:37 GMT-0500 (Central Daylight Time)","700342","Untrustworthy,Trustworthy","","1423","","","","rating","","trustrating_stim/white_00602_940928_fb_edt.bmp","7","","","","","","","","","","",""
"image-keyboard-response","88","132975","0.0-6.0-2.41","63d18e630e39bc97ef16152b","bdp_trlrn","Tue Mar 14 2023 20:28:37 GMT-0500 (Central Daylight Time)","700342","Untrustworthy,Trustworthy","","null","","","","ratingFB","","trustrating_stim/white_00602_940928_fb_edt.bmp","null","","","","","","","","","","",""
"image-keyboard-response","89","134283","0.0-6.0-1.42","63d18e630e39bc97ef16152b","bdp_trlrn","Tue Mar 14 2023 20:28:37 GMT-0500 (Central Daylight Time)","700342","Untrustworthy,Trustworthy","","1204","","","","rating","","trustrating_stim/white_mw049.bmp","8","","","","","","","","","","",""
"image-keyboard-response","90","134485","0.0-6.0-2.42","63d18e630e39bc97ef16152b","bdp_trlrn","Tue Mar 14 2023 20:28:37 GMT-0500 (Central Daylight Time)","700342","Untrustworthy,Trustworthy","","null","","","","ratingFB","","trustrating_stim/white_mw049.bmp","null","","","","","","","","","","",""
"image-keyboard-response","91","135916","0.0-6.0-1.43","63d18e630e39bc97ef16152b","bdp_trlrn","Tue Mar 14 2023 20:28:37 GMT-0500 (Central Daylight Time)","700342","Untrustworthy,Trustworthy","","1328","","","","rating","","trustrating_stim/white_00340_940422_fa_edt.bmp","2","","","","","","","","","","",""
"image-keyboard-response","92","136119","0.0-6.0-2.43","63d18e630e39bc97ef16152b","bdp_trlrn","Tue Mar 14 2023 20:28:37 GMT-0500 (Central Daylight Time)","700342","Untrustworthy,Trustworthy","","null","","","","ratingFB","","trustrating_stim/white_00340_940422_fa_edt.bmp","null","","","","","","","","","","",""
"image-keyboard-response","93","137642","0.0-6.0-1.44","63d18e630e39bc97ef16152b","bdp_trlrn","Tue Mar 14 2023 20:28:37 GMT-0500 (Central Daylight Time)","700342","Untrustworthy,Trustworthy","","1420","","","","rating","","trustrating_stim/white_mw048.bmp","3","","","","","","","","","","",""
"image-keyboard-response","94","137844","0.0-6.0-2.44","63d18e630e39bc97ef16152b","bdp_trlrn","Tue Mar 14 2023 20:28:37 GMT-0500 (Central Daylight Time)","700342","Untrustworthy,Trustworthy","","null","","","","ratingFB","","trustrating_stim/white_mw048.bmp","null","","","","","","","","","","",""
"image-keyboard-response","95","139491","0.0-6.0-1.45","63d18e630e39bc97ef16152b","bdp_trlrn","Tue Mar 14 2023 20:28:37 GMT-0500 (Central Daylight Time)","700342","Untrustworthy,Trustworthy","","1542","","","","rating","","trustrating_stim/white_00129_931230_fb_edt.bmp","5","","","","","","","","","","",""
"image-keyboard-response","96","139693","0.0-6.0-2.45","63d18e630e39bc97ef16152b","bdp_trlrn","Tue Mar 14 2023 20:28:37 GMT-0500 (Central Daylight Time)","700342","Untrustworthy,Trustworthy","","null","","","","ratingFB","","trustrating_stim/white_00129_931230_fb_edt.bmp","null","","","","","","","","","","",""
"image-keyboard-response","97","141027","0.0-6.0-1.46","63d18e630e39bc97ef16152b","bdp_trlrn","Tue Mar 14 2023 20:28:37 GMT-0500 (Central Daylight Time)","700342","Untrustworthy,Trustworthy","","1230","","","","rating","","trustrating_stim/white_mw063.bmp","3","","","","","","","","","","",""
"image-keyboard-response","98","141230","0.0-6.0-2.46","63d18e630e39bc97ef16152b","bdp_trlrn","Tue Mar 14 2023 20:28:37 GMT-0500 (Central Daylight Time)","700342","Untrustworthy,Trustworthy","","null","","","","ratingFB","","trustrating_stim/white_mw063.bmp","null","","","","","","","","","","",""
"image-keyboard-response","99","142571","0.0-6.0-1.47","63d18e630e39bc97ef16152b","bdp_trlrn","Tue Mar 14 2023 20:28:37 GMT-0500 (Central Daylight Time)","700342","Untrustworthy,Trustworthy","","1238","","","","rating","","trustrating_stim/white_00577_940928_fa_edt.bmp","2","","","","","","","","","","",""
"image-keyboard-response","100","142773","0.0-6.0-2.47","63d18e630e39bc97ef16152b","bdp_trlrn","Tue Mar 14 2023 20:28:37 GMT-0500 (Central Daylight Time)","700342","Untrustworthy,Trustworthy","","null","","","","ratingFB","","trustrating_stim/white_00577_940928_fa_edt.bmp","null","","","","","","","","","","",""
"image-keyboard-response","101","144386","0.0-6.0-1.48","63d18e630e39bc97ef16152b","bdp_trlrn","Tue Mar 14 2023 20:28:37 GMT-0500 (Central Daylight Time)","700342","Untrustworthy,Trustworthy","","1510","","","","rating","","trustrating_stim/white_00109_931230_fa_edt.bmp","7","","","","","","","","","","",""
"image-keyboard-response","102","144588","0.0-6.0-2.48","63d18e630e39bc97ef16152b","bdp_trlrn","Tue Mar 14 2023 20:28:37 GMT-0500 (Central Daylight Time)","700342","Untrustworthy,Trustworthy","","null","","","","ratingFB","","trustrating_stim/white_00109_931230_fa_edt.bmp","null","","","","","","","","","","",""
"image-keyboard-response","103","145739","0.0-6.0-1.49","63d18e630e39bc97ef16152b","bdp_trlrn","Tue Mar 14 2023 20:28:37 GMT-0500 (Central Daylight Time)","700342","Untrustworthy,Trustworthy","","1046","","","","rating","","trustrating_stim/white_mw066.bmp","8","","","","","","","","","","",""
"image-keyboard-response","104","145940","0.0-6.0-2.49","63d18e630e39bc97ef16152b","bdp_trlrn","Tue Mar 14 2023 20:28:37 GMT-0500 (Central Daylight Time)","700342","Untrustworthy,Trustworthy","","null","","","","ratingFB","","trustrating_stim/white_mw066.bmp","null","","","","","","","","","","",""
"image-keyboard-response","105","147932","0.0-6.0-1.50","63d18e630e39bc97ef16152b","bdp_trlrn","Tue Mar 14 2023 20:28:37 GMT-0500 (Central Daylight Time)","700342","Untrustworthy,Trustworthy","","1890","","","","rating","","trustrating_stim/white_00299_940422_fa_edt.bmp","5","","","","","","","","","","",""
"image-keyboard-response","106","148134","0.0-6.0-2.50","63d18e630e39bc97ef16152b","bdp_trlrn","Tue Mar 14 2023 20:28:37 GMT-0500 (Central Daylight Time)","700342","Untrustworthy,Trustworthy","","null","","","","ratingFB","","trustrating_stim/white_00299_940422_fa_edt.bmp","null","","","","","","","","","","",""
"image-keyboard-response","107","149827","0.0-6.0-1.51","63d18e630e39bc97ef16152b","bdp_trlrn","Tue Mar 14 2023 20:28:37 GMT-0500 (Central Daylight Time)","700342","Untrustworthy,Trustworthy","","1590","","","","rating","","trustrating_stim/white_mw089.bmp","3","","","","","","","","","","",""
"image-keyboard-response","108","150029","0.0-6.0-2.51","63d18e630e39bc97ef16152b","bdp_trlrn","Tue Mar 14 2023 20:28:37 GMT-0500 (Central Daylight Time)","700342","Untrustworthy,Trustworthy","","null","","","","ratingFB","","trustrating_stim/white_mw089.bmp","null","","","","","","","","","","",""
"image-keyboard-response","109","151811","0.0-6.0-1.52","63d18e630e39bc97ef16152b","bdp_trlrn","Tue Mar 14 2023 20:28:37 GMT-0500 (Central Daylight Time)","700342","Untrustworthy,Trustworthy","","1680","","","","rating","","trustrating_stim/white_00519_940519_fb_edt.bmp","7","","","","","","","","","","",""
"image-keyboard-response","110","152014","0.0-6.0-2.52","63d18e630e39bc97ef16152b","bdp_trlrn","Tue Mar 14 2023 20:28:37 GMT-0500 (Central Daylight Time)","700342","Untrustworthy,Trustworthy","","null","","","","ratingFB","","trustrating_stim/white_00519_940519_fb_edt.bmp","null","","","","","","","","","","",""
"image-keyboard-response","111","153867","0.0-6.0-1.53","63d18e630e39bc97ef16152b","bdp_trlrn","Tue Mar 14 2023 20:28:37 GMT-0500 (Central Daylight Time)","700342","Untrustworthy,Trustworthy","","1749","","","","rating","","trustrating_stim/white_mw056.bmp","7","","","","","","","","","","",""
"image-keyboard-response","112","154069","0.0-6.0-2.53","63d18e630e39bc97ef16152b","bdp_trlrn","Tue Mar 14 2023 20:28:37 GMT-0500 (Central Daylight Time)","700342","Untrustworthy,Trustworthy","","null","","","","ratingFB","","trustrating_stim/white_mw056.bmp","null","","","","","","","","","","",""
"image-keyboard-response","113","156020","0.0-6.0-1.54","63d18e630e39bc97ef16152b","bdp_trlrn","Tue Mar 14 2023 20:28:37 GMT-0500 (Central Daylight Time)","700342","Untrustworthy,Trustworthy","","1849","","","","rating","","trustrating_stim/white_00757_941201_fa_edt.bmp","3","","","","","","","","","","",""
"image-keyboard-response","114","156222","0.0-6.0-2.54","63d18e630e39bc97ef16152b","bdp_trlrn","Tue Mar 14 2023 20:28:37 GMT-0500 (Central Daylight Time)","700342","Untrustworthy,Trustworthy","","null","","","","ratingFB","","trustrating_stim/white_00757_941201_fa_edt.bmp","null","","","","","","","","","","",""
"image-keyboard-response","115","157699","0.0-6.0-1.55","63d18e630e39bc97ef16152b","bdp_trlrn","Tue Mar 14 2023 20:28:37 GMT-0500 (Central Daylight Time)","700342","Untrustworthy,Trustworthy","","1374","","","","rating","","trustrating_stim/white_00785_941205_fb_edt.bmp","2","","","","","","","","","","",""
"image-keyboard-response","116","157901","0.0-6.0-2.55","63d18e630e39bc97ef16152b","bdp_trlrn","Tue Mar 14 2023 20:28:37 GMT-0500 (Central Daylight Time)","700342","Untrustworthy,Trustworthy","","null","","","","ratingFB","","trustrating_stim/white_00785_941205_fb_edt.bmp","null","","","","","","","","","","",""
"image-keyboard-response","117","159523","0.0-6.0-1.56","63d18e630e39bc97ef16152b","bdp_trlrn","Tue Mar 14 2023 20:28:37 GMT-0500 (Central Daylight Time)","700342","Untrustworthy,Trustworthy","","1518","","","","rating","","trustrating_stim/white_mw071.bmp","2","","","","","","","","","","",""
"image-keyboard-response","118","159725","0.0-6.0-2.56","63d18e630e39bc97ef16152b","bdp_trlrn","Tue Mar 14 2023 20:28:37 GMT-0500 (Central Daylight Time)","700342","Untrustworthy,Trustworthy","","null","","","","ratingFB","","trustrating_stim/white_mw071.bmp","null","","","","","","","","","","",""
"image-keyboard-response","119","161651","0.0-6.0-1.57","63d18e630e39bc97ef16152b","bdp_trlrn","Tue Mar 14 2023 20:28:37 GMT-0500 (Central Daylight Time)","700342","Untrustworthy,Trustworthy","","1822","","","","rating","","trustrating_stim/white_00898_960530_fa_edt.bmp","7","","","","","","","","","","",""
"image-keyboard-response","120","161854","0.0-6.0-2.57","63d18e630e39bc97ef16152b","bdp_trlrn","Tue Mar 14 2023 20:28:37 GMT-0500 (Central Daylight Time)","700342","Untrustworthy,Trustworthy","","null","","","","ratingFB","","trustrating_stim/white_00898_960530_fa_edt.bmp","null","","","","","","","","","","",""
"image-keyboard-response","121","163539","0.0-6.0-1.58","63d18e630e39bc97ef16152b","bdp_trlrn","Tue Mar 14 2023 20:28:37 GMT-0500 (Central Daylight Time)","700342","Untrustworthy,Trustworthy","","1580","","","","rating","","trustrating_stim/white_00223_940128_fb_edt.bmp","3","","","","","","","","","","",""
"image-keyboard-response","122","163741","0.0-6.0-2.58","63d18e630e39bc97ef16152b","bdp_trlrn","Tue Mar 14 2023 20:28:37 GMT-0500 (Central Daylight Time)","700342","Untrustworthy,Trustworthy","","null","","","","ratingFB","","trustrating_stim/white_00223_940128_fb_edt.bmp","null","","","","","","","","","","",""
"image-keyboard-response","123","164851","0.0-6.0-1.59","63d18e630e39bc97ef16152b","bdp_trlrn","Tue Mar 14 2023 20:28:37 GMT-0500 (Central Daylight Time)","700342","Untrustworthy,Trustworthy","","1007","","","","rating","","trustrating_stim/white_00659_941121_fa_edt.bmp","2","","","","","","","","","","",""
"image-keyboard-response","124","165053","0.0-6.0-2.59","63d18e630e39bc97ef16152b","bdp_trlrn","Tue Mar 14 2023 20:28:37 GMT-0500 (Central Daylight Time)","700342","Untrustworthy,Trustworthy","","null","","","","ratingFB","","trustrating_stim/white_00659_941121_fa_edt.bmp","null","","","","","","","","","","",""
"instructions","125","167892","0.0-7.0","63d18e630e39bc97ef16152b","bdp_trlrn","Tue Mar 14 2023 20:28:37 GMT-0500 (Central Daylight Time)","700342","Untrustworthy,Trustworthy","[{""page_index"":0,""viewing_time"":2733}]","2734","","","","","","","","","","","","","","","","","",""
"instructions","126","266770","0.0-8.0","63d18e630e39bc97ef16152b","bdp_trlrn","Tue Mar 14 2023 20:28:37 GMT-0500 (Central Daylight Time)","700342","Untrustworthy,Trustworthy","[{""page_index"":0,""viewing_time"":20434},{""page_index"":1,""viewing_time"":11928},{""page_index"":2,""viewing_time"":6031},{""page_index"":3,""viewing_time"":8753},{""page_index"":4,""viewing_time"":5855},{""page_index"":5,""viewing_time"":10025},{""page_index"":6,""viewing_time"":32768},{""page_index"":7,""viewing_time"":2982}]","98776","","","","","","","","","","","","","","","","","",""
"html-keyboard-response","127","275867","0.0-9.0","63d18e630e39bc97ef16152b","bdp_trlrn","Tue Mar 14 2023 20:28:37 GMT-0500 (Central Daylight Time)","700342","Untrustworthy,Trustworthy","","9095","","","","","","<div class='header' style='text-align:left; position: absolute; top: 5%; left: 5%;'><small>Task 3 of 5</small></div><div class='instruxDiv'><p><strong>1) What is the minimum number of points you can choose to send to your partner?</strong></p><p>a) 0</p><p>b) 1</p><p>c) 5</p>","A","","","","","","","","","","",""
"html-keyboard-response","128","280418","0.0-10.0","63d18e630e39bc97ef16152b","bdp_trlrn","Tue Mar 14 2023 20:28:37 GMT-0500 (Central Daylight Time)","700342","Untrustworthy,Trustworthy","","4446","","","","","","<div class='header' style='text-align:left; position: absolute; top: 5%; left: 5%;'><small>Task 3 of 5</small></div><div class='instruxDiv'><p><strong>1) What is the minimum number of points you can choose to send to your partner?</strong></p><p style='color:#FF0000'>a) 0</p><p>b) 1</p><p>c) 5</p><h3 style='color:#FF0000'>Incorrect!</h3><h3 class='center-content'>The correct response is b).</h3><h3 class='center-content'>The minimum number of points you can choose to send to your partner is 1 point.</h3><p><em>Press SPACEBAR to continue</em></p></div>"," ","","","","","","","","","","",""
"html-keyboard-response","129","285058","0.0-11.0","63d18e630e39bc97ef16152b","bdp_trlrn","Tue Mar 14 2023 20:28:37 GMT-0500 (Central Daylight Time)","700342","Untrustworthy,Trustworthy","","4537","","","","","","<div class='header' style='text-align:left; position: absolute; top: 5%; left: 5%;'><small>Task 3 of 5</small></div><div class='instruxDiv'><p><strong>2) What is the maximum number of points you can choose to send to your partner?</strong></p><p>a) 8</p><p>b) 5</p><p>c) 3</p>","B","","","","","","","","","","",""
"html-keyboard-response","130","287041","0.0-12.0","63d18e630e39bc97ef16152b","bdp_trlrn","Tue Mar 14 2023 20:28:37 GMT-0500 (Central Daylight Time)","700342","Untrustworthy,Trustworthy","","1881","","","","","","<div class='header' style='text-align:left; position: absolute; top: 5%; left: 5%;'><small>Task 3 of 5</small></div><div class='instruxDiv'><p><strong>2) What is the maximum number of points you can choose to send to your partner?</strong></p><p>a) 8</p><p style='color:#00FF00'>b) 5</p><p>c) 3</p><h3 style='color:#00FF00'>Correct!</h3><h3 class='center-content'>The correct response is b).</h3><h3 class='center-content'>The maximum number of points you can choose to send to your partner is 5 points.</h3><p><em>Press SPACEBAR to continue</em></p></div>"," ","","","","","","","","","","",""
"html-keyboard-response","131","290057","0.0-13.0","63d18e630e39bc97ef16152b","bdp_trlrn","Tue Mar 14 2023 20:28:37 GMT-0500 (Central Daylight Time)","700342","Untrustworthy,Trustworthy","","2916","","","","","","<div class='header' style='text-align:left; position: absolute; top: 5%; left: 5%;'><small>Task 3 of 5</small></div><div class='instruxDiv'><p><strong>3) What happens to the amount of points you send to your partner?</strong></p><p>a) Nothing</p><p>b) It doubles</p><p>c) It quadruples</p>","C","","","","","","","","","","",""
"html-keyboard-response","132","291729","0.0-14.0","63d18e630e39bc97ef16152b","bdp_trlrn","Tue Mar 14 2023 20:28:37 GMT-0500 (Central Daylight Time)","700342","Untrustworthy,Trustworthy","","1571","","","","","","<div class='header' style='text-align:left; position: absolute; top: 5%; left: 5%;'><small>Task 3 of 5</small></div><div class='instruxDiv'><p><strong>3) What happens to the amount of points you send to your partner?</strong></p><p>a) Nothing</p><p>b) It doubles</p><p style='color:#00FF00'>c) It quadruples</p><h3 style='color:#00FF00'>Correct!</h3><h3 class='center-content'>The correct response is c).</h3><h3 class='center-content'>The amount of points you send to your partner quadruples.</h3><p><em>Press SPACEBAR to continue</em></p></div>"," ","","","","","","","","","","",""
"html-keyboard-response","133","307723","0.0-15.0","63d18e630e39bc97ef16152b","bdp_trlrn","Tue Mar 14 2023 20:28:37 GMT-0500 (Central Daylight Time)","700342","Untrustworthy,Trustworthy","","15894","","","","","","<div class='header' style='text-align:left; position: absolute; top: 5%; left: 5%;'><small>Task 3 of 5</small></div><div class='instruxDiv'><p><strong>4) If you decided to share 4 out of 5 points with your partner, and they decided to share half of the amount they received with you, how many points would you receive back from them on this round?</strong></p><p>a) 16</p><p>b) 0</p><p>c) 8</p>","C","","","","","","","","","","",""
"html-keyboard-response","134","312098","0.0-16.0","63d18e630e39bc97ef16152b","bdp_trlrn","Tue Mar 14 2023 20:28:37 GMT-0500 (Central Daylight Time)","700342","Untrustworthy,Trustworthy","","4272","","","","","","<div class='header' style='text-align:left; position: absolute; top: 5%; left: 5%;'><small>Task 3 of 5</small></div><div class='instruxDiv'><p><strong>4) If you decided to share 4 out of 5 points with your partner, and they decided to share half of the amount they received with you, how many points would you receive back from them on this round?</strong></p><p>a) 16</p><p>b) 0</p><p style='color:#00FF00'>c) 8</p><h3 style='color:#00FF00'>Correct!</h3><h3 class='center-content'>The correct response is c).</h3><h3 class='center-content'>If you shared 4 out of 5 points with your partner and they decided to share half of the amount they received with you, you would receive 8 points back (i.e. (4 x 4)/2 = 8).</h3><p><em>Press SPACEBAR to continue</em></p></div>"," ","","","","","","","","","","",""
"html-keyboard-response","135","317202","0.0-17.0","63d18e630e39bc97ef16152b","bdp_trlrn","Tue Mar 14 2023 20:28:37 GMT-0500 (Central Daylight Time)","700342","Untrustworthy,Trustworthy","","null","","","","","","<div class='header' style='text-align:left; position: absolute; top: 5%; left: 5%;'><small>Task 3 of 5</small></div><div class='instruxDiv'><p>Thank you for completing the quiz<p>These are the actual partners you will be interacting with in the next block:<p><div class='tc' align='center'><img class='introPic' src='trustrating_stim/white_00659_941121_fa_edt.bmp'><br><strong>Sean</strong></div><div class='bl' align='center'><img class='introPic' src='trustrating_stim/white_mw099.bmp'><br><strong>Devin</strong></div><div class='br' align='center'><img class='introPic' src='trustrating_stim/white_mw066.bmp'><br><strong>Chris</strong></div></div><p>Across <strong>66 rounds</strong> you will interact with each partner <strong>22 times</strong> (in random order).<p style='align:center; color:white'><font <em>Press SPACEBAR to continue</em></p>","null","","","","","","","","","","",""
"instructions","136","322563","0.0-18.0","63d18e630e39bc97ef16152b","bdp_trlrn","Tue Mar 14 2023 20:28:37 GMT-0500 (Central Daylight Time)","700342","Untrustworthy,Trustworthy","[{""page_index"":0,""viewing_time"":2373},{""page_index"":1,""viewing_time"":2986}]","5359","","","","","","","","","","","","","","","","","",""
"html-keyboard-response","137","324906","0.0-19.0-1.0","63d18e630e39bc97ef16152b","bdp_trlrn","Tue Mar 14 2023 20:28:37 GMT-0500 (Central Daylight Time)","700342","Untrustworthy,Trustworthy","","2240","","","","decision","","<div class='trialDiv'><img src='trustrating_stim/white_mw099.bmp'><br><font class='baseline'><strong>Devin</strong><p>Choose number of points to send.</font><div class='respPicDiv'><img src='img/responseButtonOffersNo0L.png' class='respPic'></div></div>","3","1","Devin","5","Shared","0.8,0.35","12","0.8","trustrating_stim/white_mw099.bmp","4.5","5","1"
"html-keyboard-response","138","325159","0.0-19.0-2.0","63d18e630e39bc97ef16152b","bdp_trlrn","Tue Mar 14 2023 20:28:37 GMT-0500 (Central Daylight Time)","700342","Untrustworthy,Trustworthy","","null","","","","decisionFB","","<div class='trialDiv'><img src='trustrating_stim/white_mw099.bmp'><br><font class='baseline'><strong>Devin</strong><p>Choose number of points to send.</font><div class='respPicDiv'><img src='img/responseButtonOffersNo0L3.png' class='respPic'></div></div>","null","1","Devin","5","Shared","0.8,0.35","12","0.8","trustrating_stim/white_mw099.bmp","4.5","2","1"
"html-keyboard-response","139","326162","0.0-19.0-3.0","63d18e630e39bc97ef16152b","bdp_trlrn","Tue Mar 14 2023 20:28:37 GMT-0500 (Central Daylight Time)","700342","Untrustworthy,Trustworthy","","null","","","","feedback","","<div class='trialDiv'><img src='trustrating_stim/white_mw099.bmp'><br><font class='baseline'><strong>Devin</strong><p>Received: <strong>12</strong></font> &nbsp; &nbsp; &nbsp; &nbsp; &nbsp; &nbsp;<font class='posOutcome'>Shared back: <strong>6</strong></font></font><div class='respPicDiv'><img src='img/responseButtonOffersNo0_wht.png' class='respPic'></div></div>","null","1","Devin","5","Shared","0.8,0.35","12","0.8","trustrating_stim/white_mw099.bmp","4.5","8","1"
"html-keyboard-response","140","328962","0.0-19.0-1.1","63d18e630e39bc97ef16152b","bdp_trlrn","Tue Mar 14 2023 20:28:37 GMT-0500 (Central Daylight Time)","700342","Untrustworthy,Trustworthy","","2798","","","","decision","","<div class='trialDiv'><img src='trustrating_stim/white_mw066.bmp'><br><font class='baseline'><strong>Chris</strong><p>Choose number of points to send.</font><div class='respPicDiv'><img src='img/responseButtonOffersNo0L.png' class='respPic'></div></div>","3","1","Chris","8","Kept","0.35,0.65","11","0.35","trustrating_stim/white_mw066.bmp","7.5","13","2"
"html-keyboard-response","141","329215","0.0-19.0-2.1","63d18e630e39bc97ef16152b","bdp_trlrn","Tue Mar 14 2023 20:28:37 GMT-0500 (Central Daylight Time)","700342","Untrustworthy,Trustworthy","","null","","","","decisionFB","","<div class='trialDiv'><img src='trustrating_stim/white_mw066.bmp'><br><font class='baseline'><strong>Chris</strong><p>Choose number of points to send.</font><div class='respPicDiv'><img src='img/responseButtonOffersNo0L3.png' class='respPic'></div></div>","null","1","Chris","8","Kept","0.35,0.65","11","0.35","trustrating_stim/white_mw066.bmp","7.5","10","2"
"html-keyboard-response","142","330217","0.0-19.0-3.1","63d18e630e39bc97ef16152b","bdp_trlrn","Tue Mar 14 2023 20:28:37 GMT-0500 (Central Daylight Time)","700342","Untrustworthy,Trustworthy","","null","","","","feedback","","<div class='trialDiv'><img src='trustrating_stim/white_mw066.bmp'><br><font class='baseline'><strong>Chris</strong><p>Received: <strong>12</strong></font> &nbsp; &nbsp; &nbsp; &nbsp; &nbsp; &nbsp;<font class='negOutcome'>Shared back: <strong>0</strong></font></font><div class='respPicDiv'><img src='img/responseButtonOffersNo0_wht.png' class='respPic'></div></div>","null","1","Chris","8","Kept","0.35,0.65","11","0.35","trustrating_stim/white_mw066.bmp","7.5","10","2"
"html-keyboard-response","143","332506","0.0-19.0-1.2","63d18e630e39bc97ef16152b","bdp_trlrn","Tue Mar 14 2023 20:28:37 GMT-0500 (Central Daylight Time)","700342","Untrustworthy,Trustworthy","","2286","","","","decision","","<div class='trialDiv'><img src='trustrating_stim/white_00659_941121_fa_edt.bmp'><br><font class='baseline'><strong>Sean</strong><p>Choose number of points to send.</font><div class='respPicDiv'><img src='img/responseButtonOffersNo0L.png' class='respPic'></div></div>","2","1","Sean","2","Shared","0.35,0.8","11","0.35","trustrating_stim/white_00659_941121_fa_edt.bmp","2","15","3"
"html-keyboard-response","144","332759","0.0-19.0-2.2","63d18e630e39bc97ef16152b","bdp_trlrn","Tue Mar 14 2023 20:28:37 GMT-0500 (Central Daylight Time)","700342","Untrustworthy,Trustworthy","","null","","","","decisionFB","","<div class='trialDiv'><img src='trustrating_stim/white_00659_941121_fa_edt.bmp'><br><font class='baseline'><strong>Sean</strong><p>Choose number of points to send.</font><div class='respPicDiv'><img src='img/responseButtonOffersNo0L2.png' class='respPic'></div></div>","null","1","Sean","2","Shared","0.35,0.8","11","0.35","trustrating_stim/white_00659_941121_fa_edt.bmp","2","13","3"
"html-keyboard-response","145","333761","0.0-19.0-3.2","63d18e630e39bc97ef16152b","bdp_trlrn","Tue Mar 14 2023 20:28:37 GMT-0500 (Central Daylight Time)","700342","Untrustworthy,Trustworthy","","null","","","","feedback","","<div class='trialDiv'><img src='trustrating_stim/white_00659_941121_fa_edt.bmp'><br><font class='baseline'><strong>Sean</strong><p>Received: <strong>8</strong></font> &nbsp; &nbsp; &nbsp; &nbsp; &nbsp; &nbsp;<font class='posOutcome'>Shared back: <strong>4</strong></font></font><div class='respPicDiv'><img src='img/responseButtonOffersNo0_wht.png' class='respPic'></div></div>","null","1","Sean","2","Shared","0.35,0.8","11","0.35","trustrating_stim/white_00659_941121_fa_edt.bmp","2","17","3"
"html-keyboard-response","146","335001","0.0-19.0-1.3","63d18e630e39bc97ef16152b","bdp_trlrn","Tue Mar 14 2023 20:28:37 GMT-0500 (Central Daylight Time)","700342","Untrustworthy,Trustworthy","","1238","","","","decision","","<div class='trialDiv'><img src='trustrating_stim/white_mw099.bmp'><br><font class='baseline'><strong>Devin</strong><p>Choose number of points to send.</font><div class='respPicDiv'><img src='img/responseButtonOffersNo0L.png' class='respPic'></div></div>","3","2","Devin","5","Shared","0.8,0.35","12","0.8","trustrating_stim/white_mw099.bmp","4.5","22","4"
"html-keyboard-response","147","335252","0.0-19.0-2.3","63d18e630e39bc97ef16152b","bdp_trlrn","Tue Mar 14 2023 20:28:37 GMT-0500 (Central Daylight Time)","700342","Untrustworthy,Trustworthy","","null","","","","decisionFB","","<div class='trialDiv'><img src='trustrating_stim/white_mw099.bmp'><br><font class='baseline'><strong>Devin</strong><p>Choose number of points to send.</font><div class='respPicDiv'><img src='img/responseButtonOffersNo0L3.png' class='respPic'></div></div>","null","2","Devin","5","Shared","0.8,0.35","12","0.8","trustrating_stim/white_mw099.bmp","4.5","19","4"
"html-keyboard-response","148","336255","0.0-19.0-3.3","63d18e630e39bc97ef16152b","bdp_trlrn","Tue Mar 14 2023 20:28:37 GMT-0500 (Central Daylight Time)","700342","Untrustworthy,Trustworthy","","null","","","","feedback","","<div class='trialDiv'><img src='trustrating_stim/white_mw099.bmp'><br><font class='baseline'><strong>Devin</strong><p>Received: <strong>12</strong></font> &nbsp; &nbsp; &nbsp; &nbsp; &nbsp; &nbsp;<font class='posOutcome'>Shared back: <strong>6</strong></font></font><div class='respPicDiv'><img src='img/responseButtonOffersNo0_wht.png' class='respPic'></div></div>","null","2","Devin","5","Shared","0.8,0.35","12","0.8","trustrating_stim/white_mw099.bmp","4.5","25","4"
"html-keyboard-response","149","337339","0.0-19.0-1.4","63d18e630e39bc97ef16152b","bdp_trlrn","Tue Mar 14 2023 20:28:37 GMT-0500 (Central Daylight Time)","700342","Untrustworthy,Trustworthy","","1082","","","","decision","","<div class='trialDiv'><img src='trustrating_stim/white_mw066.bmp'><br><font class='baseline'><strong>Chris</strong><p>Choose number of points to send.</font><div class='respPicDiv'><img src='img/responseButtonOffersNo0L.png' class='respPic'></div></div>","1","2","Chris","8","Shared","0.35,0.65","11","0.35","trustrating_stim/white_mw066.bmp","7.5","30","5"
"html-keyboard-response","150","337592","0.0-19.0-2.4","63d18e630e39bc97ef16152b","bdp_trlrn","Tue Mar 14 2023 20:28:37 GMT-0500 (Central Daylight Time)","700342","Untrustworthy,Trustworthy","","null","","","","decisionFB","","<div class='trialDiv'><img src='trustrating_stim/white_mw066.bmp'><br><font class='baseline'><strong>Chris</strong><p>Choose number of points to send.</font><div class='respPicDiv'><img src='img/responseButtonOffersNo0L1.png' class='respPic'></div></div>","null","2","Chris","8","Shared","0.35,0.65","11","0.35","trustrating_stim/white_mw066.bmp","7.5","29","5"
"html-keyboard-response","151","338594","0.0-19.0-3.4","63d18e630e39bc97ef16152b","bdp_trlrn","Tue Mar 14 2023 20:28:37 GMT-0500 (Central Daylight Time)","700342","Untrustworthy,Trustworthy","","null","","","","feedback","","<div class='trialDiv'><img src='trustrating_stim/white_mw066.bmp'><br><font class='baseline'><strong>Chris</strong><p>Received: <strong>4</strong></font> &nbsp; &nbsp; &nbsp; &nbsp; &nbsp; &nbsp;<font class='posOutcome'>Shared back: <strong>2</strong></font></font><div class='respPicDiv'><img src='img/responseButtonOffersNo0_wht.png' class='respPic'></div></div>","null","2","Chris","8","Shared","0.35,0.65","11","0.35","trustrating_stim/white_mw066.bmp","7.5","31","5"
"html-keyboard-response","152","340610","0.0-19.0-1.5","63d18e630e39bc97ef16152b","bdp_trlrn","Tue Mar 14 2023 20:28:37 GMT-0500 (Central Daylight Time)","700342","Untrustworthy,Trustworthy","","2015","","","","decision","","<div class='trialDiv'><img src='trustrating_stim/white_00659_941121_fa_edt.bmp'><br><font class='baseline'><strong>Sean</strong><p>Choose number of points to send.</font><div class='respPicDiv'><img src='img/responseButtonOffersNo0L.png' class='respPic'></div></div>","3","2","Sean","2","Kept","0.35,0.8","11","0.35","trustrating_stim/white_00659_941121_fa_edt.bmp","2","36","6"
"html-keyboard-response","153","340863","0.0-19.0-2.5","63d18e630e39bc97ef16152b","bdp_trlrn","Tue Mar 14 2023 20:28:37 GMT-0500 (Central Daylight Time)","700342","Untrustworthy,Trustworthy","","null","","","","decisionFB","","<div class='trialDiv'><img src='trustrating_stim/white_00659_941121_fa_edt.bmp'><br><font class='baseline'><strong>Sean</strong><p>Choose number of points to send.</font><div class='respPicDiv'><img src='img/responseButtonOffersNo0L3.png' class='respPic'></div></div>","null","2","Sean","2","Kept","0.35,0.8","11","0.35","trustrating_stim/white_00659_941121_fa_edt.bmp","2","33","6"
"html-keyboard-response","154","341869","0.0-19.0-3.5","63d18e630e39bc97ef16152b","bdp_trlrn","Tue Mar 14 2023 20:28:37 GMT-0500 (Central Daylight Time)","700342","Untrustworthy,Trustworthy","","null","","","","feedback","","<div class='trialDiv'><img src='trustrating_stim/white_00659_941121_fa_edt.bmp'><br><font class='baseline'><strong>Sean</strong><p>Received: <strong>12</strong></font> &nbsp; &nbsp; &nbsp; &nbsp; &nbsp; &nbsp;<font class='negOutcome'>Shared back: <strong>0</strong></font></font><div class='respPicDiv'><img src='img/responseButtonOffersNo0_wht.png' class='respPic'></div></div>","null","2","Sean","2","Kept","0.35,0.8","11","0.35","trustrating_stim/white_00659_941121_fa_edt.bmp","2","33","6"
"html-keyboard-response","155","344875","0.0-19.0-1.6","63d18e630e39bc97ef16152b","bdp_trlrn","Tue Mar 14 2023 20:28:37 GMT-0500 (Central Daylight Time)","700342","Untrustworthy,Trustworthy","","3005","","","","decision","","<div class='trialDiv'><img src='trustrating_stim/white_mw066.bmp'><br><font class='baseline'><strong>Chris</strong><p>Choose number of points to send.</font><div class='respPicDiv'><img src='img/responseButtonOffersNo0L.png' class='respPic'></div></div>","3","3","Chris","8","Kept","0.35,0.65","11","0.35","trustrating_stim/white_mw066.bmp","7.5","38","7"
"html-keyboard-response","156","345128","0.0-19.0-2.6","63d18e630e39bc97ef16152b","bdp_trlrn","Tue Mar 14 2023 20:28:37 GMT-0500 (Central Daylight Time)","700342","Untrustworthy,Trustworthy","","null","","","","decisionFB","","<div class='trialDiv'><img src='trustrating_stim/white_mw066.bmp'><br><font class='baseline'><strong>Chris</strong><p>Choose number of points to send.</font><div class='respPicDiv'><img src='img/responseButtonOffersNo0L3.png' class='respPic'></div></div>","null","3","Chris","8","Kept","0.35,0.65","11","0.35","trustrating_stim/white_mw066.bmp","7.5","35","7"
"html-keyboard-response","157","346131","0.0-19.0-3.6","63d18e630e39bc97ef16152b","bdp_trlrn","Tue Mar 14 2023 20:28:37 GMT-0500 (Central Daylight Time)","700342","Untrustworthy,Trustworthy","","null","","","","feedback","","<div class='trialDiv'><img src='trustrating_stim/white_mw066.bmp'><br><font class='baseline'><strong>Chris</strong><p>Received: <strong>12</strong></font> &nbsp; &nbsp; &nbsp; &nbsp; &nbsp; &nbsp;<font class='negOutcome'>Shared back: <strong>0</strong></font></font><div class='respPicDiv'><img src='img/responseButtonOffersNo0_wht.png' class='respPic'></div></div>","null","3","Chris","8","Kept","0.35,0.65","11","0.35","trustrating_stim/white_mw066.bmp","7.5","35","7"
"html-keyboard-response","158","347426","0.0-19.0-1.7","63d18e630e39bc97ef16152b","bdp_trlrn","Tue Mar 14 2023 20:28:37 GMT-0500 (Central Daylight Time)","700342","Untrustworthy,Trustworthy","","1293","","","","decision","","<div class='trialDiv'><img src='trustrating_stim/white_00659_941121_fa_edt.bmp'><br><font class='baseline'><strong>Sean</strong><p>Choose number of points to send.</font><div class='respPicDiv'><img src='img/responseButtonOffersNo0L.png' class='respPic'></div></div>","2","3","Sean","2","Kept","0.35,0.8","11","0.35","trustrating_stim/white_00659_941121_fa_edt.bmp","2","40","8"
"html-keyboard-response","159","347677","0.0-19.0-2.7","63d18e630e39bc97ef16152b","bdp_trlrn","Tue Mar 14 2023 20:28:37 GMT-0500 (Central Daylight Time)","700342","Untrustworthy,Trustworthy","","null","","","","decisionFB","","<div class='trialDiv'><img src='trustrating_stim/white_00659_941121_fa_edt.bmp'><br><font class='baseline'><strong>Sean</strong><p>Choose number of points to send.</font><div class='respPicDiv'><img src='img/responseButtonOffersNo0L2.png' class='respPic'></div></div>","null","3","Sean","2","Kept","0.35,0.8","11","0.35","trustrating_stim/white_00659_941121_fa_edt.bmp","2","38","8"
"html-keyboard-response","160","348678","0.0-19.0-3.7","63d18e630e39bc97ef16152b","bdp_trlrn","Tue Mar 14 2023 20:28:37 GMT-0500 (Central Daylight Time)","700342","Untrustworthy,Trustworthy","","null","","","","feedback","","<div class='trialDiv'><img src='trustrating_stim/white_00659_941121_fa_edt.bmp'><br><font class='baseline'><strong>Sean</strong><p>Received: <strong>8</strong></font> &nbsp; &nbsp; &nbsp; &nbsp; &nbsp; &nbsp;<font class='negOutcome'>Shared back: <strong>0</strong></font></font><div class='respPicDiv'><img src='img/responseButtonOffersNo0_wht.png' class='respPic'></div></div>","null","3","Sean","2","Kept","0.35,0.8","11","0.35","trustrating_stim/white_00659_941121_fa_edt.bmp","2","38","8"
"html-keyboard-response","161","351521","0.0-19.0-1.8","63d18e630e39bc97ef16152b","bdp_trlrn","Tue Mar 14 2023 20:28:37 GMT-0500 (Central Daylight Time)","700342","Untrustworthy,Trustworthy","","2842","","","","decision","","<div class='trialDiv'><img src='trustrating_stim/white_mw099.bmp'><br><font class='baseline'><strong>Devin</strong><p>Choose number of points to send.</font><div class='respPicDiv'><img src='img/responseButtonOffersNo0L.png' class='respPic'></div></div>","4","3","Devin","5","Shared","0.8,0.35","12","0.8","trustrating_stim/white_mw099.bmp","4.5","43","9"
"html-keyboard-response","162","351772","0.0-19.0-2.8","63d18e630e39bc97ef16152b","bdp_trlrn","Tue Mar 14 2023 20:28:37 GMT-0500 (Central Daylight Time)","700342","Untrustworthy,Trustworthy","","null","","","","decisionFB","","<div class='trialDiv'><img src='trustrating_stim/white_mw099.bmp'><br><font class='baseline'><strong>Devin</strong><p>Choose number of points to send.</font><div class='respPicDiv'><img src='img/responseButtonOffersNo0L4.png' class='respPic'></div></div>","null","3","Devin","5","Shared","0.8,0.35","12","0.8","trustrating_stim/white_mw099.bmp","4.5","39","9"
"html-keyboard-response","163","352775","0.0-19.0-3.8","63d18e630e39bc97ef16152b","bdp_trlrn","Tue Mar 14 2023 20:28:37 GMT-0500 (Central Daylight Time)","700342","Untrustworthy,Trustworthy","","null","","","","feedback","","<div class='trialDiv'><img src='trustrating_stim/white_mw099.bmp'><br><font class='baseline'><strong>Devin</strong><p>Received: <strong>16</strong></font> &nbsp; &nbsp; &nbsp; &nbsp; &nbsp; &nbsp;<font class='posOutcome'>Shared back: <strong>8</strong></font></font><div class='respPicDiv'><img src='img/responseButtonOffersNo0_wht.png' class='respPic'></div></div>","null","3","Devin","5","Shared","0.8,0.35","12","0.8","trustrating_stim/white_mw099.bmp","4.5","47","9"
"html-keyboard-response","164","354249","0.0-19.0-1.9","63d18e630e39bc97ef16152b","bdp_trlrn","Tue Mar 14 2023 20:28:37 GMT-0500 (Central Daylight Time)","700342","Untrustworthy,Trustworthy","","1472","","","","decision","","<div class='trialDiv'><img src='trustrating_stim/white_mw066.bmp'><br><font class='baseline'><strong>Chris</strong><p>Choose number of points to send.</font><div class='respPicDiv'><img src='img/responseButtonOffersNo0L.png' class='respPic'></div></div>","2","4","Chris","8","Kept","0.35,0.65","11","0.35","trustrating_stim/white_mw066.bmp","7.5","52","10"
"html-keyboard-response","165","354501","0.0-19.0-2.9","63d18e630e39bc97ef16152b","bdp_trlrn","Tue Mar 14 2023 20:28:37 GMT-0500 (Central Daylight Time)","700342","Untrustworthy,Trustworthy","","null","","","","decisionFB","","<div class='trialDiv'><img src='trustrating_stim/white_mw066.bmp'><br><font class='baseline'><strong>Chris</strong><p>Choose number of points to send.</font><div class='respPicDiv'><img src='img/responseButtonOffersNo0L2.png' class='respPic'></div></div>","null","4","Chris","8","Kept","0.35,0.65","11","0.35","trustrating_stim/white_mw066.bmp","7.5","50","10"
"html-keyboard-response","166","355502","0.0-19.0-3.9","63d18e630e39bc97ef16152b","bdp_trlrn","Tue Mar 14 2023 20:28:37 GMT-0500 (Central Daylight Time)","700342","Untrustworthy,Trustworthy","","null","","","","feedback","","<div class='trialDiv'><img src='trustrating_stim/white_mw066.bmp'><br><font class='baseline'><strong>Chris</strong><p>Received: <strong>8</strong></font> &nbsp; &nbsp; &nbsp; &nbsp; &nbsp; &nbsp;<font class='negOutcome'>Shared back: <strong>0</strong></font></font><div class='respPicDiv'><img src='img/responseButtonOffersNo0_wht.png' class='respPic'></div></div>","null","4","Chris","8","Kept","0.35,0.65","11","0.35","trustrating_stim/white_mw066.bmp","7.5","50","10"
"html-keyboard-response","167","357586","0.0-19.0-1.10","63d18e630e39bc97ef16152b","bdp_trlrn","Tue Mar 14 2023 20:28:37 GMT-0500 (Central Daylight Time)","700342","Untrustworthy,Trustworthy","","2082","","","","decision","","<div class='trialDiv'><img src='trustrating_stim/white_mw099.bmp'><br><font class='baseline'><strong>Devin</strong><p>Choose number of points to send.</font><div class='respPicDiv'><img src='img/responseButtonOffersNo0L.png' class='respPic'></div></div>","4","4","Devin","5","Shared","0.8,0.35","12","0.8","trustrating_stim/white_mw099.bmp","4.5","55","11"
"html-keyboard-response","168","357837","0.0-19.0-2.10","63d18e630e39bc97ef16152b","bdp_trlrn","Tue Mar 14 2023 20:28:37 GMT-0500 (Central Daylight Time)","700342","Untrustworthy,Trustworthy","","null","","","","decisionFB","","<div class='trialDiv'><img src='trustrating_stim/white_mw099.bmp'><br><font class='baseline'><strong>Devin</strong><p>Choose number of points to send.</font><div class='respPicDiv'><img src='img/responseButtonOffersNo0L4.png' class='respPic'></div></div>","null","4","Devin","5","Shared","0.8,0.35","12","0.8","trustrating_stim/white_mw099.bmp","4.5","51","11"
"html-keyboard-response","169","358840","0.0-19.0-3.10","63d18e630e39bc97ef16152b","bdp_trlrn","Tue Mar 14 2023 20:28:37 GMT-0500 (Central Daylight Time)","700342","Untrustworthy,Trustworthy","","null","","","","feedback","","<div class='trialDiv'><img src='trustrating_stim/white_mw099.bmp'><br><font class='baseline'><strong>Devin</strong><p>Received: <strong>16</strong></font> &nbsp; &nbsp; &nbsp; &nbsp; &nbsp; &nbsp;<font class='posOutcome'>Shared back: <strong>8</strong></font></font><div class='respPicDiv'><img src='img/responseButtonOffersNo0_wht.png' class='respPic'></div></div>","null","4","Devin","5","Shared","0.8,0.35","12","0.8","trustrating_stim/white_mw099.bmp","4.5","59","11"
"html-keyboard-response","170","359531","0.0-19.0-1.11","63d18e630e39bc97ef16152b","bdp_trlrn","Tue Mar 14 2023 20:28:37 GMT-0500 (Central Daylight Time)","700342","Untrustworthy,Trustworthy","","688","","","","decision","","<div class='trialDiv'><img src='trustrating_stim/white_00659_941121_fa_edt.bmp'><br><font class='baseline'><strong>Sean</strong><p>Choose number of points to send.</font><div class='respPicDiv'><img src='img/responseButtonOffersNo0L.png' class='respPic'></div></div>","1","4","Sean","2","Kept","0.35,0.8","11","0.35","trustrating_stim/white_00659_941121_fa_edt.bmp","2","64","12"
"html-keyboard-response","171","359783","0.0-19.0-2.11","63d18e630e39bc97ef16152b","bdp_trlrn","Tue Mar 14 2023 20:28:37 GMT-0500 (Central Daylight Time)","700342","Untrustworthy,Trustworthy","","null","","","","decisionFB","","<div class='trialDiv'><img src='trustrating_stim/white_00659_941121_fa_edt.bmp'><br><font class='baseline'><strong>Sean</strong><p>Choose number of points to send.</font><div class='respPicDiv'><img src='img/responseButtonOffersNo0L1.png' class='respPic'></div></div>","null","4","Sean","2","Kept","0.35,0.8","11","0.35","trustrating_stim/white_00659_941121_fa_edt.bmp","2","63","12"
"html-keyboard-response","172","360785","0.0-19.0-3.11","63d18e630e39bc97ef16152b","bdp_trlrn","Tue Mar 14 2023 20:28:37 GMT-0500 (Central Daylight Time)","700342","Untrustworthy,Trustworthy","","null","","","","feedback","","<div class='trialDiv'><img src='trustrating_stim/white_00659_941121_fa_edt.bmp'><br><font class='baseline'><strong>Sean</strong><p>Received: <strong>4</strong></font> &nbsp; &nbsp; &nbsp; &nbsp; &nbsp; &nbsp;<font class='negOutcome'>Shared back: <strong>0</strong></font></font><div class='respPicDiv'><img src='img/responseButtonOffersNo0_wht.png' class='respPic'></div></div>","null","4","Sean","2","Kept","0.35,0.8","11","0.35","trustrating_stim/white_00659_941121_fa_edt.bmp","2","63","12"
"html-keyboard-response","173","363049","0.0-19.0-1.12","63d18e630e39bc97ef16152b","bdp_trlrn","Tue Mar 14 2023 20:28:37 GMT-0500 (Central Daylight Time)","700342","Untrustworthy,Trustworthy","","2263","","","","decision","","<div class='trialDiv'><img src='trustrating_stim/white_mw099.bmp'><br><font class='baseline'><strong>Devin</strong><p>Choose number of points to send.</font><div class='respPicDiv'><img src='img/responseButtonOffersNo0L.png' class='respPic'></div></div>","5","5","Devin","5","Shared","0.8,0.35","12","0.8","trustrating_stim/white_mw099.bmp","4.5","68","13"
"html-keyboard-response","174","363301","0.0-19.0-2.12","63d18e630e39bc97ef16152b","bdp_trlrn","Tue Mar 14 2023 20:28:37 GMT-0500 (Central Daylight Time)","700342","Untrustworthy,Trustworthy","","null","","","","decisionFB","","<div class='trialDiv'><img src='trustrating_stim/white_mw099.bmp'><br><font class='baseline'><strong>Devin</strong><p>Choose number of points to send.</font><div class='respPicDiv'><img src='img/responseButtonOffersNo0L5.png' class='respPic'></div></div>","null","5","Devin","5","Shared","0.8,0.35","12","0.8","trustrating_stim/white_mw099.bmp","4.5","63","13"
"html-keyboard-response","175","364303","0.0-19.0-3.12","63d18e630e39bc97ef16152b","bdp_trlrn","Tue Mar 14 2023 20:28:37 GMT-0500 (Central Daylight Time)","700342","Untrustworthy,Trustworthy","","null","","","","feedback","","<div class='trialDiv'><img src='trustrating_stim/white_mw099.bmp'><br><font class='baseline'><strong>Devin</strong><p>Received: <strong>20</strong></font> &nbsp; &nbsp; &nbsp; &nbsp; &nbsp; &nbsp;<font class='posOutcome'>Shared back: <strong>10</strong></font></font><div class='respPicDiv'><img src='img/responseButtonOffersNo0_wht.png' class='respPic'></div></div>","null","5","Devin","5","Shared","0.8,0.35","12","0.8","trustrating_stim/white_mw099.bmp","4.5","73","13"
"html-keyboard-response","176","365137","0.0-19.0-1.13","63d18e630e39bc97ef16152b","bdp_trlrn","Tue Mar 14 2023 20:28:37 GMT-0500 (Central Daylight Time)","700342","Untrustworthy,Trustworthy","","832","","","","decision","","<div class='trialDiv'><img src='trustrating_stim/white_00659_941121_fa_edt.bmp'><br><font class='baseline'><strong>Sean</strong><p>Choose number of points to send.</font><div class='respPicDiv'><img src='img/responseButtonOffersNo0L.png' class='respPic'></div></div>","1","5","Sean","2","Kept","0.35,0.8","11","0.35","trustrating_stim/white_00659_941121_fa_edt.bmp","2","78","14"
"html-keyboard-response","177","365389","0.0-19.0-2.13","63d18e630e39bc97ef16152b","bdp_trlrn","Tue Mar 14 2023 20:28:37 GMT-0500 (Central Daylight Time)","700342","Untrustworthy,Trustworthy","","null","","","","decisionFB","","<div class='trialDiv'><img src='trustrating_stim/white_00659_941121_fa_edt.bmp'><br><font class='baseline'><strong>Sean</strong><p>Choose number of points to send.</font><div class='respPicDiv'><img src='img/responseButtonOffersNo0L1.png' class='respPic'></div></div>","null","5","Sean","2","Kept","0.35,0.8","11","0.35","trustrating_stim/white_00659_941121_fa_edt.bmp","2","77","14"
"html-keyboard-response","178","366392","0.0-19.0-3.13","63d18e630e39bc97ef16152b","bdp_trlrn","Tue Mar 14 2023 20:28:37 GMT-0500 (Central Daylight Time)","700342","Untrustworthy,Trustworthy","","null","","","","feedback","","<div class='trialDiv'><img src='trustrating_stim/white_00659_941121_fa_edt.bmp'><br><font class='baseline'><strong>Sean</strong><p>Received: <strong>4</strong></font> &nbsp; &nbsp; &nbsp; &nbsp; &nbsp; &nbsp;<font class='negOutcome'>Shared back: <strong>0</strong></font></font><div class='respPicDiv'><img src='img/responseButtonOffersNo0_wht.png' class='respPic'></div></div>","null","5","Sean","2","Kept","0.35,0.8","11","0.35","trustrating_stim/white_00659_941121_fa_edt.bmp","2","77","14"
"html-keyboard-response","179","367409","0.0-19.0-1.14","63d18e630e39bc97ef16152b","bdp_trlrn","Tue Mar 14 2023 20:28:37 GMT-0500 (Central Daylight Time)","700342","Untrustworthy,Trustworthy","","1016","","","","decision","","<div class='trialDiv'><img src='trustrating_stim/white_mw066.bmp'><br><font class='baseline'><strong>Chris</strong><p>Choose number of points to send.</font><div class='respPicDiv'><img src='img/responseButtonOffersNo0L.png' class='respPic'></div></div>","1","5","Chris","8","Shared","0.35,0.65","11","0.35","trustrating_stim/white_mw066.bmp","7.5","82","15"
"html-keyboard-response","180","367661","0.0-19.0-2.14","63d18e630e39bc97ef16152b","bdp_trlrn","Tue Mar 14 2023 20:28:37 GMT-0500 (Central Daylight Time)","700342","Untrustworthy,Trustworthy","","null","","","","decisionFB","","<div class='trialDiv'><img src='trustrating_stim/white_mw066.bmp'><br><font class='baseline'><strong>Chris</strong><p>Choose number of points to send.</font><div class='respPicDiv'><img src='img/responseButtonOffersNo0L1.png' class='respPic'></div></div>","null","5","Chris","8","Shared","0.35,0.65","11","0.35","trustrating_stim/white_mw066.bmp","7.5","81","15"
"html-keyboard-response","181","368664","0.0-19.0-3.14","63d18e630e39bc97ef16152b","bdp_trlrn","Tue Mar 14 2023 20:28:37 GMT-0500 (Central Daylight Time)","700342","Untrustworthy,Trustworthy","","null","","","","feedback","","<div class='trialDiv'><img src='trustrating_stim/white_mw066.bmp'><br><font class='baseline'><strong>Chris</strong><p>Received: <strong>4</strong></font> &nbsp; &nbsp; &nbsp; &nbsp; &nbsp; &nbsp;<font class='posOutcome'>Shared back: <strong>2</strong></font></font><div class='respPicDiv'><img src='img/responseButtonOffersNo0_wht.png' class='respPic'></div></div>","null","5","Chris","8","Shared","0.35,0.65","11","0.35","trustrating_stim/white_mw066.bmp","7.5","83","15"
"html-keyboard-response","182","369617","0.0-19.0-1.15","63d18e630e39bc97ef16152b","bdp_trlrn","Tue Mar 14 2023 20:28:37 GMT-0500 (Central Daylight Time)","700342","Untrustworthy,Trustworthy","","951","","","","decision","","<div class='trialDiv'><img src='trustrating_stim/white_mw099.bmp'><br><font class='baseline'><strong>Devin</strong><p>Choose number of points to send.</font><div class='respPicDiv'><img src='img/responseButtonOffersNo0L.png' class='respPic'></div></div>","5","6","Devin","5","Shared","0.8,0.35","12","0.8","trustrating_stim/white_mw099.bmp","4.5","88","16"
"html-keyboard-response","183","369869","0.0-19.0-2.15","63d18e630e39bc97ef16152b","bdp_trlrn","Tue Mar 14 2023 20:28:37 GMT-0500 (Central Daylight Time)","700342","Untrustworthy,Trustworthy","","null","","","","decisionFB","","<div class='trialDiv'><img src='trustrating_stim/white_mw099.bmp'><br><font class='baseline'><strong>Devin</strong><p>Choose number of points to send.</font><div class='respPicDiv'><img src='img/responseButtonOffersNo0L5.png' class='respPic'></div></div>","null","6","Devin","5","Shared","0.8,0.35","12","0.8","trustrating_stim/white_mw099.bmp","4.5","83","16"
"html-keyboard-response","184","370871","0.0-19.0-3.15","63d18e630e39bc97ef16152b","bdp_trlrn","Tue Mar 14 2023 20:28:37 GMT-0500 (Central Daylight Time)","700342","Untrustworthy,Trustworthy","","null","","","","feedback","","<div class='trialDiv'><img src='trustrating_stim/white_mw099.bmp'><br><font class='baseline'><strong>Devin</strong><p>Received: <strong>20</strong></font> &nbsp; &nbsp; &nbsp; &nbsp; &nbsp; &nbsp;<font class='posOutcome'>Shared back: <strong>10</strong></font></font><div class='respPicDiv'><img src='img/responseButtonOffersNo0_wht.png' class='respPic'></div></div>","null","6","Devin","5","Shared","0.8,0.35","12","0.8","trustrating_stim/white_mw099.bmp","4.5","93","16"
"html-keyboard-response","185","372163","0.0-19.0-1.16","63d18e630e39bc97ef16152b","bdp_trlrn","Tue Mar 14 2023 20:28:37 GMT-0500 (Central Daylight Time)","700342","Untrustworthy,Trustworthy","","1290","","","","decision","","<div class='trialDiv'><img src='trustrating_stim/white_00659_941121_fa_edt.bmp'><br><font class='baseline'><strong>Sean</strong><p>Choose number of points to send.</font><div class='respPicDiv'><img src='img/responseButtonOffersNo0L.png' class='respPic'></div></div>","1","6","Sean","2","Kept","0.35,0.8","11","0.35","trustrating_stim/white_00659_941121_fa_edt.bmp","2","98","17"
"html-keyboard-response","186","372416","0.0-19.0-2.16","63d18e630e39bc97ef16152b","bdp_trlrn","Tue Mar 14 2023 20:28:37 GMT-0500 (Central Daylight Time)","700342","Untrustworthy,Trustworthy","","null","","","","decisionFB","","<div class='trialDiv'><img src='trustrating_stim/white_00659_941121_fa_edt.bmp'><br><font class='baseline'><strong>Sean</strong><p>Choose number of points to send.</font><div class='respPicDiv'><img src='img/responseButtonOffersNo0L1.png' class='respPic'></div></div>","null","6","Sean","2","Kept","0.35,0.8","11","0.35","trustrating_stim/white_00659_941121_fa_edt.bmp","2","97","17"
"html-keyboard-response","187","373418","0.0-19.0-3.16","63d18e630e39bc97ef16152b","bdp_trlrn","Tue Mar 14 2023 20:28:37 GMT-0500 (Central Daylight Time)","700342","Untrustworthy,Trustworthy","","null","","","","feedback","","<div class='trialDiv'><img src='trustrating_stim/white_00659_941121_fa_edt.bmp'><br><font class='baseline'><strong>Sean</strong><p>Received: <strong>4</strong></font> &nbsp; &nbsp; &nbsp; &nbsp; &nbsp; &nbsp;<font class='negOutcome'>Shared back: <strong>0</strong></font></font><div class='respPicDiv'><img src='img/responseButtonOffersNo0_wht.png' class='respPic'></div></div>","null","6","Sean","2","Kept","0.35,0.8","11","0.35","trustrating_stim/white_00659_941121_fa_edt.bmp","2","97","17"
"html-keyboard-response","188","374235","0.0-19.0-1.17","63d18e630e39bc97ef16152b","bdp_trlrn","Tue Mar 14 2023 20:28:37 GMT-0500 (Central Daylight Time)","700342","Untrustworthy,Trustworthy","","815","","","","decision","","<div class='trialDiv'><img src='trustrating_stim/white_mw066.bmp'><br><font class='baseline'><strong>Chris</strong><p>Choose number of points to send.</font><div class='respPicDiv'><img src='img/responseButtonOffersNo0L.png' class='respPic'></div></div>","2","6","Chris","8","Shared","0.35,0.65","11","0.35","trustrating_stim/white_mw066.bmp","7.5","102","18"
"html-keyboard-response","189","374487","0.0-19.0-2.17","63d18e630e39bc97ef16152b","bdp_trlrn","Tue Mar 14 2023 20:28:37 GMT-0500 (Central Daylight Time)","700342","Untrustworthy,Trustworthy","","null","","","","decisionFB","","<div class='trialDiv'><img src='trustrating_stim/white_mw066.bmp'><br><font class='baseline'><strong>Chris</strong><p>Choose number of points to send.</font><div class='respPicDiv'><img src='img/responseButtonOffersNo0L2.png' class='respPic'></div></div>","null","6","Chris","8","Shared","0.35,0.65","11","0.35","trustrating_stim/white_mw066.bmp","7.5","100","18"
"html-keyboard-response","190","375489","0.0-19.0-3.17","63d18e630e39bc97ef16152b","bdp_trlrn","Tue Mar 14 2023 20:28:37 GMT-0500 (Central Daylight Time)","700342","Untrustworthy,Trustworthy","","null","","","","feedback","","<div class='trialDiv'><img src='trustrating_stim/white_mw066.bmp'><br><font class='baseline'><strong>Chris</strong><p>Received: <strong>8</strong></font> &nbsp; &nbsp; &nbsp; &nbsp; &nbsp; &nbsp;<font class='posOutcome'>Shared back: <strong>4</strong></font></font><div class='respPicDiv'><img src='img/responseButtonOffersNo0_wht.png' class='respPic'></div></div>","null","6","Chris","8","Shared","0.35,0.65","11","0.35","trustrating_stim/white_mw066.bmp","7.5","104","18"
"html-keyboard-response","191","376137","0.0-19.0-1.18","63d18e630e39bc97ef16152b","bdp_trlrn","Tue Mar 14 2023 20:28:37 GMT-0500 (Central Daylight Time)","700342","Untrustworthy,Trustworthy","","647","","","","decision","","<div class='trialDiv'><img src='trustrating_stim/white_mw099.bmp'><br><font class='baseline'><strong>Devin</strong><p>Choose number of points to send.</font><div class='respPicDiv'><img src='img/responseButtonOffersNo0L.png' class='respPic'></div></div>","5","7","Devin","5","Shared","0.8,0.35","12","0.8","trustrating_stim/white_mw099.bmp","4.5","109","19"
"html-keyboard-response","192","376388","0.0-19.0-2.18","63d18e630e39bc97ef16152b","bdp_trlrn","Tue Mar 14 2023 20:28:37 GMT-0500 (Central Daylight Time)","700342","Untrustworthy,Trustworthy","","null","","","","decisionFB","","<div class='trialDiv'><img src='trustrating_stim/white_mw099.bmp'><br><font class='baseline'><strong>Devin</strong><p>Choose number of points to send.</font><div class='respPicDiv'><img src='img/responseButtonOffersNo0L5.png' class='respPic'></div></div>","null","7","Devin","5","Shared","0.8,0.35","12","0.8","trustrating_stim/white_mw099.bmp","4.5","104","19"
"html-keyboard-response","193","377391","0.0-19.0-3.18","63d18e630e39bc97ef16152b","bdp_trlrn","Tue Mar 14 2023 20:28:37 GMT-0500 (Central Daylight Time)","700342","Untrustworthy,Trustworthy","","null","","","","feedback","","<div class='trialDiv'><img src='trustrating_stim/white_mw099.bmp'><br><font class='baseline'><strong>Devin</strong><p>Received: <strong>20</strong></font> &nbsp; &nbsp; &nbsp; &nbsp; &nbsp; &nbsp;<font class='posOutcome'>Shared back: <strong>10</strong></font></font><div class='respPicDiv'><img src='img/responseButtonOffersNo0_wht.png' class='respPic'></div></div>","null","7","Devin","5","Shared","0.8,0.35","12","0.8","trustrating_stim/white_mw099.bmp","4.5","114","19"
"html-keyboard-response","194","378851","0.0-19.0-1.19","63d18e630e39bc97ef16152b","bdp_trlrn","Tue Mar 14 2023 20:28:37 GMT-0500 (Central Daylight Time)","700342","Untrustworthy,Trustworthy","","1457","","","","decision","","<div class='trialDiv'><img src='trustrating_stim/white_00659_941121_fa_edt.bmp'><br><font class='baseline'><strong>Sean</strong><p>Choose number of points to send.</font><div class='respPicDiv'><img src='img/responseButtonOffersNo0L.png' class='respPic'></div></div>","1","7","Sean","2","Shared","0.35,0.8","11","0.35","trustrating_stim/white_00659_941121_fa_edt.bmp","2","119","20"
"html-keyboard-response","195","379103","0.0-19.0-2.19","63d18e630e39bc97ef16152b","bdp_trlrn","Tue Mar 14 2023 20:28:37 GMT-0500 (Central Daylight Time)","700342","Untrustworthy,Trustworthy","","null","","","","decisionFB","","<div class='trialDiv'><img src='trustrating_stim/white_00659_941121_fa_edt.bmp'><br><font class='baseline'><strong>Sean</strong><p>Choose number of points to send.</font><div class='respPicDiv'><img src='img/responseButtonOffersNo0L1.png' class='respPic'></div></div>","null","7","Sean","2","Shared","0.35,0.8","11","0.35","trustrating_stim/white_00659_941121_fa_edt.bmp","2","118","20"
"html-keyboard-response","196","380105","0.0-19.0-3.19","63d18e630e39bc97ef16152b","bdp_trlrn","Tue Mar 14 2023 20:28:37 GMT-0500 (Central Daylight Time)","700342","Untrustworthy,Trustworthy","","null","","","","feedback","","<div class='trialDiv'><img src='trustrating_stim/white_00659_941121_fa_edt.bmp'><br><font class='baseline'><strong>Sean</strong><p>Received: <strong>4</strong></font> &nbsp; &nbsp; &nbsp; &nbsp; &nbsp; &nbsp;<font class='posOutcome'>Shared back: <strong>2</strong></font></font><div class='respPicDiv'><img src='img/responseButtonOffersNo0_wht.png' class='respPic'></div></div>","null","7","Sean","2","Shared","0.35,0.8","11","0.35","trustrating_stim/white_00659_941121_fa_edt.bmp","2","120","20"
"html-keyboard-response","197","380844","0.0-19.0-1.20","63d18e630e39bc97ef16152b","bdp_trlrn","Tue Mar 14 2023 20:28:37 GMT-0500 (Central Daylight Time)","700342","Untrustworthy,Trustworthy","","736","","","","decision","","<div class='trialDiv'><img src='trustrating_stim/white_mw066.bmp'><br><font class='baseline'><strong>Chris</strong><p>Choose number of points to send.</font><div class='respPicDiv'><img src='img/responseButtonOffersNo0L.png' class='respPic'></div></div>","2","7","Chris","8","Kept","0.35,0.65","11","0.35","trustrating_stim/white_mw066.bmp","7.5","125","21"
"html-keyboard-response","198","381096","0.0-19.0-2.20","63d18e630e39bc97ef16152b","bdp_trlrn","Tue Mar 14 2023 20:28:37 GMT-0500 (Central Daylight Time)","700342","Untrustworthy,Trustworthy","","null","","","","decisionFB","","<div class='trialDiv'><img src='trustrating_stim/white_mw066.bmp'><br><font class='baseline'><strong>Chris</strong><p>Choose number of points to send.</font><div class='respPicDiv'><img src='img/responseButtonOffersNo0L2.png' class='respPic'></div></div>","null","7","Chris","8","Kept","0.35,0.65","11","0.35","trustrating_stim/white_mw066.bmp","7.5","123","21"
"html-keyboard-response","199","382099","0.0-19.0-3.20","63d18e630e39bc97ef16152b","bdp_trlrn","Tue Mar 14 2023 20:28:37 GMT-0500 (Central Daylight Time)","700342","Untrustworthy,Trustworthy","","null","","","","feedback","","<div class='trialDiv'><img src='trustrating_stim/white_mw066.bmp'><br><font class='baseline'><strong>Chris</strong><p>Received: <strong>8</strong></font> &nbsp; &nbsp; &nbsp; &nbsp; &nbsp; &nbsp;<font class='negOutcome'>Shared back: <strong>0</strong></font></font><div class='respPicDiv'><img src='img/responseButtonOffersNo0_wht.png' class='respPic'></div></div>","null","7","Chris","8","Kept","0.35,0.65","11","0.35","trustrating_stim/white_mw066.bmp","7.5","123","21"
"html-keyboard-response","200","382850","0.0-19.0-1.21","63d18e630e39bc97ef16152b","bdp_trlrn","Tue Mar 14 2023 20:28:37 GMT-0500 (Central Daylight Time)","700342","Untrustworthy,Trustworthy","","750","","","","decision","","<div class='trialDiv'><img src='trustrating_stim/white_00659_941121_fa_edt.bmp'><br><font class='baseline'><strong>Sean</strong><p>Choose number of points to send.</font><div class='respPicDiv'><img src='img/responseButtonOffersNo0L.png' class='respPic'></div></div>","1","8","Sean","2","Kept","0.35,0.8","11","0.35","trustrating_stim/white_00659_941121_fa_edt.bmp","2","128","22"
"html-keyboard-response","201","383103","0.0-19.0-2.21","63d18e630e39bc97ef16152b","bdp_trlrn","Tue Mar 14 2023 20:28:37 GMT-0500 (Central Daylight Time)","700342","Untrustworthy,Trustworthy","","null","","","","decisionFB","","<div class='trialDiv'><img src='trustrating_stim/white_00659_941121_fa_edt.bmp'><br><font class='baseline'><strong>Sean</strong><p>Choose number of points to send.</font><div class='respPicDiv'><img src='img/responseButtonOffersNo0L1.png' class='respPic'></div></div>","null","8","Sean","2","Kept","0.35,0.8","11","0.35","trustrating_stim/white_00659_941121_fa_edt.bmp","2","127","22"
"html-keyboard-response","202","384105","0.0-19.0-3.21","63d18e630e39bc97ef16152b","bdp_trlrn","Tue Mar 14 2023 20:28:37 GMT-0500 (Central Daylight Time)","700342","Untrustworthy,Trustworthy","","null","","","","feedback","","<div class='trialDiv'><img src='trustrating_stim/white_00659_941121_fa_edt.bmp'><br><font class='baseline'><strong>Sean</strong><p>Received: <strong>4</strong></font> &nbsp; &nbsp; &nbsp; &nbsp; &nbsp; &nbsp;<font class='negOutcome'>Shared back: <strong>0</strong></font></font><div class='respPicDiv'><img src='img/responseButtonOffersNo0_wht.png' class='respPic'></div></div>","null","8","Sean","2","Kept","0.35,0.8","11","0.35","trustrating_stim/white_00659_941121_fa_edt.bmp","2","127","22"
"html-keyboard-response","203","384987","0.0-19.0-1.22","63d18e630e39bc97ef16152b","bdp_trlrn","Tue Mar 14 2023 20:28:37 GMT-0500 (Central Daylight Time)","700342","Untrustworthy,Trustworthy","","880","","","","decision","","<div class='trialDiv'><img src='trustrating_stim/white_mw099.bmp'><br><font class='baseline'><strong>Devin</strong><p>Choose number of points to send.</font><div class='respPicDiv'><img src='img/responseButtonOffersNo0L.png' class='respPic'></div></div>","5","8","Devin","5","Kept","0.8,0.35","12","0.8","trustrating_stim/white_mw099.bmp","4.5","132","23"
"html-keyboard-response","204","385240","0.0-19.0-2.22","63d18e630e39bc97ef16152b","bdp_trlrn","Tue Mar 14 2023 20:28:37 GMT-0500 (Central Daylight Time)","700342","Untrustworthy,Trustworthy","","null","","","","decisionFB","","<div class='trialDiv'><img src='trustrating_stim/white_mw099.bmp'><br><font class='baseline'><strong>Devin</strong><p>Choose number of points to send.</font><div class='respPicDiv'><img src='img/responseButtonOffersNo0L5.png' class='respPic'></div></div>","null","8","Devin","5","Kept","0.8,0.35","12","0.8","trustrating_stim/white_mw099.bmp","4.5","127","23"
"html-keyboard-response","205","386251","0.0-19.0-3.22","63d18e630e39bc97ef16152b","bdp_trlrn","Tue Mar 14 2023 20:28:37 GMT-0500 (Central Daylight Time)","700342","Untrustworthy,Trustworthy","","null","","","","feedback","","<div class='trialDiv'><img src='trustrating_stim/white_mw099.bmp'><br><font class='baseline'><strong>Devin</strong><p>Received: <strong>20</strong></font> &nbsp; &nbsp; &nbsp; &nbsp; &nbsp; &nbsp;<font class='negOutcome'>Shared back: <strong>0</strong></font></font><div class='respPicDiv'><img src='img/responseButtonOffersNo0_wht.png' class='respPic'></div></div>","null","8","Devin","5","Kept","0.8,0.35","12","0.8","trustrating_stim/white_mw099.bmp","4.5","127","23"
"html-keyboard-response","206","389172","0.0-19.0-1.23","63d18e630e39bc97ef16152b","bdp_trlrn","Tue Mar 14 2023 20:28:37 GMT-0500 (Central Daylight Time)","700342","Untrustworthy,Trustworthy","","2918","","","","decision","","<div class='trialDiv'><img src='trustrating_stim/white_mw066.bmp'><br><font class='baseline'><strong>Chris</strong><p>Choose number of points to send.</font><div class='respPicDiv'><img src='img/responseButtonOffersNo0L.png' class='respPic'></div></div>","2","8","Chris","8","Shared","0.35,0.65","11","0.35","trustrating_stim/white_mw066.bmp","7.5","132","24"
"html-keyboard-response","207","389423","0.0-19.0-2.23","63d18e630e39bc97ef16152b","bdp_trlrn","Tue Mar 14 2023 20:28:37 GMT-0500 (Central Daylight Time)","700342","Untrustworthy,Trustworthy","","null","","","","decisionFB","","<div class='trialDiv'><img src='trustrating_stim/white_mw066.bmp'><br><font class='baseline'><strong>Chris</strong><p>Choose number of points to send.</font><div class='respPicDiv'><img src='img/responseButtonOffersNo0L2.png' class='respPic'></div></div>","null","8","Chris","8","Shared","0.35,0.65","11","0.35","trustrating_stim/white_mw066.bmp","7.5","130","24"
"html-keyboard-response","208","390426","0.0-19.0-3.23","63d18e630e39bc97ef16152b","bdp_trlrn","Tue Mar 14 2023 20:28:37 GMT-0500 (Central Daylight Time)","700342","Untrustworthy,Trustworthy","","null","","","","feedback","","<div class='trialDiv'><img src='trustrating_stim/white_mw066.bmp'><br><font class='baseline'><strong>Chris</strong><p>Received: <strong>8</strong></font> &nbsp; &nbsp; &nbsp; &nbsp; &nbsp; &nbsp;<font class='posOutcome'>Shared back: <strong>4</strong></font></font><div class='respPicDiv'><img src='img/responseButtonOffersNo0_wht.png' class='respPic'></div></div>","null","8","Chris","8","Shared","0.35,0.65","11","0.35","trustrating_stim/white_mw066.bmp","7.5","134","24"
"html-keyboard-response","209","391130","0.0-19.0-1.24","63d18e630e39bc97ef16152b","bdp_trlrn","Tue Mar 14 2023 20:28:37 GMT-0500 (Central Daylight Time)","700342","Untrustworthy,Trustworthy","","702","","","","decision","","<div class='trialDiv'><img src='trustrating_stim/white_00659_941121_fa_edt.bmp'><br><font class='baseline'><strong>Sean</strong><p>Choose number of points to send.</font><div class='respPicDiv'><img src='img/responseButtonOffersNo0L.png' class='respPic'></div></div>","1","9","Sean","2","Kept","0.35,0.8","11","0.35","trustrating_stim/white_00659_941121_fa_edt.bmp","2","139","25"
"html-keyboard-response","210","391381","0.0-19.0-2.24","63d18e630e39bc97ef16152b","bdp_trlrn","Tue Mar 14 2023 20:28:37 GMT-0500 (Central Daylight Time)","700342","Untrustworthy,Trustworthy","","null","","","","decisionFB","","<div class='trialDiv'><img src='trustrating_stim/white_00659_941121_fa_edt.bmp'><br><font class='baseline'><strong>Sean</strong><p>Choose number of points to send.</font><div class='respPicDiv'><img src='img/responseButtonOffersNo0L1.png' class='respPic'></div></div>","null","9","Sean","2","Kept","0.35,0.8","11","0.35","trustrating_stim/white_00659_941121_fa_edt.bmp","2","138","25"
"html-keyboard-response","211","392383","0.0-19.0-3.24","63d18e630e39bc97ef16152b","bdp_trlrn","Tue Mar 14 2023 20:28:37 GMT-0500 (Central Daylight Time)","700342","Untrustworthy,Trustworthy","","null","","","","feedback","","<div class='trialDiv'><img src='trustrating_stim/white_00659_941121_fa_edt.bmp'><br><font class='baseline'><strong>Sean</strong><p>Received: <strong>4</strong></font> &nbsp; &nbsp; &nbsp; &nbsp; &nbsp; &nbsp;<font class='negOutcome'>Shared back: <strong>0</strong></font></font><div class='respPicDiv'><img src='img/responseButtonOffersNo0_wht.png' class='respPic'></div></div>","null","9","Sean","2","Kept","0.35,0.8","11","0.35","trustrating_stim/white_00659_941121_fa_edt.bmp","2","138","25"
"html-keyboard-response","212","394580","0.0-19.0-1.25","63d18e630e39bc97ef16152b","bdp_trlrn","Tue Mar 14 2023 20:28:37 GMT-0500 (Central Daylight Time)","700342","Untrustworthy,Trustworthy","","2195","","","","decision","","<div class='trialDiv'><img src='trustrating_stim/white_mw099.bmp'><br><font class='baseline'><strong>Devin</strong><p>Choose number of points to send.</font><div class='respPicDiv'><img src='img/responseButtonOffersNo0L.png' class='respPic'></div></div>","4","9","Devin","5","Kept","0.8,0.35","12","0.8","trustrating_stim/white_mw099.bmp","4.5","143","26"
"html-keyboard-response","213","394844","0.0-19.0-2.25","63d18e630e39bc97ef16152b","bdp_trlrn","Tue Mar 14 2023 20:28:37 GMT-0500 (Central Daylight Time)","700342","Untrustworthy,Trustworthy","","null","","","","decisionFB","","<div class='trialDiv'><img src='trustrating_stim/white_mw099.bmp'><br><font class='baseline'><strong>Devin</strong><p>Choose number of points to send.</font><div class='respPicDiv'><img src='img/responseButtonOffersNo0L4.png' class='respPic'></div></div>","null","9","Devin","5","Kept","0.8,0.35","12","0.8","trustrating_stim/white_mw099.bmp","4.5","139","26"
"html-keyboard-response","214","395846","0.0-19.0-3.25","63d18e630e39bc97ef16152b","bdp_trlrn","Tue Mar 14 2023 20:28:37 GMT-0500 (Central Daylight Time)","700342","Untrustworthy,Trustworthy","","null","","","","feedback","","<div class='trialDiv'><img src='trustrating_stim/white_mw099.bmp'><br><font class='baseline'><strong>Devin</strong><p>Received: <strong>16</strong></font> &nbsp; &nbsp; &nbsp; &nbsp; &nbsp; &nbsp;<font class='negOutcome'>Shared back: <strong>0</strong></font></font><div class='respPicDiv'><img src='img/responseButtonOffersNo0_wht.png' class='respPic'></div></div>","null","9","Devin","5","Kept","0.8,0.35","12","0.8","trustrating_stim/white_mw099.bmp","4.5","139","26"
"html-keyboard-response","215","397325","0.0-19.0-1.26","63d18e630e39bc97ef16152b","bdp_trlrn","Tue Mar 14 2023 20:28:37 GMT-0500 (Central Daylight Time)","700342","Untrustworthy,Trustworthy","","1477","","","","decision","","<div class='trialDiv'><img src='trustrating_stim/white_mw066.bmp'><br><font class='baseline'><strong>Chris</strong><p>Choose number of points to send.</font><div class='respPicDiv'><img src='img/responseButtonOffersNo0L.png' class='respPic'></div></div>","2","9","Chris","8","Kept","0.35,0.65","11","0.35","trustrating_stim/white_mw066.bmp","7.5","144","27"
"html-keyboard-response","216","397578","0.0-19.0-2.26","63d18e630e39bc97ef16152b","bdp_trlrn","Tue Mar 14 2023 20:28:37 GMT-0500 (Central Daylight Time)","700342","Untrustworthy,Trustworthy","","null","","","","decisionFB","","<div class='trialDiv'><img src='trustrating_stim/white_mw066.bmp'><br><font class='baseline'><strong>Chris</strong><p>Choose number of points to send.</font><div class='respPicDiv'><img src='img/responseButtonOffersNo0L2.png' class='respPic'></div></div>","null","9","Chris","8","Kept","0.35,0.65","11","0.35","trustrating_stim/white_mw066.bmp","7.5","142","27"
"html-keyboard-response","217","398580","0.0-19.0-3.26","63d18e630e39bc97ef16152b","bdp_trlrn","Tue Mar 14 2023 20:28:37 GMT-0500 (Central Daylight Time)","700342","Untrustworthy,Trustworthy","","null","","","","feedback","","<div class='trialDiv'><img src='trustrating_stim/white_mw066.bmp'><br><font class='baseline'><strong>Chris</strong><p>Received: <strong>8</strong></font> &nbsp; &nbsp; &nbsp; &nbsp; &nbsp; &nbsp;<font class='negOutcome'>Shared back: <strong>0</strong></font></font><div class='respPicDiv'><img src='img/responseButtonOffersNo0_wht.png' class='respPic'></div></div>","null","9","Chris","8","Kept","0.35,0.65","11","0.35","trustrating_stim/white_mw066.bmp","7.5","142","27"
"html-keyboard-response","218","399099","0.0-19.0-1.27","63d18e630e39bc97ef16152b","bdp_trlrn","Tue Mar 14 2023 20:28:37 GMT-0500 (Central Daylight Time)","700342","Untrustworthy,Trustworthy","","516","","","","decision","","<div class='trialDiv'><img src='trustrating_stim/white_00659_941121_fa_edt.bmp'><br><font class='baseline'><strong>Sean</strong><p>Choose number of points to send.</font><div class='respPicDiv'><img src='img/responseButtonOffersNo0L.png' class='respPic'></div></div>","1","10","Sean","2","Kept","0.35,0.8","11","0.35","trustrating_stim/white_00659_941121_fa_edt.bmp","2","147","28"
"html-keyboard-response","219","399350","0.0-19.0-2.27","63d18e630e39bc97ef16152b","bdp_trlrn","Tue Mar 14 2023 20:28:37 GMT-0500 (Central Daylight Time)","700342","Untrustworthy,Trustworthy","","null","","","","decisionFB","","<div class='trialDiv'><img src='trustrating_stim/white_00659_941121_fa_edt.bmp'><br><font class='baseline'><strong>Sean</strong><p>Choose number of points to send.</font><div class='respPicDiv'><img src='img/responseButtonOffersNo0L1.png' class='respPic'></div></div>","null","10","Sean","2","Kept","0.35,0.8","11","0.35","trustrating_stim/white_00659_941121_fa_edt.bmp","2","146","28"
"html-keyboard-response","220","400353","0.0-19.0-3.27","63d18e630e39bc97ef16152b","bdp_trlrn","Tue Mar 14 2023 20:28:37 GMT-0500 (Central Daylight Time)","700342","Untrustworthy,Trustworthy","","null","","","","feedback","","<div class='trialDiv'><img src='trustrating_stim/white_00659_941121_fa_edt.bmp'><br><font class='baseline'><strong>Sean</strong><p>Received: <strong>4</strong></font> &nbsp; &nbsp; &nbsp; &nbsp; &nbsp; &nbsp;<font class='negOutcome'>Shared back: <strong>0</strong></font></font><div class='respPicDiv'><img src='img/responseButtonOffersNo0_wht.png' class='respPic'></div></div>","null","10","Sean","2","Kept","0.35,0.8","11","0.35","trustrating_stim/white_00659_941121_fa_edt.bmp","2","146","28"
"html-keyboard-response","221","401821","0.0-19.0-1.28","63d18e630e39bc97ef16152b","bdp_trlrn","Tue Mar 14 2023 20:28:37 GMT-0500 (Central Daylight Time)","700342","Untrustworthy,Trustworthy","","1465","","","","decision","","<div class='trialDiv'><img src='trustrating_stim/white_mw066.bmp'><br><font class='baseline'><strong>Chris</strong><p>Choose number of points to send.</font><div class='respPicDiv'><img src='img/responseButtonOffersNo0L.png' class='respPic'></div></div>","1","10","Chris","8","Shared","0.35,0.65","11","0.35","trustrating_stim/white_mw066.bmp","7.5","151","29"
