"trial_type","trial_index","time_elapsed","internal_node_id","subject_id","task","startTime","totalTime","labels","view_history","rt","event","trial","time","trialtype","success","stimulus","key_press","aground","name","faceID","outcome","agenttype","agentswpt","agentcurrpshare","face","avgRating","point_total","round"
"pavlovia","0","4","0.0-0.0","63f791692fa22034babcdda1","bdp_trlrn","Tue Mar 14 2023 13:59:51 GMT-0400 (Eastern Daylight Time)","492701","Untrustworthy,Trustworthy","","","","","","","","","","","","","","","","","","","",""
"instructions","1","4382","0.0-1.0","63f791692fa22034babcdda1","bdp_trlrn","Tue Mar 14 2023 13:59:51 GMT-0400 (Eastern Daylight Time)","492701","Untrustworthy,Trustworthy","[{""page_index"":0,""viewing_time"":4378}]","4378","","","","","","","","","","","","","","","","","",""
"","","","","63f791692fa22034babcdda1","bdp_trlrn","Tue Mar 14 2023 13:59:51 GMT-0400 (Eastern Daylight Time)","492701","Untrustworthy,Trustworthy","","","fullscreenenter","2","10169","fullscreenenter","","","","","","","","","","","","","",""
"fullscreen","2","11136","0.0-2.0","63f791692fa22034babcdda1","bdp_trlrn","Tue Mar 14 2023 13:59:51 GMT-0400 (Eastern Daylight Time)","492701","Untrustworthy,Trustworthy","","","","","","","true","","","","","","","","","","","","",""
"instructions","3","19500","0.0-4.0","63f791692fa22034babcdda1","bdp_trlrn","Tue Mar 14 2023 13:59:51 GMT-0400 (Eastern Daylight Time)","492701","Untrustworthy,Trustworthy","[{""page_index"":0,""viewing_time"":6618},{""page_index"":1,""viewing_time"":1744}]","8362","","","","","","","","","","","","","","","","","",""
"instructions","4","20432","0.0-5.0","63f791692fa22034babcdda1","bdp_trlrn","Tue Mar 14 2023 13:59:51 GMT-0400 (Eastern Daylight Time)","492701","Untrustworthy,Trustworthy","[{""page_index"":0,""viewing_time"":931}]","931","","","","","","","","","","","","","","","","","",""
"image-keyboard-response","5","22109","0.0-6.0-1.0","63f791692fa22034babcdda1","bdp_trlrn","Tue Mar 14 2023 13:59:51 GMT-0400 (Eastern Daylight Time)","492701","Untrustworthy,Trustworthy","","1573","","","","rating","","trustrating_stim/white_00761_941201_fb_edt.bmp","4","","","","","","","","","","",""
"image-keyboard-response","6","22311","0.0-6.0-2.0","63f791692fa22034babcdda1","bdp_trlrn","Tue Mar 14 2023 13:59:51 GMT-0400 (Eastern Daylight Time)","492701","Untrustworthy,Trustworthy","","null","","","","ratingFB","","trustrating_stim/white_00761_941201_fb_edt.bmp","null","","","","","","","","","","",""
"image-keyboard-response","7","23748","0.0-6.0-1.1","63f791692fa22034babcdda1","bdp_trlrn","Tue Mar 14 2023 13:59:51 GMT-0400 (Eastern Daylight Time)","492701","Untrustworthy,Trustworthy","","1333","","","","rating","","trustrating_stim/white_00299_940422_fa_edt.bmp","7","","","","","","","","","","",""
"image-keyboard-response","8","23949","0.0-6.0-2.1","63f791692fa22034babcdda1","bdp_trlrn","Tue Mar 14 2023 13:59:51 GMT-0400 (Eastern Daylight Time)","492701","Untrustworthy,Trustworthy","","null","","","","ratingFB","","trustrating_stim/white_00299_940422_fa_edt.bmp","null","","","","","","","","","","",""
"image-keyboard-response","9","26596","0.0-6.0-1.2","63f791692fa22034babcdda1","bdp_trlrn","Tue Mar 14 2023 13:59:51 GMT-0400 (Eastern Daylight Time)","492701","Untrustworthy,Trustworthy","","2546","","","","rating","","trustrating_stim/white_00129_931230_fb_edt.bmp","9","","","","","","","","","","",""
"image-keyboard-response","10","26797","0.0-6.0-2.2","63f791692fa22034babcdda1","bdp_trlrn","Tue Mar 14 2023 13:59:51 GMT-0400 (Eastern Daylight Time)","492701","Untrustworthy,Trustworthy","","null","","","","ratingFB","","trustrating_stim/white_00129_931230_fb_edt.bmp","null","","","","","","","","","","",""
"image-keyboard-response","11","27804","0.0-6.0-1.3","63f791692fa22034babcdda1","bdp_trlrn","Tue Mar 14 2023 13:59:51 GMT-0400 (Eastern Daylight Time)","492701","Untrustworthy,Trustworthy","","905","","","","rating","","trustrating_stim/white_mw097.bmp","1","","","","","","","","","","",""
"image-keyboard-response","12","28005","0.0-6.0-2.3","63f791692fa22034babcdda1","bdp_trlrn","Tue Mar 14 2023 13:59:51 GMT-0400 (Eastern Daylight Time)","492701","Untrustworthy,Trustworthy","","null","","","","ratingFB","","trustrating_stim/white_mw097.bmp","null","","","","","","","","","","",""
"image-keyboard-response","13","29141","0.0-6.0-1.4","63f791692fa22034babcdda1","bdp_trlrn","Tue Mar 14 2023 13:59:51 GMT-0400 (Eastern Daylight Time)","492701","Untrustworthy,Trustworthy","","1034","","","","rating","","trustrating_stim/white_mw035.bmp","4","","","","","","","","","","",""
"image-keyboard-response","14","29343","0.0-6.0-2.4","63f791692fa22034babcdda1","bdp_trlrn","Tue Mar 14 2023 13:59:51 GMT-0400 (Eastern Daylight Time)","492701","Untrustworthy,Trustworthy","","null","","","","ratingFB","","trustrating_stim/white_mw035.bmp","null","","","","","","","","","","",""
"image-keyboard-response","15","30649","0.0-6.0-1.5","63f791692fa22034babcdda1","bdp_trlrn","Tue Mar 14 2023 13:59:51 GMT-0400 (Eastern Daylight Time)","492701","Untrustworthy,Trustworthy","","1204","","","","rating","","trustrating_stim/white_00577_940928_fa_edt.bmp","6","","","","","","","","","","",""
"image-keyboard-response","16","30851","0.0-6.0-2.5","63f791692fa22034babcdda1","bdp_trlrn","Tue Mar 14 2023 13:59:51 GMT-0400 (Eastern Daylight Time)","492701","Untrustworthy,Trustworthy","","null","","","","ratingFB","","trustrating_stim/white_00577_940928_fa_edt.bmp","null","","","","","","","","","","",""
"image-keyboard-response","17","31692","0.0-6.0-1.6","63f791692fa22034babcdda1","bdp_trlrn","Tue Mar 14 2023 13:59:51 GMT-0400 (Eastern Daylight Time)","492701","Untrustworthy,Trustworthy","","738","","","","rating","","trustrating_stim/white_00120_931230_fa_edt.bmp","7","","","","","","","","","","",""
"image-keyboard-response","18","31894","0.0-6.0-2.6","63f791692fa22034babcdda1","bdp_trlrn","Tue Mar 14 2023 13:59:51 GMT-0400 (Eastern Daylight Time)","492701","Untrustworthy,Trustworthy","","null","","","","ratingFB","","trustrating_stim/white_00120_931230_fa_edt.bmp","null","","","","","","","","","","",""
"image-keyboard-response","19","32700","0.0-6.0-1.7","63f791692fa22034babcdda1","bdp_trlrn","Tue Mar 14 2023 13:59:51 GMT-0400 (Eastern Daylight Time)","492701","Untrustworthy,Trustworthy","","704","","","","rating","","trustrating_stim/white_mw053.bmp","1","","","","","","","","","","",""
"image-keyboard-response","20","32901","0.0-6.0-2.7","63f791692fa22034babcdda1","bdp_trlrn","Tue Mar 14 2023 13:59:51 GMT-0400 (Eastern Daylight Time)","492701","Untrustworthy,Trustworthy","","null","","","","ratingFB","","trustrating_stim/white_mw053.bmp","null","","","","","","","","","","",""
"image-keyboard-response","21","34340","0.0-6.0-1.8","63f791692fa22034babcdda1","bdp_trlrn","Tue Mar 14 2023 13:59:51 GMT-0400 (Eastern Daylight Time)","492701","Untrustworthy,Trustworthy","","1337","","","","rating","","trustrating_stim/white_mw066.bmp","7","","","","","","","","","","",""
"image-keyboard-response","22","34542","0.0-6.0-2.8","63f791692fa22034babcdda1","bdp_trlrn","Tue Mar 14 2023 13:59:51 GMT-0400 (Eastern Daylight Time)","492701","Untrustworthy,Trustworthy","","null","","","","ratingFB","","trustrating_stim/white_mw066.bmp","null","","","","","","","","","","",""
"image-keyboard-response","23","35477","0.0-6.0-1.9","63f791692fa22034babcdda1","bdp_trlrn","Tue Mar 14 2023 13:59:51 GMT-0400 (Eastern Daylight Time)","492701","Untrustworthy,Trustworthy","","833","","","","rating","","trustrating_stim/white_mw099.bmp","9","","","","","","","","","","",""
"image-keyboard-response","24","35679","0.0-6.0-2.9","63f791692fa22034babcdda1","bdp_trlrn","Tue Mar 14 2023 13:59:51 GMT-0400 (Eastern Daylight Time)","492701","Untrustworthy,Trustworthy","","null","","","","ratingFB","","trustrating_stim/white_mw099.bmp","null","","","","","","","","","","",""
"image-keyboard-response","25","37101","0.0-6.0-1.10","63f791692fa22034babcdda1","bdp_trlrn","Tue Mar 14 2023 13:59:51 GMT-0400 (Eastern Daylight Time)","492701","Untrustworthy,Trustworthy","","1320","","","","rating","","trustrating_stim/white_00519_940519_fb_edt.bmp","7","","","","","","","","","","",""
"image-keyboard-response","26","37303","0.0-6.0-2.10","63f791692fa22034babcdda1","bdp_trlrn","Tue Mar 14 2023 13:59:51 GMT-0400 (Eastern Daylight Time)","492701","Untrustworthy,Trustworthy","","null","","","","ratingFB","","trustrating_stim/white_00519_940519_fb_edt.bmp","null","","","","","","","","","","",""
"image-keyboard-response","27","38364","0.0-6.0-1.11","63f791692fa22034babcdda1","bdp_trlrn","Tue Mar 14 2023 13:59:51 GMT-0400 (Eastern Daylight Time)","492701","Untrustworthy,Trustworthy","","959","","","","rating","","trustrating_stim/white_00109_931230_fa_edt.bmp","4","","","","","","","","","","",""
"image-keyboard-response","28","38566","0.0-6.0-2.11","63f791692fa22034babcdda1","bdp_trlrn","Tue Mar 14 2023 13:59:51 GMT-0400 (Eastern Daylight Time)","492701","Untrustworthy,Trustworthy","","null","","","","ratingFB","","trustrating_stim/white_00109_931230_fa_edt.bmp","null","","","","","","","","","","",""
"image-keyboard-response","29","39508","0.0-6.0-1.12","63f791692fa22034babcdda1","bdp_trlrn","Tue Mar 14 2023 13:59:51 GMT-0400 (Eastern Daylight Time)","492701","Untrustworthy,Trustworthy","","840","","","","rating","","trustrating_stim/white_mw089.bmp","1","","","","","","","","","","",""
"image-keyboard-response","30","39710","0.0-6.0-2.12","63f791692fa22034babcdda1","bdp_trlrn","Tue Mar 14 2023 13:59:51 GMT-0400 (Eastern Daylight Time)","492701","Untrustworthy,Trustworthy","","null","","","","ratingFB","","trustrating_stim/white_mw089.bmp","null","","","","","","","","","","",""
"image-keyboard-response","31","40604","0.0-6.0-1.13","63f791692fa22034babcdda1","bdp_trlrn","Tue Mar 14 2023 13:59:51 GMT-0400 (Eastern Daylight Time)","492701","Untrustworthy,Trustworthy","","794","","","","rating","","trustrating_stim/white_00807_941205_fb_edt.bmp","1","","","","","","","","","","",""
"image-keyboard-response","32","40805","0.0-6.0-2.13","63f791692fa22034babcdda1","bdp_trlrn","Tue Mar 14 2023 13:59:51 GMT-0400 (Eastern Daylight Time)","492701","Untrustworthy,Trustworthy","","null","","","","ratingFB","","trustrating_stim/white_00807_941205_fb_edt.bmp","null","","","","","","","","","","",""
"image-keyboard-response","33","42103","0.0-6.0-1.14","63f791692fa22034babcdda1","bdp_trlrn","Tue Mar 14 2023 13:59:51 GMT-0400 (Eastern Daylight Time)","492701","Untrustworthy,Trustworthy","","1195","","","","rating","","trustrating_stim/white_mw084.bmp","3","","","","","","","","","","",""
"image-keyboard-response","34","42305","0.0-6.0-2.14","63f791692fa22034babcdda1","bdp_trlrn","Tue Mar 14 2023 13:59:51 GMT-0400 (Eastern Daylight Time)","492701","Untrustworthy,Trustworthy","","null","","","","ratingFB","","trustrating_stim/white_mw084.bmp","null","","","","","","","","","","",""
"image-keyboard-response","35","43396","0.0-6.0-1.15","63f791692fa22034babcdda1","bdp_trlrn","Tue Mar 14 2023 13:59:51 GMT-0400 (Eastern Daylight Time)","492701","Untrustworthy,Trustworthy","","989","","","","rating","","trustrating_stim/white_mw071.bmp","6","","","","","","","","","","",""
"image-keyboard-response","36","43597","0.0-6.0-2.15","63f791692fa22034babcdda1","bdp_trlrn","Tue Mar 14 2023 13:59:51 GMT-0400 (Eastern Daylight Time)","492701","Untrustworthy,Trustworthy","","null","","","","ratingFB","","trustrating_stim/white_mw071.bmp","null","","","","","","","","","","",""
"image-keyboard-response","37","45356","0.0-6.0-1.16","63f791692fa22034babcdda1","bdp_trlrn","Tue Mar 14 2023 13:59:51 GMT-0400 (Eastern Daylight Time)","492701","Untrustworthy,Trustworthy","","1658","","","","rating","","trustrating_stim/white_00340_940422_fa_edt.bmp","8","","","","","","","","","","",""
"image-keyboard-response","38","45558","0.0-6.0-2.16","63f791692fa22034babcdda1","bdp_trlrn","Tue Mar 14 2023 13:59:51 GMT-0400 (Eastern Daylight Time)","492701","Untrustworthy,Trustworthy","","null","","","","ratingFB","","trustrating_stim/white_00340_940422_fa_edt.bmp","null","","","","","","","","","","",""
"image-keyboard-response","39","46124","0.0-6.0-1.17","63f791692fa22034babcdda1","bdp_trlrn","Tue Mar 14 2023 13:59:51 GMT-0400 (Eastern Daylight Time)","492701","Untrustworthy,Trustworthy","","465","","","","rating","","trustrating_stim/white_00602_940928_fb_edt.bmp","9","","","","","","","","","","",""
"image-keyboard-response","40","46325","0.0-6.0-2.17","63f791692fa22034babcdda1","bdp_trlrn","Tue Mar 14 2023 13:59:51 GMT-0400 (Eastern Daylight Time)","492701","Untrustworthy,Trustworthy","","null","","","","ratingFB","","trustrating_stim/white_00602_940928_fb_edt.bmp","null","","","","","","","","","","",""
"image-keyboard-response","41","47380","0.0-6.0-1.18","63f791692fa22034babcdda1","bdp_trlrn","Tue Mar 14 2023 13:59:51 GMT-0400 (Eastern Daylight Time)","492701","Untrustworthy,Trustworthy","","953","","","","rating","","trustrating_stim/white_mw049.bmp","7","","","","","","","","","","",""
"image-keyboard-response","42","47582","0.0-6.0-2.18","63f791692fa22034babcdda1","bdp_trlrn","Tue Mar 14 2023 13:59:51 GMT-0400 (Eastern Daylight Time)","492701","Untrustworthy,Trustworthy","","null","","","","ratingFB","","trustrating_stim/white_mw049.bmp","null","","","","","","","","","","",""
"image-keyboard-response","43","48326","0.0-6.0-1.19","63f791692fa22034babcdda1","bdp_trlrn","Tue Mar 14 2023 13:59:51 GMT-0400 (Eastern Daylight Time)","492701","Untrustworthy,Trustworthy","","641","","","","rating","","trustrating_stim/white_00659_941121_fa_edt.bmp","1","","","","","","","","","","",""
"image-keyboard-response","44","48528","0.0-6.0-2.19","63f791692fa22034babcdda1","bdp_trlrn","Tue Mar 14 2023 13:59:51 GMT-0400 (Eastern Daylight Time)","492701","Untrustworthy,Trustworthy","","null","","","","ratingFB","","trustrating_stim/white_00659_941121_fa_edt.bmp","null","","","","","","","","","","",""
"image-keyboard-response","45","49820","0.0-6.0-1.20","63f791692fa22034babcdda1","bdp_trlrn","Tue Mar 14 2023 13:59:51 GMT-0400 (Eastern Daylight Time)","492701","Untrustworthy,Trustworthy","","1189","","","","rating","","trustrating_stim/white_00785_941205_fb_edt.bmp","2","","","","","","","","","","",""
"image-keyboard-response","46","50021","0.0-6.0-2.20","63f791692fa22034babcdda1","bdp_trlrn","Tue Mar 14 2023 13:59:51 GMT-0400 (Eastern Daylight Time)","492701","Untrustworthy,Trustworthy","","null","","","","ratingFB","","trustrating_stim/white_00785_941205_fb_edt.bmp","null","","","","","","","","","","",""
"image-keyboard-response","47","51206","0.0-6.0-1.21","63f791692fa22034babcdda1","bdp_trlrn","Tue Mar 14 2023 13:59:51 GMT-0400 (Eastern Daylight Time)","492701","Untrustworthy,Trustworthy","","1081","","","","rating","","trustrating_stim/white_00223_940128_fb_edt.bmp","3","","","","","","","","","","",""
"image-keyboard-response","48","51408","0.0-6.0-2.21","63f791692fa22034babcdda1","bdp_trlrn","Tue Mar 14 2023 13:59:51 GMT-0400 (Eastern Daylight Time)","492701","Untrustworthy,Trustworthy","","null","","","","ratingFB","","trustrating_stim/white_00223_940128_fb_edt.bmp","null","","","","","","","","","","",""
"image-keyboard-response","49","52376","0.0-6.0-1.22","63f791692fa22034babcdda1","bdp_trlrn","Tue Mar 14 2023 13:59:51 GMT-0400 (Eastern Daylight Time)","492701","Untrustworthy,Trustworthy","","866","","","","rating","","trustrating_stim/white_00898_960530_fa_edt.bmp","6","","","","","","","","","","",""
"image-keyboard-response","50","52577","0.0-6.0-2.22","63f791692fa22034babcdda1","bdp_trlrn","Tue Mar 14 2023 13:59:51 GMT-0400 (Eastern Daylight Time)","492701","Untrustworthy,Trustworthy","","null","","","","ratingFB","","trustrating_stim/white_00898_960530_fa_edt.bmp","null","","","","","","","","","","",""
"image-keyboard-response","51","53412","0.0-6.0-1.23","63f791692fa22034babcdda1","bdp_trlrn","Tue Mar 14 2023 13:59:51 GMT-0400 (Eastern Daylight Time)","492701","Untrustworthy,Trustworthy","","700","","","","rating","","trustrating_stim/white_mw048.bmp","7","","","","","","","","","","",""
"image-keyboard-response","52","53614","0.0-6.0-2.23","63f791692fa22034babcdda1","bdp_trlrn","Tue Mar 14 2023 13:59:51 GMT-0400 (Eastern Daylight Time)","492701","Untrustworthy,Trustworthy","","null","","","","ratingFB","","trustrating_stim/white_mw048.bmp","null","","","","","","","","","","",""
"image-keyboard-response","53","54412","0.0-6.0-1.24","63f791692fa22034babcdda1","bdp_trlrn","Tue Mar 14 2023 13:59:51 GMT-0400 (Eastern Daylight Time)","492701","Untrustworthy,Trustworthy","","695","","","","rating","","trustrating_stim/white_mw060.bmp","7","","","","","","","","","","",""
"image-keyboard-response","54","54613","0.0-6.0-2.24","63f791692fa22034babcdda1","bdp_trlrn","Tue Mar 14 2023 13:59:51 GMT-0400 (Eastern Daylight Time)","492701","Untrustworthy,Trustworthy","","null","","","","ratingFB","","trustrating_stim/white_mw060.bmp","null","","","","","","","","","","",""
"image-keyboard-response","55","55356","0.0-6.0-1.25","63f791692fa22034babcdda1","bdp_trlrn","Tue Mar 14 2023 13:59:51 GMT-0400 (Eastern Daylight Time)","492701","Untrustworthy,Trustworthy","","641","","","","rating","","trustrating_stim/white_mw046.bmp","7","","","","","","","","","","",""
"image-keyboard-response","56","55558","0.0-6.0-2.25","63f791692fa22034babcdda1","bdp_trlrn","Tue Mar 14 2023 13:59:51 GMT-0400 (Eastern Daylight Time)","492701","Untrustworthy,Trustworthy","","null","","","","ratingFB","","trustrating_stim/white_mw046.bmp","null","","","","","","","","","","",""
"image-keyboard-response","57","56180","0.0-6.0-1.26","63f791692fa22034babcdda1","bdp_trlrn","Tue Mar 14 2023 13:59:51 GMT-0400 (Eastern Daylight Time)","492701","Untrustworthy,Trustworthy","","520","","","","rating","","trustrating_stim/white_mw056.bmp","8","","","","","","","","","","",""
"image-keyboard-response","58","56381","0.0-6.0-2.26","63f791692fa22034babcdda1","bdp_trlrn","Tue Mar 14 2023 13:59:51 GMT-0400 (Eastern Daylight Time)","492701","Untrustworthy,Trustworthy","","null","","","","ratingFB","","trustrating_stim/white_mw056.bmp","null","","","","","","","","","","",""
"image-keyboard-response","59","56886","0.0-6.0-1.27","63f791692fa22034babcdda1","bdp_trlrn","Tue Mar 14 2023 13:59:51 GMT-0400 (Eastern Daylight Time)","492701","Untrustworthy,Trustworthy","","402","","","","rating","","trustrating_stim/white_00757_941201_fa_edt.bmp","7","","","","","","","","","","",""
"image-keyboard-response","60","57089","0.0-6.0-2.27","63f791692fa22034babcdda1","bdp_trlrn","Tue Mar 14 2023 13:59:51 GMT-0400 (Eastern Daylight Time)","492701","Untrustworthy,Trustworthy","","null","","","","ratingFB","","trustrating_stim/white_00757_941201_fa_edt.bmp","null","","","","","","","","","","",""
"image-keyboard-response","61","57620","0.0-6.0-1.28","63f791692fa22034babcdda1","bdp_trlrn","Tue Mar 14 2023 13:59:51 GMT-0400 (Eastern Daylight Time)","492701","Untrustworthy,Trustworthy","","428","","","","rating","","trustrating_stim/white_mw033.bmp","6","","","","","","","","","","",""
"image-keyboard-response","62","57821","0.0-6.0-2.28","63f791692fa22034babcdda1","bdp_trlrn","Tue Mar 14 2023 13:59:51 GMT-0400 (Eastern Daylight Time)","492701","Untrustworthy,Trustworthy","","null","","","","ratingFB","","trustrating_stim/white_mw033.bmp","null","","","","","","","","","","",""
"image-keyboard-response","63","58348","0.0-6.0-1.29","63f791692fa22034babcdda1","bdp_trlrn","Tue Mar 14 2023 13:59:51 GMT-0400 (Eastern Daylight Time)","492701","Untrustworthy,Trustworthy","","425","","","","rating","","trustrating_stim/white_mw063.bmp","4","","","","","","","","","","",""
"image-keyboard-response","64","58549","0.0-6.0-2.29","63f791692fa22034babcdda1","bdp_trlrn","Tue Mar 14 2023 13:59:51 GMT-0400 (Eastern Daylight Time)","492701","Untrustworthy,Trustworthy","","null","","","","ratingFB","","trustrating_stim/white_mw063.bmp","null","","","","","","","","","","",""
"image-keyboard-response","65","58996","0.0-6.0-1.30","63f791692fa22034babcdda1","bdp_trlrn","Tue Mar 14 2023 13:59:51 GMT-0400 (Eastern Daylight Time)","492701","Untrustworthy,Trustworthy","","345","","","","rating","","trustrating_stim/white_00785_941205_fb_edt.bmp","6","","","","","","","","","","",""
"image-keyboard-response","66","59198","0.0-6.0-2.30","63f791692fa22034babcdda1","bdp_trlrn","Tue Mar 14 2023 13:59:51 GMT-0400 (Eastern Daylight Time)","492701","Untrustworthy,Trustworthy","","null","","","","ratingFB","","trustrating_stim/white_00785_941205_fb_edt.bmp","null","","","","","","","","","","",""
"image-keyboard-response","67","59876","0.0-6.0-1.31","63f791692fa22034babcdda1","bdp_trlrn","Tue Mar 14 2023 13:59:51 GMT-0400 (Eastern Daylight Time)","492701","Untrustworthy,Trustworthy","","577","","","","rating","","trustrating_stim/white_00761_941201_fb_edt.bmp","7","","","","","","","","","","",""
"image-keyboard-response","68","60077","0.0-6.0-2.31","63f791692fa22034babcdda1","bdp_trlrn","Tue Mar 14 2023 13:59:51 GMT-0400 (Eastern Daylight Time)","492701","Untrustworthy,Trustworthy","","null","","","","ratingFB","","trustrating_stim/white_00761_941201_fb_edt.bmp","null","","","","","","","","","","",""
"image-keyboard-response","69","60460","0.0-6.0-1.32","63f791692fa22034babcdda1","bdp_trlrn","Tue Mar 14 2023 13:59:51 GMT-0400 (Eastern Daylight Time)","492701","Untrustworthy,Trustworthy","","280","","","","rating","","trustrating_stim/white_00757_941201_fa_edt.bmp","1","","","","","","","","","","",""
"image-keyboard-response","70","60662","0.0-6.0-2.32","63f791692fa22034babcdda1","bdp_trlrn","Tue Mar 14 2023 13:59:51 GMT-0400 (Eastern Daylight Time)","492701","Untrustworthy,Trustworthy","","null","","","","ratingFB","","trustrating_stim/white_00757_941201_fa_edt.bmp","null","","","","","","","","","","",""
"image-keyboard-response","71","61092","0.0-6.0-1.33","63f791692fa22034babcdda1","bdp_trlrn","Tue Mar 14 2023 13:59:51 GMT-0400 (Eastern Daylight Time)","492701","Untrustworthy,Trustworthy","","327","","","","rating","","trustrating_stim/white_mw071.bmp","3","","","","","","","","","","",""
"image-keyboard-response","72","61294","0.0-6.0-2.33","63f791692fa22034babcdda1","bdp_trlrn","Tue Mar 14 2023 13:59:51 GMT-0400 (Eastern Daylight Time)","492701","Untrustworthy,Trustworthy","","null","","","","ratingFB","","trustrating_stim/white_mw071.bmp","null","","","","","","","","","","",""
"image-keyboard-response","73","61812","0.0-6.0-1.34","63f791692fa22034babcdda1","bdp_trlrn","Tue Mar 14 2023 13:59:51 GMT-0400 (Eastern Daylight Time)","492701","Untrustworthy,Trustworthy","","416","","","","rating","","trustrating_stim/white_00807_941205_fb_edt.bmp","7","","","","","","","","","","",""
"image-keyboard-response","74","62014","0.0-6.0-2.34","63f791692fa22034babcdda1","bdp_trlrn","Tue Mar 14 2023 13:59:51 GMT-0400 (Eastern Daylight Time)","492701","Untrustworthy,Trustworthy","","null","","","","ratingFB","","trustrating_stim/white_00807_941205_fb_edt.bmp","null","","","","","","","","","","",""
"image-keyboard-response","75","62431","0.0-6.0-1.35","63f791692fa22034babcdda1","bdp_trlrn","Tue Mar 14 2023 13:59:51 GMT-0400 (Eastern Daylight Time)","492701","Untrustworthy,Trustworthy","","315","","","","rating","","trustrating_stim/white_mw066.bmp","2","","","","","","","","","","",""
"image-keyboard-response","76","62632","0.0-6.0-2.35","63f791692fa22034babcdda1","bdp_trlrn","Tue Mar 14 2023 13:59:51 GMT-0400 (Eastern Daylight Time)","492701","Untrustworthy,Trustworthy","","null","","","","ratingFB","","trustrating_stim/white_mw066.bmp","null","","","","","","","","","","",""
"image-keyboard-response","77","62972","0.0-6.0-1.36","63f791692fa22034babcdda1","bdp_trlrn","Tue Mar 14 2023 13:59:51 GMT-0400 (Eastern Daylight Time)","492701","Untrustworthy,Trustworthy","","238","","","","rating","","trustrating_stim/white_mw048.bmp","7","","","","","","","","","","",""
"image-keyboard-response","78","63174","0.0-6.0-2.36","63f791692fa22034babcdda1","bdp_trlrn","Tue Mar 14 2023 13:59:51 GMT-0400 (Eastern Daylight Time)","492701","Untrustworthy,Trustworthy","","null","","","","ratingFB","","trustrating_stim/white_mw048.bmp","null","","","","","","","","","","",""
"image-keyboard-response","79","63500","0.0-6.0-1.37","63f791692fa22034babcdda1","bdp_trlrn","Tue Mar 14 2023 13:59:51 GMT-0400 (Eastern Daylight Time)","492701","Untrustworthy,Trustworthy","","222","","","","rating","","trustrating_stim/white_mw049.bmp","7","","","","","","","","","","",""
"image-keyboard-response","80","63701","0.0-6.0-2.37","63f791692fa22034babcdda1","bdp_trlrn","Tue Mar 14 2023 13:59:51 GMT-0400 (Eastern Daylight Time)","492701","Untrustworthy,Trustworthy","","null","","","","ratingFB","","trustrating_stim/white_mw049.bmp","null","","","","","","","","","","",""
"image-keyboard-response","81","64108","0.0-6.0-1.38","63f791692fa22034babcdda1","bdp_trlrn","Tue Mar 14 2023 13:59:51 GMT-0400 (Eastern Daylight Time)","492701","Untrustworthy,Trustworthy","","305","","","","rating","","trustrating_stim/white_00129_931230_fb_edt.bmp","7","","","","","","","","","","",""
"image-keyboard-response","82","64309","0.0-6.0-2.38","63f791692fa22034babcdda1","bdp_trlrn","Tue Mar 14 2023 13:59:51 GMT-0400 (Eastern Daylight Time)","492701","Untrustworthy,Trustworthy","","null","","","","ratingFB","","trustrating_stim/white_00129_931230_fb_edt.bmp","null","","","","","","","","","","",""
"image-keyboard-response","83","64876","0.0-6.0-1.39","63f791692fa22034babcdda1","bdp_trlrn","Tue Mar 14 2023 13:59:51 GMT-0400 (Eastern Daylight Time)","492701","Untrustworthy,Trustworthy","","463","","","","rating","","trustrating_stim/white_mw089.bmp","7","","","","","","","","","","",""
"image-keyboard-response","84","65078","0.0-6.0-2.39","63f791692fa22034babcdda1","bdp_trlrn","Tue Mar 14 2023 13:59:51 GMT-0400 (Eastern Daylight Time)","492701","Untrustworthy,Trustworthy","","null","","","","ratingFB","","trustrating_stim/white_mw089.bmp","null","","","","","","","","","","",""
"image-keyboard-response","85","65797","0.0-6.0-1.40","63f791692fa22034babcdda1","bdp_trlrn","Tue Mar 14 2023 13:59:51 GMT-0400 (Eastern Daylight Time)","492701","Untrustworthy,Trustworthy","","615","","","","rating","","trustrating_stim/white_mw035.bmp","7","","","","","","","","","","",""
"image-keyboard-response","86","66000","0.0-6.0-2.40","63f791692fa22034babcdda1","bdp_trlrn","Tue Mar 14 2023 13:59:51 GMT-0400 (Eastern Daylight Time)","492701","Untrustworthy,Trustworthy","","null","","","","ratingFB","","trustrating_stim/white_mw035.bmp","null","","","","","","","","","","",""
"image-keyboard-response","87","66364","0.0-6.0-1.41","63f791692fa22034babcdda1","bdp_trlrn","Tue Mar 14 2023 13:59:51 GMT-0400 (Eastern Daylight Time)","492701","Untrustworthy,Trustworthy","","262","","","","rating","","trustrating_stim/white_00898_960530_fa_edt.bmp","7","","","","","","","","","","",""
"image-keyboard-response","88","66565","0.0-6.0-2.41","63f791692fa22034babcdda1","bdp_trlrn","Tue Mar 14 2023 13:59:51 GMT-0400 (Eastern Daylight Time)","492701","Untrustworthy,Trustworthy","","null","","","","ratingFB","","trustrating_stim/white_00898_960530_fa_edt.bmp","null","","","","","","","","","","",""
"image-keyboard-response","89","66908","0.0-6.0-1.42","63f791692fa22034babcdda1","bdp_trlrn","Tue Mar 14 2023 13:59:51 GMT-0400 (Eastern Daylight Time)","492701","Untrustworthy,Trustworthy","","241","","","","rating","","trustrating_stim/white_mw046.bmp","2","","","","","","","","","","",""
"image-keyboard-response","90","67110","0.0-6.0-2.42","63f791692fa22034babcdda1","bdp_trlrn","Tue Mar 14 2023 13:59:51 GMT-0400 (Eastern Daylight Time)","492701","Untrustworthy,Trustworthy","","null","","","","ratingFB","","trustrating_stim/white_mw046.bmp","null","","","","","","","","","","",""
"image-keyboard-response","91","67420","0.0-6.0-1.43","63f791692fa22034babcdda1","bdp_trlrn","Tue Mar 14 2023 13:59:51 GMT-0400 (Eastern Daylight Time)","492701","Untrustworthy,Trustworthy","","209","","","","rating","","trustrating_stim/white_mw053.bmp","7","","","","","","","","","","",""
"image-keyboard-response","92","67621","0.0-6.0-2.43","63f791692fa22034babcdda1","bdp_trlrn","Tue Mar 14 2023 13:59:51 GMT-0400 (Eastern Daylight Time)","492701","Untrustworthy,Trustworthy","","null","","","","ratingFB","","trustrating_stim/white_mw053.bmp","null","","","","","","","","","","",""
"image-keyboard-response","93","68229","0.0-6.0-1.44","63f791692fa22034babcdda1","bdp_trlrn","Tue Mar 14 2023 13:59:51 GMT-0400 (Eastern Daylight Time)","492701","Untrustworthy,Trustworthy","","506","","","","rating","","trustrating_stim/white_mw097.bmp","7","","","","","","","","","","",""
"image-keyboard-response","94","68432","0.0-6.0-2.44","63f791692fa22034babcdda1","bdp_trlrn","Tue Mar 14 2023 13:59:51 GMT-0400 (Eastern Daylight Time)","492701","Untrustworthy,Trustworthy","","null","","","","ratingFB","","trustrating_stim/white_mw097.bmp","null","","","","","","","","","","",""
"image-keyboard-response","95","68900","0.0-6.0-1.45","63f791692fa22034babcdda1","bdp_trlrn","Tue Mar 14 2023 13:59:51 GMT-0400 (Eastern Daylight Time)","492701","Untrustworthy,Trustworthy","","366","","","","rating","","trustrating_stim/white_00299_940422_fa_edt.bmp","8","","","","","","","","","","",""
"image-keyboard-response","96","69101","0.0-6.0-2.45","63f791692fa22034babcdda1","bdp_trlrn","Tue Mar 14 2023 13:59:51 GMT-0400 (Eastern Daylight Time)","492701","Untrustworthy,Trustworthy","","null","","","","ratingFB","","trustrating_stim/white_00299_940422_fa_edt.bmp","null","","","","","","","","","","",""
"image-keyboard-response","97","69604","0.0-6.0-1.46","63f791692fa22034babcdda1","bdp_trlrn","Tue Mar 14 2023 13:59:51 GMT-0400 (Eastern Daylight Time)","492701","Untrustworthy,Trustworthy","","400","","","","rating","","trustrating_stim/white_mw033.bmp","6","","","","","","","","","","",""
"image-keyboard-response","98","69807","0.0-6.0-2.46","63f791692fa22034babcdda1","bdp_trlrn","Tue Mar 14 2023 13:59:51 GMT-0400 (Eastern Daylight Time)","492701","Untrustworthy,Trustworthy","","null","","","","ratingFB","","trustrating_stim/white_mw033.bmp","null","","","","","","","","","","",""
"image-keyboard-response","99","70220","0.0-6.0-1.47","63f791692fa22034babcdda1","bdp_trlrn","Tue Mar 14 2023 13:59:51 GMT-0400 (Eastern Daylight Time)","492701","Untrustworthy,Trustworthy","","312","","","","rating","","trustrating_stim/white_00223_940128_fb_edt.bmp","4","","","","","","","","","","",""
"image-keyboard-response","100","70421","0.0-6.0-2.47","63f791692fa22034babcdda1","bdp_trlrn","Tue Mar 14 2023 13:59:51 GMT-0400 (Eastern Daylight Time)","492701","Untrustworthy,Trustworthy","","null","","","","ratingFB","","trustrating_stim/white_00223_940128_fb_edt.bmp","null","","","","","","","","","","",""
"image-keyboard-response","101","70956","0.0-6.0-1.48","63f791692fa22034babcdda1","bdp_trlrn","Tue Mar 14 2023 13:59:51 GMT-0400 (Eastern Daylight Time)","492701","Untrustworthy,Trustworthy","","432","","","","rating","","trustrating_stim/white_mw063.bmp","7","","","","","","","","","","",""
"image-keyboard-response","102","71157","0.0-6.0-2.48","63f791692fa22034babcdda1","bdp_trlrn","Tue Mar 14 2023 13:59:51 GMT-0400 (Eastern Daylight Time)","492701","Untrustworthy,Trustworthy","","null","","","","ratingFB","","trustrating_stim/white_mw063.bmp","null","","","","","","","","","","",""
"image-keyboard-response","103","71492","0.0-6.0-1.49","63f791692fa22034babcdda1","bdp_trlrn","Tue Mar 14 2023 13:59:51 GMT-0400 (Eastern Daylight Time)","492701","Untrustworthy,Trustworthy","","233","","","","rating","","trustrating_stim/white_mw056.bmp","7","","","","","","","","","","",""
"image-keyboard-response","104","71694","0.0-6.0-2.49","63f791692fa22034babcdda1","bdp_trlrn","Tue Mar 14 2023 13:59:51 GMT-0400 (Eastern Daylight Time)","492701","Untrustworthy,Trustworthy","","null","","","","ratingFB","","trustrating_stim/white_mw056.bmp","null","","","","","","","","","","",""
"image-keyboard-response","105","72148","0.0-6.0-1.50","63f791692fa22034babcdda1","bdp_trlrn","Tue Mar 14 2023 13:59:51 GMT-0400 (Eastern Daylight Time)","492701","Untrustworthy,Trustworthy","","350","","","","rating","","trustrating_stim/white_00602_940928_fb_edt.bmp","4","","","","","","","","","","",""
"image-keyboard-response","106","72350","0.0-6.0-2.50","63f791692fa22034babcdda1","bdp_trlrn","Tue Mar 14 2023 13:59:51 GMT-0400 (Eastern Daylight Time)","492701","Untrustworthy,Trustworthy","","null","","","","ratingFB","","trustrating_stim/white_00602_940928_fb_edt.bmp","null","","","","","","","","","","",""
"image-keyboard-response","107","72585","0.0-6.0-1.51","63f791692fa22034babcdda1","bdp_trlrn","Tue Mar 14 2023 13:59:51 GMT-0400 (Eastern Daylight Time)","492701","Untrustworthy,Trustworthy","","131","","","","rating","","trustrating_stim/white_00519_940519_fb_edt.bmp","7","","","","","","","","","","",""
"image-keyboard-response","108","72786","0.0-6.0-2.51","63f791692fa22034babcdda1","bdp_trlrn","Tue Mar 14 2023 13:59:51 GMT-0400 (Eastern Daylight Time)","492701","Untrustworthy,Trustworthy","","null","","","","ratingFB","","trustrating_stim/white_00519_940519_fb_edt.bmp","null","","","","","","","","","","",""
"image-keyboard-response","109","73364","0.0-6.0-1.52","63f791692fa22034babcdda1","bdp_trlrn","Tue Mar 14 2023 13:59:51 GMT-0400 (Eastern Daylight Time)","492701","Untrustworthy,Trustworthy","","476","","","","rating","","trustrating_stim/white_00577_940928_fa_edt.bmp","7","","","","","","","","","","",""
"image-keyboard-response","110","73566","0.0-6.0-2.52","63f791692fa22034babcdda1","bdp_trlrn","Tue Mar 14 2023 13:59:51 GMT-0400 (Eastern Daylight Time)","492701","Untrustworthy,Trustworthy","","null","","","","ratingFB","","trustrating_stim/white_00577_940928_fa_edt.bmp","null","","","","","","","","","","",""
"image-keyboard-response","111","74580","0.0-6.0-1.53","63f791692fa22034babcdda1","bdp_trlrn","Tue Mar 14 2023 13:59:51 GMT-0400 (Eastern Daylight Time)","492701","Untrustworthy,Trustworthy","","912","","","","rating","","trustrating_stim/white_mw060.bmp","2","","","","","","","","","","",""
"image-keyboard-response","112","74781","0.0-6.0-2.53","63f791692fa22034babcdda1","bdp_trlrn","Tue Mar 14 2023 13:59:51 GMT-0400 (Eastern Daylight Time)","492701","Untrustworthy,Trustworthy","","null","","","","ratingFB","","trustrating_stim/white_mw060.bmp","null","","","","","","","","","","",""
"image-keyboard-response","113","75156","0.0-6.0-1.54","63f791692fa22034babcdda1","bdp_trlrn","Tue Mar 14 2023 13:59:51 GMT-0400 (Eastern Daylight Time)","492701","Untrustworthy,Trustworthy","","272","","","","rating","","trustrating_stim/white_mw099.bmp","7","","","","","","","","","","",""
"image-keyboard-response","114","75357","0.0-6.0-2.54","63f791692fa22034babcdda1","bdp_trlrn","Tue Mar 14 2023 13:59:51 GMT-0400 (Eastern Daylight Time)","492701","Untrustworthy,Trustworthy","","null","","","","ratingFB","","trustrating_stim/white_mw099.bmp","null","","","","","","","","","","",""
"image-keyboard-response","115","76652","0.0-6.0-1.55","63f791692fa22034babcdda1","bdp_trlrn","Tue Mar 14 2023 13:59:51 GMT-0400 (Eastern Daylight Time)","492701","Untrustworthy,Trustworthy","","1193","","","","rating","","trustrating_stim/white_mw084.bmp","6","","","","","","","","","","",""
"image-keyboard-response","116","76853","0.0-6.0-2.55","63f791692fa22034babcdda1","bdp_trlrn","Tue Mar 14 2023 13:59:51 GMT-0400 (Eastern Daylight Time)","492701","Untrustworthy,Trustworthy","","null","","","","ratingFB","","trustrating_stim/white_mw084.bmp","null","","","","","","","","","","",""
"image-keyboard-response","117","77828","0.0-6.0-1.56","63f791692fa22034babcdda1","bdp_trlrn","Tue Mar 14 2023 13:59:51 GMT-0400 (Eastern Daylight Time)","492701","Untrustworthy,Trustworthy","","872","","","","rating","","trustrating_stim/white_00659_941121_fa_edt.bmp","3","","","","","","","","","","",""
"image-keyboard-response","118","78029","0.0-6.0-2.56","63f791692fa22034babcdda1","bdp_trlrn","Tue Mar 14 2023 13:59:51 GMT-0400 (Eastern Daylight Time)","492701","Untrustworthy,Trustworthy","","null","","","","ratingFB","","trustrating_stim/white_00659_941121_fa_edt.bmp","null","","","","","","","","","","",""
"image-keyboard-response","119","78852","0.0-6.0-1.57","63f791692fa22034babcdda1","bdp_trlrn","Tue Mar 14 2023 13:59:51 GMT-0400 (Eastern Daylight Time)","492701","Untrustworthy,Trustworthy","","721","","","","rating","","trustrating_stim/white_00120_931230_fa_edt.bmp","7","","","","","","","","","","",""
"image-keyboard-response","120","79054","0.0-6.0-2.57","63f791692fa22034babcdda1","bdp_trlrn","Tue Mar 14 2023 13:59:51 GMT-0400 (Eastern Daylight Time)","492701","Untrustworthy,Trustworthy","","null","","","","ratingFB","","trustrating_stim/white_00120_931230_fa_edt.bmp","null","","","","","","","","","","",""
"image-keyboard-response","121","80020","0.0-6.0-1.58","63f791692fa22034babcdda1","bdp_trlrn","Tue Mar 14 2023 13:59:51 GMT-0400 (Eastern Daylight Time)","492701","Untrustworthy,Trustworthy","","863","","","","rating","","trustrating_stim/white_00340_940422_fa_edt.bmp","8","","","","","","","","","","",""
"image-keyboard-response","122","80222","0.0-6.0-2.58","63f791692fa22034babcdda1","bdp_trlrn","Tue Mar 14 2023 13:59:51 GMT-0400 (Eastern Daylight Time)","492701","Untrustworthy,Trustworthy","","null","","","","ratingFB","","trustrating_stim/white_00340_940422_fa_edt.bmp","null","","","","","","","","","","",""
"image-keyboard-response","123","81204","0.0-6.0-1.59","63f791692fa22034babcdda1","bdp_trlrn","Tue Mar 14 2023 13:59:51 GMT-0400 (Eastern Daylight Time)","492701","Untrustworthy,Trustworthy","","879","","","","rating","","trustrating_stim/white_00109_931230_fa_edt.bmp","7","","","","","","","","","","",""
"image-keyboard-response","124","81406","0.0-6.0-2.59","63f791692fa22034babcdda1","bdp_trlrn","Tue Mar 14 2023 13:59:51 GMT-0400 (Eastern Daylight Time)","492701","Untrustworthy,Trustworthy","","null","","","","ratingFB","","trustrating_stim/white_00109_931230_fa_edt.bmp","null","","","","","","","","","","",""
"instructions","125","82641","0.0-7.0","63f791692fa22034babcdda1","bdp_trlrn","Tue Mar 14 2023 13:59:51 GMT-0400 (Eastern Daylight Time)","492701","Untrustworthy,Trustworthy","[{""page_index"":0,""viewing_time"":1132}]","1132","","","","","","","","","","","","","","","","","",""
"instructions","126","177300","0.0-8.0","63f791692fa22034babcdda1","bdp_trlrn","Tue Mar 14 2023 13:59:51 GMT-0400 (Eastern Daylight Time)","492701","Untrustworthy,Trustworthy","[{""page_index"":0,""viewing_time"":20271},{""page_index"":1,""viewing_time"":36308},{""page_index"":2,""viewing_time"":6597},{""page_index"":3,""viewing_time"":12584},{""page_index"":4,""viewing_time"":2624},{""page_index"":5,""viewing_time"":7443},{""page_index"":6,""viewing_time"":5846},{""page_index"":7,""viewing_time"":2879}]","94552","","","","","","","","","","","","","","","","","",""
"html-keyboard-response","127","181430","0.0-9.0","63f791692fa22034babcdda1","bdp_trlrn","Tue Mar 14 2023 13:59:51 GMT-0400 (Eastern Daylight Time)","492701","Untrustworthy,Trustworthy","","4129","","","","","","<div class='header' style='text-align:left; position: absolute; top: 5%; left: 5%;'><small>Task 3 of 5</small></div><div class='instruxDiv'><p><strong>1) What is the minimum number of points you can choose to send to your partner?</strong></p><p>a) 0</p><p>b) 1</p><p>c) 5</p>","C","","","","","","","","","","",""
"html-keyboard-response","128","185388","0.0-10.0","63f791692fa22034babcdda1","bdp_trlrn","Tue Mar 14 2023 13:59:51 GMT-0400 (Eastern Daylight Time)","492701","Untrustworthy,Trustworthy","","3856","","","","","","<div class='header' style='text-align:left; position: absolute; top: 5%; left: 5%;'><small>Task 3 of 5</small></div><div class='instruxDiv'><p><strong>1) What is the minimum number of points you can choose to send to your partner?</strong></p><p>a) 1</p><p>b) 1</p><p style='color:#FF0000'>c) 5</p><h3 style='color:#FF0000'>Incorrect!</h3><h3 class='center-content'>The correct response is b).</h3><h3 class='center-content'>The minimum number of points you can choose to send to your partner is 1 point.</h3><p><em>Press SPACEBAR to continue</em></p></div>"," ","","","","","","","","","","",""
"html-keyboard-response","129","190645","0.0-11.0","63f791692fa22034babcdda1","bdp_trlrn","Tue Mar 14 2023 13:59:51 GMT-0400 (Eastern Daylight Time)","492701","Untrustworthy,Trustworthy","","5156","","","","","","<div class='header' style='text-align:left; position: absolute; top: 5%; left: 5%;'><small>Task 3 of 5</small></div><div class='instruxDiv'><p><strong>2) What is the maximum number of points you can choose to send to your partner?</strong></p><p>a) 8</p><p>b) 5</p><p>c) 3</p>","B","","","","","","","","","","",""
"html-keyboard-response","130","191928","0.0-12.0","63f791692fa22034babcdda1","bdp_trlrn","Tue Mar 14 2023 13:59:51 GMT-0400 (Eastern Daylight Time)","492701","Untrustworthy,Trustworthy","","1180","","","","","","<div class='header' style='text-align:left; position: absolute; top: 5%; left: 5%;'><small>Task 3 of 5</small></div><div class='instruxDiv'><p><strong>2) What is the maximum number of points you can choose to send to your partner?</strong></p><p>a) 8</p><p style='color:#00FF00'>b) 5</p><p>c) 3</p><h3 style='color:#00FF00'>Correct!</h3><h3 class='center-content'>The correct response is b).</h3><h3 class='center-content'>The maximum number of points you can choose to send to your partner is 5 points.</h3><p><em>Press SPACEBAR to continue</em></p></div>"," ","","","","","","","","","","",""
"html-keyboard-response","131","197220","0.0-13.0","63f791692fa22034babcdda1","bdp_trlrn","Tue Mar 14 2023 13:59:51 GMT-0400 (Eastern Daylight Time)","492701","Untrustworthy,Trustworthy","","5191","","","","","","<div class='header' style='text-align:left; position: absolute; top: 5%; left: 5%;'><small>Task 3 of 5</small></div><div class='instruxDiv'><p><strong>3) What happens to the amount of points you send to your partner?</strong></p><p>a) Nothing</p><p>b) It doubles</p><p>c) It quadruples</p>","C","","","","","","","","","","",""
"html-keyboard-response","132","198052","0.0-14.0","63f791692fa22034babcdda1","bdp_trlrn","Tue Mar 14 2023 13:59:51 GMT-0400 (Eastern Daylight Time)","492701","Untrustworthy,Trustworthy","","730","","","","","","<div class='header' style='text-align:left; position: absolute; top: 5%; left: 5%;'><small>Task 3 of 5</small></div><div class='instruxDiv'><p><strong>3) What happens to the amount of points you send to your partner?</strong></p><p>a) Nothing</p><p>b) It doubles</p><p style='color:#00FF00'>c) It quadruples</p><h3 style='color:#00FF00'>Correct!</h3><h3 class='center-content'>The correct response is c).</h3><h3 class='center-content'>The amount of points you send to your partner quadruples.</h3><p><em>Press SPACEBAR to continue</em></p></div>"," ","","","","","","","","","","",""
"html-keyboard-response","133","222895","0.0-15.0","63f791692fa22034babcdda1","bdp_trlrn","Tue Mar 14 2023 13:59:51 GMT-0400 (Eastern Daylight Time)","492701","Untrustworthy,Trustworthy","","24743","","","","","","<div class='header' style='text-align:left; position: absolute; top: 5%; left: 5%;'><small>Task 3 of 5</small></div><div class='instruxDiv'><p><strong>4) If you decided to share 4 out of 5 points with your partner, and they decided to share half of the amount they received with you, how many points would you receive back from them on this round?</strong></p><p>a) 16</p><p>b) 0</p><p>c) 8</p>","C","","","","","","","","","","",""
"html-keyboard-response","134","223853","0.0-16.0","63f791692fa22034babcdda1","bdp_trlrn","Tue Mar 14 2023 13:59:51 GMT-0400 (Eastern Daylight Time)","492701","Untrustworthy,Trustworthy","","854","","","","","","<div class='header' style='text-align:left; position: absolute; top: 5%; left: 5%;'><small>Task 3 of 5</small></div><div class='instruxDiv'><p><strong>4) If you decided to share 4 out of 5 points with your partner, and they decided to share half of the amount they received with you, how many points would you receive back from them on this round?</strong></p><p>a) 16</p><p>b) 0</p><p style='color:#00FF00'>c) 8</p><h3 style='color:#00FF00'>Correct!</h3><h3 class='center-content'>The correct response is c).</h3><h3 class='center-content'>If you shared 4 out of 5 points with your partner and they decided to share half of the amount they received with you, you would receive 8 points back (i.e. (4 x 4)/2 = 8).</h3><p><em>Press SPACEBAR to continue</em></p></div>"," ","","","","","","","","","","",""
"html-keyboard-response","135","228955","0.0-17.0","63f791692fa22034babcdda1","bdp_trlrn","Tue Mar 14 2023 13:59:51 GMT-0400 (Eastern Daylight Time)","492701","Untrustworthy,Trustworthy","","null","","","","","","<div class='header' style='text-align:left; position: absolute; top: 5%; left: 5%;'><small>Task 3 of 5</small></div><div class='instruxDiv'><p>Thank you for completing the quiz<p>These are the actual partners you will be interacting with in the next block:<p><div class='tc' align='center'><img class='introPic' src='trustrating_stim/white_mw089.bmp'><br><strong>Marcus</strong></div><div class='bl' align='center'><img class='introPic' src='trustrating_stim/white_00761_941201_fb_edt.bmp'><br><strong>Evan</strong></div><div class='br' align='center'><img class='introPic' src='trustrating_stim/white_00299_940422_fa_edt.bmp'><br><strong>Matthew</strong></div></div><p>Across <strong>66 rounds</strong> you will interact with each partner <strong>22 times</strong> (in random order).<p style='align:center; color:white'><font <em>Press SPACEBAR to continue</em></p>","null","","","","","","","","","","",""
"instructions","136","231164","0.0-18.0","63f791692fa22034babcdda1","bdp_trlrn","Tue Mar 14 2023 13:59:51 GMT-0400 (Eastern Daylight Time)","492701","Untrustworthy,Trustworthy","[{""page_index"":0,""viewing_time"":960},{""page_index"":1,""viewing_time"":1248}]","2208","","","","","","","","","","","","","","","","","",""
"html-keyboard-response","137","235352","0.0-19.0-1.0","63f791692fa22034babcdda1","bdp_trlrn","Tue Mar 14 2023 13:59:51 GMT-0400 (Eastern Daylight Time)","492701","Untrustworthy,Trustworthy","","4086","","","","decision","","<div class='trialDiv'><img src='trustrating_stim/white_00761_941201_fb_edt.bmp'><br><font class='baseline'><strong>Evan</strong><p>Choose number of points to send.</font><div class='respPicDiv'><img src='img/responseButtonOffersNo0L.png' class='respPic'></div></div>","4","1","Evan","5","Kept","0.65,0.2","13","0.65","trustrating_stim/white_00761_941201_fb_edt.bmp","5.5","5","1"
"html-keyboard-response","138","235604","0.0-19.0-2.0","63f791692fa22034babcdda1","bdp_trlrn","Tue Mar 14 2023 13:59:51 GMT-0400 (Eastern Daylight Time)","492701","Untrustworthy,Trustworthy","","null","","","","decisionFB","","<div class='trialDiv'><img src='trustrating_stim/white_00761_941201_fb_edt.bmp'><br><font class='baseline'><strong>Evan</strong><p>Choose number of points to send.</font><div class='respPicDiv'><img src='img/responseButtonOffersNo0L4.png' class='respPic'></div></div>","null","1","Evan","5","Kept","0.65,0.2","13","0.65","trustrating_stim/white_00761_941201_fb_edt.bmp","5.5","1","1"
"html-keyboard-response","139","236606","0.0-19.0-3.0","63f791692fa22034babcdda1","bdp_trlrn","Tue Mar 14 2023 13:59:51 GMT-0400 (Eastern Daylight Time)","492701","Untrustworthy,Trustworthy","","null","","","","feedback","","<div class='trialDiv'><img src='trustrating_stim/white_00761_941201_fb_edt.bmp'><br><font class='baseline'><strong>Evan</strong><p>Received: <strong>16</strong></font> &nbsp; &nbsp; &nbsp; &nbsp; &nbsp; &nbsp;<font class='negOutcome'>Shared back: <strong>0</strong></font></font><div class='respPicDiv'><img src='img/responseButtonOffersNo0_wht.png' class='respPic'></div></div>","null","1","Evan","5","Kept","0.65,0.2","13","0.65","trustrating_stim/white_00761_941201_fb_edt.bmp","5.5","1","1"
"html-keyboard-response","140","242676","0.0-19.0-1.1","63f791692fa22034babcdda1","bdp_trlrn","Tue Mar 14 2023 13:59:51 GMT-0400 (Eastern Daylight Time)","492701","Untrustworthy,Trustworthy","","6069","","","","decision","","<div class='trialDiv'><img src='trustrating_stim/white_00299_940422_fa_edt.bmp'><br><font class='baseline'><strong>Matthew</strong><p>Choose number of points to send.</font><div class='respPicDiv'><img src='img/responseButtonOffersNo0L.png' class='respPic'></div></div>","5","1","Matthew","8","Shared","0.65,0.35","11","0.65","trustrating_stim/white_00299_940422_fa_edt.bmp","7.5","6","2"
"html-keyboard-response","141","242928","0.0-19.0-2.1","63f791692fa22034babcdda1","bdp_trlrn","Tue Mar 14 2023 13:59:51 GMT-0400 (Eastern Daylight Time)","492701","Untrustworthy,Trustworthy","","null","","","","decisionFB","","<div class='trialDiv'><img src='trustrating_stim/white_00299_940422_fa_edt.bmp'><br><font class='baseline'><strong>Matthew</strong><p>Choose number of points to send.</font><div class='respPicDiv'><img src='img/responseButtonOffersNo0L5.png' class='respPic'></div></div>","null","1","Matthew","8","Shared","0.65,0.35","11","0.65","trustrating_stim/white_00299_940422_fa_edt.bmp","7.5","1","2"
"html-keyboard-response","142","243932","0.0-19.0-3.1","63f791692fa22034babcdda1","bdp_trlrn","Tue Mar 14 2023 13:59:51 GMT-0400 (Eastern Daylight Time)","492701","Untrustworthy,Trustworthy","","null","","","","feedback","","<div class='trialDiv'><img src='trustrating_stim/white_00299_940422_fa_edt.bmp'><br><font class='baseline'><strong>Matthew</strong><p>Received: <strong>20</strong></font> &nbsp; &nbsp; &nbsp; &nbsp; &nbsp; &nbsp;<font class='posOutcome'>Shared back: <strong>10</strong></font></font><div class='respPicDiv'><img src='img/responseButtonOffersNo0_wht.png' class='respPic'></div></div>","null","1","Matthew","8","Shared","0.65,0.35","11","0.65","trustrating_stim/white_00299_940422_fa_edt.bmp","7.5","11","2"
"html-keyboard-response","143","245991","0.0-19.0-1.2","63f791692fa22034babcdda1","bdp_trlrn","Tue Mar 14 2023 13:59:51 GMT-0400 (Eastern Daylight Time)","492701","Untrustworthy,Trustworthy","","2058","","","","decision","","<div class='trialDiv'><img src='trustrating_stim/white_mw089.bmp'><br><font class='baseline'><strong>Marcus</strong><p>Choose number of points to send.</font><div class='respPicDiv'><img src='img/responseButtonOffersNo0L.png' class='respPic'></div></div>","2","1","Marcus","3","Kept","0.35,0.8","11","0.35","trustrating_stim/white_mw089.bmp","4","16","3"
"html-keyboard-response","144","246244","0.0-19.0-2.2","63f791692fa22034babcdda1","bdp_trlrn","Tue Mar 14 2023 13:59:51 GMT-0400 (Eastern Daylight Time)","492701","Untrustworthy,Trustworthy","","null","","","","decisionFB","","<div class='trialDiv'><img src='trustrating_stim/white_mw089.bmp'><br><font class='baseline'><strong>Marcus</strong><p>Choose number of points to send.</font><div class='respPicDiv'><img src='img/responseButtonOffersNo0L2.png' class='respPic'></div></div>","null","1","Marcus","3","Kept","0.35,0.8","11","0.35","trustrating_stim/white_mw089.bmp","4","14","3"
"html-keyboard-response","145","247246","0.0-19.0-3.2","63f791692fa22034babcdda1","bdp_trlrn","Tue Mar 14 2023 13:59:51 GMT-0400 (Eastern Daylight Time)","492701","Untrustworthy,Trustworthy","","null","","","","feedback","","<div class='trialDiv'><img src='trustrating_stim/white_mw089.bmp'><br><font class='baseline'><strong>Marcus</strong><p>Received: <strong>8</strong></font> &nbsp; &nbsp; &nbsp; &nbsp; &nbsp; &nbsp;<font class='negOutcome'>Shared back: <strong>0</strong></font></font><div class='respPicDiv'><img src='img/responseButtonOffersNo0_wht.png' class='respPic'></div></div>","null","1","Marcus","3","Kept","0.35,0.8","11","0.35","trustrating_stim/white_mw089.bmp","4","14","3"
"html-keyboard-response","146","250501","0.0-19.0-1.3","63f791692fa22034babcdda1","bdp_trlrn","Tue Mar 14 2023 13:59:51 GMT-0400 (Eastern Daylight Time)","492701","Untrustworthy,Trustworthy","","3255","","","","decision","","<div class='trialDiv'><img src='trustrating_stim/white_00299_940422_fa_edt.bmp'><br><font class='baseline'><strong>Matthew</strong><p>Choose number of points to send.</font><div class='respPicDiv'><img src='img/responseButtonOffersNo0L.png' class='respPic'></div></div>","5","2","Matthew","8","Shared","0.65,0.35","11","0.65","trustrating_stim/white_00299_940422_fa_edt.bmp","7.5","19","4"
"html-keyboard-response","147","250776","0.0-19.0-2.3","63f791692fa22034babcdda1","bdp_trlrn","Tue Mar 14 2023 13:59:51 GMT-0400 (Eastern Daylight Time)","492701","Untrustworthy,Trustworthy","","null","","","","decisionFB","","<div class='trialDiv'><img src='trustrating_stim/white_00299_940422_fa_edt.bmp'><br><font class='baseline'><strong>Matthew</strong><p>Choose number of points to send.</font><div class='respPicDiv'><img src='img/responseButtonOffersNo0L5.png' class='respPic'></div></div>","null","2","Matthew","8","Shared","0.65,0.35","11","0.65","trustrating_stim/white_00299_940422_fa_edt.bmp","7.5","14","4"
"html-keyboard-response","148","251780","0.0-19.0-3.3","63f791692fa22034babcdda1","bdp_trlrn","Tue Mar 14 2023 13:59:51 GMT-0400 (Eastern Daylight Time)","492701","Untrustworthy,Trustworthy","","null","","","","feedback","","<div class='trialDiv'><img src='trustrating_stim/white_00299_940422_fa_edt.bmp'><br><font class='baseline'><strong>Matthew</strong><p>Received: <strong>20</strong></font> &nbsp; &nbsp; &nbsp; &nbsp; &nbsp; &nbsp;<font class='posOutcome'>Shared back: <strong>10</strong></font></font><div class='respPicDiv'><img src='img/responseButtonOffersNo0_wht.png' class='respPic'></div></div>","null","2","Matthew","8","Shared","0.65,0.35","11","0.65","trustrating_stim/white_00299_940422_fa_edt.bmp","7.5","24","4"
"html-keyboard-response","149","252908","0.0-19.0-1.4","63f791692fa22034babcdda1","bdp_trlrn","Tue Mar 14 2023 13:59:51 GMT-0400 (Eastern Daylight Time)","492701","Untrustworthy,Trustworthy","","1127","","","","decision","","<div class='trialDiv'><img src='trustrating_stim/white_mw089.bmp'><br><font class='baseline'><strong>Marcus</strong><p>Choose number of points to send.</font><div class='respPicDiv'><img src='img/responseButtonOffersNo0L.png' class='respPic'></div></div>","1","2","Marcus","3","Kept","0.35,0.8","11","0.35","trustrating_stim/white_mw089.bmp","4","29","5"
"html-keyboard-response","150","253161","0.0-19.0-2.4","63f791692fa22034babcdda1","bdp_trlrn","Tue Mar 14 2023 13:59:51 GMT-0400 (Eastern Daylight Time)","492701","Untrustworthy,Trustworthy","","null","","","","decisionFB","","<div class='trialDiv'><img src='trustrating_stim/white_mw089.bmp'><br><font class='baseline'><strong>Marcus</strong><p>Choose number of points to send.</font><div class='respPicDiv'><img src='img/responseButtonOffersNo0L1.png' class='respPic'></div></div>","null","2","Marcus","3","Kept","0.35,0.8","11","0.35","trustrating_stim/white_mw089.bmp","4","28","5"
"html-keyboard-response","151","254163","0.0-19.0-3.4","63f791692fa22034babcdda1","bdp_trlrn","Tue Mar 14 2023 13:59:51 GMT-0400 (Eastern Daylight Time)","492701","Untrustworthy,Trustworthy","","null","","","","feedback","","<div class='trialDiv'><img src='trustrating_stim/white_mw089.bmp'><br><font class='baseline'><strong>Marcus</strong><p>Received: <strong>4</strong></font> &nbsp; &nbsp; &nbsp; &nbsp; &nbsp; &nbsp;<font class='negOutcome'>Shared back: <strong>0</strong></font></font><div class='respPicDiv'><img src='img/responseButtonOffersNo0_wht.png' class='respPic'></div></div>","null","2","Marcus","3","Kept","0.35,0.8","11","0.35","trustrating_stim/white_mw089.bmp","4","28","5"
"html-keyboard-response","152","257544","0.0-19.0-1.5","63f791692fa22034babcdda1","bdp_trlrn","Tue Mar 14 2023 13:59:51 GMT-0400 (Eastern Daylight Time)","492701","Untrustworthy,Trustworthy","","3380","","","","decision","","<div class='trialDiv'><img src='trustrating_stim/white_00761_941201_fb_edt.bmp'><br><font class='baseline'><strong>Evan</strong><p>Choose number of points to send.</font><div class='respPicDiv'><img src='img/responseButtonOffersNo0L.png' class='respPic'></div></div>","4","2","Evan","5","Kept","0.65,0.2","13","0.65","trustrating_stim/white_00761_941201_fb_edt.bmp","5.5","33","6"
"html-keyboard-response","153","257797","0.0-19.0-2.5","63f791692fa22034babcdda1","bdp_trlrn","Tue Mar 14 2023 13:59:51 GMT-0400 (Eastern Daylight Time)","492701","Untrustworthy,Trustworthy","","null","","","","decisionFB","","<div class='trialDiv'><img src='trustrating_stim/white_00761_941201_fb_edt.bmp'><br><font class='baseline'><strong>Evan</strong><p>Choose number of points to send.</font><div class='respPicDiv'><img src='img/responseButtonOffersNo0L4.png' class='respPic'></div></div>","null","2","Evan","5","Kept","0.65,0.2","13","0.65","trustrating_stim/white_00761_941201_fb_edt.bmp","5.5","29","6"
"html-keyboard-response","154","258799","0.0-19.0-3.5","63f791692fa22034babcdda1","bdp_trlrn","Tue Mar 14 2023 13:59:51 GMT-0400 (Eastern Daylight Time)","492701","Untrustworthy,Trustworthy","","null","","","","feedback","","<div class='trialDiv'><img src='trustrating_stim/white_00761_941201_fb_edt.bmp'><br><font class='baseline'><strong>Evan</strong><p>Received: <strong>16</strong></font> &nbsp; &nbsp; &nbsp; &nbsp; &nbsp; &nbsp;<font class='negOutcome'>Shared back: <strong>0</strong></font></font><div class='respPicDiv'><img src='img/responseButtonOffersNo0_wht.png' class='respPic'></div></div>","null","2","Evan","5","Kept","0.65,0.2","13","0.65","trustrating_stim/white_00761_941201_fb_edt.bmp","5.5","29","6"
"html-keyboard-response","155","260100","0.0-19.0-1.6","63f791692fa22034babcdda1","bdp_trlrn","Tue Mar 14 2023 13:59:51 GMT-0400 (Eastern Daylight Time)","492701","Untrustworthy,Trustworthy","","1301","","","","decision","","<div class='trialDiv'><img src='trustrating_stim/white_mw089.bmp'><br><font class='baseline'><strong>Marcus</strong><p>Choose number of points to send.</font><div class='respPicDiv'><img src='img/responseButtonOffersNo0L.png' class='respPic'></div></div>","5","3","Marcus","3","Shared","0.35,0.8","11","0.35","trustrating_stim/white_mw089.bmp","4","34","7"
"html-keyboard-response","156","260351","0.0-19.0-2.6","63f791692fa22034babcdda1","bdp_trlrn","Tue Mar 14 2023 13:59:51 GMT-0400 (Eastern Daylight Time)","492701","Untrustworthy,Trustworthy","","null","","","","decisionFB","","<div class='trialDiv'><img src='trustrating_stim/white_mw089.bmp'><br><font class='baseline'><strong>Marcus</strong><p>Choose number of points to send.</font><div class='respPicDiv'><img src='img/responseButtonOffersNo0L5.png' class='respPic'></div></div>","null","3","Marcus","3","Shared","0.35,0.8","11","0.35","trustrating_stim/white_mw089.bmp","4","29","7"
"html-keyboard-response","157","261353","0.0-19.0-3.6","63f791692fa22034babcdda1","bdp_trlrn","Tue Mar 14 2023 13:59:51 GMT-0400 (Eastern Daylight Time)","492701","Untrustworthy,Trustworthy","","null","","","","feedback","","<div class='trialDiv'><img src='trustrating_stim/white_mw089.bmp'><br><font class='baseline'><strong>Marcus</strong><p>Received: <strong>20</strong></font> &nbsp; &nbsp; &nbsp; &nbsp; &nbsp; &nbsp;<font class='posOutcome'>Shared back: <strong>10</strong></font></font><div class='respPicDiv'><img src='img/responseButtonOffersNo0_wht.png' class='respPic'></div></div>","null","3","Marcus","3","Shared","0.35,0.8","11","0.35","trustrating_stim/white_mw089.bmp","4","39","7"
"html-keyboard-response","158","262004","0.0-19.0-1.7","63f791692fa22034babcdda1","bdp_trlrn","Tue Mar 14 2023 13:59:51 GMT-0400 (Eastern Daylight Time)","492701","Untrustworthy,Trustworthy","","650","","","","decision","","<div class='trialDiv'><img src='trustrating_stim/white_00761_941201_fb_edt.bmp'><br><font class='baseline'><strong>Evan</strong><p>Choose number of points to send.</font><div class='respPicDiv'><img src='img/responseButtonOffersNo0L.png' class='respPic'></div></div>","1","3","Evan","5","Shared","0.65,0.2","13","0.65","trustrating_stim/white_00761_941201_fb_edt.bmp","5.5","44","8"
"html-keyboard-response","159","262256","0.0-19.0-2.7","63f791692fa22034babcdda1","bdp_trlrn","Tue Mar 14 2023 13:59:51 GMT-0400 (Eastern Daylight Time)","492701","Untrustworthy,Trustworthy","","null","","","","decisionFB","","<div class='trialDiv'><img src='trustrating_stim/white_00761_941201_fb_edt.bmp'><br><font class='baseline'><strong>Evan</strong><p>Choose number of points to send.</font><div class='respPicDiv'><img src='img/responseButtonOffersNo0L1.png' class='respPic'></div></div>","null","3","Evan","5","Shared","0.65,0.2","13","0.65","trustrating_stim/white_00761_941201_fb_edt.bmp","5.5","43","8"
"html-keyboard-response","160","263258","0.0-19.0-3.7","63f791692fa22034babcdda1","bdp_trlrn","Tue Mar 14 2023 13:59:51 GMT-0400 (Eastern Daylight Time)","492701","Untrustworthy,Trustworthy","","null","","","","feedback","","<div class='trialDiv'><img src='trustrating_stim/white_00761_941201_fb_edt.bmp'><br><font class='baseline'><strong>Evan</strong><p>Received: <strong>4</strong></font> &nbsp; &nbsp; &nbsp; &nbsp; &nbsp; &nbsp;<font class='posOutcome'>Shared back: <strong>2</strong></font></font><div class='respPicDiv'><img src='img/responseButtonOffersNo0_wht.png' class='respPic'></div></div>","null","3","Evan","5","Shared","0.65,0.2","13","0.65","trustrating_stim/white_00761_941201_fb_edt.bmp","5.5","45","8"
"html-keyboard-response","161","264932","0.0-19.0-1.8","63f791692fa22034babcdda1","bdp_trlrn","Tue Mar 14 2023 13:59:51 GMT-0400 (Eastern Daylight Time)","492701","Untrustworthy,Trustworthy","","1673","","","","decision","","<div class='trialDiv'><img src='trustrating_stim/white_00299_940422_fa_edt.bmp'><br><font class='baseline'><strong>Matthew</strong><p>Choose number of points to send.</font><div class='respPicDiv'><img src='img/responseButtonOffersNo0L.png' class='respPic'></div></div>","3","3","Matthew","8","Shared","0.65,0.35","11","0.65","trustrating_stim/white_00299_940422_fa_edt.bmp","7.5","50","9"
"html-keyboard-response","162","265185","0.0-19.0-2.8","63f791692fa22034babcdda1","bdp_trlrn","Tue Mar 14 2023 13:59:51 GMT-0400 (Eastern Daylight Time)","492701","Untrustworthy,Trustworthy","","null","","","","decisionFB","","<div class='trialDiv'><img src='trustrating_stim/white_00299_940422_fa_edt.bmp'><br><font class='baseline'><strong>Matthew</strong><p>Choose number of points to send.</font><div class='respPicDiv'><img src='img/responseButtonOffersNo0L3.png' class='respPic'></div></div>","null","3","Matthew","8","Shared","0.65,0.35","11","0.65","trustrating_stim/white_00299_940422_fa_edt.bmp","7.5","47","9"
"html-keyboard-response","163","266186","0.0-19.0-3.8","63f791692fa22034babcdda1","bdp_trlrn","Tue Mar 14 2023 13:59:51 GMT-0400 (Eastern Daylight Time)","492701","Untrustworthy,Trustworthy","","null","","","","feedback","","<div class='trialDiv'><img src='trustrating_stim/white_00299_940422_fa_edt.bmp'><br><font class='baseline'><strong>Matthew</strong><p>Received: <strong>12</strong></font> &nbsp; &nbsp; &nbsp; &nbsp; &nbsp; &nbsp;<font class='posOutcome'>Shared back: <strong>6</strong></font></font><div class='respPicDiv'><img src='img/responseButtonOffersNo0_wht.png' class='respPic'></div></div>","null","3","Matthew","8","Shared","0.65,0.35","11","0.65","trustrating_stim/white_00299_940422_fa_edt.bmp","7.5","53","9"
"html-keyboard-response","164","267452","0.0-19.0-1.9","63f791692fa22034babcdda1","bdp_trlrn","Tue Mar 14 2023 13:59:51 GMT-0400 (Eastern Daylight Time)","492701","Untrustworthy,Trustworthy","","1265","","","","decision","","<div class='trialDiv'><img src='trustrating_stim/white_00761_941201_fb_edt.bmp'><br><font class='baseline'><strong>Evan</strong><p>Choose number of points to send.</font><div class='respPicDiv'><img src='img/responseButtonOffersNo0L.png' class='respPic'></div></div>","1","4","Evan","5","Shared","0.65,0.2","13","0.65","trustrating_stim/white_00761_941201_fb_edt.bmp","5.5","58","10"
"html-keyboard-response","165","267704","0.0-19.0-2.9","63f791692fa22034babcdda1","bdp_trlrn","Tue Mar 14 2023 13:59:51 GMT-0400 (Eastern Daylight Time)","492701","Untrustworthy,Trustworthy","","null","","","","decisionFB","","<div class='trialDiv'><img src='trustrating_stim/white_00761_941201_fb_edt.bmp'><br><font class='baseline'><strong>Evan</strong><p>Choose number of points to send.</font><div class='respPicDiv'><img src='img/responseButtonOffersNo0L1.png' class='respPic'></div></div>","null","4","Evan","5","Shared","0.65,0.2","13","0.65","trustrating_stim/white_00761_941201_fb_edt.bmp","5.5","57","10"
"html-keyboard-response","166","268706","0.0-19.0-3.9","63f791692fa22034babcdda1","bdp_trlrn","Tue Mar 14 2023 13:59:51 GMT-0400 (Eastern Daylight Time)","492701","Untrustworthy,Trustworthy","","null","","","","feedback","","<div class='trialDiv'><img src='trustrating_stim/white_00761_941201_fb_edt.bmp'><br><font class='baseline'><strong>Evan</strong><p>Received: <strong>4</strong></font> &nbsp; &nbsp; &nbsp; &nbsp; &nbsp; &nbsp;<font class='posOutcome'>Shared back: <strong>2</strong></font></font><div class='respPicDiv'><img src='img/responseButtonOffersNo0_wht.png' class='respPic'></div></div>","null","4","Evan","5","Shared","0.65,0.2","13","0.65","trustrating_stim/white_00761_941201_fb_edt.bmp","5.5","59","10"
"html-keyboard-response","167","269523","0.0-19.0-1.10","63f791692fa22034babcdda1","bdp_trlrn","Tue Mar 14 2023 13:59:51 GMT-0400 (Eastern Daylight Time)","492701","Untrustworthy,Trustworthy","","817","","","","decision","","<div class='trialDiv'><img src='trustrating_stim/white_mw089.bmp'><br><font class='baseline'><strong>Marcus</strong><p>Choose number of points to send.</font><div class='respPicDiv'><img src='img/responseButtonOffersNo0L.png' class='respPic'></div></div>","4","4","Marcus","3","Shared","0.35,0.8","11","0.35","trustrating_stim/white_mw089.bmp","4","64","11"
"html-keyboard-response","168","269775","0.0-19.0-2.10","63f791692fa22034babcdda1","bdp_trlrn","Tue Mar 14 2023 13:59:51 GMT-0400 (Eastern Daylight Time)","492701","Untrustworthy,Trustworthy","","null","","","","decisionFB","","<div class='trialDiv'><img src='trustrating_stim/white_mw089.bmp'><br><font class='baseline'><strong>Marcus</strong><p>Choose number of points to send.</font><div class='respPicDiv'><img src='img/responseButtonOffersNo0L4.png' class='respPic'></div></div>","null","4","Marcus","3","Shared","0.35,0.8","11","0.35","trustrating_stim/white_mw089.bmp","4","60","11"
"html-keyboard-response","169","270779","0.0-19.0-3.10","63f791692fa22034babcdda1","bdp_trlrn","Tue Mar 14 2023 13:59:51 GMT-0400 (Eastern Daylight Time)","492701","Untrustworthy,Trustworthy","","null","","","","feedback","","<div class='trialDiv'><img src='trustrating_stim/white_mw089.bmp'><br><font class='baseline'><strong>Marcus</strong><p>Received: <strong>16</strong></font> &nbsp; &nbsp; &nbsp; &nbsp; &nbsp; &nbsp;<font class='posOutcome'>Shared back: <strong>8</strong></font></font><div class='respPicDiv'><img src='img/responseButtonOffersNo0_wht.png' class='respPic'></div></div>","null","4","Marcus","3","Shared","0.35,0.8","11","0.35","trustrating_stim/white_mw089.bmp","4","68","11"
"html-keyboard-response","170","271557","0.0-19.0-1.11","63f791692fa22034babcdda1","bdp_trlrn","Tue Mar 14 2023 13:59:51 GMT-0400 (Eastern Daylight Time)","492701","Untrustworthy,Trustworthy","","776","","","","decision","","<div class='trialDiv'><img src='trustrating_stim/white_00299_940422_fa_edt.bmp'><br><font class='baseline'><strong>Matthew</strong><p>Choose number of points to send.</font><div class='respPicDiv'><img src='img/responseButtonOffersNo0L.png' class='respPic'></div></div>","5","4","Matthew","8","Kept","0.65,0.35","11","0.65","trustrating_stim/white_00299_940422_fa_edt.bmp","7.5","73","12"
"html-keyboard-response","171","271809","0.0-19.0-2.11","63f791692fa22034babcdda1","bdp_trlrn","Tue Mar 14 2023 13:59:51 GMT-0400 (Eastern Daylight Time)","492701","Untrustworthy,Trustworthy","","null","","","","decisionFB","","<div class='trialDiv'><img src='trustrating_stim/white_00299_940422_fa_edt.bmp'><br><font class='baseline'><strong>Matthew</strong><p>Choose number of points to send.</font><div class='respPicDiv'><img src='img/responseButtonOffersNo0L5.png' class='respPic'></div></div>","null","4","Matthew","8","Kept","0.65,0.35","11","0.65","trustrating_stim/white_00299_940422_fa_edt.bmp","7.5","68","12"
"html-keyboard-response","172","272811","0.0-19.0-3.11","63f791692fa22034babcdda1","bdp_trlrn","Tue Mar 14 2023 13:59:51 GMT-0400 (Eastern Daylight Time)","492701","Untrustworthy,Trustworthy","","null","","","","feedback","","<div class='trialDiv'><img src='trustrating_stim/white_00299_940422_fa_edt.bmp'><br><font class='baseline'><strong>Matthew</strong><p>Received: <strong>20</strong></font> &nbsp; &nbsp; &nbsp; &nbsp; &nbsp; &nbsp;<font class='negOutcome'>Shared back: <strong>0</strong></font></font><div class='respPicDiv'><img src='img/responseButtonOffersNo0_wht.png' class='respPic'></div></div>","null","4","Matthew","8","Kept","0.65,0.35","11","0.65","trustrating_stim/white_00299_940422_fa_edt.bmp","7.5","68","12"
"html-keyboard-response","173","273190","0.0-19.0-1.12","63f791692fa22034babcdda1","bdp_trlrn","Tue Mar 14 2023 13:59:51 GMT-0400 (Eastern Daylight Time)","492701","Untrustworthy,Trustworthy","","378","","","","decision","","<div class='trialDiv'><img src='trustrating_stim/white_00761_941201_fb_edt.bmp'><br><font class='baseline'><strong>Evan</strong><p>Choose number of points to send.</font><div class='respPicDiv'><img src='img/responseButtonOffersNo0L.png' class='respPic'></div></div>","5","5","Evan","5","Shared","0.65,0.2","13","0.65","trustrating_stim/white_00761_941201_fb_edt.bmp","5.5","73","13"
"html-keyboard-response","174","273442","0.0-19.0-2.12","63f791692fa22034babcdda1","bdp_trlrn","Tue Mar 14 2023 13:59:51 GMT-0400 (Eastern Daylight Time)","492701","Untrustworthy,Trustworthy","","null","","","","decisionFB","","<div class='trialDiv'><img src='trustrating_stim/white_00761_941201_fb_edt.bmp'><br><font class='baseline'><strong>Evan</strong><p>Choose number of points to send.</font><div class='respPicDiv'><img src='img/responseButtonOffersNo0L5.png' class='respPic'></div></div>","null","5","Evan","5","Shared","0.65,0.2","13","0.65","trustrating_stim/white_00761_941201_fb_edt.bmp","5.5","68","13"
"html-keyboard-response","175","274445","0.0-19.0-3.12","63f791692fa22034babcdda1","bdp_trlrn","Tue Mar 14 2023 13:59:51 GMT-0400 (Eastern Daylight Time)","492701","Untrustworthy,Trustworthy","","null","","","","feedback","","<div class='trialDiv'><img src='trustrating_stim/white_00761_941201_fb_edt.bmp'><br><font class='baseline'><strong>Evan</strong><p>Received: <strong>20</strong></font> &nbsp; &nbsp; &nbsp; &nbsp; &nbsp; &nbsp;<font class='posOutcome'>Shared back: <strong>10</strong></font></font><div class='respPicDiv'><img src='img/responseButtonOffersNo0_wht.png' class='respPic'></div></div>","null","5","Evan","5","Shared","0.65,0.2","13","0.65","trustrating_stim/white_00761_941201_fb_edt.bmp","5.5","78","13"
"html-keyboard-response","176","274869","0.0-19.0-1.13","63f791692fa22034babcdda1","bdp_trlrn","Tue Mar 14 2023 13:59:51 GMT-0400 (Eastern Daylight Time)","492701","Untrustworthy,Trustworthy","","422","","","","decision","","<div class='trialDiv'><img src='trustrating_stim/white_mw089.bmp'><br><font class='baseline'><strong>Marcus</strong><p>Choose number of points to send.</font><div class='respPicDiv'><img src='img/responseButtonOffersNo0L.png' class='respPic'></div></div>","5","5","Marcus","3","Kept","0.35,0.8","11","0.35","trustrating_stim/white_mw089.bmp","4","83","14"
"html-keyboard-response","177","275123","0.0-19.0-2.13","63f791692fa22034babcdda1","bdp_trlrn","Tue Mar 14 2023 13:59:51 GMT-0400 (Eastern Daylight Time)","492701","Untrustworthy,Trustworthy","","null","","","","decisionFB","","<div class='trialDiv'><img src='trustrating_stim/white_mw089.bmp'><br><font class='baseline'><strong>Marcus</strong><p>Choose number of points to send.</font><div class='respPicDiv'><img src='img/responseButtonOffersNo0L5.png' class='respPic'></div></div>","null","5","Marcus","3","Kept","0.35,0.8","11","0.35","trustrating_stim/white_mw089.bmp","4","78","14"
"html-keyboard-response","178","276125","0.0-19.0-3.13","63f791692fa22034babcdda1","bdp_trlrn","Tue Mar 14 2023 13:59:51 GMT-0400 (Eastern Daylight Time)","492701","Untrustworthy,Trustworthy","","null","","","","feedback","","<div class='trialDiv'><img src='trustrating_stim/white_mw089.bmp'><br><font class='baseline'><strong>Marcus</strong><p>Received: <strong>20</strong></font> &nbsp; &nbsp; &nbsp; &nbsp; &nbsp; &nbsp;<font class='negOutcome'>Shared back: <strong>0</strong></font></font><div class='respPicDiv'><img src='img/responseButtonOffersNo0_wht.png' class='respPic'></div></div>","null","5","Marcus","3","Kept","0.35,0.8","11","0.35","trustrating_stim/white_mw089.bmp","4","78","14"
"html-keyboard-response","179","277012","0.0-19.0-1.14","63f791692fa22034babcdda1","bdp_trlrn","Tue Mar 14 2023 13:59:51 GMT-0400 (Eastern Daylight Time)","492701","Untrustworthy,Trustworthy","","886","","","","decision","","<div class='trialDiv'><img src='trustrating_stim/white_00299_940422_fa_edt.bmp'><br><font class='baseline'><strong>Matthew</strong><p>Choose number of points to send.</font><div class='respPicDiv'><img src='img/responseButtonOffersNo0L.png' class='respPic'></div></div>","3","5","Matthew","8","Shared","0.65,0.35","11","0.65","trustrating_stim/white_00299_940422_fa_edt.bmp","7.5","83","15"
"html-keyboard-response","180","277263","0.0-19.0-2.14","63f791692fa22034babcdda1","bdp_trlrn","Tue Mar 14 2023 13:59:51 GMT-0400 (Eastern Daylight Time)","492701","Untrustworthy,Trustworthy","","null","","","","decisionFB","","<div class='trialDiv'><img src='trustrating_stim/white_00299_940422_fa_edt.bmp'><br><font class='baseline'><strong>Matthew</strong><p>Choose number of points to send.</font><div class='respPicDiv'><img src='img/responseButtonOffersNo0L3.png' class='respPic'></div></div>","null","5","Matthew","8","Shared","0.65,0.35","11","0.65","trustrating_stim/white_00299_940422_fa_edt.bmp","7.5","80","15"
"html-keyboard-response","181","278265","0.0-19.0-3.14","63f791692fa22034babcdda1","bdp_trlrn","Tue Mar 14 2023 13:59:51 GMT-0400 (Eastern Daylight Time)","492701","Untrustworthy,Trustworthy","","null","","","","feedback","","<div class='trialDiv'><img src='trustrating_stim/white_00299_940422_fa_edt.bmp'><br><font class='baseline'><strong>Matthew</strong><p>Received: <strong>12</strong></font> &nbsp; &nbsp; &nbsp; &nbsp; &nbsp; &nbsp;<font class='posOutcome'>Shared back: <strong>6</strong></font></font><div class='respPicDiv'><img src='img/responseButtonOffersNo0_wht.png' class='respPic'></div></div>","null","5","Matthew","8","Shared","0.65,0.35","11","0.65","trustrating_stim/white_00299_940422_fa_edt.bmp","7.5","86","15"
"html-keyboard-response","182","278532","0.0-19.0-1.15","63f791692fa22034babcdda1","bdp_trlrn","Tue Mar 14 2023 13:59:51 GMT-0400 (Eastern Daylight Time)","492701","Untrustworthy,Trustworthy","","266","","","","decision","","<div class='trialDiv'><img src='trustrating_stim/white_00761_941201_fb_edt.bmp'><br><font class='baseline'><strong>Evan</strong><p>Choose number of points to send.</font><div class='respPicDiv'><img src='img/responseButtonOffersNo0L.png' class='respPic'></div></div>","4","6","Evan","5","Shared","0.65,0.2","13","0.65","trustrating_stim/white_00761_941201_fb_edt.bmp","5.5","91","16"
"html-keyboard-response","183","278785","0.0-19.0-2.15","63f791692fa22034babcdda1","bdp_trlrn","Tue Mar 14 2023 13:59:51 GMT-0400 (Eastern Daylight Time)","492701","Untrustworthy,Trustworthy","","null","","","","decisionFB","","<div class='trialDiv'><img src='trustrating_stim/white_00761_941201_fb_edt.bmp'><br><font class='baseline'><strong>Evan</strong><p>Choose number of points to send.</font><div class='respPicDiv'><img src='img/responseButtonOffersNo0L4.png' class='respPic'></div></div>","null","6","Evan","5","Shared","0.65,0.2","13","0.65","trustrating_stim/white_00761_941201_fb_edt.bmp","5.5","87","16"
"html-keyboard-response","184","279788","0.0-19.0-3.15","63f791692fa22034babcdda1","bdp_trlrn","Tue Mar 14 2023 13:59:51 GMT-0400 (Eastern Daylight Time)","492701","Untrustworthy,Trustworthy","","null","","","","feedback","","<div class='trialDiv'><img src='trustrating_stim/white_00761_941201_fb_edt.bmp'><br><font class='baseline'><strong>Evan</strong><p>Received: <strong>16</strong></font> &nbsp; &nbsp; &nbsp; &nbsp; &nbsp; &nbsp;<font class='posOutcome'>Shared back: <strong>8</strong></font></font><div class='respPicDiv'><img src='img/responseButtonOffersNo0_wht.png' class='respPic'></div></div>","null","6","Evan","5","Shared","0.65,0.2","13","0.65","trustrating_stim/white_00761_941201_fb_edt.bmp","5.5","95","16"
"html-keyboard-response","185","280127","0.0-19.0-1.16","63f791692fa22034babcdda1","bdp_trlrn","Tue Mar 14 2023 13:59:51 GMT-0400 (Eastern Daylight Time)","492701","Untrustworthy,Trustworthy","","338","","","","decision","","<div class='trialDiv'><img src='trustrating_stim/white_mw089.bmp'><br><font class='baseline'><strong>Marcus</strong><p>Choose number of points to send.</font><div class='respPicDiv'><img src='img/responseButtonOffersNo0L.png' class='respPic'></div></div>","1","6","Marcus","3","Kept","0.35,0.8","11","0.35","trustrating_stim/white_mw089.bmp","4","100","17"
"html-keyboard-response","186","280379","0.0-19.0-2.16","63f791692fa22034babcdda1","bdp_trlrn","Tue Mar 14 2023 13:59:51 GMT-0400 (Eastern Daylight Time)","492701","Untrustworthy,Trustworthy","","null","","","","decisionFB","","<div class='trialDiv'><img src='trustrating_stim/white_mw089.bmp'><br><font class='baseline'><strong>Marcus</strong><p>Choose number of points to send.</font><div class='respPicDiv'><img src='img/responseButtonOffersNo0L1.png' class='respPic'></div></div>","null","6","Marcus","3","Kept","0.35,0.8","11","0.35","trustrating_stim/white_mw089.bmp","4","99","17"
"html-keyboard-response","187","281382","0.0-19.0-3.16","63f791692fa22034babcdda1","bdp_trlrn","Tue Mar 14 2023 13:59:51 GMT-0400 (Eastern Daylight Time)","492701","Untrustworthy,Trustworthy","","null","","","","feedback","","<div class='trialDiv'><img src='trustrating_stim/white_mw089.bmp'><br><font class='baseline'><strong>Marcus</strong><p>Received: <strong>4</strong></font> &nbsp; &nbsp; &nbsp; &nbsp; &nbsp; &nbsp;<font class='negOutcome'>Shared back: <strong>0</strong></font></font><div class='respPicDiv'><img src='img/responseButtonOffersNo0_wht.png' class='respPic'></div></div>","null","6","Marcus","3","Kept","0.35,0.8","11","0.35","trustrating_stim/white_mw089.bmp","4","99","17"
"html-keyboard-response","188","282397","0.0-19.0-1.17","63f791692fa22034babcdda1","bdp_trlrn","Tue Mar 14 2023 13:59:51 GMT-0400 (Eastern Daylight Time)","492701","Untrustworthy,Trustworthy","","1011","","","","decision","","<div class='trialDiv'><img src='trustrating_stim/white_00299_940422_fa_edt.bmp'><br><font class='baseline'><strong>Matthew</strong><p>Choose number of points to send.</font><div class='respPicDiv'><img src='img/responseButtonOffersNo0L.png' class='respPic'></div></div>","5","6","Matthew","8","Shared","0.65,0.35","11","0.65","trustrating_stim/white_00299_940422_fa_edt.bmp","7.5","104","18"
"html-keyboard-response","189","282649","0.0-19.0-2.17","63f791692fa22034babcdda1","bdp_trlrn","Tue Mar 14 2023 13:59:51 GMT-0400 (Eastern Daylight Time)","492701","Untrustworthy,Trustworthy","","null","","","","decisionFB","","<div class='trialDiv'><img src='trustrating_stim/white_00299_940422_fa_edt.bmp'><br><font class='baseline'><strong>Matthew</strong><p>Choose number of points to send.</font><div class='respPicDiv'><img src='img/responseButtonOffersNo0L5.png' class='respPic'></div></div>","null","6","Matthew","8","Shared","0.65,0.35","11","0.65","trustrating_stim/white_00299_940422_fa_edt.bmp","7.5","99","18"
"html-keyboard-response","190","283651","0.0-19.0-3.17","63f791692fa22034babcdda1","bdp_trlrn","Tue Mar 14 2023 13:59:51 GMT-0400 (Eastern Daylight Time)","492701","Untrustworthy,Trustworthy","","null","","","","feedback","","<div class='trialDiv'><img src='trustrating_stim/white_00299_940422_fa_edt.bmp'><br><font class='baseline'><strong>Matthew</strong><p>Received: <strong>20</strong></font> &nbsp; &nbsp; &nbsp; &nbsp; &nbsp; &nbsp;<font class='posOutcome'>Shared back: <strong>10</strong></font></font><div class='respPicDiv'><img src='img/responseButtonOffersNo0_wht.png' class='respPic'></div></div>","null","6","Matthew","8","Shared","0.65,0.35","11","0.65","trustrating_stim/white_00299_940422_fa_edt.bmp","7.5","109","18"
"html-keyboard-response","191","284133","0.0-19.0-1.18","63f791692fa22034babcdda1","bdp_trlrn","Tue Mar 14 2023 13:59:51 GMT-0400 (Eastern Daylight Time)","492701","Untrustworthy,Trustworthy","","481","","","","decision","","<div class='trialDiv'><img src='trustrating_stim/white_00761_941201_fb_edt.bmp'><br><font class='baseline'><strong>Evan</strong><p>Choose number of points to send.</font><div class='respPicDiv'><img src='img/responseButtonOffersNo0L.png' class='respPic'></div></div>","1","7","Evan","5","Shared","0.65,0.2","13","0.65","trustrating_stim/white_00761_941201_fb_edt.bmp","5.5","114","19"
"html-keyboard-response","192","284385","0.0-19.0-2.18","63f791692fa22034babcdda1","bdp_trlrn","Tue Mar 14 2023 13:59:51 GMT-0400 (Eastern Daylight Time)","492701","Untrustworthy,Trustworthy","","null","","","","decisionFB","","<div class='trialDiv'><img src='trustrating_stim/white_00761_941201_fb_edt.bmp'><br><font class='baseline'><strong>Evan</strong><p>Choose number of points to send.</font><div class='respPicDiv'><img src='img/responseButtonOffersNo0L1.png' class='respPic'></div></div>","null","7","Evan","5","Shared","0.65,0.2","13","0.65","trustrating_stim/white_00761_941201_fb_edt.bmp","5.5","113","19"
"html-keyboard-response","193","285387","0.0-19.0-3.18","63f791692fa22034babcdda1","bdp_trlrn","Tue Mar 14 2023 13:59:51 GMT-0400 (Eastern Daylight Time)","492701","Untrustworthy,Trustworthy","","null","","","","feedback","","<div class='trialDiv'><img src='trustrating_stim/white_00761_941201_fb_edt.bmp'><br><font class='baseline'><strong>Evan</strong><p>Received: <strong>4</strong></font> &nbsp; &nbsp; &nbsp; &nbsp; &nbsp; &nbsp;<font class='posOutcome'>Shared back: <strong>2</strong></font></font><div class='respPicDiv'><img src='img/responseButtonOffersNo0_wht.png' class='respPic'></div></div>","null","7","Evan","5","Shared","0.65,0.2","13","0.65","trustrating_stim/white_00761_941201_fb_edt.bmp","5.5","115","19"
"html-keyboard-response","194","285629","0.0-19.0-1.19","63f791692fa22034babcdda1","bdp_trlrn","Tue Mar 14 2023 13:59:51 GMT-0400 (Eastern Daylight Time)","492701","Untrustworthy,Trustworthy","","240","","","","decision","","<div class='trialDiv'><img src='trustrating_stim/white_mw089.bmp'><br><font class='baseline'><strong>Marcus</strong><p>Choose number of points to send.</font><div class='respPicDiv'><img src='img/responseButtonOffersNo0L.png' class='respPic'></div></div>","5","7","Marcus","3","Shared","0.35,0.8","11","0.35","trustrating_stim/white_mw089.bmp","4","120","20"
"html-keyboard-response","195","285880","0.0-19.0-2.19","63f791692fa22034babcdda1","bdp_trlrn","Tue Mar 14 2023 13:59:51 GMT-0400 (Eastern Daylight Time)","492701","Untrustworthy,Trustworthy","","null","","","","decisionFB","","<div class='trialDiv'><img src='trustrating_stim/white_mw089.bmp'><br><font class='baseline'><strong>Marcus</strong><p>Choose number of points to send.</font><div class='respPicDiv'><img src='img/responseButtonOffersNo0L5.png' class='respPic'></div></div>","null","7","Marcus","3","Shared","0.35,0.8","11","0.35","trustrating_stim/white_mw089.bmp","4","115","20"
"html-keyboard-response","196","286882","0.0-19.0-3.19","63f791692fa22034babcdda1","bdp_trlrn","Tue Mar 14 2023 13:59:51 GMT-0400 (Eastern Daylight Time)","492701","Untrustworthy,Trustworthy","","null","","","","feedback","","<div class='trialDiv'><img src='trustrating_stim/white_mw089.bmp'><br><font class='baseline'><strong>Marcus</strong><p>Received: <strong>20</strong></font> &nbsp; &nbsp; &nbsp; &nbsp; &nbsp; &nbsp;<font class='posOutcome'>Shared back: <strong>10</strong></font></font><div class='respPicDiv'><img src='img/responseButtonOffersNo0_wht.png' class='respPic'></div></div>","null","7","Marcus","3","Shared","0.35,0.8","11","0.35","trustrating_stim/white_mw089.bmp","4","125","20"
"html-keyboard-response","197","287941","0.0-19.0-1.20","63f791692fa22034babcdda1","bdp_trlrn","Tue Mar 14 2023 13:59:51 GMT-0400 (Eastern Daylight Time)","492701","Untrustworthy,Trustworthy","","1057","","","","decision","","<div class='trialDiv'><img src='trustrating_stim/white_00299_940422_fa_edt.bmp'><br><font class='baseline'><strong>Matthew</strong><p>Choose number of points to send.</font><div class='respPicDiv'><img src='img/responseButtonOffersNo0L.png' class='respPic'></div></div>","2","7","Matthew","8","Kept","0.65,0.35","11","0.65","trustrating_stim/white_00299_940422_fa_edt.bmp","7.5","130","21"
"html-keyboard-response","198","288193","0.0-19.0-2.20","63f791692fa22034babcdda1","bdp_trlrn","Tue Mar 14 2023 13:59:51 GMT-0400 (Eastern Daylight Time)","492701","Untrustworthy,Trustworthy","","null","","","","decisionFB","","<div class='trialDiv'><img src='trustrating_stim/white_00299_940422_fa_edt.bmp'><br><font class='baseline'><strong>Matthew</strong><p>Choose number of points to send.</font><div class='respPicDiv'><img src='img/responseButtonOffersNo0L2.png' class='respPic'></div></div>","null","7","Matthew","8","Kept","0.65,0.35","11","0.65","trustrating_stim/white_00299_940422_fa_edt.bmp","7.5","128","21"
"html-keyboard-response","199","289196","0.0-19.0-3.20","63f791692fa22034babcdda1","bdp_trlrn","Tue Mar 14 2023 13:59:51 GMT-0400 (Eastern Daylight Time)","492701","Untrustworthy,Trustworthy","","null","","","","feedback","","<div class='trialDiv'><img src='trustrating_stim/white_00299_940422_fa_edt.bmp'><br><font class='baseline'><strong>Matthew</strong><p>Received: <strong>8</strong></font> &nbsp; &nbsp; &nbsp; &nbsp; &nbsp; &nbsp;<font class='negOutcome'>Shared back: <strong>0</strong></font></font><div class='respPicDiv'><img src='img/responseButtonOffersNo0_wht.png' class='respPic'></div></div>","null","7","Matthew","8","Kept","0.65,0.35","11","0.65","trustrating_stim/white_00299_940422_fa_edt.bmp","7.5","128","21"
"html-keyboard-response","200","289854","0.0-19.0-1.21","63f791692fa22034babcdda1","bdp_trlrn","Tue Mar 14 2023 13:59:51 GMT-0400 (Eastern Daylight Time)","492701","Untrustworthy,Trustworthy","","656","","","","decision","","<div class='trialDiv'><img src='trustrating_stim/white_00761_941201_fb_edt.bmp'><br><font class='baseline'><strong>Evan</strong><p>Choose number of points to send.</font><div class='respPicDiv'><img src='img/responseButtonOffersNo0L.png' class='respPic'></div></div>","1","8","Evan","5","Kept","0.65,0.2","13","0.65","trustrating_stim/white_00761_941201_fb_edt.bmp","5.5","133","22"
"html-keyboard-response","201","290106","0.0-19.0-2.21","63f791692fa22034babcdda1","bdp_trlrn","Tue Mar 14 2023 13:59:51 GMT-0400 (Eastern Daylight Time)","492701","Untrustworthy,Trustworthy","","null","","","","decisionFB","","<div class='trialDiv'><img src='trustrating_stim/white_00761_941201_fb_edt.bmp'><br><font class='baseline'><strong>Evan</strong><p>Choose number of points to send.</font><div class='respPicDiv'><img src='img/responseButtonOffersNo0L1.png' class='respPic'></div></div>","null","8","Evan","5","Kept","0.65,0.2","13","0.65","trustrating_stim/white_00761_941201_fb_edt.bmp","5.5","132","22"
"html-keyboard-response","202","291107","0.0-19.0-3.21","63f791692fa22034babcdda1","bdp_trlrn","Tue Mar 14 2023 13:59:51 GMT-0400 (Eastern Daylight Time)","492701","Untrustworthy,Trustworthy","","null","","","","feedback","","<div class='trialDiv'><img src='trustrating_stim/white_00761_941201_fb_edt.bmp'><br><font class='baseline'><strong>Evan</strong><p>Received: <strong>4</strong></font> &nbsp; &nbsp; &nbsp; &nbsp; &nbsp; &nbsp;<font class='negOutcome'>Shared back: <strong>0</strong></font></font><div class='respPicDiv'><img src='img/responseButtonOffersNo0_wht.png' class='respPic'></div></div>","null","8","Evan","5","Kept","0.65,0.2","13","0.65","trustrating_stim/white_00761_941201_fb_edt.bmp","5.5","132","22"
"html-keyboard-response","203","291319","0.0-19.0-1.22","63f791692fa22034babcdda1","bdp_trlrn","Tue Mar 14 2023 13:59:51 GMT-0400 (Eastern Daylight Time)","492701","Untrustworthy,Trustworthy","","211","","","","decision","","<div class='trialDiv'><img src='trustrating_stim/white_mw089.bmp'><br><font class='baseline'><strong>Marcus</strong><p>Choose number of points to send.</font><div class='respPicDiv'><img src='img/responseButtonOffersNo0L.png' class='respPic'></div></div>","5","8","Marcus","3","Kept","0.35,0.8","11","0.35","trustrating_stim/white_mw089.bmp","4","137","23"
"html-keyboard-response","204","291572","0.0-19.0-2.22","63f791692fa22034babcdda1","bdp_trlrn","Tue Mar 14 2023 13:59:51 GMT-0400 (Eastern Daylight Time)","492701","Untrustworthy,Trustworthy","","null","","","","decisionFB","","<div class='trialDiv'><img src='trustrating_stim/white_mw089.bmp'><br><font class='baseline'><strong>Marcus</strong><p>Choose number of points to send.</font><div class='respPicDiv'><img src='img/responseButtonOffersNo0L5.png' class='respPic'></div></div>","null","8","Marcus","3","Kept","0.35,0.8","11","0.35","trustrating_stim/white_mw089.bmp","4","132","23"
"html-keyboard-response","205","292574","0.0-19.0-3.22","63f791692fa22034babcdda1","bdp_trlrn","Tue Mar 14 2023 13:59:51 GMT-0400 (Eastern Daylight Time)","492701","Untrustworthy,Trustworthy","","null","","","","feedback","","<div class='trialDiv'><img src='trustrating_stim/white_mw089.bmp'><br><font class='baseline'><strong>Marcus</strong><p>Received: <strong>20</strong></font> &nbsp; &nbsp; &nbsp; &nbsp; &nbsp; &nbsp;<font class='negOutcome'>Shared back: <strong>0</strong></font></font><div class='respPicDiv'><img src='img/responseButtonOffersNo0_wht.png' class='respPic'></div></div>","null","8","Marcus","3","Kept","0.35,0.8","11","0.35","trustrating_stim/white_mw089.bmp","4","132","23"
"html-keyboard-response","206","292917","0.0-19.0-1.23","63f791692fa22034babcdda1","bdp_trlrn","Tue Mar 14 2023 13:59:51 GMT-0400 (Eastern Daylight Time)","492701","Untrustworthy,Trustworthy","","341","","","","decision","","<div class='trialDiv'><img src='trustrating_stim/white_00299_940422_fa_edt.bmp'><br><font class='baseline'><strong>Matthew</strong><p>Choose number of points to send.</font><div class='respPicDiv'><img src='img/responseButtonOffersNo0L.png' class='respPic'></div></div>","4","8","Matthew","8","Shared","0.65,0.35","11","0.65","trustrating_stim/white_00299_940422_fa_edt.bmp","7.5","137","24"
"html-keyboard-response","207","293168","0.0-19.0-2.23","63f791692fa22034babcdda1","bdp_trlrn","Tue Mar 14 2023 13:59:51 GMT-0400 (Eastern Daylight Time)","492701","Untrustworthy,Trustworthy","","null","","","","decisionFB","","<div class='trialDiv'><img src='trustrating_stim/white_00299_940422_fa_edt.bmp'><br><font class='baseline'><strong>Matthew</strong><p>Choose number of points to send.</font><div class='respPicDiv'><img src='img/responseButtonOffersNo0L4.png' class='respPic'></div></div>","null","8","Matthew","8","Shared","0.65,0.35","11","0.65","trustrating_stim/white_00299_940422_fa_edt.bmp","7.5","133","24"
"html-keyboard-response","208","294170","0.0-19.0-3.23","63f791692fa22034babcdda1","bdp_trlrn","Tue Mar 14 2023 13:59:51 GMT-0400 (Eastern Daylight Time)","492701","Untrustworthy,Trustworthy","","null","","","","feedback","","<div class='trialDiv'><img src='trustrating_stim/white_00299_940422_fa_edt.bmp'><br><font class='baseline'><strong>Matthew</strong><p>Received: <strong>16</strong></font> &nbsp; &nbsp; &nbsp; &nbsp; &nbsp; &nbsp;<font class='posOutcome'>Shared back: <strong>8</strong></font></font><div class='respPicDiv'><img src='img/responseButtonOffersNo0_wht.png' class='respPic'></div></div>","null","8","Matthew","8","Shared","0.65,0.35","11","0.65","trustrating_stim/white_00299_940422_fa_edt.bmp","7.5","141","24"
"html-keyboard-response","209","294501","0.0-19.0-1.24","63f791692fa22034babcdda1","bdp_trlrn","Tue Mar 14 2023 13:59:51 GMT-0400 (Eastern Daylight Time)","492701","Untrustworthy,Trustworthy","","330","","","","decision","","<div class='trialDiv'><img src='trustrating_stim/white_mw089.bmp'><br><font class='baseline'><strong>Marcus</strong><p>Choose number of points to send.</font><div class='respPicDiv'><img src='img/responseButtonOffersNo0L.png' class='respPic'></div></div>","3","9","Marcus","3","Kept","0.35,0.8","11","0.35","trustrating_stim/white_mw089.bmp","4","146","25"
"html-keyboard-response","210","294753","0.0-19.0-2.24","63f791692fa22034babcdda1","bdp_trlrn","Tue Mar 14 2023 13:59:51 GMT-0400 (Eastern Daylight Time)","492701","Untrustworthy,Trustworthy","","null","","","","decisionFB","","<div class='trialDiv'><img src='trustrating_stim/white_mw089.bmp'><br><font class='baseline'><strong>Marcus</strong><p>Choose number of points to send.</font><div class='respPicDiv'><img src='img/responseButtonOffersNo0L3.png' class='respPic'></div></div>","null","9","Marcus","3","Kept","0.35,0.8","11","0.35","trustrating_stim/white_mw089.bmp","4","143","25"
"html-keyboard-response","211","295755","0.0-19.0-3.24","63f791692fa22034babcdda1","bdp_trlrn","Tue Mar 14 2023 13:59:51 GMT-0400 (Eastern Daylight Time)","492701","Untrustworthy,Trustworthy","","null","","","","feedback","","<div class='trialDiv'><img src='trustrating_stim/white_mw089.bmp'><br><font class='baseline'><strong>Marcus</strong><p>Received: <strong>12</strong></font> &nbsp; &nbsp; &nbsp; &nbsp; &nbsp; &nbsp;<font class='negOutcome'>Shared back: <strong>0</strong></font></font><div class='respPicDiv'><img src='img/responseButtonOffersNo0_wht.png' class='respPic'></div></div>","null","9","Marcus","3","Kept","0.35,0.8","11","0.35","trustrating_stim/white_mw089.bmp","4","143","25"
"html-keyboard-response","212","295996","0.0-19.0-1.25","63f791692fa22034babcdda1","bdp_trlrn","Tue Mar 14 2023 13:59:51 GMT-0400 (Eastern Daylight Time)","492701","Untrustworthy,Trustworthy","","240","","","","decision","","<div class='trialDiv'><img src='trustrating_stim/white_00299_940422_fa_edt.bmp'><br><font class='baseline'><strong>Matthew</strong><p>Choose number of points to send.</font><div class='respPicDiv'><img src='img/responseButtonOffersNo0L.png' class='respPic'></div></div>","1","9","Matthew","8","Shared","0.65,0.35","11","0.65","trustrating_stim/white_00299_940422_fa_edt.bmp","7.5","148","26"
"html-keyboard-response","213","296248","0.0-19.0-2.25","63f791692fa22034babcdda1","bdp_trlrn","Tue Mar 14 2023 13:59:51 GMT-0400 (Eastern Daylight Time)","492701","Untrustworthy,Trustworthy","","null","","","","decisionFB","","<div class='trialDiv'><img src='trustrating_stim/white_00299_940422_fa_edt.bmp'><br><font class='baseline'><strong>Matthew</strong><p>Choose number of points to send.</font><div class='respPicDiv'><img src='img/responseButtonOffersNo0L1.png' class='respPic'></div></div>","null","9","Matthew","8","Shared","0.65,0.35","11","0.65","trustrating_stim/white_00299_940422_fa_edt.bmp","7.5","147","26"
"html-keyboard-response","214","297250","0.0-19.0-3.25","63f791692fa22034babcdda1","bdp_trlrn","Tue Mar 14 2023 13:59:51 GMT-0400 (Eastern Daylight Time)","492701","Untrustworthy,Trustworthy","","null","","","","feedback","","<div class='trialDiv'><img src='trustrating_stim/white_00299_940422_fa_edt.bmp'><br><font class='baseline'><strong>Matthew</strong><p>Received: <strong>4</strong></font> &nbsp; &nbsp; &nbsp; &nbsp; &nbsp; &nbsp;<font class='posOutcome'>Shared back: <strong>2</strong></font></font><div class='respPicDiv'><img src='img/responseButtonOffersNo0_wht.png' class='respPic'></div></div>","null","9","Matthew","8","Shared","0.65,0.35","11","0.65","trustrating_stim/white_00299_940422_fa_edt.bmp","7.5","149","26"
"html-keyboard-response","215","297516","0.0-19.0-1.26","63f791692fa22034babcdda1","bdp_trlrn","Tue Mar 14 2023 13:59:51 GMT-0400 (Eastern Daylight Time)","492701","Untrustworthy,Trustworthy","","265","","","","decision","","<div class='trialDiv'><img src='trustrating_stim/white_00761_941201_fb_edt.bmp'><br><font class='baseline'><strong>Evan</strong><p>Choose number of points to send.</font><div class='respPicDiv'><img src='img/responseButtonOffersNo0L.png' class='respPic'></div></div>","5","9","Evan","5","Shared","0.65,0.2","13","0.65","trustrating_stim/white_00761_941201_fb_edt.bmp","5.5","154","27"
"html-keyboard-response","216","297768","0.0-19.0-2.26","63f791692fa22034babcdda1","bdp_trlrn","Tue Mar 14 2023 13:59:51 GMT-0400 (Eastern Daylight Time)","492701","Untrustworthy,Trustworthy","","null","","","","decisionFB","","<div class='trialDiv'><img src='trustrating_stim/white_00761_941201_fb_edt.bmp'><br><font class='baseline'><strong>Evan</strong><p>Choose number of points to send.</font><div class='respPicDiv'><img src='img/responseButtonOffersNo0L5.png' class='respPic'></div></div>","null","9","Evan","5","Shared","0.65,0.2","13","0.65","trustrating_stim/white_00761_941201_fb_edt.bmp","5.5","149","27"
"html-keyboard-response","217","298770","0.0-19.0-3.26","63f791692fa22034babcdda1","bdp_trlrn","Tue Mar 14 2023 13:59:51 GMT-0400 (Eastern Daylight Time)","492701","Untrustworthy,Trustworthy","","null","","","","feedback","","<div class='trialDiv'><img src='trustrating_stim/white_00761_941201_fb_edt.bmp'><br><font class='baseline'><strong>Evan</strong><p>Received: <strong>20</strong></font> &nbsp; &nbsp; &nbsp; &nbsp; &nbsp; &nbsp;<font class='posOutcome'>Shared back: <strong>10</strong></font></font><div class='respPicDiv'><img src='img/responseButtonOffersNo0_wht.png' class='respPic'></div></div>","null","9","Evan","5","Shared","0.65,0.2","13","0.65","trustrating_stim/white_00761_941201_fb_edt.bmp","5.5","159","27"
"html-keyboard-response","218","300028","0.0-19.0-1.27","63f791692fa22034babcdda1","bdp_trlrn","Tue Mar 14 2023 13:59:51 GMT-0400 (Eastern Daylight Time)","492701","Untrustworthy,Trustworthy","","1257","","","","decision","","<div class='trialDiv'><img src='trustrating_stim/white_00299_940422_fa_edt.bmp'><br><font class='baseline'><strong>Matthew</strong><p>Choose number of points to send.</font><div class='respPicDiv'><img src='img/responseButtonOffersNo0L.png' class='respPic'></div></div>","2","10","Matthew","8","Shared","0.65,0.35","11","0.65","trustrating_stim/white_00299_940422_fa_edt.bmp","7.5","164","28"
"html-keyboard-response","219","300280","0.0-19.0-2.27","63f791692fa22034babcdda1","bdp_trlrn","Tue Mar 14 2023 13:59:51 GMT-0400 (Eastern Daylight Time)","492701","Untrustworthy,Trustworthy","","null","","","","decisionFB","","<div class='trialDiv'><img src='trustrating_stim/white_00299_940422_fa_edt.bmp'><br><font class='baseline'><strong>Matthew</strong><p>Choose number of points to send.</font><div class='respPicDiv'><img src='img/responseButtonOffersNo0L2.png' class='respPic'></div></div>","null","10","Matthew","8","Shared","0.65,0.35","11","0.65","trustrating_stim/white_00299_940422_fa_edt.bmp","7.5","162","28"
