"trial_type","trial_index","time_elapsed","internal_node_id","subject_id","task","startTime","totalTime","labels","view_history","rt","event","trial","time","trialtype","success","stimulus","key_press","aground","name","faceID","outcome","agenttype","agentswpt","agentcurrpshare","face","avgRating","point_total","round"
"pavlovia","0","12","0.0-0.0","63eaa9f8f0637c961dcfc277","bdp_trlrn","Tue Mar 14 2023 15:29:48 GMT-1000 (Hawaii-Aleutian Standard Time)","774496","Trustworthy,Untrustworthy","","","","","","","","","","","","","","","","","","","",""
"instructions","1","5275","0.0-1.0","63eaa9f8f0637c961dcfc277","bdp_trlrn","Tue Mar 14 2023 15:29:48 GMT-1000 (Hawaii-Aleutian Standard Time)","774496","Trustworthy,Untrustworthy","[{""page_index"":0,""viewing_time"":5261}]","5261","","","","","","","","","","","","","","","","","",""
"","","","","63eaa9f8f0637c961dcfc277","bdp_trlrn","Tue Mar 14 2023 15:29:48 GMT-1000 (Hawaii-Aleutian Standard Time)","774496","Trustworthy,Untrustworthy","","","fullscreenenter","2","9502","fullscreenenter","","","","","","","","","","","","","",""
"fullscreen","2","10409","0.0-2.0","63eaa9f8f0637c961dcfc277","bdp_trlrn","Tue Mar 14 2023 15:29:48 GMT-1000 (Hawaii-Aleutian Standard Time)","774496","Trustworthy,Untrustworthy","","","","","","","true","","","","","","","","","","","","",""
"instructions","3","28538","0.0-4.0","63eaa9f8f0637c961dcfc277","bdp_trlrn","Tue Mar 14 2023 15:29:48 GMT-1000 (Hawaii-Aleutian Standard Time)","774496","Trustworthy,Untrustworthy","[{""page_index"":0,""viewing_time"":11025},{""page_index"":1,""viewing_time"":7101}]","18127","","","","","","","","","","","","","","","","","",""
"instructions","4","30989","0.0-5.0","63eaa9f8f0637c961dcfc277","bdp_trlrn","Tue Mar 14 2023 15:29:48 GMT-1000 (Hawaii-Aleutian Standard Time)","774496","Trustworthy,Untrustworthy","[{""page_index"":0,""viewing_time"":2450}]","2450","","","","","","","","","","","","","","","","","",""
"image-keyboard-response","5","39515","0.0-6.0-1.0","63eaa9f8f0637c961dcfc277","bdp_trlrn","Tue Mar 14 2023 15:29:48 GMT-1000 (Hawaii-Aleutian Standard Time)","774496","Trustworthy,Untrustworthy","","8410","","","","rating","","trustrating_stim/white_mw099.bmp","5","","","","","","","","","","",""
"image-keyboard-response","6","39726","0.0-6.0-2.0","63eaa9f8f0637c961dcfc277","bdp_trlrn","Tue Mar 14 2023 15:29:48 GMT-1000 (Hawaii-Aleutian Standard Time)","774496","Trustworthy,Untrustworthy","","null","","","","ratingFB","","trustrating_stim/white_mw099.bmp","null","","","","","","","","","","",""
"image-keyboard-response","7","42185","0.0-6.0-1.1","63eaa9f8f0637c961dcfc277","bdp_trlrn","Tue Mar 14 2023 15:29:48 GMT-1000 (Hawaii-Aleutian Standard Time)","774496","Trustworthy,Untrustworthy","","2349","","","","rating","","trustrating_stim/white_mw033.bmp","4","","","","","","","","","","",""
"image-keyboard-response","8","42391","0.0-6.0-2.1","63eaa9f8f0637c961dcfc277","bdp_trlrn","Tue Mar 14 2023 15:29:48 GMT-1000 (Hawaii-Aleutian Standard Time)","774496","Trustworthy,Untrustworthy","","null","","","","ratingFB","","trustrating_stim/white_mw033.bmp","null","","","","","","","","","","",""
"image-keyboard-response","9","46374","0.0-6.0-1.2","63eaa9f8f0637c961dcfc277","bdp_trlrn","Tue Mar 14 2023 15:29:48 GMT-1000 (Hawaii-Aleutian Standard Time)","774496","Trustworthy,Untrustworthy","","3873","","","","rating","","trustrating_stim/white_mw048.bmp","4","","","","","","","","","","",""
"image-keyboard-response","10","46580","0.0-6.0-2.2","63eaa9f8f0637c961dcfc277","bdp_trlrn","Tue Mar 14 2023 15:29:48 GMT-1000 (Hawaii-Aleutian Standard Time)","774496","Trustworthy,Untrustworthy","","null","","","","ratingFB","","trustrating_stim/white_mw048.bmp","null","","","","","","","","","","",""
"image-keyboard-response","11","49048","0.0-6.0-1.3","63eaa9f8f0637c961dcfc277","bdp_trlrn","Tue Mar 14 2023 15:29:48 GMT-1000 (Hawaii-Aleutian Standard Time)","774496","Trustworthy,Untrustworthy","","2363","","","","rating","","trustrating_stim/white_mw056.bmp","5","","","","","","","","","","",""
"image-keyboard-response","12","49264","0.0-6.0-2.3","63eaa9f8f0637c961dcfc277","bdp_trlrn","Tue Mar 14 2023 15:29:48 GMT-1000 (Hawaii-Aleutian Standard Time)","774496","Trustworthy,Untrustworthy","","null","","","","ratingFB","","trustrating_stim/white_mw056.bmp","null","","","","","","","","","","",""
"image-keyboard-response","13","53185","0.0-6.0-1.4","63eaa9f8f0637c961dcfc277","bdp_trlrn","Tue Mar 14 2023 15:29:48 GMT-1000 (Hawaii-Aleutian Standard Time)","774496","Trustworthy,Untrustworthy","","3802","","","","rating","","trustrating_stim/white_00807_941205_fb_edt.bmp","3","","","","","","","","","","",""
"image-keyboard-response","14","53396","0.0-6.0-2.4","63eaa9f8f0637c961dcfc277","bdp_trlrn","Tue Mar 14 2023 15:29:48 GMT-1000 (Hawaii-Aleutian Standard Time)","774496","Trustworthy,Untrustworthy","","null","","","","ratingFB","","trustrating_stim/white_00807_941205_fb_edt.bmp","null","","","","","","","","","","",""
"image-keyboard-response","15","56223","0.0-6.0-1.5","63eaa9f8f0637c961dcfc277","bdp_trlrn","Tue Mar 14 2023 15:29:48 GMT-1000 (Hawaii-Aleutian Standard Time)","774496","Trustworthy,Untrustworthy","","2725","","","","rating","","trustrating_stim/white_00120_931230_fa_edt.bmp","5","","","","","","","","","","",""
"image-keyboard-response","16","56427","0.0-6.0-2.5","63eaa9f8f0637c961dcfc277","bdp_trlrn","Tue Mar 14 2023 15:29:48 GMT-1000 (Hawaii-Aleutian Standard Time)","774496","Trustworthy,Untrustworthy","","null","","","","ratingFB","","trustrating_stim/white_00120_931230_fa_edt.bmp","null","","","","","","","","","","",""
"image-keyboard-response","17","57880","0.0-6.0-1.6","63eaa9f8f0637c961dcfc277","bdp_trlrn","Tue Mar 14 2023 15:29:48 GMT-1000 (Hawaii-Aleutian Standard Time)","774496","Trustworthy,Untrustworthy","","1347","","","","rating","","trustrating_stim/white_00223_940128_fb_edt.bmp","6","","","","","","","","","","",""
"image-keyboard-response","18","58097","0.0-6.0-2.6","63eaa9f8f0637c961dcfc277","bdp_trlrn","Tue Mar 14 2023 15:29:48 GMT-1000 (Hawaii-Aleutian Standard Time)","774496","Trustworthy,Untrustworthy","","null","","","","ratingFB","","trustrating_stim/white_00223_940128_fb_edt.bmp","null","","","","","","","","","","",""
"image-keyboard-response","19","59803","0.0-6.0-1.7","63eaa9f8f0637c961dcfc277","bdp_trlrn","Tue Mar 14 2023 15:29:48 GMT-1000 (Hawaii-Aleutian Standard Time)","774496","Trustworthy,Untrustworthy","","1589","","","","rating","","trustrating_stim/white_00129_931230_fb_edt.bmp","4","","","","","","","","","","",""
"image-keyboard-response","20","60019","0.0-6.0-2.7","63eaa9f8f0637c961dcfc277","bdp_trlrn","Tue Mar 14 2023 15:29:48 GMT-1000 (Hawaii-Aleutian Standard Time)","774496","Trustworthy,Untrustworthy","","null","","","","ratingFB","","trustrating_stim/white_00129_931230_fb_edt.bmp","null","","","","","","","","","","",""
"image-keyboard-response","21","63112","0.0-6.0-1.8","63eaa9f8f0637c961dcfc277","bdp_trlrn","Tue Mar 14 2023 15:29:48 GMT-1000 (Hawaii-Aleutian Standard Time)","774496","Trustworthy,Untrustworthy","","2978","","","","rating","","trustrating_stim/white_00761_941201_fb_edt.bmp","2","","","","","","","","","","",""
"image-keyboard-response","22","63326","0.0-6.0-2.8","63eaa9f8f0637c961dcfc277","bdp_trlrn","Tue Mar 14 2023 15:29:48 GMT-1000 (Hawaii-Aleutian Standard Time)","774496","Trustworthy,Untrustworthy","","null","","","","ratingFB","","trustrating_stim/white_00761_941201_fb_edt.bmp","null","","","","","","","","","","",""
"image-keyboard-response","23","65509","0.0-6.0-1.9","63eaa9f8f0637c961dcfc277","bdp_trlrn","Tue Mar 14 2023 15:29:48 GMT-1000 (Hawaii-Aleutian Standard Time)","774496","Trustworthy,Untrustworthy","","2078","","","","rating","","trustrating_stim/white_00602_940928_fb_edt.bmp","3","","","","","","","","","","",""
"image-keyboard-response","24","65712","0.0-6.0-2.9","63eaa9f8f0637c961dcfc277","bdp_trlrn","Tue Mar 14 2023 15:29:48 GMT-1000 (Hawaii-Aleutian Standard Time)","774496","Trustworthy,Untrustworthy","","null","","","","ratingFB","","trustrating_stim/white_00602_940928_fb_edt.bmp","null","","","","","","","","","","",""
"image-keyboard-response","25","67697","0.0-6.0-1.10","63eaa9f8f0637c961dcfc277","bdp_trlrn","Tue Mar 14 2023 15:29:48 GMT-1000 (Hawaii-Aleutian Standard Time)","774496","Trustworthy,Untrustworthy","","1877","","","","rating","","trustrating_stim/white_mw035.bmp","5","","","","","","","","","","",""
"image-keyboard-response","26","67912","0.0-6.0-2.10","63eaa9f8f0637c961dcfc277","bdp_trlrn","Tue Mar 14 2023 15:29:48 GMT-1000 (Hawaii-Aleutian Standard Time)","774496","Trustworthy,Untrustworthy","","null","","","","ratingFB","","trustrating_stim/white_mw035.bmp","null","","","","","","","","","","",""
"image-keyboard-response","27","69538","0.0-6.0-1.11","63eaa9f8f0637c961dcfc277","bdp_trlrn","Tue Mar 14 2023 15:29:48 GMT-1000 (Hawaii-Aleutian Standard Time)","774496","Trustworthy,Untrustworthy","","1523","","","","rating","","trustrating_stim/white_00898_960530_fa_edt.bmp","4","","","","","","","","","","",""
"image-keyboard-response","28","69751","0.0-6.0-2.11","63eaa9f8f0637c961dcfc277","bdp_trlrn","Tue Mar 14 2023 15:29:48 GMT-1000 (Hawaii-Aleutian Standard Time)","774496","Trustworthy,Untrustworthy","","null","","","","ratingFB","","trustrating_stim/white_00898_960530_fa_edt.bmp","null","","","","","","","","","","",""
"image-keyboard-response","29","71396","0.0-6.0-1.12","63eaa9f8f0637c961dcfc277","bdp_trlrn","Tue Mar 14 2023 15:29:48 GMT-1000 (Hawaii-Aleutian Standard Time)","774496","Trustworthy,Untrustworthy","","1530","","","","rating","","trustrating_stim/white_mw046.bmp","6","","","","","","","","","","",""
"image-keyboard-response","30","71597","0.0-6.0-2.12","63eaa9f8f0637c961dcfc277","bdp_trlrn","Tue Mar 14 2023 15:29:48 GMT-1000 (Hawaii-Aleutian Standard Time)","774496","Trustworthy,Untrustworthy","","null","","","","ratingFB","","trustrating_stim/white_mw046.bmp","null","","","","","","","","","","",""
"image-keyboard-response","31","74558","0.0-6.0-1.13","63eaa9f8f0637c961dcfc277","bdp_trlrn","Tue Mar 14 2023 15:29:48 GMT-1000 (Hawaii-Aleutian Standard Time)","774496","Trustworthy,Untrustworthy","","2844","","","","rating","","trustrating_stim/white_00577_940928_fa_edt.bmp","7","","","","","","","","","","",""
"image-keyboard-response","32","74769","0.0-6.0-2.13","63eaa9f8f0637c961dcfc277","bdp_trlrn","Tue Mar 14 2023 15:29:48 GMT-1000 (Hawaii-Aleutian Standard Time)","774496","Trustworthy,Untrustworthy","","null","","","","ratingFB","","trustrating_stim/white_00577_940928_fa_edt.bmp","null","","","","","","","","","","",""
"image-keyboard-response","33","77384","0.0-6.0-1.14","63eaa9f8f0637c961dcfc277","bdp_trlrn","Tue Mar 14 2023 15:29:48 GMT-1000 (Hawaii-Aleutian Standard Time)","774496","Trustworthy,Untrustworthy","","2503","","","","rating","","trustrating_stim/white_mw066.bmp","4","","","","","","","","","","",""
"image-keyboard-response","34","77596","0.0-6.0-2.14","63eaa9f8f0637c961dcfc277","bdp_trlrn","Tue Mar 14 2023 15:29:48 GMT-1000 (Hawaii-Aleutian Standard Time)","774496","Trustworthy,Untrustworthy","","null","","","","ratingFB","","trustrating_stim/white_mw066.bmp","null","","","","","","","","","","",""
"image-keyboard-response","35","79620","0.0-6.0-1.15","63eaa9f8f0637c961dcfc277","bdp_trlrn","Tue Mar 14 2023 15:29:48 GMT-1000 (Hawaii-Aleutian Standard Time)","774496","Trustworthy,Untrustworthy","","1910","","","","rating","","trustrating_stim/white_00757_941201_fa_edt.bmp","7","","","","","","","","","","",""
"image-keyboard-response","36","79827","0.0-6.0-2.15","63eaa9f8f0637c961dcfc277","bdp_trlrn","Tue Mar 14 2023 15:29:48 GMT-1000 (Hawaii-Aleutian Standard Time)","774496","Trustworthy,Untrustworthy","","null","","","","ratingFB","","trustrating_stim/white_00757_941201_fa_edt.bmp","null","","","","","","","","","","",""
"image-keyboard-response","37","81897","0.0-6.0-1.16","63eaa9f8f0637c961dcfc277","bdp_trlrn","Tue Mar 14 2023 15:29:48 GMT-1000 (Hawaii-Aleutian Standard Time)","774496","Trustworthy,Untrustworthy","","1966","","","","rating","","trustrating_stim/white_mw089.bmp","5","","","","","","","","","","",""
"image-keyboard-response","38","82115","0.0-6.0-2.16","63eaa9f8f0637c961dcfc277","bdp_trlrn","Tue Mar 14 2023 15:29:48 GMT-1000 (Hawaii-Aleutian Standard Time)","774496","Trustworthy,Untrustworthy","","null","","","","ratingFB","","trustrating_stim/white_mw089.bmp","null","","","","","","","","","","",""
"image-keyboard-response","39","85649","0.0-6.0-1.17","63eaa9f8f0637c961dcfc277","bdp_trlrn","Tue Mar 14 2023 15:29:48 GMT-1000 (Hawaii-Aleutian Standard Time)","774496","Trustworthy,Untrustworthy","","3426","","","","rating","","trustrating_stim/white_mw071.bmp","6","","","","","","","","","","",""
"image-keyboard-response","40","85858","0.0-6.0-2.17","63eaa9f8f0637c961dcfc277","bdp_trlrn","Tue Mar 14 2023 15:29:48 GMT-1000 (Hawaii-Aleutian Standard Time)","774496","Trustworthy,Untrustworthy","","null","","","","ratingFB","","trustrating_stim/white_mw071.bmp","null","","","","","","","","","","",""
"image-keyboard-response","41","87989","0.0-6.0-1.18","63eaa9f8f0637c961dcfc277","bdp_trlrn","Tue Mar 14 2023 15:29:48 GMT-1000 (Hawaii-Aleutian Standard Time)","774496","Trustworthy,Untrustworthy","","2027","","","","rating","","trustrating_stim/white_00519_940519_fb_edt.bmp","2","","","","","","","","","","",""
"image-keyboard-response","42","88191","0.0-6.0-2.18","63eaa9f8f0637c961dcfc277","bdp_trlrn","Tue Mar 14 2023 15:29:48 GMT-1000 (Hawaii-Aleutian Standard Time)","774496","Trustworthy,Untrustworthy","","null","","","","ratingFB","","trustrating_stim/white_00519_940519_fb_edt.bmp","null","","","","","","","","","","",""
"image-keyboard-response","43","90101","0.0-6.0-1.19","63eaa9f8f0637c961dcfc277","bdp_trlrn","Tue Mar 14 2023 15:29:48 GMT-1000 (Hawaii-Aleutian Standard Time)","774496","Trustworthy,Untrustworthy","","1807","","","","rating","","trustrating_stim/white_00109_931230_fa_edt.bmp","4","","","","","","","","","","",""
"image-keyboard-response","44","90318","0.0-6.0-2.19","63eaa9f8f0637c961dcfc277","bdp_trlrn","Tue Mar 14 2023 15:29:48 GMT-1000 (Hawaii-Aleutian Standard Time)","774496","Trustworthy,Untrustworthy","","null","","","","ratingFB","","trustrating_stim/white_00109_931230_fa_edt.bmp","null","","","","","","","","","","",""
"image-keyboard-response","45","93461","0.0-6.0-1.20","63eaa9f8f0637c961dcfc277","bdp_trlrn","Tue Mar 14 2023 15:29:48 GMT-1000 (Hawaii-Aleutian Standard Time)","774496","Trustworthy,Untrustworthy","","3039","","","","rating","","trustrating_stim/white_mw063.bmp","6","","","","","","","","","","",""
"image-keyboard-response","46","93673","0.0-6.0-2.20","63eaa9f8f0637c961dcfc277","bdp_trlrn","Tue Mar 14 2023 15:29:48 GMT-1000 (Hawaii-Aleutian Standard Time)","774496","Trustworthy,Untrustworthy","","null","","","","ratingFB","","trustrating_stim/white_mw063.bmp","null","","","","","","","","","","",""
"image-keyboard-response","47","96556","0.0-6.0-1.21","63eaa9f8f0637c961dcfc277","bdp_trlrn","Tue Mar 14 2023 15:29:48 GMT-1000 (Hawaii-Aleutian Standard Time)","774496","Trustworthy,Untrustworthy","","2777","","","","rating","","trustrating_stim/white_00785_941205_fb_edt.bmp","4","","","","","","","","","","",""
"image-keyboard-response","48","96761","0.0-6.0-2.21","63eaa9f8f0637c961dcfc277","bdp_trlrn","Tue Mar 14 2023 15:29:48 GMT-1000 (Hawaii-Aleutian Standard Time)","774496","Trustworthy,Untrustworthy","","null","","","","ratingFB","","trustrating_stim/white_00785_941205_fb_edt.bmp","null","","","","","","","","","","",""
"image-keyboard-response","49","98590","0.0-6.0-1.22","63eaa9f8f0637c961dcfc277","bdp_trlrn","Tue Mar 14 2023 15:29:48 GMT-1000 (Hawaii-Aleutian Standard Time)","774496","Trustworthy,Untrustworthy","","1711","","","","rating","","trustrating_stim/white_00340_940422_fa_edt.bmp","7","","","","","","","","","","",""
"image-keyboard-response","50","98794","0.0-6.0-2.22","63eaa9f8f0637c961dcfc277","bdp_trlrn","Tue Mar 14 2023 15:29:48 GMT-1000 (Hawaii-Aleutian Standard Time)","774496","Trustworthy,Untrustworthy","","null","","","","ratingFB","","trustrating_stim/white_00340_940422_fa_edt.bmp","null","","","","","","","","","","",""
"image-keyboard-response","51","104691","0.0-6.0-1.23","63eaa9f8f0637c961dcfc277","bdp_trlrn","Tue Mar 14 2023 15:29:48 GMT-1000 (Hawaii-Aleutian Standard Time)","774496","Trustworthy,Untrustworthy","","5779","","","","rating","","trustrating_stim/white_mw097.bmp","6","","","","","","","","","","",""
"image-keyboard-response","52","104907","0.0-6.0-2.23","63eaa9f8f0637c961dcfc277","bdp_trlrn","Tue Mar 14 2023 15:29:48 GMT-1000 (Hawaii-Aleutian Standard Time)","774496","Trustworthy,Untrustworthy","","null","","","","ratingFB","","trustrating_stim/white_mw097.bmp","null","","","","","","","","","","",""
"image-keyboard-response","53","106699","0.0-6.0-1.24","63eaa9f8f0637c961dcfc277","bdp_trlrn","Tue Mar 14 2023 15:29:48 GMT-1000 (Hawaii-Aleutian Standard Time)","774496","Trustworthy,Untrustworthy","","1675","","","","rating","","trustrating_stim/white_mw060.bmp","6","","","","","","","","","","",""
"image-keyboard-response","54","106907","0.0-6.0-2.24","63eaa9f8f0637c961dcfc277","bdp_trlrn","Tue Mar 14 2023 15:29:48 GMT-1000 (Hawaii-Aleutian Standard Time)","774496","Trustworthy,Untrustworthy","","null","","","","ratingFB","","trustrating_stim/white_mw060.bmp","null","","","","","","","","","","",""
"image-keyboard-response","55","108689","0.0-6.0-1.25","63eaa9f8f0637c961dcfc277","bdp_trlrn","Tue Mar 14 2023 15:29:48 GMT-1000 (Hawaii-Aleutian Standard Time)","774496","Trustworthy,Untrustworthy","","1663","","","","rating","","trustrating_stim/white_mw053.bmp","4","","","","","","","","","","",""
"image-keyboard-response","56","108903","0.0-6.0-2.25","63eaa9f8f0637c961dcfc277","bdp_trlrn","Tue Mar 14 2023 15:29:48 GMT-1000 (Hawaii-Aleutian Standard Time)","774496","Trustworthy,Untrustworthy","","null","","","","ratingFB","","trustrating_stim/white_mw053.bmp","null","","","","","","","","","","",""
"image-keyboard-response","57","111809","0.0-6.0-1.26","63eaa9f8f0637c961dcfc277","bdp_trlrn","Tue Mar 14 2023 15:29:48 GMT-1000 (Hawaii-Aleutian Standard Time)","774496","Trustworthy,Untrustworthy","","2798","","","","rating","","trustrating_stim/white_mw049.bmp","3","","","","","","","","","","",""
"image-keyboard-response","58","112013","0.0-6.0-2.26","63eaa9f8f0637c961dcfc277","bdp_trlrn","Tue Mar 14 2023 15:29:48 GMT-1000 (Hawaii-Aleutian Standard Time)","774496","Trustworthy,Untrustworthy","","null","","","","ratingFB","","trustrating_stim/white_mw049.bmp","null","","","","","","","","","","",""
"image-keyboard-response","59","113670","0.0-6.0-1.27","63eaa9f8f0637c961dcfc277","bdp_trlrn","Tue Mar 14 2023 15:29:48 GMT-1000 (Hawaii-Aleutian Standard Time)","774496","Trustworthy,Untrustworthy","","1544","","","","rating","","trustrating_stim/white_mw084.bmp","4","","","","","","","","","","",""
"image-keyboard-response","60","113885","0.0-6.0-2.27","63eaa9f8f0637c961dcfc277","bdp_trlrn","Tue Mar 14 2023 15:29:48 GMT-1000 (Hawaii-Aleutian Standard Time)","774496","Trustworthy,Untrustworthy","","null","","","","ratingFB","","trustrating_stim/white_mw084.bmp","null","","","","","","","","","","",""
"image-keyboard-response","61","116180","0.0-6.0-1.28","63eaa9f8f0637c961dcfc277","bdp_trlrn","Tue Mar 14 2023 15:29:48 GMT-1000 (Hawaii-Aleutian Standard Time)","774496","Trustworthy,Untrustworthy","","2178","","","","rating","","trustrating_stim/white_00299_940422_fa_edt.bmp","6","","","","","","","","","","",""
"image-keyboard-response","62","116396","0.0-6.0-2.28","63eaa9f8f0637c961dcfc277","bdp_trlrn","Tue Mar 14 2023 15:29:48 GMT-1000 (Hawaii-Aleutian Standard Time)","774496","Trustworthy,Untrustworthy","","null","","","","ratingFB","","trustrating_stim/white_00299_940422_fa_edt.bmp","null","","","","","","","","","","",""
"image-keyboard-response","63","118338","0.0-6.0-1.29","63eaa9f8f0637c961dcfc277","bdp_trlrn","Tue Mar 14 2023 15:29:48 GMT-1000 (Hawaii-Aleutian Standard Time)","774496","Trustworthy,Untrustworthy","","1828","","","","rating","","trustrating_stim/white_00659_941121_fa_edt.bmp","7","","","","","","","","","","",""
"image-keyboard-response","64","118553","0.0-6.0-2.29","63eaa9f8f0637c961dcfc277","bdp_trlrn","Tue Mar 14 2023 15:29:48 GMT-1000 (Hawaii-Aleutian Standard Time)","774496","Trustworthy,Untrustworthy","","null","","","","ratingFB","","trustrating_stim/white_00659_941121_fa_edt.bmp","null","","","","","","","","","","",""
"image-keyboard-response","65","120183","0.0-6.0-1.30","63eaa9f8f0637c961dcfc277","bdp_trlrn","Tue Mar 14 2023 15:29:48 GMT-1000 (Hawaii-Aleutian Standard Time)","774496","Trustworthy,Untrustworthy","","1524","","","","rating","","trustrating_stim/white_00129_931230_fb_edt.bmp","4","","","","","","","","","","",""
"image-keyboard-response","66","120388","0.0-6.0-2.30","63eaa9f8f0637c961dcfc277","bdp_trlrn","Tue Mar 14 2023 15:29:48 GMT-1000 (Hawaii-Aleutian Standard Time)","774496","Trustworthy,Untrustworthy","","null","","","","ratingFB","","trustrating_stim/white_00129_931230_fb_edt.bmp","null","","","","","","","","","","",""
"image-keyboard-response","67","123484","0.0-6.0-1.31","63eaa9f8f0637c961dcfc277","bdp_trlrn","Tue Mar 14 2023 15:29:48 GMT-1000 (Hawaii-Aleutian Standard Time)","774496","Trustworthy,Untrustworthy","","2992","","","","rating","","trustrating_stim/white_mw060.bmp","6","","","","","","","","","","",""
"image-keyboard-response","68","123695","0.0-6.0-2.31","63eaa9f8f0637c961dcfc277","bdp_trlrn","Tue Mar 14 2023 15:29:48 GMT-1000 (Hawaii-Aleutian Standard Time)","774496","Trustworthy,Untrustworthy","","null","","","","ratingFB","","trustrating_stim/white_mw060.bmp","null","","","","","","","","","","",""
"image-keyboard-response","69","126379","0.0-6.0-1.32","63eaa9f8f0637c961dcfc277","bdp_trlrn","Tue Mar 14 2023 15:29:48 GMT-1000 (Hawaii-Aleutian Standard Time)","774496","Trustworthy,Untrustworthy","","2566","","","","rating","","trustrating_stim/white_00577_940928_fa_edt.bmp","7","","","","","","","","","","",""
"image-keyboard-response","70","126582","0.0-6.0-2.32","63eaa9f8f0637c961dcfc277","bdp_trlrn","Tue Mar 14 2023 15:29:48 GMT-1000 (Hawaii-Aleutian Standard Time)","774496","Trustworthy,Untrustworthy","","null","","","","ratingFB","","trustrating_stim/white_00577_940928_fa_edt.bmp","null","","","","","","","","","","",""
"image-keyboard-response","71","128714","0.0-6.0-1.33","63eaa9f8f0637c961dcfc277","bdp_trlrn","Tue Mar 14 2023 15:29:48 GMT-1000 (Hawaii-Aleutian Standard Time)","774496","Trustworthy,Untrustworthy","","2022","","","","rating","","trustrating_stim/white_mw063.bmp","6","","","","","","","","","","",""
"image-keyboard-response","72","128920","0.0-6.0-2.33","63eaa9f8f0637c961dcfc277","bdp_trlrn","Tue Mar 14 2023 15:29:48 GMT-1000 (Hawaii-Aleutian Standard Time)","774496","Trustworthy,Untrustworthy","","null","","","","ratingFB","","trustrating_stim/white_mw063.bmp","null","","","","","","","","","","",""
"image-keyboard-response","73","130868","0.0-6.0-1.34","63eaa9f8f0637c961dcfc277","bdp_trlrn","Tue Mar 14 2023 15:29:48 GMT-1000 (Hawaii-Aleutian Standard Time)","774496","Trustworthy,Untrustworthy","","1835","","","","rating","","trustrating_stim/white_mw089.bmp","4","","","","","","","","","","",""
"image-keyboard-response","74","131086","0.0-6.0-2.34","63eaa9f8f0637c961dcfc277","bdp_trlrn","Tue Mar 14 2023 15:29:48 GMT-1000 (Hawaii-Aleutian Standard Time)","774496","Trustworthy,Untrustworthy","","null","","","","ratingFB","","trustrating_stim/white_mw089.bmp","null","","","","","","","","","","",""
"image-keyboard-response","75","133011","0.0-6.0-1.35","63eaa9f8f0637c961dcfc277","bdp_trlrn","Tue Mar 14 2023 15:29:48 GMT-1000 (Hawaii-Aleutian Standard Time)","774496","Trustworthy,Untrustworthy","","1812","","","","rating","","trustrating_stim/white_00340_940422_fa_edt.bmp","7","","","","","","","","","","",""
"image-keyboard-response","76","133223","0.0-6.0-2.35","63eaa9f8f0637c961dcfc277","bdp_trlrn","Tue Mar 14 2023 15:29:48 GMT-1000 (Hawaii-Aleutian Standard Time)","774496","Trustworthy,Untrustworthy","","null","","","","ratingFB","","trustrating_stim/white_00340_940422_fa_edt.bmp","null","","","","","","","","","","",""
"image-keyboard-response","77","136257","0.0-6.0-1.36","63eaa9f8f0637c961dcfc277","bdp_trlrn","Tue Mar 14 2023 15:29:48 GMT-1000 (Hawaii-Aleutian Standard Time)","774496","Trustworthy,Untrustworthy","","2923","","","","rating","","trustrating_stim/white_00785_941205_fb_edt.bmp","6","","","","","","","","","","",""
"image-keyboard-response","78","136472","0.0-6.0-2.36","63eaa9f8f0637c961dcfc277","bdp_trlrn","Tue Mar 14 2023 15:29:48 GMT-1000 (Hawaii-Aleutian Standard Time)","774496","Trustworthy,Untrustworthy","","null","","","","ratingFB","","trustrating_stim/white_00785_941205_fb_edt.bmp","null","","","","","","","","","","",""
"image-keyboard-response","79","138642","0.0-6.0-1.37","63eaa9f8f0637c961dcfc277","bdp_trlrn","Tue Mar 14 2023 15:29:48 GMT-1000 (Hawaii-Aleutian Standard Time)","774496","Trustworthy,Untrustworthy","","2065","","","","rating","","trustrating_stim/white_00898_960530_fa_edt.bmp","4","","","","","","","","","","",""
"image-keyboard-response","80","138859","0.0-6.0-2.37","63eaa9f8f0637c961dcfc277","bdp_trlrn","Tue Mar 14 2023 15:29:48 GMT-1000 (Hawaii-Aleutian Standard Time)","774496","Trustworthy,Untrustworthy","","null","","","","ratingFB","","trustrating_stim/white_00898_960530_fa_edt.bmp","null","","","","","","","","","","",""
"image-keyboard-response","81","140297","0.0-6.0-1.38","63eaa9f8f0637c961dcfc277","bdp_trlrn","Tue Mar 14 2023 15:29:48 GMT-1000 (Hawaii-Aleutian Standard Time)","774496","Trustworthy,Untrustworthy","","1325","","","","rating","","trustrating_stim/white_00659_941121_fa_edt.bmp","7","","","","","","","","","","",""
"image-keyboard-response","82","140499","0.0-6.0-2.38","63eaa9f8f0637c961dcfc277","bdp_trlrn","Tue Mar 14 2023 15:29:48 GMT-1000 (Hawaii-Aleutian Standard Time)","774496","Trustworthy,Untrustworthy","","null","","","","ratingFB","","trustrating_stim/white_00659_941121_fa_edt.bmp","null","","","","","","","","","","",""
"image-keyboard-response","83","144835","0.0-6.0-1.39","63eaa9f8f0637c961dcfc277","bdp_trlrn","Tue Mar 14 2023 15:29:48 GMT-1000 (Hawaii-Aleutian Standard Time)","774496","Trustworthy,Untrustworthy","","4229","","","","rating","","trustrating_stim/white_00299_940422_fa_edt.bmp","6","","","","","","","","","","",""
"image-keyboard-response","84","145043","0.0-6.0-2.39","63eaa9f8f0637c961dcfc277","bdp_trlrn","Tue Mar 14 2023 15:29:48 GMT-1000 (Hawaii-Aleutian Standard Time)","774496","Trustworthy,Untrustworthy","","null","","","","ratingFB","","trustrating_stim/white_00299_940422_fa_edt.bmp","null","","","","","","","","","","",""
"image-keyboard-response","85","146755","0.0-6.0-1.40","63eaa9f8f0637c961dcfc277","bdp_trlrn","Tue Mar 14 2023 15:29:48 GMT-1000 (Hawaii-Aleutian Standard Time)","774496","Trustworthy,Untrustworthy","","1605","","","","rating","","trustrating_stim/white_00602_940928_fb_edt.bmp","4","","","","","","","","","","",""
"image-keyboard-response","86","146966","0.0-6.0-2.40","63eaa9f8f0637c961dcfc277","bdp_trlrn","Tue Mar 14 2023 15:29:48 GMT-1000 (Hawaii-Aleutian Standard Time)","774496","Trustworthy,Untrustworthy","","null","","","","ratingFB","","trustrating_stim/white_00602_940928_fb_edt.bmp","null","","","","","","","","","","",""
"image-keyboard-response","87","148455","0.0-6.0-1.41","63eaa9f8f0637c961dcfc277","bdp_trlrn","Tue Mar 14 2023 15:29:48 GMT-1000 (Hawaii-Aleutian Standard Time)","774496","Trustworthy,Untrustworthy","","1375","","","","rating","","trustrating_stim/white_mw049.bmp","3","","","","","","","","","","",""
"image-keyboard-response","88","148666","0.0-6.0-2.41","63eaa9f8f0637c961dcfc277","bdp_trlrn","Tue Mar 14 2023 15:29:48 GMT-1000 (Hawaii-Aleutian Standard Time)","774496","Trustworthy,Untrustworthy","","null","","","","ratingFB","","trustrating_stim/white_mw049.bmp","null","","","","","","","","","","",""
"image-keyboard-response","89","150024","0.0-6.0-1.42","63eaa9f8f0637c961dcfc277","bdp_trlrn","Tue Mar 14 2023 15:29:48 GMT-1000 (Hawaii-Aleutian Standard Time)","774496","Trustworthy,Untrustworthy","","1252","","","","rating","","trustrating_stim/white_00757_941201_fa_edt.bmp","7","","","","","","","","","","",""
"image-keyboard-response","90","150232","0.0-6.0-2.42","63eaa9f8f0637c961dcfc277","bdp_trlrn","Tue Mar 14 2023 15:29:48 GMT-1000 (Hawaii-Aleutian Standard Time)","774496","Trustworthy,Untrustworthy","","null","","","","ratingFB","","trustrating_stim/white_00757_941201_fa_edt.bmp","null","","","","","","","","","","",""
"image-keyboard-response","91","151927","0.0-6.0-1.43","63eaa9f8f0637c961dcfc277","bdp_trlrn","Tue Mar 14 2023 15:29:48 GMT-1000 (Hawaii-Aleutian Standard Time)","774496","Trustworthy,Untrustworthy","","1588","","","","rating","","trustrating_stim/white_mw033.bmp","6","","","","","","","","","","",""
"image-keyboard-response","92","152134","0.0-6.0-2.43","63eaa9f8f0637c961dcfc277","bdp_trlrn","Tue Mar 14 2023 15:29:48 GMT-1000 (Hawaii-Aleutian Standard Time)","774496","Trustworthy,Untrustworthy","","null","","","","ratingFB","","trustrating_stim/white_mw033.bmp","null","","","","","","","","","","",""
"image-keyboard-response","93","155099","0.0-6.0-1.44","63eaa9f8f0637c961dcfc277","bdp_trlrn","Tue Mar 14 2023 15:29:48 GMT-1000 (Hawaii-Aleutian Standard Time)","774496","Trustworthy,Untrustworthy","","2859","","","","rating","","trustrating_stim/white_00761_941201_fb_edt.bmp","2","","","","","","","","","","",""
"image-keyboard-response","94","155304","0.0-6.0-2.44","63eaa9f8f0637c961dcfc277","bdp_trlrn","Tue Mar 14 2023 15:29:48 GMT-1000 (Hawaii-Aleutian Standard Time)","774496","Trustworthy,Untrustworthy","","null","","","","ratingFB","","trustrating_stim/white_00761_941201_fb_edt.bmp","null","","","","","","","","","","",""
"image-keyboard-response","95","157369","0.0-6.0-1.45","63eaa9f8f0637c961dcfc277","bdp_trlrn","Tue Mar 14 2023 15:29:48 GMT-1000 (Hawaii-Aleutian Standard Time)","774496","Trustworthy,Untrustworthy","","1948","","","","rating","","trustrating_stim/white_mw048.bmp","4","","","","","","","","","","",""
"image-keyboard-response","96","157583","0.0-6.0-2.45","63eaa9f8f0637c961dcfc277","bdp_trlrn","Tue Mar 14 2023 15:29:48 GMT-1000 (Hawaii-Aleutian Standard Time)","774496","Trustworthy,Untrustworthy","","null","","","","ratingFB","","trustrating_stim/white_mw048.bmp","null","","","","","","","","","","",""
"image-keyboard-response","97","159205","0.0-6.0-1.46","63eaa9f8f0637c961dcfc277","bdp_trlrn","Tue Mar 14 2023 15:29:48 GMT-1000 (Hawaii-Aleutian Standard Time)","774496","Trustworthy,Untrustworthy","","1518","","","","rating","","trustrating_stim/white_00223_940128_fb_edt.bmp","7","","","","","","","","","","",""
"image-keyboard-response","98","159417","0.0-6.0-2.46","63eaa9f8f0637c961dcfc277","bdp_trlrn","Tue Mar 14 2023 15:29:48 GMT-1000 (Hawaii-Aleutian Standard Time)","774496","Trustworthy,Untrustworthy","","null","","","","ratingFB","","trustrating_stim/white_00223_940128_fb_edt.bmp","null","","","","","","","","","","",""
"image-keyboard-response","99","161198","0.0-6.0-1.47","63eaa9f8f0637c961dcfc277","bdp_trlrn","Tue Mar 14 2023 15:29:48 GMT-1000 (Hawaii-Aleutian Standard Time)","774496","Trustworthy,Untrustworthy","","1676","","","","rating","","trustrating_stim/white_mw035.bmp","7","","","","","","","","","","",""
"image-keyboard-response","100","161400","0.0-6.0-2.47","63eaa9f8f0637c961dcfc277","bdp_trlrn","Tue Mar 14 2023 15:29:48 GMT-1000 (Hawaii-Aleutian Standard Time)","774496","Trustworthy,Untrustworthy","","null","","","","ratingFB","","trustrating_stim/white_mw035.bmp","null","","","","","","","","","","",""
"image-keyboard-response","101","162819","0.0-6.0-1.48","63eaa9f8f0637c961dcfc277","bdp_trlrn","Tue Mar 14 2023 15:29:48 GMT-1000 (Hawaii-Aleutian Standard Time)","774496","Trustworthy,Untrustworthy","","1300","","","","rating","","trustrating_stim/white_mw066.bmp","6","","","","","","","","","","",""
"image-keyboard-response","102","163030","0.0-6.0-2.48","63eaa9f8f0637c961dcfc277","bdp_trlrn","Tue Mar 14 2023 15:29:48 GMT-1000 (Hawaii-Aleutian Standard Time)","774496","Trustworthy,Untrustworthy","","null","","","","ratingFB","","trustrating_stim/white_mw066.bmp","null","","","","","","","","","","",""
"image-keyboard-response","103","164828","0.0-6.0-1.49","63eaa9f8f0637c961dcfc277","bdp_trlrn","Tue Mar 14 2023 15:29:48 GMT-1000 (Hawaii-Aleutian Standard Time)","774496","Trustworthy,Untrustworthy","","1691","","","","rating","","trustrating_stim/white_mw053.bmp","4","","","","","","","","","","",""
"image-keyboard-response","104","165033","0.0-6.0-2.49","63eaa9f8f0637c961dcfc277","bdp_trlrn","Tue Mar 14 2023 15:29:48 GMT-1000 (Hawaii-Aleutian Standard Time)","774496","Trustworthy,Untrustworthy","","null","","","","ratingFB","","trustrating_stim/white_mw053.bmp","null","","","","","","","","","","",""
"image-keyboard-response","105","166560","0.0-6.0-1.50","63eaa9f8f0637c961dcfc277","bdp_trlrn","Tue Mar 14 2023 15:29:48 GMT-1000 (Hawaii-Aleutian Standard Time)","774496","Trustworthy,Untrustworthy","","1413","","","","rating","","trustrating_stim/white_mw084.bmp","4","","","","","","","","","","",""
"image-keyboard-response","106","166762","0.0-6.0-2.50","63eaa9f8f0637c961dcfc277","bdp_trlrn","Tue Mar 14 2023 15:29:48 GMT-1000 (Hawaii-Aleutian Standard Time)","774496","Trustworthy,Untrustworthy","","null","","","","ratingFB","","trustrating_stim/white_mw084.bmp","null","","","","","","","","","","",""
"image-keyboard-response","107","169218","0.0-6.0-1.51","63eaa9f8f0637c961dcfc277","bdp_trlrn","Tue Mar 14 2023 15:29:48 GMT-1000 (Hawaii-Aleutian Standard Time)","774496","Trustworthy,Untrustworthy","","2348","","","","rating","","trustrating_stim/white_mw056.bmp","7","","","","","","","","","","",""
"image-keyboard-response","108","169432","0.0-6.0-2.51","63eaa9f8f0637c961dcfc277","bdp_trlrn","Tue Mar 14 2023 15:29:48 GMT-1000 (Hawaii-Aleutian Standard Time)","774496","Trustworthy,Untrustworthy","","null","","","","ratingFB","","trustrating_stim/white_mw056.bmp","null","","","","","","","","","","",""
"image-keyboard-response","109","172694","0.0-6.0-1.52","63eaa9f8f0637c961dcfc277","bdp_trlrn","Tue Mar 14 2023 15:29:48 GMT-1000 (Hawaii-Aleutian Standard Time)","774496","Trustworthy,Untrustworthy","","3148","","","","rating","","trustrating_stim/white_00519_940519_fb_edt.bmp","2","","","","","","","","","","",""
"image-keyboard-response","110","172911","0.0-6.0-2.52","63eaa9f8f0637c961dcfc277","bdp_trlrn","Tue Mar 14 2023 15:29:48 GMT-1000 (Hawaii-Aleutian Standard Time)","774496","Trustworthy,Untrustworthy","","null","","","","ratingFB","","trustrating_stim/white_00519_940519_fb_edt.bmp","null","","","","","","","","","","",""
"image-keyboard-response","111","175316","0.0-6.0-1.53","63eaa9f8f0637c961dcfc277","bdp_trlrn","Tue Mar 14 2023 15:29:48 GMT-1000 (Hawaii-Aleutian Standard Time)","774496","Trustworthy,Untrustworthy","","2295","","","","rating","","trustrating_stim/white_00807_941205_fb_edt.bmp","4","","","","","","","","","","",""
"image-keyboard-response","112","175528","0.0-6.0-2.53","63eaa9f8f0637c961dcfc277","bdp_trlrn","Tue Mar 14 2023 15:29:48 GMT-1000 (Hawaii-Aleutian Standard Time)","774496","Trustworthy,Untrustworthy","","null","","","","ratingFB","","trustrating_stim/white_00807_941205_fb_edt.bmp","null","","","","","","","","","","",""
"image-keyboard-response","113","177228","0.0-6.0-1.54","63eaa9f8f0637c961dcfc277","bdp_trlrn","Tue Mar 14 2023 15:29:48 GMT-1000 (Hawaii-Aleutian Standard Time)","774496","Trustworthy,Untrustworthy","","1592","","","","rating","","trustrating_stim/white_mw099.bmp","6","","","","","","","","","","",""
"image-keyboard-response","114","177432","0.0-6.0-2.54","63eaa9f8f0637c961dcfc277","bdp_trlrn","Tue Mar 14 2023 15:29:48 GMT-1000 (Hawaii-Aleutian Standard Time)","774496","Trustworthy,Untrustworthy","","null","","","","ratingFB","","trustrating_stim/white_mw099.bmp","null","","","","","","","","","","",""
"image-keyboard-response","115","179195","0.0-6.0-1.55","63eaa9f8f0637c961dcfc277","bdp_trlrn","Tue Mar 14 2023 15:29:48 GMT-1000 (Hawaii-Aleutian Standard Time)","774496","Trustworthy,Untrustworthy","","1657","","","","rating","","trustrating_stim/white_mw097.bmp","6","","","","","","","","","","",""
"image-keyboard-response","116","179403","0.0-6.0-2.55","63eaa9f8f0637c961dcfc277","bdp_trlrn","Tue Mar 14 2023 15:29:48 GMT-1000 (Hawaii-Aleutian Standard Time)","774496","Trustworthy,Untrustworthy","","null","","","","ratingFB","","trustrating_stim/white_mw097.bmp","null","","","","","","","","","","",""
"image-keyboard-response","117","183327","0.0-6.0-1.56","63eaa9f8f0637c961dcfc277","bdp_trlrn","Tue Mar 14 2023 15:29:48 GMT-1000 (Hawaii-Aleutian Standard Time)","774496","Trustworthy,Untrustworthy","","3818","","","","rating","","trustrating_stim/white_mw046.bmp","6","","","","","","","","","","",""
"image-keyboard-response","118","183538","0.0-6.0-2.56","63eaa9f8f0637c961dcfc277","bdp_trlrn","Tue Mar 14 2023 15:29:48 GMT-1000 (Hawaii-Aleutian Standard Time)","774496","Trustworthy,Untrustworthy","","null","","","","ratingFB","","trustrating_stim/white_mw046.bmp","null","","","","","","","","","","",""
"image-keyboard-response","119","185630","0.0-6.0-1.57","63eaa9f8f0637c961dcfc277","bdp_trlrn","Tue Mar 14 2023 15:29:48 GMT-1000 (Hawaii-Aleutian Standard Time)","774496","Trustworthy,Untrustworthy","","1983","","","","rating","","trustrating_stim/white_00109_931230_fa_edt.bmp","5","","","","","","","","","","",""
"image-keyboard-response","120","185837","0.0-6.0-2.57","63eaa9f8f0637c961dcfc277","bdp_trlrn","Tue Mar 14 2023 15:29:48 GMT-1000 (Hawaii-Aleutian Standard Time)","774496","Trustworthy,Untrustworthy","","null","","","","ratingFB","","trustrating_stim/white_00109_931230_fa_edt.bmp","null","","","","","","","","","","",""
"image-keyboard-response","121","188109","0.0-6.0-1.58","63eaa9f8f0637c961dcfc277","bdp_trlrn","Tue Mar 14 2023 15:29:48 GMT-1000 (Hawaii-Aleutian Standard Time)","774496","Trustworthy,Untrustworthy","","2151","","","","rating","","trustrating_stim/white_mw071.bmp","6","","","","","","","","","","",""
"image-keyboard-response","122","188326","0.0-6.0-2.58","63eaa9f8f0637c961dcfc277","bdp_trlrn","Tue Mar 14 2023 15:29:48 GMT-1000 (Hawaii-Aleutian Standard Time)","774496","Trustworthy,Untrustworthy","","null","","","","ratingFB","","trustrating_stim/white_mw071.bmp","null","","","","","","","","","","",""
"image-keyboard-response","123","190001","0.0-6.0-1.59","63eaa9f8f0637c961dcfc277","bdp_trlrn","Tue Mar 14 2023 15:29:48 GMT-1000 (Hawaii-Aleutian Standard Time)","774496","Trustworthy,Untrustworthy","","1556","","","","rating","","trustrating_stim/white_00120_931230_fa_edt.bmp","6","","","","","","","","","","",""
"image-keyboard-response","124","190215","0.0-6.0-2.59","63eaa9f8f0637c961dcfc277","bdp_trlrn","Tue Mar 14 2023 15:29:48 GMT-1000 (Hawaii-Aleutian Standard Time)","774496","Trustworthy,Untrustworthy","","null","","","","ratingFB","","trustrating_stim/white_00120_931230_fa_edt.bmp","null","","","","","","","","","","",""
"instructions","125","191911","0.0-7.0","63eaa9f8f0637c961dcfc277","bdp_trlrn","Tue Mar 14 2023 15:29:48 GMT-1000 (Hawaii-Aleutian Standard Time)","774496","Trustworthy,Untrustworthy","[{""page_index"":0,""viewing_time"":1587}]","1588","","","","","","","","","","","","","","","","","",""
"instructions","126","303477","0.0-8.0","63eaa9f8f0637c961dcfc277","bdp_trlrn","Tue Mar 14 2023 15:29:48 GMT-1000 (Hawaii-Aleutian Standard Time)","774496","Trustworthy,Untrustworthy","[{""page_index"":0,""viewing_time"":22519},{""page_index"":1,""viewing_time"":14962},{""page_index"":2,""viewing_time"":8356},{""page_index"":3,""viewing_time"":11504},{""page_index"":4,""viewing_time"":9693},{""page_index"":5,""viewing_time"":7582},{""page_index"":6,""viewing_time"":28078},{""page_index"":7,""viewing_time"":8763}]","111458","","","","","","","","","","","","","","","","","",""
"html-keyboard-response","127","307798","0.0-9.0","63eaa9f8f0637c961dcfc277","bdp_trlrn","Tue Mar 14 2023 15:29:48 GMT-1000 (Hawaii-Aleutian Standard Time)","774496","Trustworthy,Untrustworthy","","4318","","","","","","<div class='header' style='text-align:left; position: absolute; top: 5%; left: 5%;'><small>Task 2 of 5</small></div><div class='instruxDiv'><p><strong>1) What is the minimum number of points you can choose to send to your partner?</strong></p><p>a) 0</p><p>b) 1</p><p>c) 5</p>","B","","","","","","","","","","",""
"html-keyboard-response","128","310221","0.0-10.0","63eaa9f8f0637c961dcfc277","bdp_trlrn","Tue Mar 14 2023 15:29:48 GMT-1000 (Hawaii-Aleutian Standard Time)","774496","Trustworthy,Untrustworthy","","2308","","","","","","<div class='header' style='text-align:left; position: absolute; top: 5%; left: 5%;'><small>Task 2 of 5</small></div><div class='instruxDiv'><p><strong>1) What is the minimum number of points you can choose to send to your partner?</strong></p><p>a) 0</p><p style='color:#00FF00'>b) 1</p><p>c) 5</p><h3 style='color:#00FF00'>Correct!</h3><h3 class='center-content'>The correct response is b).</h3><h3 class='center-content'>The minimum number of points you can choose to send to your partner is 1 point.</h3><p><em>Press SPACEBAR to continue</em></p></div>"," ","","","","","","","","","","",""
"html-keyboard-response","129","312819","0.0-11.0","63eaa9f8f0637c961dcfc277","bdp_trlrn","Tue Mar 14 2023 15:29:48 GMT-1000 (Hawaii-Aleutian Standard Time)","774496","Trustworthy,Untrustworthy","","2484","","","","","","<div class='header' style='text-align:left; position: absolute; top: 5%; left: 5%;'><small>Task 2 of 5</small></div><div class='instruxDiv'><p><strong>2) What is the maximum number of points you can choose to send to your partner?</strong></p><p>a) 8</p><p>b) 5</p><p>c) 3</p>","B","","","","","","","","","","",""
"html-keyboard-response","130","314235","0.0-12.0","63eaa9f8f0637c961dcfc277","bdp_trlrn","Tue Mar 14 2023 15:29:48 GMT-1000 (Hawaii-Aleutian Standard Time)","774496","Trustworthy,Untrustworthy","","1307","","","","","","<div class='header' style='text-align:left; position: absolute; top: 5%; left: 5%;'><small>Task 2 of 5</small></div><div class='instruxDiv'><p><strong>2) What is the maximum number of points you can choose to send to your partner?</strong></p><p>a) 8</p><p style='color:#00FF00'>b) 5</p><p>c) 3</p><h3 style='color:#00FF00'>Correct!</h3><h3 class='center-content'>The correct response is b).</h3><h3 class='center-content'>The maximum number of points you can choose to send to your partner is 5 points.</h3><p><em>Press SPACEBAR to continue</em></p></div>"," ","","","","","","","","","","",""
"html-keyboard-response","131","319594","0.0-13.0","63eaa9f8f0637c961dcfc277","bdp_trlrn","Tue Mar 14 2023 15:29:48 GMT-1000 (Hawaii-Aleutian Standard Time)","774496","Trustworthy,Untrustworthy","","5256","","","","","","<div class='header' style='text-align:left; position: absolute; top: 5%; left: 5%;'><small>Task 2 of 5</small></div><div class='instruxDiv'><p><strong>3) What happens to the amount of points you send to your partner?</strong></p><p>a) Nothing</p><p>b) It doubles</p><p>c) It quadruples</p>","C","","","","","","","","","","",""
"html-keyboard-response","132","321720","0.0-14.0","63eaa9f8f0637c961dcfc277","bdp_trlrn","Tue Mar 14 2023 15:29:48 GMT-1000 (Hawaii-Aleutian Standard Time)","774496","Trustworthy,Untrustworthy","","2010","","","","","","<div class='header' style='text-align:left; position: absolute; top: 5%; left: 5%;'><small>Task 2 of 5</small></div><div class='instruxDiv'><p><strong>3) What happens to the amount of points you send to your partner?</strong></p><p>a) Nothing</p><p>b) It doubles</p><p style='color:#00FF00'>c) It quadruples</p><h3 style='color:#00FF00'>Correct!</h3><h3 class='center-content'>The correct response is c).</h3><h3 class='center-content'>The amount of points you send to your partner quadruples.</h3><p><em>Press SPACEBAR to continue</em></p></div>"," ","","","","","","","","","","",""
"html-keyboard-response","133","332590","0.0-15.0","63eaa9f8f0637c961dcfc277","bdp_trlrn","Tue Mar 14 2023 15:29:48 GMT-1000 (Hawaii-Aleutian Standard Time)","774496","Trustworthy,Untrustworthy","","10763","","","","","","<div class='header' style='text-align:left; position: absolute; top: 5%; left: 5%;'><small>Task 2 of 5</small></div><div class='instruxDiv'><p><strong>4) If you decided to share 4 out of 5 points with your partner, and they decided to share half of the amount they received with you, how many points would you receive back from them on this round?</strong></p><p>a) 16</p><p>b) 0</p><p>c) 8</p>","C","","","","","","","","","","",""
"html-keyboard-response","134","334690","0.0-16.0","63eaa9f8f0637c961dcfc277","bdp_trlrn","Tue Mar 14 2023 15:29:48 GMT-1000 (Hawaii-Aleutian Standard Time)","774496","Trustworthy,Untrustworthy","","1991","","","","","","<div class='header' style='text-align:left; position: absolute; top: 5%; left: 5%;'><small>Task 2 of 5</small></div><div class='instruxDiv'><p><strong>4) If you decided to share 4 out of 5 points with your partner, and they decided to share half of the amount they received with you, how many points would you receive back from them on this round?</strong></p><p>a) 16</p><p>b) 0</p><p style='color:#00FF00'>c) 8</p><h3 style='color:#00FF00'>Correct!</h3><h3 class='center-content'>The correct response is c).</h3><h3 class='center-content'>If you shared 4 out of 5 points with your partner and they decided to share half of the amount they received with you, you would receive 8 points back (i.e. (4 x 4)/2 = 8).</h3><p><em>Press SPACEBAR to continue</em></p></div>"," ","","","","","","","","","","",""
"html-keyboard-response","135","339809","0.0-17.0","63eaa9f8f0637c961dcfc277","bdp_trlrn","Tue Mar 14 2023 15:29:48 GMT-1000 (Hawaii-Aleutian Standard Time)","774496","Trustworthy,Untrustworthy","","null","","","","","","<div class='header' style='text-align:left; position: absolute; top: 5%; left: 5%;'><small>Task 2 of 5</small></div><div class='instruxDiv'><p>Thank you for completing the quiz<p>These are the actual partners you will be interacting with in the next block:<p><div class='tc' align='center'><img class='introPic' src='trustrating_stim/white_mw049.bmp'><br><strong>Ethan</strong></div><div class='bl' align='center'><img class='introPic' src='trustrating_stim/white_00120_931230_fa_edt.bmp'><br><strong>Devin</strong></div><div class='br' align='center'><img class='introPic' src='trustrating_stim/white_00757_941201_fa_edt.bmp'><br><strong>Jordan</strong></div></div><p>Across <strong>66 rounds</strong> you will interact with each partner <strong>22 times</strong> (in random order).<p style='align:center; color:white'><font <em>Press SPACEBAR to continue</em></p>","null","","","","","","","","","","",""
"instructions","136","347297","0.0-18.0","63eaa9f8f0637c961dcfc277","bdp_trlrn","Tue Mar 14 2023 15:29:48 GMT-1000 (Hawaii-Aleutian Standard Time)","774496","Trustworthy,Untrustworthy","[{""page_index"":0,""viewing_time"":2377},{""page_index"":1,""viewing_time"":5109}]","7487","","","","","","","","","","","","","","","","","",""
"html-keyboard-response","137","351751","0.0-19.0-1.0","63eaa9f8f0637c961dcfc277","bdp_trlrn","Tue Mar 14 2023 15:29:48 GMT-1000 (Hawaii-Aleutian Standard Time)","774496","Trustworthy,Untrustworthy","","4336","","","","decision","","<div class='trialDiv'><img src='trustrating_stim/white_00120_931230_fa_edt.bmp'><br><font class='baseline'><strong>Devin</strong><p>Choose number of points to send.</font><div class='respPicDiv'><img src='img/responseButtonOffersNo0L.png' class='respPic'></div></div>","2","1","Devin","7","Kept","0.2,0.8","9","0.2","trustrating_stim/white_00120_931230_fa_edt.bmp","5.5","5","1"
"html-keyboard-response","138","352010","0.0-19.0-2.0","63eaa9f8f0637c961dcfc277","bdp_trlrn","Tue Mar 14 2023 15:29:48 GMT-1000 (Hawaii-Aleutian Standard Time)","774496","Trustworthy,Untrustworthy","","null","","","","decisionFB","","<div class='trialDiv'><img src='trustrating_stim/white_00120_931230_fa_edt.bmp'><br><font class='baseline'><strong>Devin</strong><p>Choose number of points to send.</font><div class='respPicDiv'><img src='img/responseButtonOffersNo0L2.png' class='respPic'></div></div>","null","1","Devin","7","Kept","0.2,0.8","9","0.2","trustrating_stim/white_00120_931230_fa_edt.bmp","5.5","3","1"
"html-keyboard-response","139","353021","0.0-19.0-3.0","63eaa9f8f0637c961dcfc277","bdp_trlrn","Tue Mar 14 2023 15:29:48 GMT-1000 (Hawaii-Aleutian Standard Time)","774496","Trustworthy,Untrustworthy","","null","","","","feedback","","<div class='trialDiv'><img src='trustrating_stim/white_00120_931230_fa_edt.bmp'><br><font class='baseline'><strong>Devin</strong><p>Received: <strong>8</strong></font> &nbsp; &nbsp; &nbsp; &nbsp; &nbsp; &nbsp;<font class='negOutcome'>Shared back: <strong>0</strong></font></font><div class='respPicDiv'><img src='img/responseButtonOffersNo0_wht.png' class='respPic'></div></div>","null","1","Devin","7","Kept","0.2,0.8","9","0.2","trustrating_stim/white_00120_931230_fa_edt.bmp","5.5","3","1"
"html-keyboard-response","140","355786","0.0-19.0-1.1","63eaa9f8f0637c961dcfc277","bdp_trlrn","Tue Mar 14 2023 15:29:48 GMT-1000 (Hawaii-Aleutian Standard Time)","774496","Trustworthy,Untrustworthy","","2763","","","","decision","","<div class='trialDiv'><img src='trustrating_stim/white_mw049.bmp'><br><font class='baseline'><strong>Ethan</strong><p>Choose number of points to send.</font><div class='respPicDiv'><img src='img/responseButtonOffersNo0L.png' class='respPic'></div></div>","2","1","Ethan","2","Shared","0.8,0.35","14","0.8","trustrating_stim/white_mw049.bmp","3","8","2"
"html-keyboard-response","141","356052","0.0-19.0-2.1","63eaa9f8f0637c961dcfc277","bdp_trlrn","Tue Mar 14 2023 15:29:48 GMT-1000 (Hawaii-Aleutian Standard Time)","774496","Trustworthy,Untrustworthy","","null","","","","decisionFB","","<div class='trialDiv'><img src='trustrating_stim/white_mw049.bmp'><br><font class='baseline'><strong>Ethan</strong><p>Choose number of points to send.</font><div class='respPicDiv'><img src='img/responseButtonOffersNo0L2.png' class='respPic'></div></div>","null","1","Ethan","2","Shared","0.8,0.35","14","0.8","trustrating_stim/white_mw049.bmp","3","6","2"
"html-keyboard-response","142","357057","0.0-19.0-3.1","63eaa9f8f0637c961dcfc277","bdp_trlrn","Tue Mar 14 2023 15:29:48 GMT-1000 (Hawaii-Aleutian Standard Time)","774496","Trustworthy,Untrustworthy","","null","","","","feedback","","<div class='trialDiv'><img src='trustrating_stim/white_mw049.bmp'><br><font class='baseline'><strong>Ethan</strong><p>Received: <strong>8</strong></font> &nbsp; &nbsp; &nbsp; &nbsp; &nbsp; &nbsp;<font class='posOutcome'>Shared back: <strong>4</strong></font></font><div class='respPicDiv'><img src='img/responseButtonOffersNo0_wht.png' class='respPic'></div></div>","null","1","Ethan","2","Shared","0.8,0.35","14","0.8","trustrating_stim/white_mw049.bmp","3","10","2"
"html-keyboard-response","143","358307","0.0-19.0-1.2","63eaa9f8f0637c961dcfc277","bdp_trlrn","Tue Mar 14 2023 15:29:48 GMT-1000 (Hawaii-Aleutian Standard Time)","774496","Trustworthy,Untrustworthy","","1247","","","","decision","","<div class='trialDiv'><img src='trustrating_stim/white_00757_941201_fa_edt.bmp'><br><font class='baseline'><strong>Jordan</strong><p>Choose number of points to send.</font><div class='respPicDiv'><img src='img/responseButtonOffersNo0L.png' class='respPic'></div></div>","2","1","Jordan","9","Kept","0.2,0.65","12","0.2","trustrating_stim/white_00757_941201_fa_edt.bmp","7","15","3"
"html-keyboard-response","144","358569","0.0-19.0-2.2","63eaa9f8f0637c961dcfc277","bdp_trlrn","Tue Mar 14 2023 15:29:48 GMT-1000 (Hawaii-Aleutian Standard Time)","774496","Trustworthy,Untrustworthy","","null","","","","decisionFB","","<div class='trialDiv'><img src='trustrating_stim/white_00757_941201_fa_edt.bmp'><br><font class='baseline'><strong>Jordan</strong><p>Choose number of points to send.</font><div class='respPicDiv'><img src='img/responseButtonOffersNo0L2.png' class='respPic'></div></div>","null","1","Jordan","9","Kept","0.2,0.65","12","0.2","trustrating_stim/white_00757_941201_fa_edt.bmp","7","13","3"
"html-keyboard-response","145","359582","0.0-19.0-3.2","63eaa9f8f0637c961dcfc277","bdp_trlrn","Tue Mar 14 2023 15:29:48 GMT-1000 (Hawaii-Aleutian Standard Time)","774496","Trustworthy,Untrustworthy","","null","","","","feedback","","<div class='trialDiv'><img src='trustrating_stim/white_00757_941201_fa_edt.bmp'><br><font class='baseline'><strong>Jordan</strong><p>Received: <strong>8</strong></font> &nbsp; &nbsp; &nbsp; &nbsp; &nbsp; &nbsp;<font class='negOutcome'>Shared back: <strong>0</strong></font></font><div class='respPicDiv'><img src='img/responseButtonOffersNo0_wht.png' class='respPic'></div></div>","null","1","Jordan","9","Kept","0.2,0.65","12","0.2","trustrating_stim/white_00757_941201_fa_edt.bmp","7","13","3"
"html-keyboard-response","146","365260","0.0-19.0-1.3","63eaa9f8f0637c961dcfc277","bdp_trlrn","Tue Mar 14 2023 15:29:48 GMT-1000 (Hawaii-Aleutian Standard Time)","774496","Trustworthy,Untrustworthy","","5675","","","","decision","","<div class='trialDiv'><img src='trustrating_stim/white_mw049.bmp'><br><font class='baseline'><strong>Ethan</strong><p>Choose number of points to send.</font><div class='respPicDiv'><img src='img/responseButtonOffersNo0L.png' class='respPic'></div></div>","5","2","Ethan","2","Kept","0.8,0.35","14","0.8","trustrating_stim/white_mw049.bmp","3","18","4"
"html-keyboard-response","147","365527","0.0-19.0-2.3","63eaa9f8f0637c961dcfc277","bdp_trlrn","Tue Mar 14 2023 15:29:48 GMT-1000 (Hawaii-Aleutian Standard Time)","774496","Trustworthy,Untrustworthy","","null","","","","decisionFB","","<div class='trialDiv'><img src='trustrating_stim/white_mw049.bmp'><br><font class='baseline'><strong>Ethan</strong><p>Choose number of points to send.</font><div class='respPicDiv'><img src='img/responseButtonOffersNo0L5.png' class='respPic'></div></div>","null","2","Ethan","2","Kept","0.8,0.35","14","0.8","trustrating_stim/white_mw049.bmp","3","13","4"
"html-keyboard-response","148","366543","0.0-19.0-3.3","63eaa9f8f0637c961dcfc277","bdp_trlrn","Tue Mar 14 2023 15:29:48 GMT-1000 (Hawaii-Aleutian Standard Time)","774496","Trustworthy,Untrustworthy","","null","","","","feedback","","<div class='trialDiv'><img src='trustrating_stim/white_mw049.bmp'><br><font class='baseline'><strong>Ethan</strong><p>Received: <strong>20</strong></font> &nbsp; &nbsp; &nbsp; &nbsp; &nbsp; &nbsp;<font class='negOutcome'>Shared back: <strong>0</strong></font></font><div class='respPicDiv'><img src='img/responseButtonOffersNo0_wht.png' class='respPic'></div></div>","null","2","Ethan","2","Kept","0.8,0.35","14","0.8","trustrating_stim/white_mw049.bmp","3","13","4"
"html-keyboard-response","149","371682","0.0-19.0-1.4","63eaa9f8f0637c961dcfc277","bdp_trlrn","Tue Mar 14 2023 15:29:48 GMT-1000 (Hawaii-Aleutian Standard Time)","774496","Trustworthy,Untrustworthy","","5136","","","","decision","","<div class='trialDiv'><img src='trustrating_stim/white_00757_941201_fa_edt.bmp'><br><font class='baseline'><strong>Jordan</strong><p>Choose number of points to send.</font><div class='respPicDiv'><img src='img/responseButtonOffersNo0L.png' class='respPic'></div></div>","5","2","Jordan","9","Shared","0.2,0.65","12","0.2","trustrating_stim/white_00757_941201_fa_edt.bmp","7","18","5"
"html-keyboard-response","150","371939","0.0-19.0-2.4","63eaa9f8f0637c961dcfc277","bdp_trlrn","Tue Mar 14 2023 15:29:48 GMT-1000 (Hawaii-Aleutian Standard Time)","774496","Trustworthy,Untrustworthy","","null","","","","decisionFB","","<div class='trialDiv'><img src='trustrating_stim/white_00757_941201_fa_edt.bmp'><br><font class='baseline'><strong>Jordan</strong><p>Choose number of points to send.</font><div class='respPicDiv'><img src='img/responseButtonOffersNo0L5.png' class='respPic'></div></div>","null","2","Jordan","9","Shared","0.2,0.65","12","0.2","trustrating_stim/white_00757_941201_fa_edt.bmp","7","13","5"
"html-keyboard-response","151","372956","0.0-19.0-3.4","63eaa9f8f0637c961dcfc277","bdp_trlrn","Tue Mar 14 2023 15:29:48 GMT-1000 (Hawaii-Aleutian Standard Time)","774496","Trustworthy,Untrustworthy","","null","","","","feedback","","<div class='trialDiv'><img src='trustrating_stim/white_00757_941201_fa_edt.bmp'><br><font class='baseline'><strong>Jordan</strong><p>Received: <strong>20</strong></font> &nbsp; &nbsp; &nbsp; &nbsp; &nbsp; &nbsp;<font class='posOutcome'>Shared back: <strong>10</strong></font></font><div class='respPicDiv'><img src='img/responseButtonOffersNo0_wht.png' class='respPic'></div></div>","null","2","Jordan","9","Shared","0.2,0.65","12","0.2","trustrating_stim/white_00757_941201_fa_edt.bmp","7","23","5"
"html-keyboard-response","152","374892","0.0-19.0-1.5","63eaa9f8f0637c961dcfc277","bdp_trlrn","Tue Mar 14 2023 15:29:48 GMT-1000 (Hawaii-Aleutian Standard Time)","774496","Trustworthy,Untrustworthy","","1933","","","","decision","","<div class='trialDiv'><img src='trustrating_stim/white_00120_931230_fa_edt.bmp'><br><font class='baseline'><strong>Devin</strong><p>Choose number of points to send.</font><div class='respPicDiv'><img src='img/responseButtonOffersNo0L.png' class='respPic'></div></div>","5","2","Devin","7","Kept","0.2,0.8","9","0.2","trustrating_stim/white_00120_931230_fa_edt.bmp","5.5","28","6"
"html-keyboard-response","153","375151","0.0-19.0-2.5","63eaa9f8f0637c961dcfc277","bdp_trlrn","Tue Mar 14 2023 15:29:48 GMT-1000 (Hawaii-Aleutian Standard Time)","774496","Trustworthy,Untrustworthy","","null","","","","decisionFB","","<div class='trialDiv'><img src='trustrating_stim/white_00120_931230_fa_edt.bmp'><br><font class='baseline'><strong>Devin</strong><p>Choose number of points to send.</font><div class='respPicDiv'><img src='img/responseButtonOffersNo0L5.png' class='respPic'></div></div>","null","2","Devin","7","Kept","0.2,0.8","9","0.2","trustrating_stim/white_00120_931230_fa_edt.bmp","5.5","23","6"
"html-keyboard-response","154","376167","0.0-19.0-3.5","63eaa9f8f0637c961dcfc277","bdp_trlrn","Tue Mar 14 2023 15:29:48 GMT-1000 (Hawaii-Aleutian Standard Time)","774496","Trustworthy,Untrustworthy","","null","","","","feedback","","<div class='trialDiv'><img src='trustrating_stim/white_00120_931230_fa_edt.bmp'><br><font class='baseline'><strong>Devin</strong><p>Received: <strong>20</strong></font> &nbsp; &nbsp; &nbsp; &nbsp; &nbsp; &nbsp;<font class='negOutcome'>Shared back: <strong>0</strong></font></font><div class='respPicDiv'><img src='img/responseButtonOffersNo0_wht.png' class='respPic'></div></div>","null","2","Devin","7","Kept","0.2,0.8","9","0.2","trustrating_stim/white_00120_931230_fa_edt.bmp","5.5","23","6"
"html-keyboard-response","155","378721","0.0-19.0-1.6","63eaa9f8f0637c961dcfc277","bdp_trlrn","Tue Mar 14 2023 15:29:48 GMT-1000 (Hawaii-Aleutian Standard Time)","774496","Trustworthy,Untrustworthy","","2551","","","","decision","","<div class='trialDiv'><img src='trustrating_stim/white_00757_941201_fa_edt.bmp'><br><font class='baseline'><strong>Jordan</strong><p>Choose number of points to send.</font><div class='respPicDiv'><img src='img/responseButtonOffersNo0L.png' class='respPic'></div></div>","4","3","Jordan","9","Kept","0.2,0.65","12","0.2","trustrating_stim/white_00757_941201_fa_edt.bmp","7","28","7"
"html-keyboard-response","156","378988","0.0-19.0-2.6","63eaa9f8f0637c961dcfc277","bdp_trlrn","Tue Mar 14 2023 15:29:48 GMT-1000 (Hawaii-Aleutian Standard Time)","774496","Trustworthy,Untrustworthy","","null","","","","decisionFB","","<div class='trialDiv'><img src='trustrating_stim/white_00757_941201_fa_edt.bmp'><br><font class='baseline'><strong>Jordan</strong><p>Choose number of points to send.</font><div class='respPicDiv'><img src='img/responseButtonOffersNo0L4.png' class='respPic'></div></div>","null","3","Jordan","9","Kept","0.2,0.65","12","0.2","trustrating_stim/white_00757_941201_fa_edt.bmp","7","24","7"
"html-keyboard-response","157","379994","0.0-19.0-3.6","63eaa9f8f0637c961dcfc277","bdp_trlrn","Tue Mar 14 2023 15:29:48 GMT-1000 (Hawaii-Aleutian Standard Time)","774496","Trustworthy,Untrustworthy","","null","","","","feedback","","<div class='trialDiv'><img src='trustrating_stim/white_00757_941201_fa_edt.bmp'><br><font class='baseline'><strong>Jordan</strong><p>Received: <strong>16</strong></font> &nbsp; &nbsp; &nbsp; &nbsp; &nbsp; &nbsp;<font class='negOutcome'>Shared back: <strong>0</strong></font></font><div class='respPicDiv'><img src='img/responseButtonOffersNo0_wht.png' class='respPic'></div></div>","null","3","Jordan","9","Kept","0.2,0.65","12","0.2","trustrating_stim/white_00757_941201_fa_edt.bmp","7","24","7"
"html-keyboard-response","158","381671","0.0-19.0-1.7","63eaa9f8f0637c961dcfc277","bdp_trlrn","Tue Mar 14 2023 15:29:48 GMT-1000 (Hawaii-Aleutian Standard Time)","774496","Trustworthy,Untrustworthy","","1675","","","","decision","","<div class='trialDiv'><img src='trustrating_stim/white_mw049.bmp'><br><font class='baseline'><strong>Ethan</strong><p>Choose number of points to send.</font><div class='respPicDiv'><img src='img/responseButtonOffersNo0L.png' class='respPic'></div></div>","4","3","Ethan","2","Shared","0.8,0.35","14","0.8","trustrating_stim/white_mw049.bmp","3","29","8"
"html-keyboard-response","159","381935","0.0-19.0-2.7","63eaa9f8f0637c961dcfc277","bdp_trlrn","Tue Mar 14 2023 15:29:48 GMT-1000 (Hawaii-Aleutian Standard Time)","774496","Trustworthy,Untrustworthy","","null","","","","decisionFB","","<div class='trialDiv'><img src='trustrating_stim/white_mw049.bmp'><br><font class='baseline'><strong>Ethan</strong><p>Choose number of points to send.</font><div class='respPicDiv'><img src='img/responseButtonOffersNo0L4.png' class='respPic'></div></div>","null","3","Ethan","2","Shared","0.8,0.35","14","0.8","trustrating_stim/white_mw049.bmp","3","25","8"
"html-keyboard-response","160","382952","0.0-19.0-3.7","63eaa9f8f0637c961dcfc277","bdp_trlrn","Tue Mar 14 2023 15:29:48 GMT-1000 (Hawaii-Aleutian Standard Time)","774496","Trustworthy,Untrustworthy","","null","","","","feedback","","<div class='trialDiv'><img src='trustrating_stim/white_mw049.bmp'><br><font class='baseline'><strong>Ethan</strong><p>Received: <strong>16</strong></font> &nbsp; &nbsp; &nbsp; &nbsp; &nbsp; &nbsp;<font class='posOutcome'>Shared back: <strong>8</strong></font></font><div class='respPicDiv'><img src='img/responseButtonOffersNo0_wht.png' class='respPic'></div></div>","null","3","Ethan","2","Shared","0.8,0.35","14","0.8","trustrating_stim/white_mw049.bmp","3","33","8"
"html-keyboard-response","161","384548","0.0-19.0-1.8","63eaa9f8f0637c961dcfc277","bdp_trlrn","Tue Mar 14 2023 15:29:48 GMT-1000 (Hawaii-Aleutian Standard Time)","774496","Trustworthy,Untrustworthy","","1593","","","","decision","","<div class='trialDiv'><img src='trustrating_stim/white_00120_931230_fa_edt.bmp'><br><font class='baseline'><strong>Devin</strong><p>Choose number of points to send.</font><div class='respPicDiv'><img src='img/responseButtonOffersNo0L.png' class='respPic'></div></div>","4","3","Devin","7","Kept","0.2,0.8","9","0.2","trustrating_stim/white_00120_931230_fa_edt.bmp","5.5","38","9"
"html-keyboard-response","162","384815","0.0-19.0-2.8","63eaa9f8f0637c961dcfc277","bdp_trlrn","Tue Mar 14 2023 15:29:48 GMT-1000 (Hawaii-Aleutian Standard Time)","774496","Trustworthy,Untrustworthy","","null","","","","decisionFB","","<div class='trialDiv'><img src='trustrating_stim/white_00120_931230_fa_edt.bmp'><br><font class='baseline'><strong>Devin</strong><p>Choose number of points to send.</font><div class='respPicDiv'><img src='img/responseButtonOffersNo0L4.png' class='respPic'></div></div>","null","3","Devin","7","Kept","0.2,0.8","9","0.2","trustrating_stim/white_00120_931230_fa_edt.bmp","5.5","34","9"
"html-keyboard-response","163","385819","0.0-19.0-3.8","63eaa9f8f0637c961dcfc277","bdp_trlrn","Tue Mar 14 2023 15:29:48 GMT-1000 (Hawaii-Aleutian Standard Time)","774496","Trustworthy,Untrustworthy","","null","","","","feedback","","<div class='trialDiv'><img src='trustrating_stim/white_00120_931230_fa_edt.bmp'><br><font class='baseline'><strong>Devin</strong><p>Received: <strong>16</strong></font> &nbsp; &nbsp; &nbsp; &nbsp; &nbsp; &nbsp;<font class='negOutcome'>Shared back: <strong>0</strong></font></font><div class='respPicDiv'><img src='img/responseButtonOffersNo0_wht.png' class='respPic'></div></div>","null","3","Devin","7","Kept","0.2,0.8","9","0.2","trustrating_stim/white_00120_931230_fa_edt.bmp","5.5","34","9"
"html-keyboard-response","164","390716","0.0-19.0-1.9","63eaa9f8f0637c961dcfc277","bdp_trlrn","Tue Mar 14 2023 15:29:48 GMT-1000 (Hawaii-Aleutian Standard Time)","774496","Trustworthy,Untrustworthy","","4895","","","","decision","","<div class='trialDiv'><img src='trustrating_stim/white_mw049.bmp'><br><font class='baseline'><strong>Ethan</strong><p>Choose number of points to send.</font><div class='respPicDiv'><img src='img/responseButtonOffersNo0L.png' class='respPic'></div></div>","5","4","Ethan","2","Shared","0.8,0.35","14","0.8","trustrating_stim/white_mw049.bmp","3","39","10"
"html-keyboard-response","165","390983","0.0-19.0-2.9","63eaa9f8f0637c961dcfc277","bdp_trlrn","Tue Mar 14 2023 15:29:48 GMT-1000 (Hawaii-Aleutian Standard Time)","774496","Trustworthy,Untrustworthy","","null","","","","decisionFB","","<div class='trialDiv'><img src='trustrating_stim/white_mw049.bmp'><br><font class='baseline'><strong>Ethan</strong><p>Choose number of points to send.</font><div class='respPicDiv'><img src='img/responseButtonOffersNo0L5.png' class='respPic'></div></div>","null","4","Ethan","2","Shared","0.8,0.35","14","0.8","trustrating_stim/white_mw049.bmp","3","34","10"
"html-keyboard-response","166","391992","0.0-19.0-3.9","63eaa9f8f0637c961dcfc277","bdp_trlrn","Tue Mar 14 2023 15:29:48 GMT-1000 (Hawaii-Aleutian Standard Time)","774496","Trustworthy,Untrustworthy","","null","","","","feedback","","<div class='trialDiv'><img src='trustrating_stim/white_mw049.bmp'><br><font class='baseline'><strong>Ethan</strong><p>Received: <strong>20</strong></font> &nbsp; &nbsp; &nbsp; &nbsp; &nbsp; &nbsp;<font class='posOutcome'>Shared back: <strong>10</strong></font></font><div class='respPicDiv'><img src='img/responseButtonOffersNo0_wht.png' class='respPic'></div></div>","null","4","Ethan","2","Shared","0.8,0.35","14","0.8","trustrating_stim/white_mw049.bmp","3","44","10"
"html-keyboard-response","167","393667","0.0-19.0-1.10","63eaa9f8f0637c961dcfc277","bdp_trlrn","Tue Mar 14 2023 15:29:48 GMT-1000 (Hawaii-Aleutian Standard Time)","774496","Trustworthy,Untrustworthy","","1673","","","","decision","","<div class='trialDiv'><img src='trustrating_stim/white_00757_941201_fa_edt.bmp'><br><font class='baseline'><strong>Jordan</strong><p>Choose number of points to send.</font><div class='respPicDiv'><img src='img/responseButtonOffersNo0L.png' class='respPic'></div></div>","5","4","Jordan","9","Kept","0.2,0.65","12","0.2","trustrating_stim/white_00757_941201_fa_edt.bmp","7","49","11"
"html-keyboard-response","168","393928","0.0-19.0-2.10","63eaa9f8f0637c961dcfc277","bdp_trlrn","Tue Mar 14 2023 15:29:48 GMT-1000 (Hawaii-Aleutian Standard Time)","774496","Trustworthy,Untrustworthy","","null","","","","decisionFB","","<div class='trialDiv'><img src='trustrating_stim/white_00757_941201_fa_edt.bmp'><br><font class='baseline'><strong>Jordan</strong><p>Choose number of points to send.</font><div class='respPicDiv'><img src='img/responseButtonOffersNo0L5.png' class='respPic'></div></div>","null","4","Jordan","9","Kept","0.2,0.65","12","0.2","trustrating_stim/white_00757_941201_fa_edt.bmp","7","44","11"
"html-keyboard-response","169","394937","0.0-19.0-3.10","63eaa9f8f0637c961dcfc277","bdp_trlrn","Tue Mar 14 2023 15:29:48 GMT-1000 (Hawaii-Aleutian Standard Time)","774496","Trustworthy,Untrustworthy","","null","","","","feedback","","<div class='trialDiv'><img src='trustrating_stim/white_00757_941201_fa_edt.bmp'><br><font class='baseline'><strong>Jordan</strong><p>Received: <strong>20</strong></font> &nbsp; &nbsp; &nbsp; &nbsp; &nbsp; &nbsp;<font class='negOutcome'>Shared back: <strong>0</strong></font></font><div class='respPicDiv'><img src='img/responseButtonOffersNo0_wht.png' class='respPic'></div></div>","null","4","Jordan","9","Kept","0.2,0.65","12","0.2","trustrating_stim/white_00757_941201_fa_edt.bmp","7","44","11"
"html-keyboard-response","170","396215","0.0-19.0-1.11","63eaa9f8f0637c961dcfc277","bdp_trlrn","Tue Mar 14 2023 15:29:48 GMT-1000 (Hawaii-Aleutian Standard Time)","774496","Trustworthy,Untrustworthy","","1274","","","","decision","","<div class='trialDiv'><img src='trustrating_stim/white_00120_931230_fa_edt.bmp'><br><font class='baseline'><strong>Devin</strong><p>Choose number of points to send.</font><div class='respPicDiv'><img src='img/responseButtonOffersNo0L.png' class='respPic'></div></div>","1","4","Devin","7","Kept","0.2,0.8","9","0.2","trustrating_stim/white_00120_931230_fa_edt.bmp","5.5","49","12"
"html-keyboard-response","171","396467","0.0-19.0-2.11","63eaa9f8f0637c961dcfc277","bdp_trlrn","Tue Mar 14 2023 15:29:48 GMT-1000 (Hawaii-Aleutian Standard Time)","774496","Trustworthy,Untrustworthy","","null","","","","decisionFB","","<div class='trialDiv'><img src='trustrating_stim/white_00120_931230_fa_edt.bmp'><br><font class='baseline'><strong>Devin</strong><p>Choose number of points to send.</font><div class='respPicDiv'><img src='img/responseButtonOffersNo0L1.png' class='respPic'></div></div>","null","4","Devin","7","Kept","0.2,0.8","9","0.2","trustrating_stim/white_00120_931230_fa_edt.bmp","5.5","48","12"
"html-keyboard-response","172","397479","0.0-19.0-3.11","63eaa9f8f0637c961dcfc277","bdp_trlrn","Tue Mar 14 2023 15:29:48 GMT-1000 (Hawaii-Aleutian Standard Time)","774496","Trustworthy,Untrustworthy","","null","","","","feedback","","<div class='trialDiv'><img src='trustrating_stim/white_00120_931230_fa_edt.bmp'><br><font class='baseline'><strong>Devin</strong><p>Received: <strong>4</strong></font> &nbsp; &nbsp; &nbsp; &nbsp; &nbsp; &nbsp;<font class='negOutcome'>Shared back: <strong>0</strong></font></font><div class='respPicDiv'><img src='img/responseButtonOffersNo0_wht.png' class='respPic'></div></div>","null","4","Devin","7","Kept","0.2,0.8","9","0.2","trustrating_stim/white_00120_931230_fa_edt.bmp","5.5","48","12"
"html-keyboard-response","173","398922","0.0-19.0-1.12","63eaa9f8f0637c961dcfc277","bdp_trlrn","Tue Mar 14 2023 15:29:48 GMT-1000 (Hawaii-Aleutian Standard Time)","774496","Trustworthy,Untrustworthy","","1441","","","","decision","","<div class='trialDiv'><img src='trustrating_stim/white_00757_941201_fa_edt.bmp'><br><font class='baseline'><strong>Jordan</strong><p>Choose number of points to send.</font><div class='respPicDiv'><img src='img/responseButtonOffersNo0L.png' class='respPic'></div></div>","1","5","Jordan","9","Kept","0.2,0.65","12","0.2","trustrating_stim/white_00757_941201_fa_edt.bmp","7","53","13"
"html-keyboard-response","174","399189","0.0-19.0-2.12","63eaa9f8f0637c961dcfc277","bdp_trlrn","Tue Mar 14 2023 15:29:48 GMT-1000 (Hawaii-Aleutian Standard Time)","774496","Trustworthy,Untrustworthy","","null","","","","decisionFB","","<div class='trialDiv'><img src='trustrating_stim/white_00757_941201_fa_edt.bmp'><br><font class='baseline'><strong>Jordan</strong><p>Choose number of points to send.</font><div class='respPicDiv'><img src='img/responseButtonOffersNo0L1.png' class='respPic'></div></div>","null","5","Jordan","9","Kept","0.2,0.65","12","0.2","trustrating_stim/white_00757_941201_fa_edt.bmp","7","52","13"
"html-keyboard-response","175","400199","0.0-19.0-3.12","63eaa9f8f0637c961dcfc277","bdp_trlrn","Tue Mar 14 2023 15:29:48 GMT-1000 (Hawaii-Aleutian Standard Time)","774496","Trustworthy,Untrustworthy","","null","","","","feedback","","<div class='trialDiv'><img src='trustrating_stim/white_00757_941201_fa_edt.bmp'><br><font class='baseline'><strong>Jordan</strong><p>Received: <strong>4</strong></font> &nbsp; &nbsp; &nbsp; &nbsp; &nbsp; &nbsp;<font class='negOutcome'>Shared back: <strong>0</strong></font></font><div class='respPicDiv'><img src='img/responseButtonOffersNo0_wht.png' class='respPic'></div></div>","null","5","Jordan","9","Kept","0.2,0.65","12","0.2","trustrating_stim/white_00757_941201_fa_edt.bmp","7","52","13"
"html-keyboard-response","176","402558","0.0-19.0-1.13","63eaa9f8f0637c961dcfc277","bdp_trlrn","Tue Mar 14 2023 15:29:48 GMT-1000 (Hawaii-Aleutian Standard Time)","774496","Trustworthy,Untrustworthy","","2357","","","","decision","","<div class='trialDiv'><img src='trustrating_stim/white_mw049.bmp'><br><font class='baseline'><strong>Ethan</strong><p>Choose number of points to send.</font><div class='respPicDiv'><img src='img/responseButtonOffersNo0L.png' class='respPic'></div></div>","5","5","Ethan","2","Shared","0.8,0.35","14","0.8","trustrating_stim/white_mw049.bmp","3","57","14"
"html-keyboard-response","177","402819","0.0-19.0-2.13","63eaa9f8f0637c961dcfc277","bdp_trlrn","Tue Mar 14 2023 15:29:48 GMT-1000 (Hawaii-Aleutian Standard Time)","774496","Trustworthy,Untrustworthy","","null","","","","decisionFB","","<div class='trialDiv'><img src='trustrating_stim/white_mw049.bmp'><br><font class='baseline'><strong>Ethan</strong><p>Choose number of points to send.</font><div class='respPicDiv'><img src='img/responseButtonOffersNo0L5.png' class='respPic'></div></div>","null","5","Ethan","2","Shared","0.8,0.35","14","0.8","trustrating_stim/white_mw049.bmp","3","52","14"
"html-keyboard-response","178","403832","0.0-19.0-3.13","63eaa9f8f0637c961dcfc277","bdp_trlrn","Tue Mar 14 2023 15:29:48 GMT-1000 (Hawaii-Aleutian Standard Time)","774496","Trustworthy,Untrustworthy","","null","","","","feedback","","<div class='trialDiv'><img src='trustrating_stim/white_mw049.bmp'><br><font class='baseline'><strong>Ethan</strong><p>Received: <strong>20</strong></font> &nbsp; &nbsp; &nbsp; &nbsp; &nbsp; &nbsp;<font class='posOutcome'>Shared back: <strong>10</strong></font></font><div class='respPicDiv'><img src='img/responseButtonOffersNo0_wht.png' class='respPic'></div></div>","null","5","Ethan","2","Shared","0.8,0.35","14","0.8","trustrating_stim/white_mw049.bmp","3","62","14"
"html-keyboard-response","179","405491","0.0-19.0-1.14","63eaa9f8f0637c961dcfc277","bdp_trlrn","Tue Mar 14 2023 15:29:48 GMT-1000 (Hawaii-Aleutian Standard Time)","774496","Trustworthy,Untrustworthy","","1657","","","","decision","","<div class='trialDiv'><img src='trustrating_stim/white_00120_931230_fa_edt.bmp'><br><font class='baseline'><strong>Devin</strong><p>Choose number of points to send.</font><div class='respPicDiv'><img src='img/responseButtonOffersNo0L.png' class='respPic'></div></div>","1","5","Devin","7","Kept","0.2,0.8","9","0.2","trustrating_stim/white_00120_931230_fa_edt.bmp","5.5","67","15"
"html-keyboard-response","180","405750","0.0-19.0-2.14","63eaa9f8f0637c961dcfc277","bdp_trlrn","Tue Mar 14 2023 15:29:48 GMT-1000 (Hawaii-Aleutian Standard Time)","774496","Trustworthy,Untrustworthy","","null","","","","decisionFB","","<div class='trialDiv'><img src='trustrating_stim/white_00120_931230_fa_edt.bmp'><br><font class='baseline'><strong>Devin</strong><p>Choose number of points to send.</font><div class='respPicDiv'><img src='img/responseButtonOffersNo0L1.png' class='respPic'></div></div>","null","5","Devin","7","Kept","0.2,0.8","9","0.2","trustrating_stim/white_00120_931230_fa_edt.bmp","5.5","66","15"
"html-keyboard-response","181","406761","0.0-19.0-3.14","63eaa9f8f0637c961dcfc277","bdp_trlrn","Tue Mar 14 2023 15:29:48 GMT-1000 (Hawaii-Aleutian Standard Time)","774496","Trustworthy,Untrustworthy","","null","","","","feedback","","<div class='trialDiv'><img src='trustrating_stim/white_00120_931230_fa_edt.bmp'><br><font class='baseline'><strong>Devin</strong><p>Received: <strong>4</strong></font> &nbsp; &nbsp; &nbsp; &nbsp; &nbsp; &nbsp;<font class='negOutcome'>Shared back: <strong>0</strong></font></font><div class='respPicDiv'><img src='img/responseButtonOffersNo0_wht.png' class='respPic'></div></div>","null","5","Devin","7","Kept","0.2,0.8","9","0.2","trustrating_stim/white_00120_931230_fa_edt.bmp","5.5","66","15"
"html-keyboard-response","182","410257","0.0-19.0-1.15","63eaa9f8f0637c961dcfc277","bdp_trlrn","Tue Mar 14 2023 15:29:48 GMT-1000 (Hawaii-Aleutian Standard Time)","774496","Trustworthy,Untrustworthy","","3493","","","","decision","","<div class='trialDiv'><img src='trustrating_stim/white_mw049.bmp'><br><font class='baseline'><strong>Ethan</strong><p>Choose number of points to send.</font><div class='respPicDiv'><img src='img/responseButtonOffersNo0L.png' class='respPic'></div></div>","5","6","Ethan","2","Shared","0.8,0.35","14","0.8","trustrating_stim/white_mw049.bmp","3","71","16"
"html-keyboard-response","183","410511","0.0-19.0-2.15","63eaa9f8f0637c961dcfc277","bdp_trlrn","Tue Mar 14 2023 15:29:48 GMT-1000 (Hawaii-Aleutian Standard Time)","774496","Trustworthy,Untrustworthy","","null","","","","decisionFB","","<div class='trialDiv'><img src='trustrating_stim/white_mw049.bmp'><br><font class='baseline'><strong>Ethan</strong><p>Choose number of points to send.</font><div class='respPicDiv'><img src='img/responseButtonOffersNo0L5.png' class='respPic'></div></div>","null","6","Ethan","2","Shared","0.8,0.35","14","0.8","trustrating_stim/white_mw049.bmp","3","66","16"
"html-keyboard-response","184","411525","0.0-19.0-3.15","63eaa9f8f0637c961dcfc277","bdp_trlrn","Tue Mar 14 2023 15:29:48 GMT-1000 (Hawaii-Aleutian Standard Time)","774496","Trustworthy,Untrustworthy","","null","","","","feedback","","<div class='trialDiv'><img src='trustrating_stim/white_mw049.bmp'><br><font class='baseline'><strong>Ethan</strong><p>Received: <strong>20</strong></font> &nbsp; &nbsp; &nbsp; &nbsp; &nbsp; &nbsp;<font class='posOutcome'>Shared back: <strong>10</strong></font></font><div class='respPicDiv'><img src='img/responseButtonOffersNo0_wht.png' class='respPic'></div></div>","null","6","Ethan","2","Shared","0.8,0.35","14","0.8","trustrating_stim/white_mw049.bmp","3","76","16"
"html-keyboard-response","185","412912","0.0-19.0-1.16","63eaa9f8f0637c961dcfc277","bdp_trlrn","Tue Mar 14 2023 15:29:48 GMT-1000 (Hawaii-Aleutian Standard Time)","774496","Trustworthy,Untrustworthy","","1385","","","","decision","","<div class='trialDiv'><img src='trustrating_stim/white_00757_941201_fa_edt.bmp'><br><font class='baseline'><strong>Jordan</strong><p>Choose number of points to send.</font><div class='respPicDiv'><img src='img/responseButtonOffersNo0L.png' class='respPic'></div></div>","1","6","Jordan","9","Kept","0.2,0.65","12","0.2","trustrating_stim/white_00757_941201_fa_edt.bmp","7","81","17"
"html-keyboard-response","186","413165","0.0-19.0-2.16","63eaa9f8f0637c961dcfc277","bdp_trlrn","Tue Mar 14 2023 15:29:48 GMT-1000 (Hawaii-Aleutian Standard Time)","774496","Trustworthy,Untrustworthy","","null","","","","decisionFB","","<div class='trialDiv'><img src='trustrating_stim/white_00757_941201_fa_edt.bmp'><br><font class='baseline'><strong>Jordan</strong><p>Choose number of points to send.</font><div class='respPicDiv'><img src='img/responseButtonOffersNo0L1.png' class='respPic'></div></div>","null","6","Jordan","9","Kept","0.2,0.65","12","0.2","trustrating_stim/white_00757_941201_fa_edt.bmp","7","80","17"
"html-keyboard-response","187","414181","0.0-19.0-3.16","63eaa9f8f0637c961dcfc277","bdp_trlrn","Tue Mar 14 2023 15:29:48 GMT-1000 (Hawaii-Aleutian Standard Time)","774496","Trustworthy,Untrustworthy","","null","","","","feedback","","<div class='trialDiv'><img src='trustrating_stim/white_00757_941201_fa_edt.bmp'><br><font class='baseline'><strong>Jordan</strong><p>Received: <strong>4</strong></font> &nbsp; &nbsp; &nbsp; &nbsp; &nbsp; &nbsp;<font class='negOutcome'>Shared back: <strong>0</strong></font></font><div class='respPicDiv'><img src='img/responseButtonOffersNo0_wht.png' class='respPic'></div></div>","null","6","Jordan","9","Kept","0.2,0.65","12","0.2","trustrating_stim/white_00757_941201_fa_edt.bmp","7","80","17"
"html-keyboard-response","188","416505","0.0-19.0-1.17","63eaa9f8f0637c961dcfc277","bdp_trlrn","Tue Mar 14 2023 15:29:48 GMT-1000 (Hawaii-Aleutian Standard Time)","774496","Trustworthy,Untrustworthy","","2322","","","","decision","","<div class='trialDiv'><img src='trustrating_stim/white_00120_931230_fa_edt.bmp'><br><font class='baseline'><strong>Devin</strong><p>Choose number of points to send.</font><div class='respPicDiv'><img src='img/responseButtonOffersNo0L.png' class='respPic'></div></div>","1","6","Devin","7","Kept","0.2,0.8","9","0.2","trustrating_stim/white_00120_931230_fa_edt.bmp","5.5","85","18"
"html-keyboard-response","189","416762","0.0-19.0-2.17","63eaa9f8f0637c961dcfc277","bdp_trlrn","Tue Mar 14 2023 15:29:48 GMT-1000 (Hawaii-Aleutian Standard Time)","774496","Trustworthy,Untrustworthy","","null","","","","decisionFB","","<div class='trialDiv'><img src='trustrating_stim/white_00120_931230_fa_edt.bmp'><br><font class='baseline'><strong>Devin</strong><p>Choose number of points to send.</font><div class='respPicDiv'><img src='img/responseButtonOffersNo0L1.png' class='respPic'></div></div>","null","6","Devin","7","Kept","0.2,0.8","9","0.2","trustrating_stim/white_00120_931230_fa_edt.bmp","5.5","84","18"
"html-keyboard-response","190","417768","0.0-19.0-3.17","63eaa9f8f0637c961dcfc277","bdp_trlrn","Tue Mar 14 2023 15:29:48 GMT-1000 (Hawaii-Aleutian Standard Time)","774496","Trustworthy,Untrustworthy","","null","","","","feedback","","<div class='trialDiv'><img src='trustrating_stim/white_00120_931230_fa_edt.bmp'><br><font class='baseline'><strong>Devin</strong><p>Received: <strong>4</strong></font> &nbsp; &nbsp; &nbsp; &nbsp; &nbsp; &nbsp;<font class='negOutcome'>Shared back: <strong>0</strong></font></font><div class='respPicDiv'><img src='img/responseButtonOffersNo0_wht.png' class='respPic'></div></div>","null","6","Devin","7","Kept","0.2,0.8","9","0.2","trustrating_stim/white_00120_931230_fa_edt.bmp","5.5","84","18"
"html-keyboard-response","191","419043","0.0-19.0-1.18","63eaa9f8f0637c961dcfc277","bdp_trlrn","Tue Mar 14 2023 15:29:48 GMT-1000 (Hawaii-Aleutian Standard Time)","774496","Trustworthy,Untrustworthy","","1273","","","","decision","","<div class='trialDiv'><img src='trustrating_stim/white_mw049.bmp'><br><font class='baseline'><strong>Ethan</strong><p>Choose number of points to send.</font><div class='respPicDiv'><img src='img/responseButtonOffersNo0L.png' class='respPic'></div></div>","5","7","Ethan","2","Shared","0.8,0.35","14","0.8","trustrating_stim/white_mw049.bmp","3","89","19"
"html-keyboard-response","192","419308","0.0-19.0-2.18","63eaa9f8f0637c961dcfc277","bdp_trlrn","Tue Mar 14 2023 15:29:48 GMT-1000 (Hawaii-Aleutian Standard Time)","774496","Trustworthy,Untrustworthy","","null","","","","decisionFB","","<div class='trialDiv'><img src='trustrating_stim/white_mw049.bmp'><br><font class='baseline'><strong>Ethan</strong><p>Choose number of points to send.</font><div class='respPicDiv'><img src='img/responseButtonOffersNo0L5.png' class='respPic'></div></div>","null","7","Ethan","2","Shared","0.8,0.35","14","0.8","trustrating_stim/white_mw049.bmp","3","84","19"
"html-keyboard-response","193","420313","0.0-19.0-3.18","63eaa9f8f0637c961dcfc277","bdp_trlrn","Tue Mar 14 2023 15:29:48 GMT-1000 (Hawaii-Aleutian Standard Time)","774496","Trustworthy,Untrustworthy","","null","","","","feedback","","<div class='trialDiv'><img src='trustrating_stim/white_mw049.bmp'><br><font class='baseline'><strong>Ethan</strong><p>Received: <strong>20</strong></font> &nbsp; &nbsp; &nbsp; &nbsp; &nbsp; &nbsp;<font class='posOutcome'>Shared back: <strong>10</strong></font></font><div class='respPicDiv'><img src='img/responseButtonOffersNo0_wht.png' class='respPic'></div></div>","null","7","Ethan","2","Shared","0.8,0.35","14","0.8","trustrating_stim/white_mw049.bmp","3","94","19"
"html-keyboard-response","194","421634","0.0-19.0-1.19","63eaa9f8f0637c961dcfc277","bdp_trlrn","Tue Mar 14 2023 15:29:48 GMT-1000 (Hawaii-Aleutian Standard Time)","774496","Trustworthy,Untrustworthy","","1318","","","","decision","","<div class='trialDiv'><img src='trustrating_stim/white_00120_931230_fa_edt.bmp'><br><font class='baseline'><strong>Devin</strong><p>Choose number of points to send.</font><div class='respPicDiv'><img src='img/responseButtonOffersNo0L.png' class='respPic'></div></div>","1","7","Devin","7","Shared","0.2,0.8","9","0.2","trustrating_stim/white_00120_931230_fa_edt.bmp","5.5","99","20"
"html-keyboard-response","195","421892","0.0-19.0-2.19","63eaa9f8f0637c961dcfc277","bdp_trlrn","Tue Mar 14 2023 15:29:48 GMT-1000 (Hawaii-Aleutian Standard Time)","774496","Trustworthy,Untrustworthy","","null","","","","decisionFB","","<div class='trialDiv'><img src='trustrating_stim/white_00120_931230_fa_edt.bmp'><br><font class='baseline'><strong>Devin</strong><p>Choose number of points to send.</font><div class='respPicDiv'><img src='img/responseButtonOffersNo0L1.png' class='respPic'></div></div>","null","7","Devin","7","Shared","0.2,0.8","9","0.2","trustrating_stim/white_00120_931230_fa_edt.bmp","5.5","98","20"
"html-keyboard-response","196","422904","0.0-19.0-3.19","63eaa9f8f0637c961dcfc277","bdp_trlrn","Tue Mar 14 2023 15:29:48 GMT-1000 (Hawaii-Aleutian Standard Time)","774496","Trustworthy,Untrustworthy","","null","","","","feedback","","<div class='trialDiv'><img src='trustrating_stim/white_00120_931230_fa_edt.bmp'><br><font class='baseline'><strong>Devin</strong><p>Received: <strong>4</strong></font> &nbsp; &nbsp; &nbsp; &nbsp; &nbsp; &nbsp;<font class='posOutcome'>Shared back: <strong>2</strong></font></font><div class='respPicDiv'><img src='img/responseButtonOffersNo0_wht.png' class='respPic'></div></div>","null","7","Devin","7","Shared","0.2,0.8","9","0.2","trustrating_stim/white_00120_931230_fa_edt.bmp","5.5","100","20"
"html-keyboard-response","197","425094","0.0-19.0-1.20","63eaa9f8f0637c961dcfc277","bdp_trlrn","Tue Mar 14 2023 15:29:48 GMT-1000 (Hawaii-Aleutian Standard Time)","774496","Trustworthy,Untrustworthy","","2188","","","","decision","","<div class='trialDiv'><img src='trustrating_stim/white_00757_941201_fa_edt.bmp'><br><font class='baseline'><strong>Jordan</strong><p>Choose number of points to send.</font><div class='respPicDiv'><img src='img/responseButtonOffersNo0L.png' class='respPic'></div></div>","1","7","Jordan","9","Kept","0.2,0.65","12","0.2","trustrating_stim/white_00757_941201_fa_edt.bmp","7","105","21"
"html-keyboard-response","198","425352","0.0-19.0-2.20","63eaa9f8f0637c961dcfc277","bdp_trlrn","Tue Mar 14 2023 15:29:48 GMT-1000 (Hawaii-Aleutian Standard Time)","774496","Trustworthy,Untrustworthy","","null","","","","decisionFB","","<div class='trialDiv'><img src='trustrating_stim/white_00757_941201_fa_edt.bmp'><br><font class='baseline'><strong>Jordan</strong><p>Choose number of points to send.</font><div class='respPicDiv'><img src='img/responseButtonOffersNo0L1.png' class='respPic'></div></div>","null","7","Jordan","9","Kept","0.2,0.65","12","0.2","trustrating_stim/white_00757_941201_fa_edt.bmp","7","104","21"
"html-keyboard-response","199","426364","0.0-19.0-3.20","63eaa9f8f0637c961dcfc277","bdp_trlrn","Tue Mar 14 2023 15:29:48 GMT-1000 (Hawaii-Aleutian Standard Time)","774496","Trustworthy,Untrustworthy","","null","","","","feedback","","<div class='trialDiv'><img src='trustrating_stim/white_00757_941201_fa_edt.bmp'><br><font class='baseline'><strong>Jordan</strong><p>Received: <strong>4</strong></font> &nbsp; &nbsp; &nbsp; &nbsp; &nbsp; &nbsp;<font class='negOutcome'>Shared back: <strong>0</strong></font></font><div class='respPicDiv'><img src='img/responseButtonOffersNo0_wht.png' class='respPic'></div></div>","null","7","Jordan","9","Kept","0.2,0.65","12","0.2","trustrating_stim/white_00757_941201_fa_edt.bmp","7","104","21"
"html-keyboard-response","200","428807","0.0-19.0-1.21","63eaa9f8f0637c961dcfc277","bdp_trlrn","Tue Mar 14 2023 15:29:48 GMT-1000 (Hawaii-Aleutian Standard Time)","774496","Trustworthy,Untrustworthy","","2441","","","","decision","","<div class='trialDiv'><img src='trustrating_stim/white_00120_931230_fa_edt.bmp'><br><font class='baseline'><strong>Devin</strong><p>Choose number of points to send.</font><div class='respPicDiv'><img src='img/responseButtonOffersNo0L.png' class='respPic'></div></div>","2","8","Devin","7","Kept","0.2,0.8","9","0.2","trustrating_stim/white_00120_931230_fa_edt.bmp","5.5","109","22"
"html-keyboard-response","201","429067","0.0-19.0-2.21","63eaa9f8f0637c961dcfc277","bdp_trlrn","Tue Mar 14 2023 15:29:48 GMT-1000 (Hawaii-Aleutian Standard Time)","774496","Trustworthy,Untrustworthy","","null","","","","decisionFB","","<div class='trialDiv'><img src='trustrating_stim/white_00120_931230_fa_edt.bmp'><br><font class='baseline'><strong>Devin</strong><p>Choose number of points to send.</font><div class='respPicDiv'><img src='img/responseButtonOffersNo0L2.png' class='respPic'></div></div>","null","8","Devin","7","Kept","0.2,0.8","9","0.2","trustrating_stim/white_00120_931230_fa_edt.bmp","5.5","107","22"
"html-keyboard-response","202","430073","0.0-19.0-3.21","63eaa9f8f0637c961dcfc277","bdp_trlrn","Tue Mar 14 2023 15:29:48 GMT-1000 (Hawaii-Aleutian Standard Time)","774496","Trustworthy,Untrustworthy","","null","","","","feedback","","<div class='trialDiv'><img src='trustrating_stim/white_00120_931230_fa_edt.bmp'><br><font class='baseline'><strong>Devin</strong><p>Received: <strong>8</strong></font> &nbsp; &nbsp; &nbsp; &nbsp; &nbsp; &nbsp;<font class='negOutcome'>Shared back: <strong>0</strong></font></font><div class='respPicDiv'><img src='img/responseButtonOffersNo0_wht.png' class='respPic'></div></div>","null","8","Devin","7","Kept","0.2,0.8","9","0.2","trustrating_stim/white_00120_931230_fa_edt.bmp","5.5","107","22"
"html-keyboard-response","203","431436","0.0-19.0-1.22","63eaa9f8f0637c961dcfc277","bdp_trlrn","Tue Mar 14 2023 15:29:48 GMT-1000 (Hawaii-Aleutian Standard Time)","774496","Trustworthy,Untrustworthy","","1360","","","","decision","","<div class='trialDiv'><img src='trustrating_stim/white_mw049.bmp'><br><font class='baseline'><strong>Ethan</strong><p>Choose number of points to send.</font><div class='respPicDiv'><img src='img/responseButtonOffersNo0L.png' class='respPic'></div></div>","5","8","Ethan","2","Shared","0.8,0.35","14","0.8","trustrating_stim/white_mw049.bmp","3","112","23"
"html-keyboard-response","204","431689","0.0-19.0-2.22","63eaa9f8f0637c961dcfc277","bdp_trlrn","Tue Mar 14 2023 15:29:48 GMT-1000 (Hawaii-Aleutian Standard Time)","774496","Trustworthy,Untrustworthy","","null","","","","decisionFB","","<div class='trialDiv'><img src='trustrating_stim/white_mw049.bmp'><br><font class='baseline'><strong>Ethan</strong><p>Choose number of points to send.</font><div class='respPicDiv'><img src='img/responseButtonOffersNo0L5.png' class='respPic'></div></div>","null","8","Ethan","2","Shared","0.8,0.35","14","0.8","trustrating_stim/white_mw049.bmp","3","107","23"
"html-keyboard-response","205","432697","0.0-19.0-3.22","63eaa9f8f0637c961dcfc277","bdp_trlrn","Tue Mar 14 2023 15:29:48 GMT-1000 (Hawaii-Aleutian Standard Time)","774496","Trustworthy,Untrustworthy","","null","","","","feedback","","<div class='trialDiv'><img src='trustrating_stim/white_mw049.bmp'><br><font class='baseline'><strong>Ethan</strong><p>Received: <strong>20</strong></font> &nbsp; &nbsp; &nbsp; &nbsp; &nbsp; &nbsp;<font class='posOutcome'>Shared back: <strong>10</strong></font></font><div class='respPicDiv'><img src='img/responseButtonOffersNo0_wht.png' class='respPic'></div></div>","null","8","Ethan","2","Shared","0.8,0.35","14","0.8","trustrating_stim/white_mw049.bmp","3","117","23"
"html-keyboard-response","206","434279","0.0-19.0-1.23","63eaa9f8f0637c961dcfc277","bdp_trlrn","Tue Mar 14 2023 15:29:48 GMT-1000 (Hawaii-Aleutian Standard Time)","774496","Trustworthy,Untrustworthy","","1579","","","","decision","","<div class='trialDiv'><img src='trustrating_stim/white_00757_941201_fa_edt.bmp'><br><font class='baseline'><strong>Jordan</strong><p>Choose number of points to send.</font><div class='respPicDiv'><img src='img/responseButtonOffersNo0L.png' class='respPic'></div></div>","2","8","Jordan","9","Kept","0.2,0.65","12","0.2","trustrating_stim/white_00757_941201_fa_edt.bmp","7","122","24"
"html-keyboard-response","207","434546","0.0-19.0-2.23","63eaa9f8f0637c961dcfc277","bdp_trlrn","Tue Mar 14 2023 15:29:48 GMT-1000 (Hawaii-Aleutian Standard Time)","774496","Trustworthy,Untrustworthy","","null","","","","decisionFB","","<div class='trialDiv'><img src='trustrating_stim/white_00757_941201_fa_edt.bmp'><br><font class='baseline'><strong>Jordan</strong><p>Choose number of points to send.</font><div class='respPicDiv'><img src='img/responseButtonOffersNo0L2.png' class='respPic'></div></div>","null","8","Jordan","9","Kept","0.2,0.65","12","0.2","trustrating_stim/white_00757_941201_fa_edt.bmp","7","120","24"
"html-keyboard-response","208","435559","0.0-19.0-3.23","63eaa9f8f0637c961dcfc277","bdp_trlrn","Tue Mar 14 2023 15:29:48 GMT-1000 (Hawaii-Aleutian Standard Time)","774496","Trustworthy,Untrustworthy","","null","","","","feedback","","<div class='trialDiv'><img src='trustrating_stim/white_00757_941201_fa_edt.bmp'><br><font class='baseline'><strong>Jordan</strong><p>Received: <strong>8</strong></font> &nbsp; &nbsp; &nbsp; &nbsp; &nbsp; &nbsp;<font class='negOutcome'>Shared back: <strong>0</strong></font></font><div class='respPicDiv'><img src='img/responseButtonOffersNo0_wht.png' class='respPic'></div></div>","null","8","Jordan","9","Kept","0.2,0.65","12","0.2","trustrating_stim/white_00757_941201_fa_edt.bmp","7","120","24"
"html-keyboard-response","209","437011","0.0-19.0-1.24","63eaa9f8f0637c961dcfc277","bdp_trlrn","Tue Mar 14 2023 15:29:48 GMT-1000 (Hawaii-Aleutian Standard Time)","774496","Trustworthy,Untrustworthy","","1449","","","","decision","","<div class='trialDiv'><img src='trustrating_stim/white_mw049.bmp'><br><font class='baseline'><strong>Ethan</strong><p>Choose number of points to send.</font><div class='respPicDiv'><img src='img/responseButtonOffersNo0L.png' class='respPic'></div></div>","5","9","Ethan","2","Shared","0.8,0.35","14","0.8","trustrating_stim/white_mw049.bmp","3","125","25"
"html-keyboard-response","210","437270","0.0-19.0-2.24","63eaa9f8f0637c961dcfc277","bdp_trlrn","Tue Mar 14 2023 15:29:48 GMT-1000 (Hawaii-Aleutian Standard Time)","774496","Trustworthy,Untrustworthy","","null","","","","decisionFB","","<div class='trialDiv'><img src='trustrating_stim/white_mw049.bmp'><br><font class='baseline'><strong>Ethan</strong><p>Choose number of points to send.</font><div class='respPicDiv'><img src='img/responseButtonOffersNo0L5.png' class='respPic'></div></div>","null","9","Ethan","2","Shared","0.8,0.35","14","0.8","trustrating_stim/white_mw049.bmp","3","120","25"
"html-keyboard-response","211","438283","0.0-19.0-3.24","63eaa9f8f0637c961dcfc277","bdp_trlrn","Tue Mar 14 2023 15:29:48 GMT-1000 (Hawaii-Aleutian Standard Time)","774496","Trustworthy,Untrustworthy","","null","","","","feedback","","<div class='trialDiv'><img src='trustrating_stim/white_mw049.bmp'><br><font class='baseline'><strong>Ethan</strong><p>Received: <strong>20</strong></font> &nbsp; &nbsp; &nbsp; &nbsp; &nbsp; &nbsp;<font class='posOutcome'>Shared back: <strong>10</strong></font></font><div class='respPicDiv'><img src='img/responseButtonOffersNo0_wht.png' class='respPic'></div></div>","null","9","Ethan","2","Shared","0.8,0.35","14","0.8","trustrating_stim/white_mw049.bmp","3","130","25"
"html-keyboard-response","212","440439","0.0-19.0-1.25","63eaa9f8f0637c961dcfc277","bdp_trlrn","Tue Mar 14 2023 15:29:48 GMT-1000 (Hawaii-Aleutian Standard Time)","774496","Trustworthy,Untrustworthy","","2154","","","","decision","","<div class='trialDiv'><img src='trustrating_stim/white_00120_931230_fa_edt.bmp'><br><font class='baseline'><strong>Devin</strong><p>Choose number of points to send.</font><div class='respPicDiv'><img src='img/responseButtonOffersNo0L.png' class='respPic'></div></div>","1","9","Devin","7","Shared","0.2,0.8","9","0.2","trustrating_stim/white_00120_931230_fa_edt.bmp","5.5","135","26"
"html-keyboard-response","213","440695","0.0-19.0-2.25","63eaa9f8f0637c961dcfc277","bdp_trlrn","Tue Mar 14 2023 15:29:48 GMT-1000 (Hawaii-Aleutian Standard Time)","774496","Trustworthy,Untrustworthy","","null","","","","decisionFB","","<div class='trialDiv'><img src='trustrating_stim/white_00120_931230_fa_edt.bmp'><br><font class='baseline'><strong>Devin</strong><p>Choose number of points to send.</font><div class='respPicDiv'><img src='img/responseButtonOffersNo0L1.png' class='respPic'></div></div>","null","9","Devin","7","Shared","0.2,0.8","9","0.2","trustrating_stim/white_00120_931230_fa_edt.bmp","5.5","134","26"
"html-keyboard-response","214","441702","0.0-19.0-3.25","63eaa9f8f0637c961dcfc277","bdp_trlrn","Tue Mar 14 2023 15:29:48 GMT-1000 (Hawaii-Aleutian Standard Time)","774496","Trustworthy,Untrustworthy","","null","","","","feedback","","<div class='trialDiv'><img src='trustrating_stim/white_00120_931230_fa_edt.bmp'><br><font class='baseline'><strong>Devin</strong><p>Received: <strong>4</strong></font> &nbsp; &nbsp; &nbsp; &nbsp; &nbsp; &nbsp;<font class='posOutcome'>Shared back: <strong>2</strong></font></font><div class='respPicDiv'><img src='img/responseButtonOffersNo0_wht.png' class='respPic'></div></div>","null","9","Devin","7","Shared","0.2,0.8","9","0.2","trustrating_stim/white_00120_931230_fa_edt.bmp","5.5","136","26"
"html-keyboard-response","215","442444","0.0-19.0-1.26","63eaa9f8f0637c961dcfc277","bdp_trlrn","Tue Mar 14 2023 15:29:48 GMT-1000 (Hawaii-Aleutian Standard Time)","774496","Trustworthy,Untrustworthy","","740","","","","decision","","<div class='trialDiv'><img src='trustrating_stim/white_00757_941201_fa_edt.bmp'><br><font class='baseline'><strong>Jordan</strong><p>Choose number of points to send.</font><div class='respPicDiv'><img src='img/responseButtonOffersNo0L.png' class='respPic'></div></div>","1","9","Jordan","9","Kept","0.2,0.65","12","0.2","trustrating_stim/white_00757_941201_fa_edt.bmp","7","141","27"
"html-keyboard-response","216","442699","0.0-19.0-2.26","63eaa9f8f0637c961dcfc277","bdp_trlrn","Tue Mar 14 2023 15:29:48 GMT-1000 (Hawaii-Aleutian Standard Time)","774496","Trustworthy,Untrustworthy","","null","","","","decisionFB","","<div class='trialDiv'><img src='trustrating_stim/white_00757_941201_fa_edt.bmp'><br><font class='baseline'><strong>Jordan</strong><p>Choose number of points to send.</font><div class='respPicDiv'><img src='img/responseButtonOffersNo0L1.png' class='respPic'></div></div>","null","9","Jordan","9","Kept","0.2,0.65","12","0.2","trustrating_stim/white_00757_941201_fa_edt.bmp","7","140","27"
"html-keyboard-response","217","443702","0.0-19.0-3.26","63eaa9f8f0637c961dcfc277","bdp_trlrn","Tue Mar 14 2023 15:29:48 GMT-1000 (Hawaii-Aleutian Standard Time)","774496","Trustworthy,Untrustworthy","","null","","","","feedback","","<div class='trialDiv'><img src='trustrating_stim/white_00757_941201_fa_edt.bmp'><br><font class='baseline'><strong>Jordan</strong><p>Received: <strong>4</strong></font> &nbsp; &nbsp; &nbsp; &nbsp; &nbsp; &nbsp;<font class='negOutcome'>Shared back: <strong>0</strong></font></font><div class='respPicDiv'><img src='img/responseButtonOffersNo0_wht.png' class='respPic'></div></div>","null","9","Jordan","9","Kept","0.2,0.65","12","0.2","trustrating_stim/white_00757_941201_fa_edt.bmp","7","140","27"
