"trial_type","trial_index","time_elapsed","internal_node_id","subject_id","task","startTime","totalTime","labels","view_history","rt","event","trial","time","trialtype","success","stimulus","key_press","aground","name","faceID","outcome","agenttype","agentswpt","agentcurrpshare","face","avgRating","point_total","round"
"pavlovia","0","6","0.0-0.0","63f796a016e377d12cff50f1","bdp_trlrn","Tue Mar 14 2023 20:28:08 GMT-0500 (Central Daylight Time)","764696","Untrustworthy,Trustworthy","","","","","","","","","","","","","","","","","","","",""
"instructions","1","4126","0.0-1.0","63f796a016e377d12cff50f1","bdp_trlrn","Tue Mar 14 2023 20:28:08 GMT-0500 (Central Daylight Time)","764696","Untrustworthy,Trustworthy","[{""page_index"":0,""viewing_time"":4120}]","4120","","","","","","","","","","","","","","","","","",""
"","","","","63f796a016e377d12cff50f1","bdp_trlrn","Tue Mar 14 2023 20:28:08 GMT-0500 (Central Daylight Time)","764696","Untrustworthy,Trustworthy","","","fullscreenenter","2","10206","fullscreenenter","","","","","","","","","","","","","",""
"fullscreen","2","11210","0.0-2.0","63f796a016e377d12cff50f1","bdp_trlrn","Tue Mar 14 2023 20:28:08 GMT-0500 (Central Daylight Time)","764696","Untrustworthy,Trustworthy","","","","","","","true","","","","","","","","","","","","",""
"instructions","3","27744","0.0-4.0","63f796a016e377d12cff50f1","bdp_trlrn","Tue Mar 14 2023 20:28:08 GMT-0500 (Central Daylight Time)","764696","Untrustworthy,Trustworthy","[{""page_index"":0,""viewing_time"":10312},{""page_index"":1,""viewing_time"":6220}]","16532","","","","","","","","","","","","","","","","","",""
"instructions","4","29747","0.0-5.0","63f796a016e377d12cff50f1","bdp_trlrn","Tue Mar 14 2023 20:28:08 GMT-0500 (Central Daylight Time)","764696","Untrustworthy,Trustworthy","[{""page_index"":0,""viewing_time"":2002}]","2002","","","","","","","","","","","","","","","","","",""
"image-keyboard-response","5","36814","0.0-6.0-1.0","63f796a016e377d12cff50f1","bdp_trlrn","Tue Mar 14 2023 20:28:08 GMT-0500 (Central Daylight Time)","764696","Untrustworthy,Trustworthy","","6948","","","","rating","","trustrating_stim/white_00761_941201_fb_edt.bmp","3","","","","","","","","","","",""
"image-keyboard-response","6","37019","0.0-6.0-2.0","63f796a016e377d12cff50f1","bdp_trlrn","Tue Mar 14 2023 20:28:08 GMT-0500 (Central Daylight Time)","764696","Untrustworthy,Trustworthy","","null","","","","ratingFB","","trustrating_stim/white_00761_941201_fb_edt.bmp","null","","","","","","","","","","",""
"image-keyboard-response","7","41002","0.0-6.0-1.1","63f796a016e377d12cff50f1","bdp_trlrn","Tue Mar 14 2023 20:28:08 GMT-0500 (Central Daylight Time)","764696","Untrustworthy,Trustworthy","","3874","","","","rating","","trustrating_stim/white_mw033.bmp","3","","","","","","","","","","",""
"image-keyboard-response","8","41211","0.0-6.0-2.1","63f796a016e377d12cff50f1","bdp_trlrn","Tue Mar 14 2023 20:28:08 GMT-0500 (Central Daylight Time)","764696","Untrustworthy,Trustworthy","","null","","","","ratingFB","","trustrating_stim/white_mw033.bmp","null","","","","","","","","","","",""
"image-keyboard-response","9","45741","0.0-6.0-1.2","63f796a016e377d12cff50f1","bdp_trlrn","Tue Mar 14 2023 20:28:08 GMT-0500 (Central Daylight Time)","764696","Untrustworthy,Trustworthy","","4428","","","","rating","","trustrating_stim/white_mw066.bmp","5","","","","","","","","","","",""
"image-keyboard-response","10","45947","0.0-6.0-2.2","63f796a016e377d12cff50f1","bdp_trlrn","Tue Mar 14 2023 20:28:08 GMT-0500 (Central Daylight Time)","764696","Untrustworthy,Trustworthy","","null","","","","ratingFB","","trustrating_stim/white_mw066.bmp","null","","","","","","","","","","",""
"image-keyboard-response","11","47924","0.0-6.0-1.3","63f796a016e377d12cff50f1","bdp_trlrn","Tue Mar 14 2023 20:28:08 GMT-0500 (Central Daylight Time)","764696","Untrustworthy,Trustworthy","","1869","","","","rating","","trustrating_stim/white_mw097.bmp","2","","","","","","","","","","",""
"image-keyboard-response","12","48130","0.0-6.0-2.3","63f796a016e377d12cff50f1","bdp_trlrn","Tue Mar 14 2023 20:28:08 GMT-0500 (Central Daylight Time)","764696","Untrustworthy,Trustworthy","","null","","","","ratingFB","","trustrating_stim/white_mw097.bmp","null","","","","","","","","","","",""
"image-keyboard-response","13","52609","0.0-6.0-1.4","63f796a016e377d12cff50f1","bdp_trlrn","Tue Mar 14 2023 20:28:08 GMT-0500 (Central Daylight Time)","764696","Untrustworthy,Trustworthy","","4369","","","","rating","","trustrating_stim/white_00299_940422_fa_edt.bmp","4","","","","","","","","","","",""
"image-keyboard-response","14","52819","0.0-6.0-2.4","63f796a016e377d12cff50f1","bdp_trlrn","Tue Mar 14 2023 20:28:08 GMT-0500 (Central Daylight Time)","764696","Untrustworthy,Trustworthy","","null","","","","ratingFB","","trustrating_stim/white_00299_940422_fa_edt.bmp","null","","","","","","","","","","",""
"image-keyboard-response","15","54539","0.0-6.0-1.5","63f796a016e377d12cff50f1","bdp_trlrn","Tue Mar 14 2023 20:28:08 GMT-0500 (Central Daylight Time)","764696","Untrustworthy,Trustworthy","","1611","","","","rating","","trustrating_stim/white_mw071.bmp","2","","","","","","","","","","",""
"image-keyboard-response","16","54745","0.0-6.0-2.5","63f796a016e377d12cff50f1","bdp_trlrn","Tue Mar 14 2023 20:28:08 GMT-0500 (Central Daylight Time)","764696","Untrustworthy,Trustworthy","","null","","","","ratingFB","","trustrating_stim/white_mw071.bmp","null","","","","","","","","","","",""
"image-keyboard-response","17","59100","0.0-6.0-1.6","63f796a016e377d12cff50f1","bdp_trlrn","Tue Mar 14 2023 20:28:08 GMT-0500 (Central Daylight Time)","764696","Untrustworthy,Trustworthy","","4245","","","","rating","","trustrating_stim/white_00577_940928_fa_edt.bmp","2","","","","","","","","","","",""
"image-keyboard-response","18","59310","0.0-6.0-2.6","63f796a016e377d12cff50f1","bdp_trlrn","Tue Mar 14 2023 20:28:08 GMT-0500 (Central Daylight Time)","764696","Untrustworthy,Trustworthy","","null","","","","ratingFB","","trustrating_stim/white_00577_940928_fa_edt.bmp","null","","","","","","","","","","",""
"image-keyboard-response","19","60685","0.0-6.0-1.7","63f796a016e377d12cff50f1","bdp_trlrn","Tue Mar 14 2023 20:28:08 GMT-0500 (Central Daylight Time)","764696","Untrustworthy,Trustworthy","","1271","","","","rating","","trustrating_stim/white_00785_941205_fb_edt.bmp","1","","","","","","","","","","",""
"image-keyboard-response","20","60888","0.0-6.0-2.7","63f796a016e377d12cff50f1","bdp_trlrn","Tue Mar 14 2023 20:28:08 GMT-0500 (Central Daylight Time)","764696","Untrustworthy,Trustworthy","","null","","","","ratingFB","","trustrating_stim/white_00785_941205_fb_edt.bmp","null","","","","","","","","","","",""
"image-keyboard-response","21","63805","0.0-6.0-1.8","63f796a016e377d12cff50f1","bdp_trlrn","Tue Mar 14 2023 20:28:08 GMT-0500 (Central Daylight Time)","764696","Untrustworthy,Trustworthy","","2809","","","","rating","","trustrating_stim/white_00602_940928_fb_edt.bmp","6","","","","","","","","","","",""
"image-keyboard-response","22","64023","0.0-6.0-2.8","63f796a016e377d12cff50f1","bdp_trlrn","Tue Mar 14 2023 20:28:08 GMT-0500 (Central Daylight Time)","764696","Untrustworthy,Trustworthy","","null","","","","ratingFB","","trustrating_stim/white_00602_940928_fb_edt.bmp","null","","","","","","","","","","",""
"image-keyboard-response","23","66063","0.0-6.0-1.9","63f796a016e377d12cff50f1","bdp_trlrn","Tue Mar 14 2023 20:28:08 GMT-0500 (Central Daylight Time)","764696","Untrustworthy,Trustworthy","","1925","","","","rating","","trustrating_stim/white_00757_941201_fa_edt.bmp","2","","","","","","","","","","",""
"image-keyboard-response","24","66272","0.0-6.0-2.9","63f796a016e377d12cff50f1","bdp_trlrn","Tue Mar 14 2023 20:28:08 GMT-0500 (Central Daylight Time)","764696","Untrustworthy,Trustworthy","","null","","","","ratingFB","","trustrating_stim/white_00757_941201_fa_edt.bmp","null","","","","","","","","","","",""
"image-keyboard-response","25","69512","0.0-6.0-1.10","63f796a016e377d12cff50f1","bdp_trlrn","Tue Mar 14 2023 20:28:08 GMT-0500 (Central Daylight Time)","764696","Untrustworthy,Trustworthy","","3130","","","","rating","","trustrating_stim/white_00807_941205_fb_edt.bmp","2","","","","","","","","","","",""
"image-keyboard-response","26","69714","0.0-6.0-2.10","63f796a016e377d12cff50f1","bdp_trlrn","Tue Mar 14 2023 20:28:08 GMT-0500 (Central Daylight Time)","764696","Untrustworthy,Trustworthy","","null","","","","ratingFB","","trustrating_stim/white_00807_941205_fb_edt.bmp","null","","","","","","","","","","",""
"image-keyboard-response","27","72522","0.0-6.0-1.11","63f796a016e377d12cff50f1","bdp_trlrn","Tue Mar 14 2023 20:28:08 GMT-0500 (Central Daylight Time)","764696","Untrustworthy,Trustworthy","","2698","","","","rating","","trustrating_stim/white_mw084.bmp","1","","","","","","","","","","",""
"image-keyboard-response","28","72724","0.0-6.0-2.11","63f796a016e377d12cff50f1","bdp_trlrn","Tue Mar 14 2023 20:28:08 GMT-0500 (Central Daylight Time)","764696","Untrustworthy,Trustworthy","","null","","","","ratingFB","","trustrating_stim/white_mw084.bmp","null","","","","","","","","","","",""
"image-keyboard-response","29","74113","0.0-6.0-1.12","63f796a016e377d12cff50f1","bdp_trlrn","Tue Mar 14 2023 20:28:08 GMT-0500 (Central Daylight Time)","764696","Untrustworthy,Trustworthy","","1281","","","","rating","","trustrating_stim/white_mw048.bmp","1","","","","","","","","","","",""
"image-keyboard-response","30","74322","0.0-6.0-2.12","63f796a016e377d12cff50f1","bdp_trlrn","Tue Mar 14 2023 20:28:08 GMT-0500 (Central Daylight Time)","764696","Untrustworthy,Trustworthy","","null","","","","ratingFB","","trustrating_stim/white_mw048.bmp","null","","","","","","","","","","",""
"image-keyboard-response","31","78191","0.0-6.0-1.13","63f796a016e377d12cff50f1","bdp_trlrn","Tue Mar 14 2023 20:28:08 GMT-0500 (Central Daylight Time)","764696","Untrustworthy,Trustworthy","","3756","","","","rating","","trustrating_stim/white_mw089.bmp","2","","","","","","","","","","",""
"image-keyboard-response","32","78398","0.0-6.0-2.13","63f796a016e377d12cff50f1","bdp_trlrn","Tue Mar 14 2023 20:28:08 GMT-0500 (Central Daylight Time)","764696","Untrustworthy,Trustworthy","","null","","","","ratingFB","","trustrating_stim/white_mw089.bmp","null","","","","","","","","","","",""
"image-keyboard-response","33","81392","0.0-6.0-1.14","63f796a016e377d12cff50f1","bdp_trlrn","Tue Mar 14 2023 20:28:08 GMT-0500 (Central Daylight Time)","764696","Untrustworthy,Trustworthy","","2886","","","","rating","","trustrating_stim/white_mw035.bmp","3","","","","","","","","","","",""
"image-keyboard-response","34","81604","0.0-6.0-2.14","63f796a016e377d12cff50f1","bdp_trlrn","Tue Mar 14 2023 20:28:08 GMT-0500 (Central Daylight Time)","764696","Untrustworthy,Trustworthy","","null","","","","ratingFB","","trustrating_stim/white_mw035.bmp","null","","","","","","","","","","",""
"image-keyboard-response","35","84691","0.0-6.0-1.15","63f796a016e377d12cff50f1","bdp_trlrn","Tue Mar 14 2023 20:28:08 GMT-0500 (Central Daylight Time)","764696","Untrustworthy,Trustworthy","","2984","","","","rating","","trustrating_stim/white_00109_931230_fa_edt.bmp","5","","","","","","","","","","",""
"image-keyboard-response","36","84894","0.0-6.0-2.15","63f796a016e377d12cff50f1","bdp_trlrn","Tue Mar 14 2023 20:28:08 GMT-0500 (Central Daylight Time)","764696","Untrustworthy,Trustworthy","","null","","","","ratingFB","","trustrating_stim/white_00109_931230_fa_edt.bmp","null","","","","","","","","","","",""
"image-keyboard-response","37","87658","0.0-6.0-1.16","63f796a016e377d12cff50f1","bdp_trlrn","Tue Mar 14 2023 20:28:08 GMT-0500 (Central Daylight Time)","764696","Untrustworthy,Trustworthy","","2661","","","","rating","","trustrating_stim/white_mw053.bmp","6","","","","","","","","","","",""
"image-keyboard-response","38","87860","0.0-6.0-2.16","63f796a016e377d12cff50f1","bdp_trlrn","Tue Mar 14 2023 20:28:08 GMT-0500 (Central Daylight Time)","764696","Untrustworthy,Trustworthy","","null","","","","ratingFB","","trustrating_stim/white_mw053.bmp","null","","","","","","","","","","",""
"image-keyboard-response","39","89876","0.0-6.0-1.17","63f796a016e377d12cff50f1","bdp_trlrn","Tue Mar 14 2023 20:28:08 GMT-0500 (Central Daylight Time)","764696","Untrustworthy,Trustworthy","","1905","","","","rating","","trustrating_stim/white_mw099.bmp","3","","","","","","","","","","",""
"image-keyboard-response","40","90091","0.0-6.0-2.17","63f796a016e377d12cff50f1","bdp_trlrn","Tue Mar 14 2023 20:28:08 GMT-0500 (Central Daylight Time)","764696","Untrustworthy,Trustworthy","","null","","","","ratingFB","","trustrating_stim/white_mw099.bmp","null","","","","","","","","","","",""
"image-keyboard-response","41","91530","0.0-6.0-1.18","63f796a016e377d12cff50f1","bdp_trlrn","Tue Mar 14 2023 20:28:08 GMT-0500 (Central Daylight Time)","764696","Untrustworthy,Trustworthy","","1330","","","","rating","","trustrating_stim/white_00340_940422_fa_edt.bmp","1","","","","","","","","","","",""
"image-keyboard-response","42","91731","0.0-6.0-2.18","63f796a016e377d12cff50f1","bdp_trlrn","Tue Mar 14 2023 20:28:08 GMT-0500 (Central Daylight Time)","764696","Untrustworthy,Trustworthy","","null","","","","ratingFB","","trustrating_stim/white_00340_940422_fa_edt.bmp","null","","","","","","","","","","",""
"image-keyboard-response","43","93994","0.0-6.0-1.19","63f796a016e377d12cff50f1","bdp_trlrn","Tue Mar 14 2023 20:28:08 GMT-0500 (Central Daylight Time)","764696","Untrustworthy,Trustworthy","","2145","","","","rating","","trustrating_stim/white_mw046.bmp","1","","","","","","","","","","",""
"image-keyboard-response","44","94198","0.0-6.0-2.19","63f796a016e377d12cff50f1","bdp_trlrn","Tue Mar 14 2023 20:28:08 GMT-0500 (Central Daylight Time)","764696","Untrustworthy,Trustworthy","","null","","","","ratingFB","","trustrating_stim/white_mw046.bmp","null","","","","","","","","","","",""
"image-keyboard-response","45","95357","0.0-6.0-1.20","63f796a016e377d12cff50f1","bdp_trlrn","Tue Mar 14 2023 20:28:08 GMT-0500 (Central Daylight Time)","764696","Untrustworthy,Trustworthy","","1056","","","","rating","","trustrating_stim/white_mw063.bmp","1","","","","","","","","","","",""
"image-keyboard-response","46","95564","0.0-6.0-2.20","63f796a016e377d12cff50f1","bdp_trlrn","Tue Mar 14 2023 20:28:08 GMT-0500 (Central Daylight Time)","764696","Untrustworthy,Trustworthy","","null","","","","ratingFB","","trustrating_stim/white_mw063.bmp","null","","","","","","","","","","",""
"image-keyboard-response","47","96890","0.0-6.0-1.21","63f796a016e377d12cff50f1","bdp_trlrn","Tue Mar 14 2023 20:28:08 GMT-0500 (Central Daylight Time)","764696","Untrustworthy,Trustworthy","","1214","","","","rating","","trustrating_stim/white_mw056.bmp","1","","","","","","","","","","",""
"image-keyboard-response","48","97094","0.0-6.0-2.21","63f796a016e377d12cff50f1","bdp_trlrn","Tue Mar 14 2023 20:28:08 GMT-0500 (Central Daylight Time)","764696","Untrustworthy,Trustworthy","","null","","","","ratingFB","","trustrating_stim/white_mw056.bmp","null","","","","","","","","","","",""
"image-keyboard-response","49","99758","0.0-6.0-1.22","63f796a016e377d12cff50f1","bdp_trlrn","Tue Mar 14 2023 20:28:08 GMT-0500 (Central Daylight Time)","764696","Untrustworthy,Trustworthy","","2554","","","","rating","","trustrating_stim/white_00129_931230_fb_edt.bmp","4","","","","","","","","","","",""
"image-keyboard-response","50","99976","0.0-6.0-2.22","63f796a016e377d12cff50f1","bdp_trlrn","Tue Mar 14 2023 20:28:08 GMT-0500 (Central Daylight Time)","764696","Untrustworthy,Trustworthy","","null","","","","ratingFB","","trustrating_stim/white_00129_931230_fb_edt.bmp","null","","","","","","","","","","",""
"image-keyboard-response","51","102318","0.0-6.0-1.23","63f796a016e377d12cff50f1","bdp_trlrn","Tue Mar 14 2023 20:28:08 GMT-0500 (Central Daylight Time)","764696","Untrustworthy,Trustworthy","","2237","","","","rating","","trustrating_stim/white_00120_931230_fa_edt.bmp","2","","","","","","","","","","",""
"image-keyboard-response","52","102525","0.0-6.0-2.23","63f796a016e377d12cff50f1","bdp_trlrn","Tue Mar 14 2023 20:28:08 GMT-0500 (Central Daylight Time)","764696","Untrustworthy,Trustworthy","","null","","","","ratingFB","","trustrating_stim/white_00120_931230_fa_edt.bmp","null","","","","","","","","","","",""
"image-keyboard-response","53","105125","0.0-6.0-1.24","63f796a016e377d12cff50f1","bdp_trlrn","Tue Mar 14 2023 20:28:08 GMT-0500 (Central Daylight Time)","764696","Untrustworthy,Trustworthy","","2491","","","","rating","","trustrating_stim/white_00223_940128_fb_edt.bmp","1","","","","","","","","","","",""
"image-keyboard-response","54","105329","0.0-6.0-2.24","63f796a016e377d12cff50f1","bdp_trlrn","Tue Mar 14 2023 20:28:08 GMT-0500 (Central Daylight Time)","764696","Untrustworthy,Trustworthy","","null","","","","ratingFB","","trustrating_stim/white_00223_940128_fb_edt.bmp","null","","","","","","","","","","",""
"image-keyboard-response","55","108521","0.0-6.0-1.25","63f796a016e377d12cff50f1","bdp_trlrn","Tue Mar 14 2023 20:28:08 GMT-0500 (Central Daylight Time)","764696","Untrustworthy,Trustworthy","","3083","","","","rating","","trustrating_stim/white_mw049.bmp","6","","","","","","","","","","",""
"image-keyboard-response","56","108727","0.0-6.0-2.25","63f796a016e377d12cff50f1","bdp_trlrn","Tue Mar 14 2023 20:28:08 GMT-0500 (Central Daylight Time)","764696","Untrustworthy,Trustworthy","","null","","","","ratingFB","","trustrating_stim/white_mw049.bmp","null","","","","","","","","","","",""
"image-keyboard-response","57","109878","0.0-6.0-1.26","63f796a016e377d12cff50f1","bdp_trlrn","Tue Mar 14 2023 20:28:08 GMT-0500 (Central Daylight Time)","764696","Untrustworthy,Trustworthy","","1043","","","","rating","","trustrating_stim/white_mw060.bmp","1","","","","","","","","","","",""
"image-keyboard-response","58","110094","0.0-6.0-2.26","63f796a016e377d12cff50f1","bdp_trlrn","Tue Mar 14 2023 20:28:08 GMT-0500 (Central Daylight Time)","764696","Untrustworthy,Trustworthy","","null","","","","ratingFB","","trustrating_stim/white_mw060.bmp","null","","","","","","","","","","",""
"image-keyboard-response","59","111841","0.0-6.0-1.27","63f796a016e377d12cff50f1","bdp_trlrn","Tue Mar 14 2023 20:28:08 GMT-0500 (Central Daylight Time)","764696","Untrustworthy,Trustworthy","","1639","","","","rating","","trustrating_stim/white_00659_941121_fa_edt.bmp","1","","","","","","","","","","",""
"image-keyboard-response","60","112046","0.0-6.0-2.27","63f796a016e377d12cff50f1","bdp_trlrn","Tue Mar 14 2023 20:28:08 GMT-0500 (Central Daylight Time)","764696","Untrustworthy,Trustworthy","","null","","","","ratingFB","","trustrating_stim/white_00659_941121_fa_edt.bmp","null","","","","","","","","","","",""
"image-keyboard-response","61","114409","0.0-6.0-1.28","63f796a016e377d12cff50f1","bdp_trlrn","Tue Mar 14 2023 20:28:08 GMT-0500 (Central Daylight Time)","764696","Untrustworthy,Trustworthy","","2244","","","","rating","","trustrating_stim/white_00898_960530_fa_edt.bmp","2","","","","","","","","","","",""
"image-keyboard-response","62","114612","0.0-6.0-2.28","63f796a016e377d12cff50f1","bdp_trlrn","Tue Mar 14 2023 20:28:08 GMT-0500 (Central Daylight Time)","764696","Untrustworthy,Trustworthy","","null","","","","ratingFB","","trustrating_stim/white_00898_960530_fa_edt.bmp","null","","","","","","","","","","",""
"image-keyboard-response","63","118626","0.0-6.0-1.29","63f796a016e377d12cff50f1","bdp_trlrn","Tue Mar 14 2023 20:28:08 GMT-0500 (Central Daylight Time)","764696","Untrustworthy,Trustworthy","","3904","","","","rating","","trustrating_stim/white_00519_940519_fb_edt.bmp","4","","","","","","","","","","",""
"image-keyboard-response","64","118833","0.0-6.0-2.29","63f796a016e377d12cff50f1","bdp_trlrn","Tue Mar 14 2023 20:28:08 GMT-0500 (Central Daylight Time)","764696","Untrustworthy,Trustworthy","","null","","","","ratingFB","","trustrating_stim/white_00519_940519_fb_edt.bmp","null","","","","","","","","","","",""
"image-keyboard-response","65","120814","0.0-6.0-1.30","63f796a016e377d12cff50f1","bdp_trlrn","Tue Mar 14 2023 20:28:08 GMT-0500 (Central Daylight Time)","764696","Untrustworthy,Trustworthy","","1873","","","","rating","","trustrating_stim/white_00223_940128_fb_edt.bmp","1","","","","","","","","","","",""
"image-keyboard-response","66","121018","0.0-6.0-2.30","63f796a016e377d12cff50f1","bdp_trlrn","Tue Mar 14 2023 20:28:08 GMT-0500 (Central Daylight Time)","764696","Untrustworthy,Trustworthy","","null","","","","ratingFB","","trustrating_stim/white_00223_940128_fb_edt.bmp","null","","","","","","","","","","",""
"image-keyboard-response","67","127723","0.0-6.0-1.31","63f796a016e377d12cff50f1","bdp_trlrn","Tue Mar 14 2023 20:28:08 GMT-0500 (Central Daylight Time)","764696","Untrustworthy,Trustworthy","","6597","","","","rating","","trustrating_stim/white_mw049.bmp","3","","","","","","","","","","",""
"image-keyboard-response","68","127933","0.0-6.0-2.31","63f796a016e377d12cff50f1","bdp_trlrn","Tue Mar 14 2023 20:28:08 GMT-0500 (Central Daylight Time)","764696","Untrustworthy,Trustworthy","","null","","","","ratingFB","","trustrating_stim/white_mw049.bmp","null","","","","","","","","","","",""
"image-keyboard-response","69","131012","0.0-6.0-1.32","63f796a016e377d12cff50f1","bdp_trlrn","Tue Mar 14 2023 20:28:08 GMT-0500 (Central Daylight Time)","764696","Untrustworthy,Trustworthy","","2969","","","","rating","","trustrating_stim/white_mw089.bmp","2","","","","","","","","","","",""
"image-keyboard-response","70","131224","0.0-6.0-2.32","63f796a016e377d12cff50f1","bdp_trlrn","Tue Mar 14 2023 20:28:08 GMT-0500 (Central Daylight Time)","764696","Untrustworthy,Trustworthy","","null","","","","ratingFB","","trustrating_stim/white_mw089.bmp","null","","","","","","","","","","",""
"image-keyboard-response","71","133130","0.0-6.0-1.33","63f796a016e377d12cff50f1","bdp_trlrn","Tue Mar 14 2023 20:28:08 GMT-0500 (Central Daylight Time)","764696","Untrustworthy,Trustworthy","","1800","","","","rating","","trustrating_stim/white_00659_941121_fa_edt.bmp","1","","","","","","","","","","",""
"image-keyboard-response","72","133340","0.0-6.0-2.33","63f796a016e377d12cff50f1","bdp_trlrn","Tue Mar 14 2023 20:28:08 GMT-0500 (Central Daylight Time)","764696","Untrustworthy,Trustworthy","","null","","","","ratingFB","","trustrating_stim/white_00659_941121_fa_edt.bmp","null","","","","","","","","","","",""
"image-keyboard-response","73","135477","0.0-6.0-1.34","63f796a016e377d12cff50f1","bdp_trlrn","Tue Mar 14 2023 20:28:08 GMT-0500 (Central Daylight Time)","764696","Untrustworthy,Trustworthy","","2028","","","","rating","","trustrating_stim/white_00129_931230_fb_edt.bmp","3","","","","","","","","","","",""
"image-keyboard-response","74","135686","0.0-6.0-2.34","63f796a016e377d12cff50f1","bdp_trlrn","Tue Mar 14 2023 20:28:08 GMT-0500 (Central Daylight Time)","764696","Untrustworthy,Trustworthy","","null","","","","ratingFB","","trustrating_stim/white_00129_931230_fb_edt.bmp","null","","","","","","","","","","",""
"image-keyboard-response","75","138431","0.0-6.0-1.35","63f796a016e377d12cff50f1","bdp_trlrn","Tue Mar 14 2023 20:28:08 GMT-0500 (Central Daylight Time)","764696","Untrustworthy,Trustworthy","","2637","","","","rating","","trustrating_stim/white_mw071.bmp","2","","","","","","","","","","",""
"image-keyboard-response","76","138638","0.0-6.0-2.35","63f796a016e377d12cff50f1","bdp_trlrn","Tue Mar 14 2023 20:28:08 GMT-0500 (Central Daylight Time)","764696","Untrustworthy,Trustworthy","","null","","","","ratingFB","","trustrating_stim/white_mw071.bmp","null","","","","","","","","","","",""
"image-keyboard-response","77","140962","0.0-6.0-1.36","63f796a016e377d12cff50f1","bdp_trlrn","Tue Mar 14 2023 20:28:08 GMT-0500 (Central Daylight Time)","764696","Untrustworthy,Trustworthy","","2216","","","","rating","","trustrating_stim/white_00757_941201_fa_edt.bmp","1","","","","","","","","","","",""
"image-keyboard-response","78","141167","0.0-6.0-2.36","63f796a016e377d12cff50f1","bdp_trlrn","Tue Mar 14 2023 20:28:08 GMT-0500 (Central Daylight Time)","764696","Untrustworthy,Trustworthy","","null","","","","ratingFB","","trustrating_stim/white_00757_941201_fa_edt.bmp","null","","","","","","","","","","",""
"image-keyboard-response","79","143471","0.0-6.0-1.37","63f796a016e377d12cff50f1","bdp_trlrn","Tue Mar 14 2023 20:28:08 GMT-0500 (Central Daylight Time)","764696","Untrustworthy,Trustworthy","","2195","","","","rating","","trustrating_stim/white_00761_941201_fb_edt.bmp","3","","","","","","","","","","",""
"image-keyboard-response","80","143677","0.0-6.0-2.37","63f796a016e377d12cff50f1","bdp_trlrn","Tue Mar 14 2023 20:28:08 GMT-0500 (Central Daylight Time)","764696","Untrustworthy,Trustworthy","","null","","","","ratingFB","","trustrating_stim/white_00761_941201_fb_edt.bmp","null","","","","","","","","","","",""
"image-keyboard-response","81","145115","0.0-6.0-1.38","63f796a016e377d12cff50f1","bdp_trlrn","Tue Mar 14 2023 20:28:08 GMT-0500 (Central Daylight Time)","764696","Untrustworthy,Trustworthy","","1330","","","","rating","","trustrating_stim/white_00785_941205_fb_edt.bmp","1","","","","","","","","","","",""
"image-keyboard-response","82","145332","0.0-6.0-2.38","63f796a016e377d12cff50f1","bdp_trlrn","Tue Mar 14 2023 20:28:08 GMT-0500 (Central Daylight Time)","764696","Untrustworthy,Trustworthy","","null","","","","ratingFB","","trustrating_stim/white_00785_941205_fb_edt.bmp","null","","","","","","","","","","",""
"image-keyboard-response","83","149239","0.0-6.0-1.39","63f796a016e377d12cff50f1","bdp_trlrn","Tue Mar 14 2023 20:28:08 GMT-0500 (Central Daylight Time)","764696","Untrustworthy,Trustworthy","","3801","","","","rating","","trustrating_stim/white_00120_931230_fa_edt.bmp","4","","","","","","","","","","",""
"image-keyboard-response","84","149441","0.0-6.0-2.39","63f796a016e377d12cff50f1","bdp_trlrn","Tue Mar 14 2023 20:28:08 GMT-0500 (Central Daylight Time)","764696","Untrustworthy,Trustworthy","","null","","","","ratingFB","","trustrating_stim/white_00120_931230_fa_edt.bmp","null","","","","","","","","","","",""
"image-keyboard-response","85","151038","0.0-6.0-1.40","63f796a016e377d12cff50f1","bdp_trlrn","Tue Mar 14 2023 20:28:08 GMT-0500 (Central Daylight Time)","764696","Untrustworthy,Trustworthy","","1489","","","","rating","","trustrating_stim/white_mw097.bmp","1","","","","","","","","","","",""
"image-keyboard-response","86","151243","0.0-6.0-2.40","63f796a016e377d12cff50f1","bdp_trlrn","Tue Mar 14 2023 20:28:08 GMT-0500 (Central Daylight Time)","764696","Untrustworthy,Trustworthy","","null","","","","ratingFB","","trustrating_stim/white_mw097.bmp","null","","","","","","","","","","",""
"image-keyboard-response","87","153577","0.0-6.0-1.41","63f796a016e377d12cff50f1","bdp_trlrn","Tue Mar 14 2023 20:28:08 GMT-0500 (Central Daylight Time)","764696","Untrustworthy,Trustworthy","","2226","","","","rating","","trustrating_stim/white_00807_941205_fb_edt.bmp","1","","","","","","","","","","",""
"image-keyboard-response","88","153786","0.0-6.0-2.41","63f796a016e377d12cff50f1","bdp_trlrn","Tue Mar 14 2023 20:28:08 GMT-0500 (Central Daylight Time)","764696","Untrustworthy,Trustworthy","","null","","","","ratingFB","","trustrating_stim/white_00807_941205_fb_edt.bmp","null","","","","","","","","","","",""
"image-keyboard-response","89","157545","0.0-6.0-1.42","63f796a016e377d12cff50f1","bdp_trlrn","Tue Mar 14 2023 20:28:08 GMT-0500 (Central Daylight Time)","764696","Untrustworthy,Trustworthy","","3656","","","","rating","","trustrating_stim/white_mw084.bmp","2","","","","","","","","","","",""
"image-keyboard-response","90","157760","0.0-6.0-2.42","63f796a016e377d12cff50f1","bdp_trlrn","Tue Mar 14 2023 20:28:08 GMT-0500 (Central Daylight Time)","764696","Untrustworthy,Trustworthy","","null","","","","ratingFB","","trustrating_stim/white_mw084.bmp","null","","","","","","","","","","",""
"image-keyboard-response","91","159374","0.0-6.0-1.43","63f796a016e377d12cff50f1","bdp_trlrn","Tue Mar 14 2023 20:28:08 GMT-0500 (Central Daylight Time)","764696","Untrustworthy,Trustworthy","","1505","","","","rating","","trustrating_stim/white_mw033.bmp","2","","","","","","","","","","",""
"image-keyboard-response","92","159578","0.0-6.0-2.43","63f796a016e377d12cff50f1","bdp_trlrn","Tue Mar 14 2023 20:28:08 GMT-0500 (Central Daylight Time)","764696","Untrustworthy,Trustworthy","","null","","","","ratingFB","","trustrating_stim/white_mw033.bmp","null","","","","","","","","","","",""
"image-keyboard-response","93","161616","0.0-6.0-1.44","63f796a016e377d12cff50f1","bdp_trlrn","Tue Mar 14 2023 20:28:08 GMT-0500 (Central Daylight Time)","764696","Untrustworthy,Trustworthy","","1926","","","","rating","","trustrating_stim/white_00602_940928_fb_edt.bmp","4","","","","","","","","","","",""
"image-keyboard-response","94","161833","0.0-6.0-2.44","63f796a016e377d12cff50f1","bdp_trlrn","Tue Mar 14 2023 20:28:08 GMT-0500 (Central Daylight Time)","764696","Untrustworthy,Trustworthy","","null","","","","ratingFB","","trustrating_stim/white_00602_940928_fb_edt.bmp","null","","","","","","","","","","",""
"image-keyboard-response","95","164854","0.0-6.0-1.45","63f796a016e377d12cff50f1","bdp_trlrn","Tue Mar 14 2023 20:28:08 GMT-0500 (Central Daylight Time)","764696","Untrustworthy,Trustworthy","","2912","","","","rating","","trustrating_stim/white_mw099.bmp","1","","","","","","","","","","",""
"image-keyboard-response","96","165058","0.0-6.0-2.45","63f796a016e377d12cff50f1","bdp_trlrn","Tue Mar 14 2023 20:28:08 GMT-0500 (Central Daylight Time)","764696","Untrustworthy,Trustworthy","","null","","","","ratingFB","","trustrating_stim/white_mw099.bmp","null","","","","","","","","","","",""
"image-keyboard-response","97","167849","0.0-6.0-1.46","63f796a016e377d12cff50f1","bdp_trlrn","Tue Mar 14 2023 20:28:08 GMT-0500 (Central Daylight Time)","764696","Untrustworthy,Trustworthy","","2684","","","","rating","","trustrating_stim/white_mw056.bmp","1","","","","","","","","","","",""
"image-keyboard-response","98","168052","0.0-6.0-2.46","63f796a016e377d12cff50f1","bdp_trlrn","Tue Mar 14 2023 20:28:08 GMT-0500 (Central Daylight Time)","764696","Untrustworthy,Trustworthy","","null","","","","ratingFB","","trustrating_stim/white_mw056.bmp","null","","","","","","","","","","",""
"image-keyboard-response","99","171800","0.0-6.0-1.47","63f796a016e377d12cff50f1","bdp_trlrn","Tue Mar 14 2023 20:28:08 GMT-0500 (Central Daylight Time)","764696","Untrustworthy,Trustworthy","","3638","","","","rating","","trustrating_stim/white_00519_940519_fb_edt.bmp","3","","","","","","","","","","",""
"image-keyboard-response","100","172007","0.0-6.0-2.47","63f796a016e377d12cff50f1","bdp_trlrn","Tue Mar 14 2023 20:28:08 GMT-0500 (Central Daylight Time)","764696","Untrustworthy,Trustworthy","","null","","","","ratingFB","","trustrating_stim/white_00519_940519_fb_edt.bmp","null","","","","","","","","","","",""
"image-keyboard-response","101","174988","0.0-6.0-1.48","63f796a016e377d12cff50f1","bdp_trlrn","Tue Mar 14 2023 20:28:08 GMT-0500 (Central Daylight Time)","764696","Untrustworthy,Trustworthy","","2874","","","","rating","","trustrating_stim/white_mw053.bmp","5","","","","","","","","","","",""
"image-keyboard-response","102","175197","0.0-6.0-2.48","63f796a016e377d12cff50f1","bdp_trlrn","Tue Mar 14 2023 20:28:08 GMT-0500 (Central Daylight Time)","764696","Untrustworthy,Trustworthy","","null","","","","ratingFB","","trustrating_stim/white_mw053.bmp","null","","","","","","","","","","",""
"image-keyboard-response","103","177152","0.0-6.0-1.49","63f796a016e377d12cff50f1","bdp_trlrn","Tue Mar 14 2023 20:28:08 GMT-0500 (Central Daylight Time)","764696","Untrustworthy,Trustworthy","","1845","","","","rating","","trustrating_stim/white_00299_940422_fa_edt.bmp","3","","","","","","","","","","",""
"image-keyboard-response","104","177369","0.0-6.0-2.49","63f796a016e377d12cff50f1","bdp_trlrn","Tue Mar 14 2023 20:28:08 GMT-0500 (Central Daylight Time)","764696","Untrustworthy,Trustworthy","","null","","","","ratingFB","","trustrating_stim/white_00299_940422_fa_edt.bmp","null","","","","","","","","","","",""
"image-keyboard-response","105","183909","0.0-6.0-1.50","63f796a016e377d12cff50f1","bdp_trlrn","Tue Mar 14 2023 20:28:08 GMT-0500 (Central Daylight Time)","764696","Untrustworthy,Trustworthy","","6432","","","","rating","","trustrating_stim/white_00109_931230_fa_edt.bmp","4","","","","","","","","","","",""
"image-keyboard-response","106","184122","0.0-6.0-2.50","63f796a016e377d12cff50f1","bdp_trlrn","Tue Mar 14 2023 20:28:08 GMT-0500 (Central Daylight Time)","764696","Untrustworthy,Trustworthy","","null","","","","ratingFB","","trustrating_stim/white_00109_931230_fa_edt.bmp","null","","","","","","","","","","",""
"image-keyboard-response","107","186165","0.0-6.0-1.51","63f796a016e377d12cff50f1","bdp_trlrn","Tue Mar 14 2023 20:28:08 GMT-0500 (Central Daylight Time)","764696","Untrustworthy,Trustworthy","","1936","","","","rating","","trustrating_stim/white_mw060.bmp","2","","","","","","","","","","",""
"image-keyboard-response","108","186374","0.0-6.0-2.51","63f796a016e377d12cff50f1","bdp_trlrn","Tue Mar 14 2023 20:28:08 GMT-0500 (Central Daylight Time)","764696","Untrustworthy,Trustworthy","","null","","","","ratingFB","","trustrating_stim/white_mw060.bmp","null","","","","","","","","","","",""
"image-keyboard-response","109","187372","0.0-6.0-1.52","63f796a016e377d12cff50f1","bdp_trlrn","Tue Mar 14 2023 20:28:08 GMT-0500 (Central Daylight Time)","764696","Untrustworthy,Trustworthy","","889","","","","rating","","trustrating_stim/white_mw063.bmp","1","","","","","","","","","","",""
"image-keyboard-response","110","187582","0.0-6.0-2.52","63f796a016e377d12cff50f1","bdp_trlrn","Tue Mar 14 2023 20:28:08 GMT-0500 (Central Daylight Time)","764696","Untrustworthy,Trustworthy","","null","","","","ratingFB","","trustrating_stim/white_mw063.bmp","null","","","","","","","","","","",""
"image-keyboard-response","111","191358","0.0-6.0-1.53","63f796a016e377d12cff50f1","bdp_trlrn","Tue Mar 14 2023 20:28:08 GMT-0500 (Central Daylight Time)","764696","Untrustworthy,Trustworthy","","3667","","","","rating","","trustrating_stim/white_mw066.bmp","5","","","","","","","","","","",""
"image-keyboard-response","112","191565","0.0-6.0-2.53","63f796a016e377d12cff50f1","bdp_trlrn","Tue Mar 14 2023 20:28:08 GMT-0500 (Central Daylight Time)","764696","Untrustworthy,Trustworthy","","null","","","","ratingFB","","trustrating_stim/white_mw066.bmp","null","","","","","","","","","","",""
"image-keyboard-response","113","192860","0.0-6.0-1.54","63f796a016e377d12cff50f1","bdp_trlrn","Tue Mar 14 2023 20:28:08 GMT-0500 (Central Daylight Time)","764696","Untrustworthy,Trustworthy","","1185","","","","rating","","trustrating_stim/white_00577_940928_fa_edt.bmp","1","","","","","","","","","","",""
"image-keyboard-response","114","193066","0.0-6.0-2.54","63f796a016e377d12cff50f1","bdp_trlrn","Tue Mar 14 2023 20:28:08 GMT-0500 (Central Daylight Time)","764696","Untrustworthy,Trustworthy","","null","","","","ratingFB","","trustrating_stim/white_00577_940928_fa_edt.bmp","null","","","","","","","","","","",""
"image-keyboard-response","115","193987","0.0-6.0-1.55","63f796a016e377d12cff50f1","bdp_trlrn","Tue Mar 14 2023 20:28:08 GMT-0500 (Central Daylight Time)","764696","Untrustworthy,Trustworthy","","809","","","","rating","","trustrating_stim/white_mw046.bmp","1","","","","","","","","","","",""
"image-keyboard-response","116","194199","0.0-6.0-2.55","63f796a016e377d12cff50f1","bdp_trlrn","Tue Mar 14 2023 20:28:08 GMT-0500 (Central Daylight Time)","764696","Untrustworthy,Trustworthy","","null","","","","ratingFB","","trustrating_stim/white_mw046.bmp","null","","","","","","","","","","",""
"image-keyboard-response","117","195141","0.0-6.0-1.56","63f796a016e377d12cff50f1","bdp_trlrn","Tue Mar 14 2023 20:28:08 GMT-0500 (Central Daylight Time)","764696","Untrustworthy,Trustworthy","","829","","","","rating","","trustrating_stim/white_00340_940422_fa_edt.bmp","1","","","","","","","","","","",""
"image-keyboard-response","118","195343","0.0-6.0-2.56","63f796a016e377d12cff50f1","bdp_trlrn","Tue Mar 14 2023 20:28:08 GMT-0500 (Central Daylight Time)","764696","Untrustworthy,Trustworthy","","null","","","","ratingFB","","trustrating_stim/white_00340_940422_fa_edt.bmp","null","","","","","","","","","","",""
"image-keyboard-response","119","196339","0.0-6.0-1.57","63f796a016e377d12cff50f1","bdp_trlrn","Tue Mar 14 2023 20:28:08 GMT-0500 (Central Daylight Time)","764696","Untrustworthy,Trustworthy","","885","","","","rating","","trustrating_stim/white_mw048.bmp","1","","","","","","","","","","",""
"image-keyboard-response","120","196546","0.0-6.0-2.57","63f796a016e377d12cff50f1","bdp_trlrn","Tue Mar 14 2023 20:28:08 GMT-0500 (Central Daylight Time)","764696","Untrustworthy,Trustworthy","","null","","","","ratingFB","","trustrating_stim/white_mw048.bmp","null","","","","","","","","","","",""
"image-keyboard-response","121","199534","0.0-6.0-1.58","63f796a016e377d12cff50f1","bdp_trlrn","Tue Mar 14 2023 20:28:08 GMT-0500 (Central Daylight Time)","764696","Untrustworthy,Trustworthy","","2878","","","","rating","","trustrating_stim/white_mw035.bmp","2","","","","","","","","","","",""
"image-keyboard-response","122","199743","0.0-6.0-2.58","63f796a016e377d12cff50f1","bdp_trlrn","Tue Mar 14 2023 20:28:08 GMT-0500 (Central Daylight Time)","764696","Untrustworthy,Trustworthy","","null","","","","ratingFB","","trustrating_stim/white_mw035.bmp","null","","","","","","","","","","",""
"image-keyboard-response","123","200922","0.0-6.0-1.59","63f796a016e377d12cff50f1","bdp_trlrn","Tue Mar 14 2023 20:28:08 GMT-0500 (Central Daylight Time)","764696","Untrustworthy,Trustworthy","","1059","","","","rating","","trustrating_stim/white_00898_960530_fa_edt.bmp","2","","","","","","","","","","",""
"image-keyboard-response","124","201129","0.0-6.0-2.59","63f796a016e377d12cff50f1","bdp_trlrn","Tue Mar 14 2023 20:28:08 GMT-0500 (Central Daylight Time)","764696","Untrustworthy,Trustworthy","","null","","","","ratingFB","","trustrating_stim/white_00898_960530_fa_edt.bmp","null","","","","","","","","","","",""
"instructions","125","203385","0.0-7.0","63f796a016e377d12cff50f1","bdp_trlrn","Tue Mar 14 2023 20:28:08 GMT-0500 (Central Daylight Time)","764696","Untrustworthy,Trustworthy","[{""page_index"":0,""viewing_time"":2148}]","2148","","","","","","","","","","","","","","","","","",""
"instructions","126","345159","0.0-8.0","63f796a016e377d12cff50f1","bdp_trlrn","Tue Mar 14 2023 20:28:08 GMT-0500 (Central Daylight Time)","764696","Untrustworthy,Trustworthy","[{""page_index"":0,""viewing_time"":30190},{""page_index"":1,""viewing_time"":16468},{""page_index"":2,""viewing_time"":12352},{""page_index"":3,""viewing_time"":18294},{""page_index"":4,""viewing_time"":9961},{""page_index"":5,""viewing_time"":22421},{""page_index"":6,""viewing_time"":24841},{""page_index"":7,""viewing_time"":7140}]","141667","","","","","","","","","","","","","","","","","",""
"html-keyboard-response","127","351471","0.0-9.0","63f796a016e377d12cff50f1","bdp_trlrn","Tue Mar 14 2023 20:28:08 GMT-0500 (Central Daylight Time)","764696","Untrustworthy,Trustworthy","","6311","","","","","","<div class='header' style='text-align:left; position: absolute; top: 5%; left: 5%;'><small>Task 3 of 5</small></div><div class='instruxDiv'><p><strong>1) What is the minimum number of points you can choose to send to your partner?</strong></p><p>a) 0</p><p>b) 1</p><p>c) 5</p>","B","","","","","","","","","","",""
"html-keyboard-response","128","354259","0.0-10.0","63f796a016e377d12cff50f1","bdp_trlrn","Tue Mar 14 2023 20:28:08 GMT-0500 (Central Daylight Time)","764696","Untrustworthy,Trustworthy","","2678","","","","","","<div class='header' style='text-align:left; position: absolute; top: 5%; left: 5%;'><small>Task 3 of 5</small></div><div class='instruxDiv'><p><strong>1) What is the minimum number of points you can choose to send to your partner?</strong></p><p>a) 0</p><p style='color:#00FF00'>b) 1</p><p>c) 5</p><h3 style='color:#00FF00'>Correct!</h3><h3 class='center-content'>The correct response is b).</h3><h3 class='center-content'>The minimum number of points you can choose to send to your partner is 1 point.</h3><p><em>Press SPACEBAR to continue</em></p></div>"," ","","","","","","","","","","",""
"html-keyboard-response","129","361516","0.0-11.0","63f796a016e377d12cff50f1","bdp_trlrn","Tue Mar 14 2023 20:28:08 GMT-0500 (Central Daylight Time)","764696","Untrustworthy,Trustworthy","","7150","","","","","","<div class='header' style='text-align:left; position: absolute; top: 5%; left: 5%;'><small>Task 3 of 5</small></div><div class='instruxDiv'><p><strong>2) What is the maximum number of points you can choose to send to your partner?</strong></p><p>a) 8</p><p>b) 5</p><p>c) 3</p>","B","","","","","","","","","","",""
"html-keyboard-response","130","367055","0.0-12.0","63f796a016e377d12cff50f1","bdp_trlrn","Tue Mar 14 2023 20:28:08 GMT-0500 (Central Daylight Time)","764696","Untrustworthy,Trustworthy","","5430","","","","","","<div class='header' style='text-align:left; position: absolute; top: 5%; left: 5%;'><small>Task 3 of 5</small></div><div class='instruxDiv'><p><strong>2) What is the maximum number of points you can choose to send to your partner?</strong></p><p>a) 8</p><p style='color:#00FF00'>b) 5</p><p>c) 3</p><h3 style='color:#00FF00'>Correct!</h3><h3 class='center-content'>The correct response is b).</h3><h3 class='center-content'>The maximum number of points you can choose to send to your partner is 5 points.</h3><p><em>Press SPACEBAR to continue</em></p></div>"," ","","","","","","","","","","",""
"html-keyboard-response","131","370581","0.0-13.0","63f796a016e377d12cff50f1","bdp_trlrn","Tue Mar 14 2023 20:28:08 GMT-0500 (Central Daylight Time)","764696","Untrustworthy,Trustworthy","","3418","","","","","","<div class='header' style='text-align:left; position: absolute; top: 5%; left: 5%;'><small>Task 3 of 5</small></div><div class='instruxDiv'><p><strong>3) What happens to the amount of points you send to your partner?</strong></p><p>a) Nothing</p><p>b) It doubles</p><p>c) It quadruples</p>","C","","","","","","","","","","",""
"html-keyboard-response","132","372321","0.0-14.0","63f796a016e377d12cff50f1","bdp_trlrn","Tue Mar 14 2023 20:28:08 GMT-0500 (Central Daylight Time)","764696","Untrustworthy,Trustworthy","","1634","","","","","","<div class='header' style='text-align:left; position: absolute; top: 5%; left: 5%;'><small>Task 3 of 5</small></div><div class='instruxDiv'><p><strong>3) What happens to the amount of points you send to your partner?</strong></p><p>a) Nothing</p><p>b) It doubles</p><p style='color:#00FF00'>c) It quadruples</p><h3 style='color:#00FF00'>Correct!</h3><h3 class='center-content'>The correct response is c).</h3><h3 class='center-content'>The amount of points you send to your partner quadruples.</h3><p><em>Press SPACEBAR to continue</em></p></div>"," ","","","","","","","","","","",""
"html-keyboard-response","133","383775","0.0-15.0","63f796a016e377d12cff50f1","bdp_trlrn","Tue Mar 14 2023 20:28:08 GMT-0500 (Central Daylight Time)","764696","Untrustworthy,Trustworthy","","11346","","","","","","<div class='header' style='text-align:left; position: absolute; top: 5%; left: 5%;'><small>Task 3 of 5</small></div><div class='instruxDiv'><p><strong>4) If you decided to share 4 out of 5 points with your partner, and they decided to share half of the amount they received with you, how many points would you receive back from them on this round?</strong></p><p>a) 16</p><p>b) 0</p><p>c) 8</p>","C","","","","","","","","","","",""
"html-keyboard-response","134","385976","0.0-16.0","63f796a016e377d12cff50f1","bdp_trlrn","Tue Mar 14 2023 20:28:08 GMT-0500 (Central Daylight Time)","764696","Untrustworthy,Trustworthy","","2097","","","","","","<div class='header' style='text-align:left; position: absolute; top: 5%; left: 5%;'><small>Task 3 of 5</small></div><div class='instruxDiv'><p><strong>4) If you decided to share 4 out of 5 points with your partner, and they decided to share half of the amount they received with you, how many points would you receive back from them on this round?</strong></p><p>a) 16</p><p>b) 0</p><p style='color:#00FF00'>c) 8</p><h3 style='color:#00FF00'>Correct!</h3><h3 class='center-content'>The correct response is c).</h3><h3 class='center-content'>If you shared 4 out of 5 points with your partner and they decided to share half of the amount they received with you, you would receive 8 points back (i.e. (4 x 4)/2 = 8).</h3><p><em>Press SPACEBAR to continue</em></p></div>"," ","","","","","","","","","","",""
"html-keyboard-response","135","391090","0.0-17.0","63f796a016e377d12cff50f1","bdp_trlrn","Tue Mar 14 2023 20:28:08 GMT-0500 (Central Daylight Time)","764696","Untrustworthy,Trustworthy","","null","","","","","","<div class='header' style='text-align:left; position: absolute; top: 5%; left: 5%;'><small>Task 3 of 5</small></div><div class='instruxDiv'><p>Thank you for completing the quiz<p>These are the actual partners you will be interacting with in the next block:<p><div class='tc' align='center'><img class='introPic' src='trustrating_stim/white_00659_941121_fa_edt.bmp'><br><strong>Nathan</strong></div><div class='bl' align='center'><img class='introPic' src='trustrating_stim/white_mw089.bmp'><br><strong>Richard</strong></div><div class='br' align='center'><img class='introPic' src='trustrating_stim/white_mw066.bmp'><br><strong>Gavin</strong></div></div><p>Across <strong>66 rounds</strong> you will interact with each partner <strong>22 times</strong> (in random order).<p style='align:center; color:white'><font <em>Press SPACEBAR to continue</em></p>","null","","","","","","","","","","",""
"instructions","136","406894","0.0-18.0","63f796a016e377d12cff50f1","bdp_trlrn","Tue Mar 14 2023 20:28:08 GMT-0500 (Central Daylight Time)","764696","Untrustworthy,Trustworthy","[{""page_index"":0,""viewing_time"":5571},{""page_index"":1,""viewing_time"":10232}]","15804","","","","","","","","","","","","","","","","","",""
"html-keyboard-response","137","410483","0.0-19.0-1.0","63f796a016e377d12cff50f1","bdp_trlrn","Tue Mar 14 2023 20:28:08 GMT-0500 (Central Daylight Time)","764696","Untrustworthy,Trustworthy","","3483","","","","decision","","<div class='trialDiv'><img src='trustrating_stim/white_mw066.bmp'><br><font class='baseline'><strong>Gavin</strong><p>Choose number of points to send.</font><div class='respPicDiv'><img src='img/responseButtonOffersNo0L.png' class='respPic'></div></div>","5","1","Gavin","9","Shared","0.8,0.35","9","0.8","trustrating_stim/white_mw066.bmp","5","5","1"
"html-keyboard-response","138","410740","0.0-19.0-2.0","63f796a016e377d12cff50f1","bdp_trlrn","Tue Mar 14 2023 20:28:08 GMT-0500 (Central Daylight Time)","764696","Untrustworthy,Trustworthy","","null","","","","decisionFB","","<div class='trialDiv'><img src='trustrating_stim/white_mw066.bmp'><br><font class='baseline'><strong>Gavin</strong><p>Choose number of points to send.</font><div class='respPicDiv'><img src='img/responseButtonOffersNo0L5.png' class='respPic'></div></div>","null","1","Gavin","9","Shared","0.8,0.35","9","0.8","trustrating_stim/white_mw066.bmp","5","0","1"
"html-keyboard-response","139","411757","0.0-19.0-3.0","63f796a016e377d12cff50f1","bdp_trlrn","Tue Mar 14 2023 20:28:08 GMT-0500 (Central Daylight Time)","764696","Untrustworthy,Trustworthy","","null","","","","feedback","","<div class='trialDiv'><img src='trustrating_stim/white_mw066.bmp'><br><font class='baseline'><strong>Gavin</strong><p>Received: <strong>20</strong></font> &nbsp; &nbsp; &nbsp; &nbsp; &nbsp; &nbsp;<font class='posOutcome'>Shared back: <strong>10</strong></font></font><div class='respPicDiv'><img src='img/responseButtonOffersNo0_wht.png' class='respPic'></div></div>","null","1","Gavin","9","Shared","0.8,0.35","9","0.8","trustrating_stim/white_mw066.bmp","5","10","1"
"html-keyboard-response","140","415589","0.0-19.0-1.1","63f796a016e377d12cff50f1","bdp_trlrn","Tue Mar 14 2023 20:28:08 GMT-0500 (Central Daylight Time)","764696","Untrustworthy,Trustworthy","","3830","","","","decision","","<div class='trialDiv'><img src='trustrating_stim/white_mw089.bmp'><br><font class='baseline'><strong>Richard</strong><p>Choose number of points to send.</font><div class='respPicDiv'><img src='img/responseButtonOffersNo0L.png' class='respPic'></div></div>","1","1","Richard","7","Kept","0.8,0.2","13","0.8","trustrating_stim/white_mw089.bmp","2","15","2"
"html-keyboard-response","141","415847","0.0-19.0-2.1","63f796a016e377d12cff50f1","bdp_trlrn","Tue Mar 14 2023 20:28:08 GMT-0500 (Central Daylight Time)","764696","Untrustworthy,Trustworthy","","null","","","","decisionFB","","<div class='trialDiv'><img src='trustrating_stim/white_mw089.bmp'><br><font class='baseline'><strong>Richard</strong><p>Choose number of points to send.</font><div class='respPicDiv'><img src='img/responseButtonOffersNo0L1.png' class='respPic'></div></div>","null","1","Richard","7","Kept","0.8,0.2","13","0.8","trustrating_stim/white_mw089.bmp","2","14","2"
"html-keyboard-response","142","416851","0.0-19.0-3.1","63f796a016e377d12cff50f1","bdp_trlrn","Tue Mar 14 2023 20:28:08 GMT-0500 (Central Daylight Time)","764696","Untrustworthy,Trustworthy","","null","","","","feedback","","<div class='trialDiv'><img src='trustrating_stim/white_mw089.bmp'><br><font class='baseline'><strong>Richard</strong><p>Received: <strong>4</strong></font> &nbsp; &nbsp; &nbsp; &nbsp; &nbsp; &nbsp;<font class='negOutcome'>Shared back: <strong>0</strong></font></font><div class='respPicDiv'><img src='img/responseButtonOffersNo0_wht.png' class='respPic'></div></div>","null","1","Richard","7","Kept","0.8,0.2","13","0.8","trustrating_stim/white_mw089.bmp","2","14","2"
"html-keyboard-response","143","418628","0.0-19.0-1.2","63f796a016e377d12cff50f1","bdp_trlrn","Tue Mar 14 2023 20:28:08 GMT-0500 (Central Daylight Time)","764696","Untrustworthy,Trustworthy","","1776","","","","decision","","<div class='trialDiv'><img src='trustrating_stim/white_00659_941121_fa_edt.bmp'><br><font class='baseline'><strong>Nathan</strong><p>Choose number of points to send.</font><div class='respPicDiv'><img src='img/responseButtonOffersNo0L.png' class='respPic'></div></div>","1","1","Nathan","1","Shared","0.35,0.8","12","0.35","trustrating_stim/white_00659_941121_fa_edt.bmp","1","19","3"
"html-keyboard-response","144","418885","0.0-19.0-2.2","63f796a016e377d12cff50f1","bdp_trlrn","Tue Mar 14 2023 20:28:08 GMT-0500 (Central Daylight Time)","764696","Untrustworthy,Trustworthy","","null","","","","decisionFB","","<div class='trialDiv'><img src='trustrating_stim/white_00659_941121_fa_edt.bmp'><br><font class='baseline'><strong>Nathan</strong><p>Choose number of points to send.</font><div class='respPicDiv'><img src='img/responseButtonOffersNo0L1.png' class='respPic'></div></div>","null","1","Nathan","1","Shared","0.35,0.8","12","0.35","trustrating_stim/white_00659_941121_fa_edt.bmp","1","18","3"
"html-keyboard-response","145","419894","0.0-19.0-3.2","63f796a016e377d12cff50f1","bdp_trlrn","Tue Mar 14 2023 20:28:08 GMT-0500 (Central Daylight Time)","764696","Untrustworthy,Trustworthy","","null","","","","feedback","","<div class='trialDiv'><img src='trustrating_stim/white_00659_941121_fa_edt.bmp'><br><font class='baseline'><strong>Nathan</strong><p>Received: <strong>4</strong></font> &nbsp; &nbsp; &nbsp; &nbsp; &nbsp; &nbsp;<font class='posOutcome'>Shared back: <strong>2</strong></font></font><div class='respPicDiv'><img src='img/responseButtonOffersNo0_wht.png' class='respPic'></div></div>","null","1","Nathan","1","Shared","0.35,0.8","12","0.35","trustrating_stim/white_00659_941121_fa_edt.bmp","1","20","3"
"html-keyboard-response","146","422843","0.0-19.0-1.3","63f796a016e377d12cff50f1","bdp_trlrn","Tue Mar 14 2023 20:28:08 GMT-0500 (Central Daylight Time)","764696","Untrustworthy,Trustworthy","","2947","","","","decision","","<div class='trialDiv'><img src='trustrating_stim/white_mw089.bmp'><br><font class='baseline'><strong>Richard</strong><p>Choose number of points to send.</font><div class='respPicDiv'><img src='img/responseButtonOffersNo0L.png' class='respPic'></div></div>","1","2","Richard","7","Shared","0.8,0.2","13","0.8","trustrating_stim/white_mw089.bmp","2","25","4"
"html-keyboard-response","147","423104","0.0-19.0-2.3","63f796a016e377d12cff50f1","bdp_trlrn","Tue Mar 14 2023 20:28:08 GMT-0500 (Central Daylight Time)","764696","Untrustworthy,Trustworthy","","null","","","","decisionFB","","<div class='trialDiv'><img src='trustrating_stim/white_mw089.bmp'><br><font class='baseline'><strong>Richard</strong><p>Choose number of points to send.</font><div class='respPicDiv'><img src='img/responseButtonOffersNo0L1.png' class='respPic'></div></div>","null","2","Richard","7","Shared","0.8,0.2","13","0.8","trustrating_stim/white_mw089.bmp","2","24","4"
"html-keyboard-response","148","424112","0.0-19.0-3.3","63f796a016e377d12cff50f1","bdp_trlrn","Tue Mar 14 2023 20:28:08 GMT-0500 (Central Daylight Time)","764696","Untrustworthy,Trustworthy","","null","","","","feedback","","<div class='trialDiv'><img src='trustrating_stim/white_mw089.bmp'><br><font class='baseline'><strong>Richard</strong><p>Received: <strong>4</strong></font> &nbsp; &nbsp; &nbsp; &nbsp; &nbsp; &nbsp;<font class='posOutcome'>Shared back: <strong>2</strong></font></font><div class='respPicDiv'><img src='img/responseButtonOffersNo0_wht.png' class='respPic'></div></div>","null","2","Richard","7","Shared","0.8,0.2","13","0.8","trustrating_stim/white_mw089.bmp","2","26","4"
"html-keyboard-response","149","427149","0.0-19.0-1.4","63f796a016e377d12cff50f1","bdp_trlrn","Tue Mar 14 2023 20:28:08 GMT-0500 (Central Daylight Time)","764696","Untrustworthy,Trustworthy","","3035","","","","decision","","<div class='trialDiv'><img src='trustrating_stim/white_00659_941121_fa_edt.bmp'><br><font class='baseline'><strong>Nathan</strong><p>Choose number of points to send.</font><div class='respPicDiv'><img src='img/responseButtonOffersNo0L.png' class='respPic'></div></div>","1","2","Nathan","1","Shared","0.35,0.8","12","0.35","trustrating_stim/white_00659_941121_fa_edt.bmp","1","31","5"
"html-keyboard-response","150","427404","0.0-19.0-2.4","63f796a016e377d12cff50f1","bdp_trlrn","Tue Mar 14 2023 20:28:08 GMT-0500 (Central Daylight Time)","764696","Untrustworthy,Trustworthy","","null","","","","decisionFB","","<div class='trialDiv'><img src='trustrating_stim/white_00659_941121_fa_edt.bmp'><br><font class='baseline'><strong>Nathan</strong><p>Choose number of points to send.</font><div class='respPicDiv'><img src='img/responseButtonOffersNo0L1.png' class='respPic'></div></div>","null","2","Nathan","1","Shared","0.35,0.8","12","0.35","trustrating_stim/white_00659_941121_fa_edt.bmp","1","30","5"
"html-keyboard-response","151","428407","0.0-19.0-3.4","63f796a016e377d12cff50f1","bdp_trlrn","Tue Mar 14 2023 20:28:08 GMT-0500 (Central Daylight Time)","764696","Untrustworthy,Trustworthy","","null","","","","feedback","","<div class='trialDiv'><img src='trustrating_stim/white_00659_941121_fa_edt.bmp'><br><font class='baseline'><strong>Nathan</strong><p>Received: <strong>4</strong></font> &nbsp; &nbsp; &nbsp; &nbsp; &nbsp; &nbsp;<font class='posOutcome'>Shared back: <strong>2</strong></font></font><div class='respPicDiv'><img src='img/responseButtonOffersNo0_wht.png' class='respPic'></div></div>","null","2","Nathan","1","Shared","0.35,0.8","12","0.35","trustrating_stim/white_00659_941121_fa_edt.bmp","1","32","5"
"html-keyboard-response","152","430337","0.0-19.0-1.5","63f796a016e377d12cff50f1","bdp_trlrn","Tue Mar 14 2023 20:28:08 GMT-0500 (Central Daylight Time)","764696","Untrustworthy,Trustworthy","","1929","","","","decision","","<div class='trialDiv'><img src='trustrating_stim/white_mw066.bmp'><br><font class='baseline'><strong>Gavin</strong><p>Choose number of points to send.</font><div class='respPicDiv'><img src='img/responseButtonOffersNo0L.png' class='respPic'></div></div>","5","2","Gavin","9","Shared","0.8,0.35","9","0.8","trustrating_stim/white_mw066.bmp","5","37","6"
"html-keyboard-response","153","430592","0.0-19.0-2.5","63f796a016e377d12cff50f1","bdp_trlrn","Tue Mar 14 2023 20:28:08 GMT-0500 (Central Daylight Time)","764696","Untrustworthy,Trustworthy","","null","","","","decisionFB","","<div class='trialDiv'><img src='trustrating_stim/white_mw066.bmp'><br><font class='baseline'><strong>Gavin</strong><p>Choose number of points to send.</font><div class='respPicDiv'><img src='img/responseButtonOffersNo0L5.png' class='respPic'></div></div>","null","2","Gavin","9","Shared","0.8,0.35","9","0.8","trustrating_stim/white_mw066.bmp","5","32","6"
"html-keyboard-response","154","431602","0.0-19.0-3.5","63f796a016e377d12cff50f1","bdp_trlrn","Tue Mar 14 2023 20:28:08 GMT-0500 (Central Daylight Time)","764696","Untrustworthy,Trustworthy","","null","","","","feedback","","<div class='trialDiv'><img src='trustrating_stim/white_mw066.bmp'><br><font class='baseline'><strong>Gavin</strong><p>Received: <strong>20</strong></font> &nbsp; &nbsp; &nbsp; &nbsp; &nbsp; &nbsp;<font class='posOutcome'>Shared back: <strong>10</strong></font></font><div class='respPicDiv'><img src='img/responseButtonOffersNo0_wht.png' class='respPic'></div></div>","null","2","Gavin","9","Shared","0.8,0.35","9","0.8","trustrating_stim/white_mw066.bmp","5","42","6"
"html-keyboard-response","155","433845","0.0-19.0-1.6","63f796a016e377d12cff50f1","bdp_trlrn","Tue Mar 14 2023 20:28:08 GMT-0500 (Central Daylight Time)","764696","Untrustworthy,Trustworthy","","2242","","","","decision","","<div class='trialDiv'><img src='trustrating_stim/white_mw089.bmp'><br><font class='baseline'><strong>Richard</strong><p>Choose number of points to send.</font><div class='respPicDiv'><img src='img/responseButtonOffersNo0L.png' class='respPic'></div></div>","2","3","Richard","7","Shared","0.8,0.2","13","0.8","trustrating_stim/white_mw089.bmp","2","47","7"
"html-keyboard-response","156","434102","0.0-19.0-2.6","63f796a016e377d12cff50f1","bdp_trlrn","Tue Mar 14 2023 20:28:08 GMT-0500 (Central Daylight Time)","764696","Untrustworthy,Trustworthy","","null","","","","decisionFB","","<div class='trialDiv'><img src='trustrating_stim/white_mw089.bmp'><br><font class='baseline'><strong>Richard</strong><p>Choose number of points to send.</font><div class='respPicDiv'><img src='img/responseButtonOffersNo0L2.png' class='respPic'></div></div>","null","3","Richard","7","Shared","0.8,0.2","13","0.8","trustrating_stim/white_mw089.bmp","2","45","7"
"html-keyboard-response","157","435104","0.0-19.0-3.6","63f796a016e377d12cff50f1","bdp_trlrn","Tue Mar 14 2023 20:28:08 GMT-0500 (Central Daylight Time)","764696","Untrustworthy,Trustworthy","","null","","","","feedback","","<div class='trialDiv'><img src='trustrating_stim/white_mw089.bmp'><br><font class='baseline'><strong>Richard</strong><p>Received: <strong>8</strong></font> &nbsp; &nbsp; &nbsp; &nbsp; &nbsp; &nbsp;<font class='posOutcome'>Shared back: <strong>4</strong></font></font><div class='respPicDiv'><img src='img/responseButtonOffersNo0_wht.png' class='respPic'></div></div>","null","3","Richard","7","Shared","0.8,0.2","13","0.8","trustrating_stim/white_mw089.bmp","2","49","7"
"html-keyboard-response","158","436906","0.0-19.0-1.7","63f796a016e377d12cff50f1","bdp_trlrn","Tue Mar 14 2023 20:28:08 GMT-0500 (Central Daylight Time)","764696","Untrustworthy,Trustworthy","","1799","","","","decision","","<div class='trialDiv'><img src='trustrating_stim/white_mw066.bmp'><br><font class='baseline'><strong>Gavin</strong><p>Choose number of points to send.</font><div class='respPicDiv'><img src='img/responseButtonOffersNo0L.png' class='respPic'></div></div>","5","3","Gavin","9","Shared","0.8,0.35","9","0.8","trustrating_stim/white_mw066.bmp","5","54","8"
"html-keyboard-response","159","437164","0.0-19.0-2.7","63f796a016e377d12cff50f1","bdp_trlrn","Tue Mar 14 2023 20:28:08 GMT-0500 (Central Daylight Time)","764696","Untrustworthy,Trustworthy","","null","","","","decisionFB","","<div class='trialDiv'><img src='trustrating_stim/white_mw066.bmp'><br><font class='baseline'><strong>Gavin</strong><p>Choose number of points to send.</font><div class='respPicDiv'><img src='img/responseButtonOffersNo0L5.png' class='respPic'></div></div>","null","3","Gavin","9","Shared","0.8,0.35","9","0.8","trustrating_stim/white_mw066.bmp","5","49","8"
"html-keyboard-response","160","438173","0.0-19.0-3.7","63f796a016e377d12cff50f1","bdp_trlrn","Tue Mar 14 2023 20:28:08 GMT-0500 (Central Daylight Time)","764696","Untrustworthy,Trustworthy","","null","","","","feedback","","<div class='trialDiv'><img src='trustrating_stim/white_mw066.bmp'><br><font class='baseline'><strong>Gavin</strong><p>Received: <strong>20</strong></font> &nbsp; &nbsp; &nbsp; &nbsp; &nbsp; &nbsp;<font class='posOutcome'>Shared back: <strong>10</strong></font></font><div class='respPicDiv'><img src='img/responseButtonOffersNo0_wht.png' class='respPic'></div></div>","null","3","Gavin","9","Shared","0.8,0.35","9","0.8","trustrating_stim/white_mw066.bmp","5","59","8"
"html-keyboard-response","161","439707","0.0-19.0-1.8","63f796a016e377d12cff50f1","bdp_trlrn","Tue Mar 14 2023 20:28:08 GMT-0500 (Central Daylight Time)","764696","Untrustworthy,Trustworthy","","1532","","","","decision","","<div class='trialDiv'><img src='trustrating_stim/white_00659_941121_fa_edt.bmp'><br><font class='baseline'><strong>Nathan</strong><p>Choose number of points to send.</font><div class='respPicDiv'><img src='img/responseButtonOffersNo0L.png' class='respPic'></div></div>","2","3","Nathan","1","Kept","0.35,0.8","12","0.35","trustrating_stim/white_00659_941121_fa_edt.bmp","1","64","9"
"html-keyboard-response","162","439966","0.0-19.0-2.8","63f796a016e377d12cff50f1","bdp_trlrn","Tue Mar 14 2023 20:28:08 GMT-0500 (Central Daylight Time)","764696","Untrustworthy,Trustworthy","","null","","","","decisionFB","","<div class='trialDiv'><img src='trustrating_stim/white_00659_941121_fa_edt.bmp'><br><font class='baseline'><strong>Nathan</strong><p>Choose number of points to send.</font><div class='respPicDiv'><img src='img/responseButtonOffersNo0L2.png' class='respPic'></div></div>","null","3","Nathan","1","Kept","0.35,0.8","12","0.35","trustrating_stim/white_00659_941121_fa_edt.bmp","1","62","9"
"html-keyboard-response","163","440974","0.0-19.0-3.8","63f796a016e377d12cff50f1","bdp_trlrn","Tue Mar 14 2023 20:28:08 GMT-0500 (Central Daylight Time)","764696","Untrustworthy,Trustworthy","","null","","","","feedback","","<div class='trialDiv'><img src='trustrating_stim/white_00659_941121_fa_edt.bmp'><br><font class='baseline'><strong>Nathan</strong><p>Received: <strong>8</strong></font> &nbsp; &nbsp; &nbsp; &nbsp; &nbsp; &nbsp;<font class='negOutcome'>Shared back: <strong>0</strong></font></font><div class='respPicDiv'><img src='img/responseButtonOffersNo0_wht.png' class='respPic'></div></div>","null","3","Nathan","1","Kept","0.35,0.8","12","0.35","trustrating_stim/white_00659_941121_fa_edt.bmp","1","62","9"
"html-keyboard-response","164","443539","0.0-19.0-1.9","63f796a016e377d12cff50f1","bdp_trlrn","Tue Mar 14 2023 20:28:08 GMT-0500 (Central Daylight Time)","764696","Untrustworthy,Trustworthy","","2565","","","","decision","","<div class='trialDiv'><img src='trustrating_stim/white_mw089.bmp'><br><font class='baseline'><strong>Richard</strong><p>Choose number of points to send.</font><div class='respPicDiv'><img src='img/responseButtonOffersNo0L.png' class='respPic'></div></div>","2","4","Richard","7","Shared","0.8,0.2","13","0.8","trustrating_stim/white_mw089.bmp","2","67","10"
"html-keyboard-response","165","443794","0.0-19.0-2.9","63f796a016e377d12cff50f1","bdp_trlrn","Tue Mar 14 2023 20:28:08 GMT-0500 (Central Daylight Time)","764696","Untrustworthy,Trustworthy","","null","","","","decisionFB","","<div class='trialDiv'><img src='trustrating_stim/white_mw089.bmp'><br><font class='baseline'><strong>Richard</strong><p>Choose number of points to send.</font><div class='respPicDiv'><img src='img/responseButtonOffersNo0L2.png' class='respPic'></div></div>","null","4","Richard","7","Shared","0.8,0.2","13","0.8","trustrating_stim/white_mw089.bmp","2","65","10"
"html-keyboard-response","166","444811","0.0-19.0-3.9","63f796a016e377d12cff50f1","bdp_trlrn","Tue Mar 14 2023 20:28:08 GMT-0500 (Central Daylight Time)","764696","Untrustworthy,Trustworthy","","null","","","","feedback","","<div class='trialDiv'><img src='trustrating_stim/white_mw089.bmp'><br><font class='baseline'><strong>Richard</strong><p>Received: <strong>8</strong></font> &nbsp; &nbsp; &nbsp; &nbsp; &nbsp; &nbsp;<font class='posOutcome'>Shared back: <strong>4</strong></font></font><div class='respPicDiv'><img src='img/responseButtonOffersNo0_wht.png' class='respPic'></div></div>","null","4","Richard","7","Shared","0.8,0.2","13","0.8","trustrating_stim/white_mw089.bmp","2","69","10"
"html-keyboard-response","167","445725","0.0-19.0-1.10","63f796a016e377d12cff50f1","bdp_trlrn","Tue Mar 14 2023 20:28:08 GMT-0500 (Central Daylight Time)","764696","Untrustworthy,Trustworthy","","912","","","","decision","","<div class='trialDiv'><img src='trustrating_stim/white_mw066.bmp'><br><font class='baseline'><strong>Gavin</strong><p>Choose number of points to send.</font><div class='respPicDiv'><img src='img/responseButtonOffersNo0L.png' class='respPic'></div></div>","5","4","Gavin","9","Shared","0.8,0.35","9","0.8","trustrating_stim/white_mw066.bmp","5","74","11"
"html-keyboard-response","168","445979","0.0-19.0-2.10","63f796a016e377d12cff50f1","bdp_trlrn","Tue Mar 14 2023 20:28:08 GMT-0500 (Central Daylight Time)","764696","Untrustworthy,Trustworthy","","null","","","","decisionFB","","<div class='trialDiv'><img src='trustrating_stim/white_mw066.bmp'><br><font class='baseline'><strong>Gavin</strong><p>Choose number of points to send.</font><div class='respPicDiv'><img src='img/responseButtonOffersNo0L5.png' class='respPic'></div></div>","null","4","Gavin","9","Shared","0.8,0.35","9","0.8","trustrating_stim/white_mw066.bmp","5","69","11"
"html-keyboard-response","169","446987","0.0-19.0-3.10","63f796a016e377d12cff50f1","bdp_trlrn","Tue Mar 14 2023 20:28:08 GMT-0500 (Central Daylight Time)","764696","Untrustworthy,Trustworthy","","null","","","","feedback","","<div class='trialDiv'><img src='trustrating_stim/white_mw066.bmp'><br><font class='baseline'><strong>Gavin</strong><p>Received: <strong>20</strong></font> &nbsp; &nbsp; &nbsp; &nbsp; &nbsp; &nbsp;<font class='posOutcome'>Shared back: <strong>10</strong></font></font><div class='respPicDiv'><img src='img/responseButtonOffersNo0_wht.png' class='respPic'></div></div>","null","4","Gavin","9","Shared","0.8,0.35","9","0.8","trustrating_stim/white_mw066.bmp","5","79","11"
"html-keyboard-response","170","450907","0.0-19.0-1.11","63f796a016e377d12cff50f1","bdp_trlrn","Tue Mar 14 2023 20:28:08 GMT-0500 (Central Daylight Time)","764696","Untrustworthy,Trustworthy","","3918","","","","decision","","<div class='trialDiv'><img src='trustrating_stim/white_00659_941121_fa_edt.bmp'><br><font class='baseline'><strong>Nathan</strong><p>Choose number of points to send.</font><div class='respPicDiv'><img src='img/responseButtonOffersNo0L.png' class='respPic'></div></div>","2","4","Nathan","1","Kept","0.35,0.8","12","0.35","trustrating_stim/white_00659_941121_fa_edt.bmp","1","84","12"
"html-keyboard-response","171","451161","0.0-19.0-2.11","63f796a016e377d12cff50f1","bdp_trlrn","Tue Mar 14 2023 20:28:08 GMT-0500 (Central Daylight Time)","764696","Untrustworthy,Trustworthy","","null","","","","decisionFB","","<div class='trialDiv'><img src='trustrating_stim/white_00659_941121_fa_edt.bmp'><br><font class='baseline'><strong>Nathan</strong><p>Choose number of points to send.</font><div class='respPicDiv'><img src='img/responseButtonOffersNo0L2.png' class='respPic'></div></div>","null","4","Nathan","1","Kept","0.35,0.8","12","0.35","trustrating_stim/white_00659_941121_fa_edt.bmp","1","82","12"
"html-keyboard-response","172","452168","0.0-19.0-3.11","63f796a016e377d12cff50f1","bdp_trlrn","Tue Mar 14 2023 20:28:08 GMT-0500 (Central Daylight Time)","764696","Untrustworthy,Trustworthy","","null","","","","feedback","","<div class='trialDiv'><img src='trustrating_stim/white_00659_941121_fa_edt.bmp'><br><font class='baseline'><strong>Nathan</strong><p>Received: <strong>8</strong></font> &nbsp; &nbsp; &nbsp; &nbsp; &nbsp; &nbsp;<font class='negOutcome'>Shared back: <strong>0</strong></font></font><div class='respPicDiv'><img src='img/responseButtonOffersNo0_wht.png' class='respPic'></div></div>","null","4","Nathan","1","Kept","0.35,0.8","12","0.35","trustrating_stim/white_00659_941121_fa_edt.bmp","1","82","12"
"html-keyboard-response","173","454745","0.0-19.0-1.12","63f796a016e377d12cff50f1","bdp_trlrn","Tue Mar 14 2023 20:28:08 GMT-0500 (Central Daylight Time)","764696","Untrustworthy,Trustworthy","","2575","","","","decision","","<div class='trialDiv'><img src='trustrating_stim/white_mw089.bmp'><br><font class='baseline'><strong>Richard</strong><p>Choose number of points to send.</font><div class='respPicDiv'><img src='img/responseButtonOffersNo0L.png' class='respPic'></div></div>","2","5","Richard","7","Shared","0.8,0.2","13","0.8","trustrating_stim/white_mw089.bmp","2","87","13"
"html-keyboard-response","174","455004","0.0-19.0-2.12","63f796a016e377d12cff50f1","bdp_trlrn","Tue Mar 14 2023 20:28:08 GMT-0500 (Central Daylight Time)","764696","Untrustworthy,Trustworthy","","null","","","","decisionFB","","<div class='trialDiv'><img src='trustrating_stim/white_mw089.bmp'><br><font class='baseline'><strong>Richard</strong><p>Choose number of points to send.</font><div class='respPicDiv'><img src='img/responseButtonOffersNo0L2.png' class='respPic'></div></div>","null","5","Richard","7","Shared","0.8,0.2","13","0.8","trustrating_stim/white_mw089.bmp","2","85","13"
"html-keyboard-response","175","456012","0.0-19.0-3.12","63f796a016e377d12cff50f1","bdp_trlrn","Tue Mar 14 2023 20:28:08 GMT-0500 (Central Daylight Time)","764696","Untrustworthy,Trustworthy","","null","","","","feedback","","<div class='trialDiv'><img src='trustrating_stim/white_mw089.bmp'><br><font class='baseline'><strong>Richard</strong><p>Received: <strong>8</strong></font> &nbsp; &nbsp; &nbsp; &nbsp; &nbsp; &nbsp;<font class='posOutcome'>Shared back: <strong>4</strong></font></font><div class='respPicDiv'><img src='img/responseButtonOffersNo0_wht.png' class='respPic'></div></div>","null","5","Richard","7","Shared","0.8,0.2","13","0.8","trustrating_stim/white_mw089.bmp","2","89","13"
"html-keyboard-response","176","457311","0.0-19.0-1.13","63f796a016e377d12cff50f1","bdp_trlrn","Tue Mar 14 2023 20:28:08 GMT-0500 (Central Daylight Time)","764696","Untrustworthy,Trustworthy","","1297","","","","decision","","<div class='trialDiv'><img src='trustrating_stim/white_00659_941121_fa_edt.bmp'><br><font class='baseline'><strong>Nathan</strong><p>Choose number of points to send.</font><div class='respPicDiv'><img src='img/responseButtonOffersNo0L.png' class='respPic'></div></div>","1","5","Nathan","1","Shared","0.35,0.8","12","0.35","trustrating_stim/white_00659_941121_fa_edt.bmp","1","94","14"
"html-keyboard-response","177","457570","0.0-19.0-2.13","63f796a016e377d12cff50f1","bdp_trlrn","Tue Mar 14 2023 20:28:08 GMT-0500 (Central Daylight Time)","764696","Untrustworthy,Trustworthy","","null","","","","decisionFB","","<div class='trialDiv'><img src='trustrating_stim/white_00659_941121_fa_edt.bmp'><br><font class='baseline'><strong>Nathan</strong><p>Choose number of points to send.</font><div class='respPicDiv'><img src='img/responseButtonOffersNo0L1.png' class='respPic'></div></div>","null","5","Nathan","1","Shared","0.35,0.8","12","0.35","trustrating_stim/white_00659_941121_fa_edt.bmp","1","93","14"
"html-keyboard-response","178","458572","0.0-19.0-3.13","63f796a016e377d12cff50f1","bdp_trlrn","Tue Mar 14 2023 20:28:08 GMT-0500 (Central Daylight Time)","764696","Untrustworthy,Trustworthy","","null","","","","feedback","","<div class='trialDiv'><img src='trustrating_stim/white_00659_941121_fa_edt.bmp'><br><font class='baseline'><strong>Nathan</strong><p>Received: <strong>4</strong></font> &nbsp; &nbsp; &nbsp; &nbsp; &nbsp; &nbsp;<font class='posOutcome'>Shared back: <strong>2</strong></font></font><div class='respPicDiv'><img src='img/responseButtonOffersNo0_wht.png' class='respPic'></div></div>","null","5","Nathan","1","Shared","0.35,0.8","12","0.35","trustrating_stim/white_00659_941121_fa_edt.bmp","1","95","14"
"html-keyboard-response","179","459725","0.0-19.0-1.14","63f796a016e377d12cff50f1","bdp_trlrn","Tue Mar 14 2023 20:28:08 GMT-0500 (Central Daylight Time)","764696","Untrustworthy,Trustworthy","","1151","","","","decision","","<div class='trialDiv'><img src='trustrating_stim/white_mw066.bmp'><br><font class='baseline'><strong>Gavin</strong><p>Choose number of points to send.</font><div class='respPicDiv'><img src='img/responseButtonOffersNo0L.png' class='respPic'></div></div>","5","5","Gavin","9","Shared","0.8,0.35","9","0.8","trustrating_stim/white_mw066.bmp","5","100","15"
"html-keyboard-response","180","459981","0.0-19.0-2.14","63f796a016e377d12cff50f1","bdp_trlrn","Tue Mar 14 2023 20:28:08 GMT-0500 (Central Daylight Time)","764696","Untrustworthy,Trustworthy","","null","","","","decisionFB","","<div class='trialDiv'><img src='trustrating_stim/white_mw066.bmp'><br><font class='baseline'><strong>Gavin</strong><p>Choose number of points to send.</font><div class='respPicDiv'><img src='img/responseButtonOffersNo0L5.png' class='respPic'></div></div>","null","5","Gavin","9","Shared","0.8,0.35","9","0.8","trustrating_stim/white_mw066.bmp","5","95","15"
"html-keyboard-response","181","460992","0.0-19.0-3.14","63f796a016e377d12cff50f1","bdp_trlrn","Tue Mar 14 2023 20:28:08 GMT-0500 (Central Daylight Time)","764696","Untrustworthy,Trustworthy","","null","","","","feedback","","<div class='trialDiv'><img src='trustrating_stim/white_mw066.bmp'><br><font class='baseline'><strong>Gavin</strong><p>Received: <strong>20</strong></font> &nbsp; &nbsp; &nbsp; &nbsp; &nbsp; &nbsp;<font class='posOutcome'>Shared back: <strong>10</strong></font></font><div class='respPicDiv'><img src='img/responseButtonOffersNo0_wht.png' class='respPic'></div></div>","null","5","Gavin","9","Shared","0.8,0.35","9","0.8","trustrating_stim/white_mw066.bmp","5","105","15"
"html-keyboard-response","182","462944","0.0-19.0-1.15","63f796a016e377d12cff50f1","bdp_trlrn","Tue Mar 14 2023 20:28:08 GMT-0500 (Central Daylight Time)","764696","Untrustworthy,Trustworthy","","1950","","","","decision","","<div class='trialDiv'><img src='trustrating_stim/white_00659_941121_fa_edt.bmp'><br><font class='baseline'><strong>Nathan</strong><p>Choose number of points to send.</font><div class='respPicDiv'><img src='img/responseButtonOffersNo0L.png' class='respPic'></div></div>","1","6","Nathan","1","Shared","0.35,0.8","12","0.35","trustrating_stim/white_00659_941121_fa_edt.bmp","1","110","16"
"html-keyboard-response","183","463209","0.0-19.0-2.15","63f796a016e377d12cff50f1","bdp_trlrn","Tue Mar 14 2023 20:28:08 GMT-0500 (Central Daylight Time)","764696","Untrustworthy,Trustworthy","","null","","","","decisionFB","","<div class='trialDiv'><img src='trustrating_stim/white_00659_941121_fa_edt.bmp'><br><font class='baseline'><strong>Nathan</strong><p>Choose number of points to send.</font><div class='respPicDiv'><img src='img/responseButtonOffersNo0L1.png' class='respPic'></div></div>","null","6","Nathan","1","Shared","0.35,0.8","12","0.35","trustrating_stim/white_00659_941121_fa_edt.bmp","1","109","16"
"html-keyboard-response","184","464214","0.0-19.0-3.15","63f796a016e377d12cff50f1","bdp_trlrn","Tue Mar 14 2023 20:28:08 GMT-0500 (Central Daylight Time)","764696","Untrustworthy,Trustworthy","","null","","","","feedback","","<div class='trialDiv'><img src='trustrating_stim/white_00659_941121_fa_edt.bmp'><br><font class='baseline'><strong>Nathan</strong><p>Received: <strong>4</strong></font> &nbsp; &nbsp; &nbsp; &nbsp; &nbsp; &nbsp;<font class='posOutcome'>Shared back: <strong>2</strong></font></font><div class='respPicDiv'><img src='img/responseButtonOffersNo0_wht.png' class='respPic'></div></div>","null","6","Nathan","1","Shared","0.35,0.8","12","0.35","trustrating_stim/white_00659_941121_fa_edt.bmp","1","111","16"
"html-keyboard-response","185","465297","0.0-19.0-1.16","63f796a016e377d12cff50f1","bdp_trlrn","Tue Mar 14 2023 20:28:08 GMT-0500 (Central Daylight Time)","764696","Untrustworthy,Trustworthy","","1081","","","","decision","","<div class='trialDiv'><img src='trustrating_stim/white_mw066.bmp'><br><font class='baseline'><strong>Gavin</strong><p>Choose number of points to send.</font><div class='respPicDiv'><img src='img/responseButtonOffersNo0L.png' class='respPic'></div></div>","5","6","Gavin","9","Shared","0.8,0.35","9","0.8","trustrating_stim/white_mw066.bmp","5","116","17"
"html-keyboard-response","186","465556","0.0-19.0-2.16","63f796a016e377d12cff50f1","bdp_trlrn","Tue Mar 14 2023 20:28:08 GMT-0500 (Central Daylight Time)","764696","Untrustworthy,Trustworthy","","null","","","","decisionFB","","<div class='trialDiv'><img src='trustrating_stim/white_mw066.bmp'><br><font class='baseline'><strong>Gavin</strong><p>Choose number of points to send.</font><div class='respPicDiv'><img src='img/responseButtonOffersNo0L5.png' class='respPic'></div></div>","null","6","Gavin","9","Shared","0.8,0.35","9","0.8","trustrating_stim/white_mw066.bmp","5","111","17"
"html-keyboard-response","187","466563","0.0-19.0-3.16","63f796a016e377d12cff50f1","bdp_trlrn","Tue Mar 14 2023 20:28:08 GMT-0500 (Central Daylight Time)","764696","Untrustworthy,Trustworthy","","null","","","","feedback","","<div class='trialDiv'><img src='trustrating_stim/white_mw066.bmp'><br><font class='baseline'><strong>Gavin</strong><p>Received: <strong>20</strong></font> &nbsp; &nbsp; &nbsp; &nbsp; &nbsp; &nbsp;<font class='posOutcome'>Shared back: <strong>10</strong></font></font><div class='respPicDiv'><img src='img/responseButtonOffersNo0_wht.png' class='respPic'></div></div>","null","6","Gavin","9","Shared","0.8,0.35","9","0.8","trustrating_stim/white_mw066.bmp","5","121","17"
"html-keyboard-response","188","467817","0.0-19.0-1.17","63f796a016e377d12cff50f1","bdp_trlrn","Tue Mar 14 2023 20:28:08 GMT-0500 (Central Daylight Time)","764696","Untrustworthy,Trustworthy","","1252","","","","decision","","<div class='trialDiv'><img src='trustrating_stim/white_mw089.bmp'><br><font class='baseline'><strong>Richard</strong><p>Choose number of points to send.</font><div class='respPicDiv'><img src='img/responseButtonOffersNo0L.png' class='respPic'></div></div>","1","6","Richard","7","Shared","0.8,0.2","13","0.8","trustrating_stim/white_mw089.bmp","2","126","18"
"html-keyboard-response","189","468069","0.0-19.0-2.17","63f796a016e377d12cff50f1","bdp_trlrn","Tue Mar 14 2023 20:28:08 GMT-0500 (Central Daylight Time)","764696","Untrustworthy,Trustworthy","","null","","","","decisionFB","","<div class='trialDiv'><img src='trustrating_stim/white_mw089.bmp'><br><font class='baseline'><strong>Richard</strong><p>Choose number of points to send.</font><div class='respPicDiv'><img src='img/responseButtonOffersNo0L1.png' class='respPic'></div></div>","null","6","Richard","7","Shared","0.8,0.2","13","0.8","trustrating_stim/white_mw089.bmp","2","125","18"
"html-keyboard-response","190","469073","0.0-19.0-3.17","63f796a016e377d12cff50f1","bdp_trlrn","Tue Mar 14 2023 20:28:08 GMT-0500 (Central Daylight Time)","764696","Untrustworthy,Trustworthy","","null","","","","feedback","","<div class='trialDiv'><img src='trustrating_stim/white_mw089.bmp'><br><font class='baseline'><strong>Richard</strong><p>Received: <strong>4</strong></font> &nbsp; &nbsp; &nbsp; &nbsp; &nbsp; &nbsp;<font class='posOutcome'>Shared back: <strong>2</strong></font></font><div class='respPicDiv'><img src='img/responseButtonOffersNo0_wht.png' class='respPic'></div></div>","null","6","Richard","7","Shared","0.8,0.2","13","0.8","trustrating_stim/white_mw089.bmp","2","127","18"
"html-keyboard-response","191","470223","0.0-19.0-1.18","63f796a016e377d12cff50f1","bdp_trlrn","Tue Mar 14 2023 20:28:08 GMT-0500 (Central Daylight Time)","764696","Untrustworthy,Trustworthy","","1149","","","","decision","","<div class='trialDiv'><img src='trustrating_stim/white_00659_941121_fa_edt.bmp'><br><font class='baseline'><strong>Nathan</strong><p>Choose number of points to send.</font><div class='respPicDiv'><img src='img/responseButtonOffersNo0L.png' class='respPic'></div></div>","1","7","Nathan","1","Shared","0.35,0.8","12","0.35","trustrating_stim/white_00659_941121_fa_edt.bmp","1","132","19"
"html-keyboard-response","192","470482","0.0-19.0-2.18","63f796a016e377d12cff50f1","bdp_trlrn","Tue Mar 14 2023 20:28:08 GMT-0500 (Central Daylight Time)","764696","Untrustworthy,Trustworthy","","null","","","","decisionFB","","<div class='trialDiv'><img src='trustrating_stim/white_00659_941121_fa_edt.bmp'><br><font class='baseline'><strong>Nathan</strong><p>Choose number of points to send.</font><div class='respPicDiv'><img src='img/responseButtonOffersNo0L1.png' class='respPic'></div></div>","null","7","Nathan","1","Shared","0.35,0.8","12","0.35","trustrating_stim/white_00659_941121_fa_edt.bmp","1","131","19"
"html-keyboard-response","193","471492","0.0-19.0-3.18","63f796a016e377d12cff50f1","bdp_trlrn","Tue Mar 14 2023 20:28:08 GMT-0500 (Central Daylight Time)","764696","Untrustworthy,Trustworthy","","null","","","","feedback","","<div class='trialDiv'><img src='trustrating_stim/white_00659_941121_fa_edt.bmp'><br><font class='baseline'><strong>Nathan</strong><p>Received: <strong>4</strong></font> &nbsp; &nbsp; &nbsp; &nbsp; &nbsp; &nbsp;<font class='posOutcome'>Shared back: <strong>2</strong></font></font><div class='respPicDiv'><img src='img/responseButtonOffersNo0_wht.png' class='respPic'></div></div>","null","7","Nathan","1","Shared","0.35,0.8","12","0.35","trustrating_stim/white_00659_941121_fa_edt.bmp","1","133","19"
"html-keyboard-response","194","473131","0.0-19.0-1.19","63f796a016e377d12cff50f1","bdp_trlrn","Tue Mar 14 2023 20:28:08 GMT-0500 (Central Daylight Time)","764696","Untrustworthy,Trustworthy","","1638","","","","decision","","<div class='trialDiv'><img src='trustrating_stim/white_mw089.bmp'><br><font class='baseline'><strong>Richard</strong><p>Choose number of points to send.</font><div class='respPicDiv'><img src='img/responseButtonOffersNo0L.png' class='respPic'></div></div>","2","7","Richard","7","Shared","0.8,0.2","13","0.8","trustrating_stim/white_mw089.bmp","2","138","20"
"html-keyboard-response","195","473385","0.0-19.0-2.19","63f796a016e377d12cff50f1","bdp_trlrn","Tue Mar 14 2023 20:28:08 GMT-0500 (Central Daylight Time)","764696","Untrustworthy,Trustworthy","","null","","","","decisionFB","","<div class='trialDiv'><img src='trustrating_stim/white_mw089.bmp'><br><font class='baseline'><strong>Richard</strong><p>Choose number of points to send.</font><div class='respPicDiv'><img src='img/responseButtonOffersNo0L2.png' class='respPic'></div></div>","null","7","Richard","7","Shared","0.8,0.2","13","0.8","trustrating_stim/white_mw089.bmp","2","136","20"
"html-keyboard-response","196","474395","0.0-19.0-3.19","63f796a016e377d12cff50f1","bdp_trlrn","Tue Mar 14 2023 20:28:08 GMT-0500 (Central Daylight Time)","764696","Untrustworthy,Trustworthy","","null","","","","feedback","","<div class='trialDiv'><img src='trustrating_stim/white_mw089.bmp'><br><font class='baseline'><strong>Richard</strong><p>Received: <strong>8</strong></font> &nbsp; &nbsp; &nbsp; &nbsp; &nbsp; &nbsp;<font class='posOutcome'>Shared back: <strong>4</strong></font></font><div class='respPicDiv'><img src='img/responseButtonOffersNo0_wht.png' class='respPic'></div></div>","null","7","Richard","7","Shared","0.8,0.2","13","0.8","trustrating_stim/white_mw089.bmp","2","140","20"
"html-keyboard-response","197","475591","0.0-19.0-1.20","63f796a016e377d12cff50f1","bdp_trlrn","Tue Mar 14 2023 20:28:08 GMT-0500 (Central Daylight Time)","764696","Untrustworthy,Trustworthy","","1195","","","","decision","","<div class='trialDiv'><img src='trustrating_stim/white_mw066.bmp'><br><font class='baseline'><strong>Gavin</strong><p>Choose number of points to send.</font><div class='respPicDiv'><img src='img/responseButtonOffersNo0L.png' class='respPic'></div></div>","5","7","Gavin","9","Shared","0.8,0.35","9","0.8","trustrating_stim/white_mw066.bmp","5","145","21"
"html-keyboard-response","198","475847","0.0-19.0-2.20","63f796a016e377d12cff50f1","bdp_trlrn","Tue Mar 14 2023 20:28:08 GMT-0500 (Central Daylight Time)","764696","Untrustworthy,Trustworthy","","null","","","","decisionFB","","<div class='trialDiv'><img src='trustrating_stim/white_mw066.bmp'><br><font class='baseline'><strong>Gavin</strong><p>Choose number of points to send.</font><div class='respPicDiv'><img src='img/responseButtonOffersNo0L5.png' class='respPic'></div></div>","null","7","Gavin","9","Shared","0.8,0.35","9","0.8","trustrating_stim/white_mw066.bmp","5","140","21"
"html-keyboard-response","199","476853","0.0-19.0-3.20","63f796a016e377d12cff50f1","bdp_trlrn","Tue Mar 14 2023 20:28:08 GMT-0500 (Central Daylight Time)","764696","Untrustworthy,Trustworthy","","null","","","","feedback","","<div class='trialDiv'><img src='trustrating_stim/white_mw066.bmp'><br><font class='baseline'><strong>Gavin</strong><p>Received: <strong>20</strong></font> &nbsp; &nbsp; &nbsp; &nbsp; &nbsp; &nbsp;<font class='posOutcome'>Shared back: <strong>10</strong></font></font><div class='respPicDiv'><img src='img/responseButtonOffersNo0_wht.png' class='respPic'></div></div>","null","7","Gavin","9","Shared","0.8,0.35","9","0.8","trustrating_stim/white_mw066.bmp","5","150","21"
"html-keyboard-response","200","477798","0.0-19.0-1.21","63f796a016e377d12cff50f1","bdp_trlrn","Tue Mar 14 2023 20:28:08 GMT-0500 (Central Daylight Time)","764696","Untrustworthy,Trustworthy","","944","","","","decision","","<div class='trialDiv'><img src='trustrating_stim/white_00659_941121_fa_edt.bmp'><br><font class='baseline'><strong>Nathan</strong><p>Choose number of points to send.</font><div class='respPicDiv'><img src='img/responseButtonOffersNo0L.png' class='respPic'></div></div>","2","8","Nathan","1","Shared","0.35,0.8","12","0.35","trustrating_stim/white_00659_941121_fa_edt.bmp","1","155","22"
"html-keyboard-response","201","478050","0.0-19.0-2.21","63f796a016e377d12cff50f1","bdp_trlrn","Tue Mar 14 2023 20:28:08 GMT-0500 (Central Daylight Time)","764696","Untrustworthy,Trustworthy","","null","","","","decisionFB","","<div class='trialDiv'><img src='trustrating_stim/white_00659_941121_fa_edt.bmp'><br><font class='baseline'><strong>Nathan</strong><p>Choose number of points to send.</font><div class='respPicDiv'><img src='img/responseButtonOffersNo0L2.png' class='respPic'></div></div>","null","8","Nathan","1","Shared","0.35,0.8","12","0.35","trustrating_stim/white_00659_941121_fa_edt.bmp","1","153","22"
"html-keyboard-response","202","479054","0.0-19.0-3.21","63f796a016e377d12cff50f1","bdp_trlrn","Tue Mar 14 2023 20:28:08 GMT-0500 (Central Daylight Time)","764696","Untrustworthy,Trustworthy","","null","","","","feedback","","<div class='trialDiv'><img src='trustrating_stim/white_00659_941121_fa_edt.bmp'><br><font class='baseline'><strong>Nathan</strong><p>Received: <strong>8</strong></font> &nbsp; &nbsp; &nbsp; &nbsp; &nbsp; &nbsp;<font class='posOutcome'>Shared back: <strong>4</strong></font></font><div class='respPicDiv'><img src='img/responseButtonOffersNo0_wht.png' class='respPic'></div></div>","null","8","Nathan","1","Shared","0.35,0.8","12","0.35","trustrating_stim/white_00659_941121_fa_edt.bmp","1","157","22"
"html-keyboard-response","203","480486","0.0-19.0-1.22","63f796a016e377d12cff50f1","bdp_trlrn","Tue Mar 14 2023 20:28:08 GMT-0500 (Central Daylight Time)","764696","Untrustworthy,Trustworthy","","1431","","","","decision","","<div class='trialDiv'><img src='trustrating_stim/white_mw066.bmp'><br><font class='baseline'><strong>Gavin</strong><p>Choose number of points to send.</font><div class='respPicDiv'><img src='img/responseButtonOffersNo0L.png' class='respPic'></div></div>","5","8","Gavin","9","Shared","0.8,0.35","9","0.8","trustrating_stim/white_mw066.bmp","5","162","23"
"html-keyboard-response","204","480753","0.0-19.0-2.22","63f796a016e377d12cff50f1","bdp_trlrn","Tue Mar 14 2023 20:28:08 GMT-0500 (Central Daylight Time)","764696","Untrustworthy,Trustworthy","","null","","","","decisionFB","","<div class='trialDiv'><img src='trustrating_stim/white_mw066.bmp'><br><font class='baseline'><strong>Gavin</strong><p>Choose number of points to send.</font><div class='respPicDiv'><img src='img/responseButtonOffersNo0L5.png' class='respPic'></div></div>","null","8","Gavin","9","Shared","0.8,0.35","9","0.8","trustrating_stim/white_mw066.bmp","5","157","23"
"html-keyboard-response","205","481758","0.0-19.0-3.22","63f796a016e377d12cff50f1","bdp_trlrn","Tue Mar 14 2023 20:28:08 GMT-0500 (Central Daylight Time)","764696","Untrustworthy,Trustworthy","","null","","","","feedback","","<div class='trialDiv'><img src='trustrating_stim/white_mw066.bmp'><br><font class='baseline'><strong>Gavin</strong><p>Received: <strong>20</strong></font> &nbsp; &nbsp; &nbsp; &nbsp; &nbsp; &nbsp;<font class='posOutcome'>Shared back: <strong>10</strong></font></font><div class='respPicDiv'><img src='img/responseButtonOffersNo0_wht.png' class='respPic'></div></div>","null","8","Gavin","9","Shared","0.8,0.35","9","0.8","trustrating_stim/white_mw066.bmp","5","167","23"
"html-keyboard-response","206","482790","0.0-19.0-1.23","63f796a016e377d12cff50f1","bdp_trlrn","Tue Mar 14 2023 20:28:08 GMT-0500 (Central Daylight Time)","764696","Untrustworthy,Trustworthy","","1032","","","","decision","","<div class='trialDiv'><img src='trustrating_stim/white_mw089.bmp'><br><font class='baseline'><strong>Richard</strong><p>Choose number of points to send.</font><div class='respPicDiv'><img src='img/responseButtonOffersNo0L.png' class='respPic'></div></div>","3","8","Richard","7","Shared","0.8,0.2","13","0.8","trustrating_stim/white_mw089.bmp","2","172","24"
"html-keyboard-response","207","483045","0.0-19.0-2.23","63f796a016e377d12cff50f1","bdp_trlrn","Tue Mar 14 2023 20:28:08 GMT-0500 (Central Daylight Time)","764696","Untrustworthy,Trustworthy","","null","","","","decisionFB","","<div class='trialDiv'><img src='trustrating_stim/white_mw089.bmp'><br><font class='baseline'><strong>Richard</strong><p>Choose number of points to send.</font><div class='respPicDiv'><img src='img/responseButtonOffersNo0L3.png' class='respPic'></div></div>","null","8","Richard","7","Shared","0.8,0.2","13","0.8","trustrating_stim/white_mw089.bmp","2","169","24"
"html-keyboard-response","208","484051","0.0-19.0-3.23","63f796a016e377d12cff50f1","bdp_trlrn","Tue Mar 14 2023 20:28:08 GMT-0500 (Central Daylight Time)","764696","Untrustworthy,Trustworthy","","null","","","","feedback","","<div class='trialDiv'><img src='trustrating_stim/white_mw089.bmp'><br><font class='baseline'><strong>Richard</strong><p>Received: <strong>12</strong></font> &nbsp; &nbsp; &nbsp; &nbsp; &nbsp; &nbsp;<font class='posOutcome'>Shared back: <strong>6</strong></font></font><div class='respPicDiv'><img src='img/responseButtonOffersNo0_wht.png' class='respPic'></div></div>","null","8","Richard","7","Shared","0.8,0.2","13","0.8","trustrating_stim/white_mw089.bmp","2","175","24"
"html-keyboard-response","209","484998","0.0-19.0-1.24","63f796a016e377d12cff50f1","bdp_trlrn","Tue Mar 14 2023 20:28:08 GMT-0500 (Central Daylight Time)","764696","Untrustworthy,Trustworthy","","945","","","","decision","","<div class='trialDiv'><img src='trustrating_stim/white_mw066.bmp'><br><font class='baseline'><strong>Gavin</strong><p>Choose number of points to send.</font><div class='respPicDiv'><img src='img/responseButtonOffersNo0L.png' class='respPic'></div></div>","5","9","Gavin","9","Kept","0.8,0.35","9","0.8","trustrating_stim/white_mw066.bmp","5","180","25"
"html-keyboard-response","210","485258","0.0-19.0-2.24","63f796a016e377d12cff50f1","bdp_trlrn","Tue Mar 14 2023 20:28:08 GMT-0500 (Central Daylight Time)","764696","Untrustworthy,Trustworthy","","null","","","","decisionFB","","<div class='trialDiv'><img src='trustrating_stim/white_mw066.bmp'><br><font class='baseline'><strong>Gavin</strong><p>Choose number of points to send.</font><div class='respPicDiv'><img src='img/responseButtonOffersNo0L5.png' class='respPic'></div></div>","null","9","Gavin","9","Kept","0.8,0.35","9","0.8","trustrating_stim/white_mw066.bmp","5","175","25"
"html-keyboard-response","211","486262","0.0-19.0-3.24","63f796a016e377d12cff50f1","bdp_trlrn","Tue Mar 14 2023 20:28:08 GMT-0500 (Central Daylight Time)","764696","Untrustworthy,Trustworthy","","null","","","","feedback","","<div class='trialDiv'><img src='trustrating_stim/white_mw066.bmp'><br><font class='baseline'><strong>Gavin</strong><p>Received: <strong>20</strong></font> &nbsp; &nbsp; &nbsp; &nbsp; &nbsp; &nbsp;<font class='negOutcome'>Shared back: <strong>0</strong></font></font><div class='respPicDiv'><img src='img/responseButtonOffersNo0_wht.png' class='respPic'></div></div>","null","9","Gavin","9","Kept","0.8,0.35","9","0.8","trustrating_stim/white_mw066.bmp","5","175","25"
"html-keyboard-response","212","487383","0.0-19.0-1.25","63f796a016e377d12cff50f1","bdp_trlrn","Tue Mar 14 2023 20:28:08 GMT-0500 (Central Daylight Time)","764696","Untrustworthy,Trustworthy","","1119","","","","decision","","<div class='trialDiv'><img src='trustrating_stim/white_00659_941121_fa_edt.bmp'><br><font class='baseline'><strong>Nathan</strong><p>Choose number of points to send.</font><div class='respPicDiv'><img src='img/responseButtonOffersNo0L.png' class='respPic'></div></div>","3","9","Nathan","1","Shared","0.35,0.8","12","0.35","trustrating_stim/white_00659_941121_fa_edt.bmp","1","180","26"
"html-keyboard-response","213","487640","0.0-19.0-2.25","63f796a016e377d12cff50f1","bdp_trlrn","Tue Mar 14 2023 20:28:08 GMT-0500 (Central Daylight Time)","764696","Untrustworthy,Trustworthy","","null","","","","decisionFB","","<div class='trialDiv'><img src='trustrating_stim/white_00659_941121_fa_edt.bmp'><br><font class='baseline'><strong>Nathan</strong><p>Choose number of points to send.</font><div class='respPicDiv'><img src='img/responseButtonOffersNo0L3.png' class='respPic'></div></div>","null","9","Nathan","1","Shared","0.35,0.8","12","0.35","trustrating_stim/white_00659_941121_fa_edt.bmp","1","177","26"
"html-keyboard-response","214","488648","0.0-19.0-3.25","63f796a016e377d12cff50f1","bdp_trlrn","Tue Mar 14 2023 20:28:08 GMT-0500 (Central Daylight Time)","764696","Untrustworthy,Trustworthy","","null","","","","feedback","","<div class='trialDiv'><img src='trustrating_stim/white_00659_941121_fa_edt.bmp'><br><font class='baseline'><strong>Nathan</strong><p>Received: <strong>12</strong></font> &nbsp; &nbsp; &nbsp; &nbsp; &nbsp; &nbsp;<font class='posOutcome'>Shared back: <strong>6</strong></font></font><div class='respPicDiv'><img src='img/responseButtonOffersNo0_wht.png' class='respPic'></div></div>","null","9","Nathan","1","Shared","0.35,0.8","12","0.35","trustrating_stim/white_00659_941121_fa_edt.bmp","1","183","26"
"html-keyboard-response","215","490686","0.0-19.0-1.26","63f796a016e377d12cff50f1","bdp_trlrn","Tue Mar 14 2023 20:28:08 GMT-0500 (Central Daylight Time)","764696","Untrustworthy,Trustworthy","","2037","","","","decision","","<div class='trialDiv'><img src='trustrating_stim/white_mw089.bmp'><br><font class='baseline'><strong>Richard</strong><p>Choose number of points to send.</font><div class='respPicDiv'><img src='img/responseButtonOffersNo0L.png' class='respPic'></div></div>","4","9","Richard","7","Kept","0.8,0.2","13","0.8","trustrating_stim/white_mw089.bmp","2","188","27"
"html-keyboard-response","216","490939","0.0-19.0-2.26","63f796a016e377d12cff50f1","bdp_trlrn","Tue Mar 14 2023 20:28:08 GMT-0500 (Central Daylight Time)","764696","Untrustworthy,Trustworthy","","null","","","","decisionFB","","<div class='trialDiv'><img src='trustrating_stim/white_mw089.bmp'><br><font class='baseline'><strong>Richard</strong><p>Choose number of points to send.</font><div class='respPicDiv'><img src='img/responseButtonOffersNo0L4.png' class='respPic'></div></div>","null","9","Richard","7","Kept","0.8,0.2","13","0.8","trustrating_stim/white_mw089.bmp","2","184","27"
"html-keyboard-response","217","491950","0.0-19.0-3.26","63f796a016e377d12cff50f1","bdp_trlrn","Tue Mar 14 2023 20:28:08 GMT-0500 (Central Daylight Time)","764696","Untrustworthy,Trustworthy","","null","","","","feedback","","<div class='trialDiv'><img src='trustrating_stim/white_mw089.bmp'><br><font class='baseline'><strong>Richard</strong><p>Received: <strong>16</strong></font> &nbsp; &nbsp; &nbsp; &nbsp; &nbsp; &nbsp;<font class='negOutcome'>Shared back: <strong>0</strong></font></font><div class='respPicDiv'><img src='img/responseButtonOffersNo0_wht.png' class='respPic'></div></div>","null","9","Richard","7","Kept","0.8,0.2","13","0.8","trustrating_stim/white_mw089.bmp","2","184","27"
"html-keyboard-response","218","493252","0.0-19.0-1.27","63f796a016e377d12cff50f1","bdp_trlrn","Tue Mar 14 2023 20:28:08 GMT-0500 (Central Daylight Time)","764696","Untrustworthy,Trustworthy","","1301","","","","decision","","<div class='trialDiv'><img src='trustrating_stim/white_00659_941121_fa_edt.bmp'><br><font class='baseline'><strong>Nathan</strong><p>Choose number of points to send.</font><div class='respPicDiv'><img src='img/responseButtonOffersNo0L.png' class='respPic'></div></div>","4","10","Nathan","1","Kept","0.35,0.8","12","0.35","trustrating_stim/white_00659_941121_fa_edt.bmp","1","189","28"
"html-keyboard-response","219","493510","0.0-19.0-2.27","63f796a016e377d12cff50f1","bdp_trlrn","Tue Mar 14 2023 20:28:08 GMT-0500 (Central Daylight Time)","764696","Untrustworthy,Trustworthy","","null","","","","decisionFB","","<div class='trialDiv'><img src='trustrating_stim/white_00659_941121_fa_edt.bmp'><br><font class='baseline'><strong>Nathan</strong><p>Choose number of points to send.</font><div class='respPicDiv'><img src='img/responseButtonOffersNo0L4.png' class='respPic'></div></div>","null","10","Nathan","1","Kept","0.35,0.8","12","0.35","trustrating_stim/white_00659_941121_fa_edt.bmp","1","185","28"
"html-keyboard-response","220","494513","0.0-19.0-3.27","63f796a016e377d12cff50f1","bdp_trlrn","Tue Mar 14 2023 20:28:08 GMT-0500 (Central Daylight Time)","764696","Untrustworthy,Trustworthy","","null","","","","feedback","","<div class='trialDiv'><img src='trustrating_stim/white_00659_941121_fa_edt.bmp'><br><font class='baseline'><strong>Nathan</strong><p>Received: <strong>16</strong></font> &nbsp; &nbsp; &nbsp; &nbsp; &nbsp; &nbsp;<font class='negOutcome'>Shared back: <strong>0</strong></font></font><div class='respPicDiv'><img src='img/responseButtonOffersNo0_wht.png' class='respPic'></div></div>","null","10","Nathan","1","Kept","0.35,0.8","12","0.35","trustrating_stim/white_00659_941121_fa_edt.bmp","1","185","28"
"html-keyboard-response","221","495803","0.0-19.0-1.28","63f796a016e377d12cff50f1","bdp_trlrn","Tue Mar 14 2023 20:28:08 GMT-0500 (Central Daylight Time)","764696","Untrustworthy,Trustworthy","","1289","","","","decision","","<div class='trialDiv'><img src='trustrating_stim/white_mw089.bmp'><br><font class='baseline'><strong>Richard</strong><p>Choose number of points to send.</font><div class='respPicDiv'><img src='img/responseButtonOffersNo0L.png' class='respPic'></div></div>","3","10","Richard","7","Shared","0.8,0.2","13","0.8","trustrating_stim/white_mw089.bmp","2","190","29"
