"trial_type","trial_index","time_elapsed","internal_node_id","subject_id","task","startTime","totalTime","labels","view_history","rt","event","trial","time","trialtype","success","stimulus","key_press","aground","name","faceID","outcome","agenttype","agentswpt","agentcurrpshare","face","avgRating","point_total","round"
"pavlovia","0","3","0.0-0.0","60f75a701ac4cfc5c17cceb7","bdp_trlrn","Sun Mar 12 2023 22:55:27 GMT-0400 (Eastern Daylight Time)","682243","Untrustworthy,Trustworthy","","","","","","","","","","","","","","","","","","","",""
"instructions","1","3869","0.0-1.0","60f75a701ac4cfc5c17cceb7","bdp_trlrn","Sun Mar 12 2023 22:55:27 GMT-0400 (Eastern Daylight Time)","682243","Untrustworthy,Trustworthy","[{""page_index"":0,""viewing_time"":3865}]","3865","","","","","","","","","","","","","","","","","",""
"","","","","60f75a701ac4cfc5c17cceb7","bdp_trlrn","Sun Mar 12 2023 22:55:27 GMT-0400 (Eastern Daylight Time)","682243","Untrustworthy,Trustworthy","","","fullscreenenter","2","7011","fullscreenenter","","","","","","","","","","","","","",""
"fullscreen","2","7997","0.0-2.0","60f75a701ac4cfc5c17cceb7","bdp_trlrn","Sun Mar 12 2023 22:55:27 GMT-0400 (Eastern Daylight Time)","682243","Untrustworthy,Trustworthy","","","","","","","true","","","","","","","","","","","","",""
"instructions","3","24389","0.0-4.0","60f75a701ac4cfc5c17cceb7","bdp_trlrn","Sun Mar 12 2023 22:55:27 GMT-0400 (Eastern Daylight Time)","682243","Untrustworthy,Trustworthy","[{""page_index"":0,""viewing_time"":14428},{""page_index"":1,""viewing_time"":1961}]","16390","","","","","","","","","","","","","","","","","",""
"instructions","4","25680","0.0-5.0","60f75a701ac4cfc5c17cceb7","bdp_trlrn","Sun Mar 12 2023 22:55:27 GMT-0400 (Eastern Daylight Time)","682243","Untrustworthy,Trustworthy","[{""page_index"":0,""viewing_time"":1291}]","1291","","","","","","","","","","","","","","","","","",""
"image-keyboard-response","5","29313","0.0-6.0-1.0","60f75a701ac4cfc5c17cceb7","bdp_trlrn","Sun Mar 12 2023 22:55:27 GMT-0400 (Eastern Daylight Time)","682243","Untrustworthy,Trustworthy","","3525","","","","rating","","trustrating_stim/white_00120_931230_fa_edt.bmp","3","","","","","","","","","","",""
"image-keyboard-response","6","29524","0.0-6.0-2.0","60f75a701ac4cfc5c17cceb7","bdp_trlrn","Sun Mar 12 2023 22:55:27 GMT-0400 (Eastern Daylight Time)","682243","Untrustworthy,Trustworthy","","null","","","","ratingFB","","trustrating_stim/white_00120_931230_fa_edt.bmp","null","","","","","","","","","","",""
"image-keyboard-response","7","32779","0.0-6.0-1.1","60f75a701ac4cfc5c17cceb7","bdp_trlrn","Sun Mar 12 2023 22:55:27 GMT-0400 (Eastern Daylight Time)","682243","Untrustworthy,Trustworthy","","3150","","","","rating","","trustrating_stim/white_mw089.bmp","2","","","","","","","","","","",""
"image-keyboard-response","8","32989","0.0-6.0-2.1","60f75a701ac4cfc5c17cceb7","bdp_trlrn","Sun Mar 12 2023 22:55:27 GMT-0400 (Eastern Daylight Time)","682243","Untrustworthy,Trustworthy","","null","","","","ratingFB","","trustrating_stim/white_mw089.bmp","null","","","","","","","","","","",""
"image-keyboard-response","9","34077","0.0-6.0-1.2","60f75a701ac4cfc5c17cceb7","bdp_trlrn","Sun Mar 12 2023 22:55:27 GMT-0400 (Eastern Daylight Time)","682243","Untrustworthy,Trustworthy","","977","","","","rating","","trustrating_stim/white_mw063.bmp","2","","","","","","","","","","",""
"image-keyboard-response","10","34283","0.0-6.0-2.2","60f75a701ac4cfc5c17cceb7","bdp_trlrn","Sun Mar 12 2023 22:55:27 GMT-0400 (Eastern Daylight Time)","682243","Untrustworthy,Trustworthy","","null","","","","ratingFB","","trustrating_stim/white_mw063.bmp","null","","","","","","","","","","",""
"image-keyboard-response","11","36366","0.0-6.0-1.3","60f75a701ac4cfc5c17cceb7","bdp_trlrn","Sun Mar 12 2023 22:55:27 GMT-0400 (Eastern Daylight Time)","682243","Untrustworthy,Trustworthy","","1981","","","","rating","","trustrating_stim/white_mw056.bmp","4","","","","","","","","","","",""
"image-keyboard-response","12","36570","0.0-6.0-2.3","60f75a701ac4cfc5c17cceb7","bdp_trlrn","Sun Mar 12 2023 22:55:27 GMT-0400 (Eastern Daylight Time)","682243","Untrustworthy,Trustworthy","","null","","","","ratingFB","","trustrating_stim/white_mw056.bmp","null","","","","","","","","","","",""
"image-keyboard-response","13","37996","0.0-6.0-1.4","60f75a701ac4cfc5c17cceb7","bdp_trlrn","Sun Mar 12 2023 22:55:27 GMT-0400 (Eastern Daylight Time)","682243","Untrustworthy,Trustworthy","","1320","","","","rating","","trustrating_stim/white_mw066.bmp","5","","","","","","","","","","",""
"image-keyboard-response","14","38201","0.0-6.0-2.4","60f75a701ac4cfc5c17cceb7","bdp_trlrn","Sun Mar 12 2023 22:55:27 GMT-0400 (Eastern Daylight Time)","682243","Untrustworthy,Trustworthy","","null","","","","ratingFB","","trustrating_stim/white_mw066.bmp","null","","","","","","","","","","",""
"image-keyboard-response","15","41012","0.0-6.0-1.5","60f75a701ac4cfc5c17cceb7","bdp_trlrn","Sun Mar 12 2023 22:55:27 GMT-0400 (Eastern Daylight Time)","682243","Untrustworthy,Trustworthy","","2705","","","","rating","","trustrating_stim/white_00602_940928_fb_edt.bmp","7","","","","","","","","","","",""
"image-keyboard-response","16","41220","0.0-6.0-2.5","60f75a701ac4cfc5c17cceb7","bdp_trlrn","Sun Mar 12 2023 22:55:27 GMT-0400 (Eastern Daylight Time)","682243","Untrustworthy,Trustworthy","","null","","","","ratingFB","","trustrating_stim/white_00602_940928_fb_edt.bmp","null","","","","","","","","","","",""
"image-keyboard-response","17","44320","0.0-6.0-1.6","60f75a701ac4cfc5c17cceb7","bdp_trlrn","Sun Mar 12 2023 22:55:27 GMT-0400 (Eastern Daylight Time)","682243","Untrustworthy,Trustworthy","","2989","","","","rating","","trustrating_stim/white_mw046.bmp","4","","","","","","","","","","",""
"image-keyboard-response","18","44531","0.0-6.0-2.6","60f75a701ac4cfc5c17cceb7","bdp_trlrn","Sun Mar 12 2023 22:55:27 GMT-0400 (Eastern Daylight Time)","682243","Untrustworthy,Trustworthy","","null","","","","ratingFB","","trustrating_stim/white_mw046.bmp","null","","","","","","","","","","",""
"image-keyboard-response","19","45915","0.0-6.0-1.7","60f75a701ac4cfc5c17cceb7","bdp_trlrn","Sun Mar 12 2023 22:55:27 GMT-0400 (Eastern Daylight Time)","682243","Untrustworthy,Trustworthy","","1281","","","","rating","","trustrating_stim/white_mw071.bmp","2","","","","","","","","","","",""
"image-keyboard-response","20","46126","0.0-6.0-2.7","60f75a701ac4cfc5c17cceb7","bdp_trlrn","Sun Mar 12 2023 22:55:27 GMT-0400 (Eastern Daylight Time)","682243","Untrustworthy,Trustworthy","","null","","","","ratingFB","","trustrating_stim/white_mw071.bmp","null","","","","","","","","","","",""
"image-keyboard-response","21","48531","0.0-6.0-1.8","60f75a701ac4cfc5c17cceb7","bdp_trlrn","Sun Mar 12 2023 22:55:27 GMT-0400 (Eastern Daylight Time)","682243","Untrustworthy,Trustworthy","","2303","","","","rating","","trustrating_stim/white_00519_940519_fb_edt.bmp","3","","","","","","","","","","",""
"image-keyboard-response","22","48738","0.0-6.0-2.8","60f75a701ac4cfc5c17cceb7","bdp_trlrn","Sun Mar 12 2023 22:55:27 GMT-0400 (Eastern Daylight Time)","682243","Untrustworthy,Trustworthy","","null","","","","ratingFB","","trustrating_stim/white_00519_940519_fb_edt.bmp","null","","","","","","","","","","",""
"image-keyboard-response","23","50067","0.0-6.0-1.9","60f75a701ac4cfc5c17cceb7","bdp_trlrn","Sun Mar 12 2023 22:55:27 GMT-0400 (Eastern Daylight Time)","682243","Untrustworthy,Trustworthy","","1224","","","","rating","","trustrating_stim/white_00785_941205_fb_edt.bmp","3","","","","","","","","","","",""
"image-keyboard-response","24","50276","0.0-6.0-2.9","60f75a701ac4cfc5c17cceb7","bdp_trlrn","Sun Mar 12 2023 22:55:27 GMT-0400 (Eastern Daylight Time)","682243","Untrustworthy,Trustworthy","","null","","","","ratingFB","","trustrating_stim/white_00785_941205_fb_edt.bmp","null","","","","","","","","","","",""
"image-keyboard-response","25","51273","0.0-6.0-1.10","60f75a701ac4cfc5c17cceb7","bdp_trlrn","Sun Mar 12 2023 22:55:27 GMT-0400 (Eastern Daylight Time)","682243","Untrustworthy,Trustworthy","","892","","","","rating","","trustrating_stim/white_00299_940422_fa_edt.bmp","3","","","","","","","","","","",""
"image-keyboard-response","26","51483","0.0-6.0-2.10","60f75a701ac4cfc5c17cceb7","bdp_trlrn","Sun Mar 12 2023 22:55:27 GMT-0400 (Eastern Daylight Time)","682243","Untrustworthy,Trustworthy","","null","","","","ratingFB","","trustrating_stim/white_00299_940422_fa_edt.bmp","null","","","","","","","","","","",""
"image-keyboard-response","27","54076","0.0-6.0-1.11","60f75a701ac4cfc5c17cceb7","bdp_trlrn","Sun Mar 12 2023 22:55:27 GMT-0400 (Eastern Daylight Time)","682243","Untrustworthy,Trustworthy","","2487","","","","rating","","trustrating_stim/white_mw049.bmp","6","","","","","","","","","","",""
"image-keyboard-response","28","54282","0.0-6.0-2.11","60f75a701ac4cfc5c17cceb7","bdp_trlrn","Sun Mar 12 2023 22:55:27 GMT-0400 (Eastern Daylight Time)","682243","Untrustworthy,Trustworthy","","null","","","","ratingFB","","trustrating_stim/white_mw049.bmp","null","","","","","","","","","","",""
"image-keyboard-response","29","55452","0.0-6.0-1.12","60f75a701ac4cfc5c17cceb7","bdp_trlrn","Sun Mar 12 2023 22:55:27 GMT-0400 (Eastern Daylight Time)","682243","Untrustworthy,Trustworthy","","1066","","","","rating","","trustrating_stim/white_00898_960530_fa_edt.bmp","7","","","","","","","","","","",""
"image-keyboard-response","30","55658","0.0-6.0-2.12","60f75a701ac4cfc5c17cceb7","bdp_trlrn","Sun Mar 12 2023 22:55:27 GMT-0400 (Eastern Daylight Time)","682243","Untrustworthy,Trustworthy","","null","","","","ratingFB","","trustrating_stim/white_00898_960530_fa_edt.bmp","null","","","","","","","","","","",""
"image-keyboard-response","31","56975","0.0-6.0-1.13","60f75a701ac4cfc5c17cceb7","bdp_trlrn","Sun Mar 12 2023 22:55:27 GMT-0400 (Eastern Daylight Time)","682243","Untrustworthy,Trustworthy","","1212","","","","rating","","trustrating_stim/white_00223_940128_fb_edt.bmp","1","","","","","","","","","","",""
"image-keyboard-response","32","57179","0.0-6.0-2.13","60f75a701ac4cfc5c17cceb7","bdp_trlrn","Sun Mar 12 2023 22:55:27 GMT-0400 (Eastern Daylight Time)","682243","Untrustworthy,Trustworthy","","null","","","","ratingFB","","trustrating_stim/white_00223_940128_fb_edt.bmp","null","","","","","","","","","","",""
"image-keyboard-response","33","58091","0.0-6.0-1.14","60f75a701ac4cfc5c17cceb7","bdp_trlrn","Sun Mar 12 2023 22:55:27 GMT-0400 (Eastern Daylight Time)","682243","Untrustworthy,Trustworthy","","808","","","","rating","","trustrating_stim/white_00757_941201_fa_edt.bmp","1","","","","","","","","","","",""
"image-keyboard-response","34","58299","0.0-6.0-2.14","60f75a701ac4cfc5c17cceb7","bdp_trlrn","Sun Mar 12 2023 22:55:27 GMT-0400 (Eastern Daylight Time)","682243","Untrustworthy,Trustworthy","","null","","","","ratingFB","","trustrating_stim/white_00757_941201_fa_edt.bmp","null","","","","","","","","","","",""
"image-keyboard-response","35","59126","0.0-6.0-1.15","60f75a701ac4cfc5c17cceb7","bdp_trlrn","Sun Mar 12 2023 22:55:27 GMT-0400 (Eastern Daylight Time)","682243","Untrustworthy,Trustworthy","","722","","","","rating","","trustrating_stim/white_mw097.bmp","1","","","","","","","","","","",""
"image-keyboard-response","36","59332","0.0-6.0-2.15","60f75a701ac4cfc5c17cceb7","bdp_trlrn","Sun Mar 12 2023 22:55:27 GMT-0400 (Eastern Daylight Time)","682243","Untrustworthy,Trustworthy","","null","","","","ratingFB","","trustrating_stim/white_mw097.bmp","null","","","","","","","","","","",""
"image-keyboard-response","37","60325","0.0-6.0-1.16","60f75a701ac4cfc5c17cceb7","bdp_trlrn","Sun Mar 12 2023 22:55:27 GMT-0400 (Eastern Daylight Time)","682243","Untrustworthy,Trustworthy","","888","","","","rating","","trustrating_stim/white_mw099.bmp","1","","","","","","","","","","",""
"image-keyboard-response","38","60532","0.0-6.0-2.16","60f75a701ac4cfc5c17cceb7","bdp_trlrn","Sun Mar 12 2023 22:55:27 GMT-0400 (Eastern Daylight Time)","682243","Untrustworthy,Trustworthy","","null","","","","ratingFB","","trustrating_stim/white_mw099.bmp","null","","","","","","","","","","",""
"image-keyboard-response","39","61419","0.0-6.0-1.17","60f75a701ac4cfc5c17cceb7","bdp_trlrn","Sun Mar 12 2023 22:55:27 GMT-0400 (Eastern Daylight Time)","682243","Untrustworthy,Trustworthy","","784","","","","rating","","trustrating_stim/white_00577_940928_fa_edt.bmp","2","","","","","","","","","","",""
"image-keyboard-response","40","61625","0.0-6.0-2.17","60f75a701ac4cfc5c17cceb7","bdp_trlrn","Sun Mar 12 2023 22:55:27 GMT-0400 (Eastern Daylight Time)","682243","Untrustworthy,Trustworthy","","null","","","","ratingFB","","trustrating_stim/white_00577_940928_fa_edt.bmp","null","","","","","","","","","","",""
"image-keyboard-response","41","63013","0.0-6.0-1.18","60f75a701ac4cfc5c17cceb7","bdp_trlrn","Sun Mar 12 2023 22:55:27 GMT-0400 (Eastern Daylight Time)","682243","Untrustworthy,Trustworthy","","1282","","","","rating","","trustrating_stim/white_mw035.bmp","3","","","","","","","","","","",""
"image-keyboard-response","42","63222","0.0-6.0-2.18","60f75a701ac4cfc5c17cceb7","bdp_trlrn","Sun Mar 12 2023 22:55:27 GMT-0400 (Eastern Daylight Time)","682243","Untrustworthy,Trustworthy","","null","","","","ratingFB","","trustrating_stim/white_mw035.bmp","null","","","","","","","","","","",""
"image-keyboard-response","43","64337","0.0-6.0-1.19","60f75a701ac4cfc5c17cceb7","bdp_trlrn","Sun Mar 12 2023 22:55:27 GMT-0400 (Eastern Daylight Time)","682243","Untrustworthy,Trustworthy","","1005","","","","rating","","trustrating_stim/white_00129_931230_fb_edt.bmp","2","","","","","","","","","","",""
"image-keyboard-response","44","64550","0.0-6.0-2.19","60f75a701ac4cfc5c17cceb7","bdp_trlrn","Sun Mar 12 2023 22:55:27 GMT-0400 (Eastern Daylight Time)","682243","Untrustworthy,Trustworthy","","null","","","","ratingFB","","trustrating_stim/white_00129_931230_fb_edt.bmp","null","","","","","","","","","","",""
"image-keyboard-response","45","66060","0.0-6.0-1.20","60f75a701ac4cfc5c17cceb7","bdp_trlrn","Sun Mar 12 2023 22:55:27 GMT-0400 (Eastern Daylight Time)","682243","Untrustworthy,Trustworthy","","1397","","","","rating","","trustrating_stim/white_mw084.bmp","2","","","","","","","","","","",""
"image-keyboard-response","46","66269","0.0-6.0-2.20","60f75a701ac4cfc5c17cceb7","bdp_trlrn","Sun Mar 12 2023 22:55:27 GMT-0400 (Eastern Daylight Time)","682243","Untrustworthy,Trustworthy","","null","","","","ratingFB","","trustrating_stim/white_mw084.bmp","null","","","","","","","","","","",""
"image-keyboard-response","47","68649","0.0-6.0-1.21","60f75a701ac4cfc5c17cceb7","bdp_trlrn","Sun Mar 12 2023 22:55:27 GMT-0400 (Eastern Daylight Time)","682243","Untrustworthy,Trustworthy","","2270","","","","rating","","trustrating_stim/white_mw053.bmp","5","","","","","","","","","","",""
"image-keyboard-response","48","68858","0.0-6.0-2.21","60f75a701ac4cfc5c17cceb7","bdp_trlrn","Sun Mar 12 2023 22:55:27 GMT-0400 (Eastern Daylight Time)","682243","Untrustworthy,Trustworthy","","null","","","","ratingFB","","trustrating_stim/white_mw053.bmp","null","","","","","","","","","","",""
"image-keyboard-response","49","70269","0.0-6.0-1.22","60f75a701ac4cfc5c17cceb7","bdp_trlrn","Sun Mar 12 2023 22:55:27 GMT-0400 (Eastern Daylight Time)","682243","Untrustworthy,Trustworthy","","1304","","","","rating","","trustrating_stim/white_00761_941201_fb_edt.bmp","1","","","","","","","","","","",""
"image-keyboard-response","50","70478","0.0-6.0-2.22","60f75a701ac4cfc5c17cceb7","bdp_trlrn","Sun Mar 12 2023 22:55:27 GMT-0400 (Eastern Daylight Time)","682243","Untrustworthy,Trustworthy","","null","","","","ratingFB","","trustrating_stim/white_00761_941201_fb_edt.bmp","null","","","","","","","","","","",""
"image-keyboard-response","51","71629","0.0-6.0-1.23","60f75a701ac4cfc5c17cceb7","bdp_trlrn","Sun Mar 12 2023 22:55:27 GMT-0400 (Eastern Daylight Time)","682243","Untrustworthy,Trustworthy","","1040","","","","rating","","trustrating_stim/white_00340_940422_fa_edt.bmp","2","","","","","","","","","","",""
"image-keyboard-response","52","71836","0.0-6.0-2.23","60f75a701ac4cfc5c17cceb7","bdp_trlrn","Sun Mar 12 2023 22:55:27 GMT-0400 (Eastern Daylight Time)","682243","Untrustworthy,Trustworthy","","null","","","","ratingFB","","trustrating_stim/white_00340_940422_fa_edt.bmp","null","","","","","","","","","","",""
"image-keyboard-response","53","73617","0.0-6.0-1.24","60f75a701ac4cfc5c17cceb7","bdp_trlrn","Sun Mar 12 2023 22:55:27 GMT-0400 (Eastern Daylight Time)","682243","Untrustworthy,Trustworthy","","1667","","","","rating","","trustrating_stim/white_00807_941205_fb_edt.bmp","3","","","","","","","","","","",""
"image-keyboard-response","54","73827","0.0-6.0-2.24","60f75a701ac4cfc5c17cceb7","bdp_trlrn","Sun Mar 12 2023 22:55:27 GMT-0400 (Eastern Daylight Time)","682243","Untrustworthy,Trustworthy","","null","","","","ratingFB","","trustrating_stim/white_00807_941205_fb_edt.bmp","null","","","","","","","","","","",""
"image-keyboard-response","55","76891","0.0-6.0-1.25","60f75a701ac4cfc5c17cceb7","bdp_trlrn","Sun Mar 12 2023 22:55:27 GMT-0400 (Eastern Daylight Time)","682243","Untrustworthy,Trustworthy","","2958","","","","rating","","trustrating_stim/white_00109_931230_fa_edt.bmp","6","","","","","","","","","","",""
"image-keyboard-response","56","77101","0.0-6.0-2.25","60f75a701ac4cfc5c17cceb7","bdp_trlrn","Sun Mar 12 2023 22:55:27 GMT-0400 (Eastern Daylight Time)","682243","Untrustworthy,Trustworthy","","null","","","","ratingFB","","trustrating_stim/white_00109_931230_fa_edt.bmp","null","","","","","","","","","","",""
"image-keyboard-response","57","78461","0.0-6.0-1.26","60f75a701ac4cfc5c17cceb7","bdp_trlrn","Sun Mar 12 2023 22:55:27 GMT-0400 (Eastern Daylight Time)","682243","Untrustworthy,Trustworthy","","1248","","","","rating","","trustrating_stim/white_mw060.bmp","2","","","","","","","","","","",""
"image-keyboard-response","58","78669","0.0-6.0-2.26","60f75a701ac4cfc5c17cceb7","bdp_trlrn","Sun Mar 12 2023 22:55:27 GMT-0400 (Eastern Daylight Time)","682243","Untrustworthy,Trustworthy","","null","","","","ratingFB","","trustrating_stim/white_mw060.bmp","null","","","","","","","","","","",""
"image-keyboard-response","59","79399","0.0-6.0-1.27","60f75a701ac4cfc5c17cceb7","bdp_trlrn","Sun Mar 12 2023 22:55:27 GMT-0400 (Eastern Daylight Time)","682243","Untrustworthy,Trustworthy","","619","","","","rating","","trustrating_stim/white_mw033.bmp","1","","","","","","","","","","",""
"image-keyboard-response","60","79603","0.0-6.0-2.27","60f75a701ac4cfc5c17cceb7","bdp_trlrn","Sun Mar 12 2023 22:55:27 GMT-0400 (Eastern Daylight Time)","682243","Untrustworthy,Trustworthy","","null","","","","ratingFB","","trustrating_stim/white_mw033.bmp","null","","","","","","","","","","",""
"image-keyboard-response","61","80350","0.0-6.0-1.28","60f75a701ac4cfc5c17cceb7","bdp_trlrn","Sun Mar 12 2023 22:55:27 GMT-0400 (Eastern Daylight Time)","682243","Untrustworthy,Trustworthy","","642","","","","rating","","trustrating_stim/white_mw048.bmp","2","","","","","","","","","","",""
"image-keyboard-response","62","80555","0.0-6.0-2.28","60f75a701ac4cfc5c17cceb7","bdp_trlrn","Sun Mar 12 2023 22:55:27 GMT-0400 (Eastern Daylight Time)","682243","Untrustworthy,Trustworthy","","null","","","","ratingFB","","trustrating_stim/white_mw048.bmp","null","","","","","","","","","","",""
"image-keyboard-response","63","81306","0.0-6.0-1.29","60f75a701ac4cfc5c17cceb7","bdp_trlrn","Sun Mar 12 2023 22:55:27 GMT-0400 (Eastern Daylight Time)","682243","Untrustworthy,Trustworthy","","644","","","","rating","","trustrating_stim/white_00659_941121_fa_edt.bmp","3","","","","","","","","","","",""
"image-keyboard-response","64","81513","0.0-6.0-2.29","60f75a701ac4cfc5c17cceb7","bdp_trlrn","Sun Mar 12 2023 22:55:27 GMT-0400 (Eastern Daylight Time)","682243","Untrustworthy,Trustworthy","","null","","","","ratingFB","","trustrating_stim/white_00659_941121_fa_edt.bmp","null","","","","","","","","","","",""
"image-keyboard-response","65","82096","0.0-6.0-1.30","60f75a701ac4cfc5c17cceb7","bdp_trlrn","Sun Mar 12 2023 22:55:27 GMT-0400 (Eastern Daylight Time)","682243","Untrustworthy,Trustworthy","","478","","","","rating","","trustrating_stim/white_00785_941205_fb_edt.bmp","2","","","","","","","","","","",""
"image-keyboard-response","66","82299","0.0-6.0-2.30","60f75a701ac4cfc5c17cceb7","bdp_trlrn","Sun Mar 12 2023 22:55:27 GMT-0400 (Eastern Daylight Time)","682243","Untrustworthy,Trustworthy","","null","","","","ratingFB","","trustrating_stim/white_00785_941205_fb_edt.bmp","null","","","","","","","","","","",""
"image-keyboard-response","67","84234","0.0-6.0-1.31","60f75a701ac4cfc5c17cceb7","bdp_trlrn","Sun Mar 12 2023 22:55:27 GMT-0400 (Eastern Daylight Time)","682243","Untrustworthy,Trustworthy","","1829","","","","rating","","trustrating_stim/white_00659_941121_fa_edt.bmp","2","","","","","","","","","","",""
"image-keyboard-response","68","84445","0.0-6.0-2.31","60f75a701ac4cfc5c17cceb7","bdp_trlrn","Sun Mar 12 2023 22:55:27 GMT-0400 (Eastern Daylight Time)","682243","Untrustworthy,Trustworthy","","null","","","","ratingFB","","trustrating_stim/white_00659_941121_fa_edt.bmp","null","","","","","","","","","","",""
"image-keyboard-response","69","85138","0.0-6.0-1.32","60f75a701ac4cfc5c17cceb7","bdp_trlrn","Sun Mar 12 2023 22:55:27 GMT-0400 (Eastern Daylight Time)","682243","Untrustworthy,Trustworthy","","582","","","","rating","","trustrating_stim/white_mw033.bmp","3","","","","","","","","","","",""
"image-keyboard-response","70","85350","0.0-6.0-2.32","60f75a701ac4cfc5c17cceb7","bdp_trlrn","Sun Mar 12 2023 22:55:27 GMT-0400 (Eastern Daylight Time)","682243","Untrustworthy,Trustworthy","","null","","","","ratingFB","","trustrating_stim/white_mw033.bmp","null","","","","","","","","","","",""
"image-keyboard-response","71","85908","0.0-6.0-1.33","60f75a701ac4cfc5c17cceb7","bdp_trlrn","Sun Mar 12 2023 22:55:27 GMT-0400 (Eastern Daylight Time)","682243","Untrustworthy,Trustworthy","","447","","","","rating","","trustrating_stim/white_mw099.bmp","2","","","","","","","","","","",""
"image-keyboard-response","72","86118","0.0-6.0-2.33","60f75a701ac4cfc5c17cceb7","bdp_trlrn","Sun Mar 12 2023 22:55:27 GMT-0400 (Eastern Daylight Time)","682243","Untrustworthy,Trustworthy","","null","","","","ratingFB","","trustrating_stim/white_mw099.bmp","null","","","","","","","","","","",""
"image-keyboard-response","73","87174","0.0-6.0-1.34","60f75a701ac4cfc5c17cceb7","bdp_trlrn","Sun Mar 12 2023 22:55:27 GMT-0400 (Eastern Daylight Time)","682243","Untrustworthy,Trustworthy","","946","","","","rating","","trustrating_stim/white_mw046.bmp","1","","","","","","","","","","",""
"image-keyboard-response","74","87382","0.0-6.0-2.34","60f75a701ac4cfc5c17cceb7","bdp_trlrn","Sun Mar 12 2023 22:55:27 GMT-0400 (Eastern Daylight Time)","682243","Untrustworthy,Trustworthy","","null","","","","ratingFB","","trustrating_stim/white_mw046.bmp","null","","","","","","","","","","",""
"image-keyboard-response","75","88146","0.0-6.0-1.35","60f75a701ac4cfc5c17cceb7","bdp_trlrn","Sun Mar 12 2023 22:55:27 GMT-0400 (Eastern Daylight Time)","682243","Untrustworthy,Trustworthy","","653","","","","rating","","trustrating_stim/white_00120_931230_fa_edt.bmp","2","","","","","","","","","","",""
"image-keyboard-response","76","88357","0.0-6.0-2.35","60f75a701ac4cfc5c17cceb7","bdp_trlrn","Sun Mar 12 2023 22:55:27 GMT-0400 (Eastern Daylight Time)","682243","Untrustworthy,Trustworthy","","null","","","","ratingFB","","trustrating_stim/white_00120_931230_fa_edt.bmp","null","","","","","","","","","","",""
"image-keyboard-response","77","89185","0.0-6.0-1.36","60f75a701ac4cfc5c17cceb7","bdp_trlrn","Sun Mar 12 2023 22:55:27 GMT-0400 (Eastern Daylight Time)","682243","Untrustworthy,Trustworthy","","717","","","","rating","","trustrating_stim/white_00519_940519_fb_edt.bmp","3","","","","","","","","","","",""
"image-keyboard-response","78","89397","0.0-6.0-2.36","60f75a701ac4cfc5c17cceb7","bdp_trlrn","Sun Mar 12 2023 22:55:27 GMT-0400 (Eastern Daylight Time)","682243","Untrustworthy,Trustworthy","","null","","","","ratingFB","","trustrating_stim/white_00519_940519_fb_edt.bmp","null","","","","","","","","","","",""
"image-keyboard-response","79","90361","0.0-6.0-1.37","60f75a701ac4cfc5c17cceb7","bdp_trlrn","Sun Mar 12 2023 22:55:27 GMT-0400 (Eastern Daylight Time)","682243","Untrustworthy,Trustworthy","","854","","","","rating","","trustrating_stim/white_mw049.bmp","2","","","","","","","","","","",""
"image-keyboard-response","80","90570","0.0-6.0-2.37","60f75a701ac4cfc5c17cceb7","bdp_trlrn","Sun Mar 12 2023 22:55:27 GMT-0400 (Eastern Daylight Time)","682243","Untrustworthy,Trustworthy","","null","","","","ratingFB","","trustrating_stim/white_mw049.bmp","null","","","","","","","","","","",""
"image-keyboard-response","81","92226","0.0-6.0-1.38","60f75a701ac4cfc5c17cceb7","bdp_trlrn","Sun Mar 12 2023 22:55:27 GMT-0400 (Eastern Daylight Time)","682243","Untrustworthy,Trustworthy","","1552","","","","rating","","trustrating_stim/white_00898_960530_fa_edt.bmp","7","","","","","","","","","","",""
"image-keyboard-response","82","92427","0.0-6.0-2.38","60f75a701ac4cfc5c17cceb7","bdp_trlrn","Sun Mar 12 2023 22:55:27 GMT-0400 (Eastern Daylight Time)","682243","Untrustworthy,Trustworthy","","null","","","","ratingFB","","trustrating_stim/white_00898_960530_fa_edt.bmp","null","","","","","","","","","","",""
"image-keyboard-response","83","93500","0.0-6.0-1.39","60f75a701ac4cfc5c17cceb7","bdp_trlrn","Sun Mar 12 2023 22:55:27 GMT-0400 (Eastern Daylight Time)","682243","Untrustworthy,Trustworthy","","968","","","","rating","","trustrating_stim/white_00340_940422_fa_edt.bmp","2","","","","","","","","","","",""
"image-keyboard-response","84","93710","0.0-6.0-2.39","60f75a701ac4cfc5c17cceb7","bdp_trlrn","Sun Mar 12 2023 22:55:27 GMT-0400 (Eastern Daylight Time)","682243","Untrustworthy,Trustworthy","","null","","","","ratingFB","","trustrating_stim/white_00340_940422_fa_edt.bmp","null","","","","","","","","","","",""
"image-keyboard-response","85","95169","0.0-6.0-1.40","60f75a701ac4cfc5c17cceb7","bdp_trlrn","Sun Mar 12 2023 22:55:27 GMT-0400 (Eastern Daylight Time)","682243","Untrustworthy,Trustworthy","","1349","","","","rating","","trustrating_stim/white_00577_940928_fa_edt.bmp","2","","","","","","","","","","",""
"image-keyboard-response","86","95382","0.0-6.0-2.40","60f75a701ac4cfc5c17cceb7","bdp_trlrn","Sun Mar 12 2023 22:55:27 GMT-0400 (Eastern Daylight Time)","682243","Untrustworthy,Trustworthy","","null","","","","ratingFB","","trustrating_stim/white_00577_940928_fa_edt.bmp","null","","","","","","","","","","",""
"image-keyboard-response","87","96148","0.0-6.0-1.41","60f75a701ac4cfc5c17cceb7","bdp_trlrn","Sun Mar 12 2023 22:55:27 GMT-0400 (Eastern Daylight Time)","682243","Untrustworthy,Trustworthy","","656","","","","rating","","trustrating_stim/white_mw089.bmp","2","","","","","","","","","","",""
"image-keyboard-response","88","96357","0.0-6.0-2.41","60f75a701ac4cfc5c17cceb7","bdp_trlrn","Sun Mar 12 2023 22:55:27 GMT-0400 (Eastern Daylight Time)","682243","Untrustworthy,Trustworthy","","null","","","","ratingFB","","trustrating_stim/white_mw089.bmp","null","","","","","","","","","","",""
"image-keyboard-response","89","97509","0.0-6.0-1.42","60f75a701ac4cfc5c17cceb7","bdp_trlrn","Sun Mar 12 2023 22:55:27 GMT-0400 (Eastern Daylight Time)","682243","Untrustworthy,Trustworthy","","1041","","","","rating","","trustrating_stim/white_mw056.bmp","2","","","","","","","","","","",""
"image-keyboard-response","90","97715","0.0-6.0-2.42","60f75a701ac4cfc5c17cceb7","bdp_trlrn","Sun Mar 12 2023 22:55:27 GMT-0400 (Eastern Daylight Time)","682243","Untrustworthy,Trustworthy","","null","","","","ratingFB","","trustrating_stim/white_mw056.bmp","null","","","","","","","","","","",""
"image-keyboard-response","91","98824","0.0-6.0-1.43","60f75a701ac4cfc5c17cceb7","bdp_trlrn","Sun Mar 12 2023 22:55:27 GMT-0400 (Eastern Daylight Time)","682243","Untrustworthy,Trustworthy","","1004","","","","rating","","trustrating_stim/white_00602_940928_fb_edt.bmp","7","","","","","","","","","","",""
"image-keyboard-response","92","99028","0.0-6.0-2.43","60f75a701ac4cfc5c17cceb7","bdp_trlrn","Sun Mar 12 2023 22:55:27 GMT-0400 (Eastern Daylight Time)","682243","Untrustworthy,Trustworthy","","null","","","","ratingFB","","trustrating_stim/white_00602_940928_fb_edt.bmp","null","","","","","","","","","","",""
"image-keyboard-response","93","99898","0.0-6.0-1.44","60f75a701ac4cfc5c17cceb7","bdp_trlrn","Sun Mar 12 2023 22:55:27 GMT-0400 (Eastern Daylight Time)","682243","Untrustworthy,Trustworthy","","766","","","","rating","","trustrating_stim/white_00129_931230_fb_edt.bmp","2","","","","","","","","","","",""
"image-keyboard-response","94","100107","0.0-6.0-2.44","60f75a701ac4cfc5c17cceb7","bdp_trlrn","Sun Mar 12 2023 22:55:27 GMT-0400 (Eastern Daylight Time)","682243","Untrustworthy,Trustworthy","","null","","","","ratingFB","","trustrating_stim/white_00129_931230_fb_edt.bmp","null","","","","","","","","","","",""
"image-keyboard-response","95","101291","0.0-6.0-1.45","60f75a701ac4cfc5c17cceb7","bdp_trlrn","Sun Mar 12 2023 22:55:27 GMT-0400 (Eastern Daylight Time)","682243","Untrustworthy,Trustworthy","","1079","","","","rating","","trustrating_stim/white_mw063.bmp","2","","","","","","","","","","",""
"image-keyboard-response","96","101500","0.0-6.0-2.45","60f75a701ac4cfc5c17cceb7","bdp_trlrn","Sun Mar 12 2023 22:55:27 GMT-0400 (Eastern Daylight Time)","682243","Untrustworthy,Trustworthy","","null","","","","ratingFB","","trustrating_stim/white_mw063.bmp","null","","","","","","","","","","",""
"image-keyboard-response","97","102737","0.0-6.0-1.46","60f75a701ac4cfc5c17cceb7","bdp_trlrn","Sun Mar 12 2023 22:55:27 GMT-0400 (Eastern Daylight Time)","682243","Untrustworthy,Trustworthy","","1132","","","","rating","","trustrating_stim/white_00761_941201_fb_edt.bmp","2","","","","","","","","","","",""
"image-keyboard-response","98","102940","0.0-6.0-2.46","60f75a701ac4cfc5c17cceb7","bdp_trlrn","Sun Mar 12 2023 22:55:27 GMT-0400 (Eastern Daylight Time)","682243","Untrustworthy,Trustworthy","","null","","","","ratingFB","","trustrating_stim/white_00761_941201_fb_edt.bmp","null","","","","","","","","","","",""
"image-keyboard-response","99","104655","0.0-6.0-1.47","60f75a701ac4cfc5c17cceb7","bdp_trlrn","Sun Mar 12 2023 22:55:27 GMT-0400 (Eastern Daylight Time)","682243","Untrustworthy,Trustworthy","","1610","","","","rating","","trustrating_stim/white_00299_940422_fa_edt.bmp","3","","","","","","","","","","",""
"image-keyboard-response","100","104861","0.0-6.0-2.47","60f75a701ac4cfc5c17cceb7","bdp_trlrn","Sun Mar 12 2023 22:55:27 GMT-0400 (Eastern Daylight Time)","682243","Untrustworthy,Trustworthy","","null","","","","ratingFB","","trustrating_stim/white_00299_940422_fa_edt.bmp","null","","","","","","","","","","",""
"image-keyboard-response","101","107337","0.0-6.0-1.48","60f75a701ac4cfc5c17cceb7","bdp_trlrn","Sun Mar 12 2023 22:55:27 GMT-0400 (Eastern Daylight Time)","682243","Untrustworthy,Trustworthy","","2366","","","","rating","","trustrating_stim/white_mw071.bmp","2","","","","","","","","","","",""
"image-keyboard-response","102","107543","0.0-6.0-2.48","60f75a701ac4cfc5c17cceb7","bdp_trlrn","Sun Mar 12 2023 22:55:27 GMT-0400 (Eastern Daylight Time)","682243","Untrustworthy,Trustworthy","","null","","","","ratingFB","","trustrating_stim/white_mw071.bmp","null","","","","","","","","","","",""
"image-keyboard-response","103","108765","0.0-6.0-1.49","60f75a701ac4cfc5c17cceb7","bdp_trlrn","Sun Mar 12 2023 22:55:27 GMT-0400 (Eastern Daylight Time)","682243","Untrustworthy,Trustworthy","","1111","","","","rating","","trustrating_stim/white_mw035.bmp","2","","","","","","","","","","",""
"image-keyboard-response","104","108974","0.0-6.0-2.49","60f75a701ac4cfc5c17cceb7","bdp_trlrn","Sun Mar 12 2023 22:55:27 GMT-0400 (Eastern Daylight Time)","682243","Untrustworthy,Trustworthy","","null","","","","ratingFB","","trustrating_stim/white_mw035.bmp","null","","","","","","","","","","",""
"image-keyboard-response","105","110315","0.0-6.0-1.50","60f75a701ac4cfc5c17cceb7","bdp_trlrn","Sun Mar 12 2023 22:55:27 GMT-0400 (Eastern Daylight Time)","682243","Untrustworthy,Trustworthy","","1233","","","","rating","","trustrating_stim/white_mw084.bmp","3","","","","","","","","","","",""
"image-keyboard-response","106","110527","0.0-6.0-2.50","60f75a701ac4cfc5c17cceb7","bdp_trlrn","Sun Mar 12 2023 22:55:27 GMT-0400 (Eastern Daylight Time)","682243","Untrustworthy,Trustworthy","","null","","","","ratingFB","","trustrating_stim/white_mw084.bmp","null","","","","","","","","","","",""
"image-keyboard-response","107","111689","0.0-6.0-1.51","60f75a701ac4cfc5c17cceb7","bdp_trlrn","Sun Mar 12 2023 22:55:27 GMT-0400 (Eastern Daylight Time)","682243","Untrustworthy,Trustworthy","","1054","","","","rating","","trustrating_stim/white_mw066.bmp","4","","","","","","","","","","",""
"image-keyboard-response","108","111891","0.0-6.0-2.51","60f75a701ac4cfc5c17cceb7","bdp_trlrn","Sun Mar 12 2023 22:55:27 GMT-0400 (Eastern Daylight Time)","682243","Untrustworthy,Trustworthy","","null","","","","ratingFB","","trustrating_stim/white_mw066.bmp","null","","","","","","","","","","",""
"image-keyboard-response","109","112799","0.0-6.0-1.52","60f75a701ac4cfc5c17cceb7","bdp_trlrn","Sun Mar 12 2023 22:55:27 GMT-0400 (Eastern Daylight Time)","682243","Untrustworthy,Trustworthy","","803","","","","rating","","trustrating_stim/white_mw097.bmp","2","","","","","","","","","","",""
"image-keyboard-response","110","113006","0.0-6.0-2.52","60f75a701ac4cfc5c17cceb7","bdp_trlrn","Sun Mar 12 2023 22:55:27 GMT-0400 (Eastern Daylight Time)","682243","Untrustworthy,Trustworthy","","null","","","","ratingFB","","trustrating_stim/white_mw097.bmp","null","","","","","","","","","","",""
"image-keyboard-response","111","113742","0.0-6.0-1.53","60f75a701ac4cfc5c17cceb7","bdp_trlrn","Sun Mar 12 2023 22:55:27 GMT-0400 (Eastern Daylight Time)","682243","Untrustworthy,Trustworthy","","626","","","","rating","","trustrating_stim/white_00223_940128_fb_edt.bmp","3","","","","","","","","","","",""
"image-keyboard-response","112","113950","0.0-6.0-2.53","60f75a701ac4cfc5c17cceb7","bdp_trlrn","Sun Mar 12 2023 22:55:27 GMT-0400 (Eastern Daylight Time)","682243","Untrustworthy,Trustworthy","","null","","","","ratingFB","","trustrating_stim/white_00223_940128_fb_edt.bmp","null","","","","","","","","","","",""
"image-keyboard-response","113","116454","0.0-6.0-1.54","60f75a701ac4cfc5c17cceb7","bdp_trlrn","Sun Mar 12 2023 22:55:27 GMT-0400 (Eastern Daylight Time)","682243","Untrustworthy,Trustworthy","","2392","","","","rating","","trustrating_stim/white_mw053.bmp","5","","","","","","","","","","",""
"image-keyboard-response","114","116660","0.0-6.0-2.54","60f75a701ac4cfc5c17cceb7","bdp_trlrn","Sun Mar 12 2023 22:55:27 GMT-0400 (Eastern Daylight Time)","682243","Untrustworthy,Trustworthy","","null","","","","ratingFB","","trustrating_stim/white_mw053.bmp","null","","","","","","","","","","",""
"image-keyboard-response","115","118038","0.0-6.0-1.55","60f75a701ac4cfc5c17cceb7","bdp_trlrn","Sun Mar 12 2023 22:55:27 GMT-0400 (Eastern Daylight Time)","682243","Untrustworthy,Trustworthy","","1264","","","","rating","","trustrating_stim/white_mw060.bmp","2","","","","","","","","","","",""
"image-keyboard-response","116","118242","0.0-6.0-2.55","60f75a701ac4cfc5c17cceb7","bdp_trlrn","Sun Mar 12 2023 22:55:27 GMT-0400 (Eastern Daylight Time)","682243","Untrustworthy,Trustworthy","","null","","","","ratingFB","","trustrating_stim/white_mw060.bmp","null","","","","","","","","","","",""
"image-keyboard-response","117","119857","0.0-6.0-1.56","60f75a701ac4cfc5c17cceb7","bdp_trlrn","Sun Mar 12 2023 22:55:27 GMT-0400 (Eastern Daylight Time)","682243","Untrustworthy,Trustworthy","","1505","","","","rating","","trustrating_stim/white_00109_931230_fa_edt.bmp","5","","","","","","","","","","",""
"image-keyboard-response","118","120061","0.0-6.0-2.56","60f75a701ac4cfc5c17cceb7","bdp_trlrn","Sun Mar 12 2023 22:55:27 GMT-0400 (Eastern Daylight Time)","682243","Untrustworthy,Trustworthy","","null","","","","ratingFB","","trustrating_stim/white_00109_931230_fa_edt.bmp","null","","","","","","","","","","",""
"image-keyboard-response","119","120918","0.0-6.0-1.57","60f75a701ac4cfc5c17cceb7","bdp_trlrn","Sun Mar 12 2023 22:55:27 GMT-0400 (Eastern Daylight Time)","682243","Untrustworthy,Trustworthy","","747","","","","rating","","trustrating_stim/white_00757_941201_fa_edt.bmp","2","","","","","","","","","","",""
"image-keyboard-response","120","121123","0.0-6.0-2.57","60f75a701ac4cfc5c17cceb7","bdp_trlrn","Sun Mar 12 2023 22:55:27 GMT-0400 (Eastern Daylight Time)","682243","Untrustworthy,Trustworthy","","null","","","","ratingFB","","trustrating_stim/white_00757_941201_fa_edt.bmp","null","","","","","","","","","","",""
"image-keyboard-response","121","122607","0.0-6.0-1.58","60f75a701ac4cfc5c17cceb7","bdp_trlrn","Sun Mar 12 2023 22:55:27 GMT-0400 (Eastern Daylight Time)","682243","Untrustworthy,Trustworthy","","1376","","","","rating","","trustrating_stim/white_mw048.bmp","2","","","","","","","","","","",""
"image-keyboard-response","122","122810","0.0-6.0-2.58","60f75a701ac4cfc5c17cceb7","bdp_trlrn","Sun Mar 12 2023 22:55:27 GMT-0400 (Eastern Daylight Time)","682243","Untrustworthy,Trustworthy","","null","","","","ratingFB","","trustrating_stim/white_mw048.bmp","null","","","","","","","","","","",""
"image-keyboard-response","123","123484","0.0-6.0-1.59","60f75a701ac4cfc5c17cceb7","bdp_trlrn","Sun Mar 12 2023 22:55:27 GMT-0400 (Eastern Daylight Time)","682243","Untrustworthy,Trustworthy","","569","","","","rating","","trustrating_stim/white_00807_941205_fb_edt.bmp","2","","","","","","","","","","",""
"image-keyboard-response","124","123693","0.0-6.0-2.59","60f75a701ac4cfc5c17cceb7","bdp_trlrn","Sun Mar 12 2023 22:55:27 GMT-0400 (Eastern Daylight Time)","682243","Untrustworthy,Trustworthy","","null","","","","ratingFB","","trustrating_stim/white_00807_941205_fb_edt.bmp","null","","","","","","","","","","",""
"instructions","125","125282","0.0-7.0","60f75a701ac4cfc5c17cceb7","bdp_trlrn","Sun Mar 12 2023 22:55:27 GMT-0400 (Eastern Daylight Time)","682243","Untrustworthy,Trustworthy","[{""page_index"":0,""viewing_time"":1478}]","1479","","","","","","","","","","","","","","","","","",""
"instructions","126","207679","0.0-8.0","60f75a701ac4cfc5c17cceb7","bdp_trlrn","Sun Mar 12 2023 22:55:27 GMT-0400 (Eastern Daylight Time)","682243","Untrustworthy,Trustworthy","[{""page_index"":0,""viewing_time"":20577},{""page_index"":1,""viewing_time"":18849},{""page_index"":2,""viewing_time"":4519},{""page_index"":3,""viewing_time"":15474},{""page_index"":4,""viewing_time"":3690},{""page_index"":5,""viewing_time"":9690},{""page_index"":6,""viewing_time"":8731},{""page_index"":7,""viewing_time"":760}]","82290","","","","","","","","","","","","","","","","","",""
"html-keyboard-response","127","216000","0.0-9.0","60f75a701ac4cfc5c17cceb7","bdp_trlrn","Sun Mar 12 2023 22:55:27 GMT-0400 (Eastern Daylight Time)","682243","Untrustworthy,Trustworthy","","8320","","","","","","<div class='header' style='text-align:left; position: absolute; top: 5%; left: 5%;'><small>Task 3 of 5</small></div><div class='instruxDiv'><p><strong>1) What is the minimum number of points you can choose to send to your partner?</strong></p><p>a) 0</p><p>b) 1</p><p>c) 5</p>","C","","","","","","","","","","",""
"html-keyboard-response","128","219988","0.0-10.0","60f75a701ac4cfc5c17cceb7","bdp_trlrn","Sun Mar 12 2023 22:55:27 GMT-0400 (Eastern Daylight Time)","682243","Untrustworthy,Trustworthy","","3878","","","","","","<div class='header' style='text-align:left; position: absolute; top: 5%; left: 5%;'><small>Task 3 of 5</small></div><div class='instruxDiv'><p><strong>1) What is the minimum number of points you can choose to send to your partner?</strong></p><p>a) 1</p><p>b) 1</p><p style='color:#FF0000'>c) 5</p><h3 style='color:#FF0000'>Incorrect!</h3><h3 class='center-content'>The correct response is b).</h3><h3 class='center-content'>The minimum number of points you can choose to send to your partner is 1 point.</h3><p><em>Press SPACEBAR to continue</em></p></div>"," ","","","","","","","","","","",""
"html-keyboard-response","129","226020","0.0-11.0","60f75a701ac4cfc5c17cceb7","bdp_trlrn","Sun Mar 12 2023 22:55:27 GMT-0400 (Eastern Daylight Time)","682243","Untrustworthy,Trustworthy","","5929","","","","","","<div class='header' style='text-align:left; position: absolute; top: 5%; left: 5%;'><small>Task 3 of 5</small></div><div class='instruxDiv'><p><strong>2) What is the maximum number of points you can choose to send to your partner?</strong></p><p>a) 8</p><p>b) 5</p><p>c) 3</p>","B","","","","","","","","","","",""
"html-keyboard-response","130","227143","0.0-12.0","60f75a701ac4cfc5c17cceb7","bdp_trlrn","Sun Mar 12 2023 22:55:27 GMT-0400 (Eastern Daylight Time)","682243","Untrustworthy,Trustworthy","","1018","","","","","","<div class='header' style='text-align:left; position: absolute; top: 5%; left: 5%;'><small>Task 3 of 5</small></div><div class='instruxDiv'><p><strong>2) What is the maximum number of points you can choose to send to your partner?</strong></p><p>a) 8</p><p style='color:#00FF00'>b) 5</p><p>c) 3</p><h3 style='color:#00FF00'>Correct!</h3><h3 class='center-content'>The correct response is b).</h3><h3 class='center-content'>The maximum number of points you can choose to send to your partner is 5 points.</h3><p><em>Press SPACEBAR to continue</em></p></div>"," ","","","","","","","","","","",""
"html-keyboard-response","131","232461","0.0-13.0","60f75a701ac4cfc5c17cceb7","bdp_trlrn","Sun Mar 12 2023 22:55:27 GMT-0400 (Eastern Daylight Time)","682243","Untrustworthy,Trustworthy","","5217","","","","","","<div class='header' style='text-align:left; position: absolute; top: 5%; left: 5%;'><small>Task 3 of 5</small></div><div class='instruxDiv'><p><strong>3) What happens to the amount of points you send to your partner?</strong></p><p>a) Nothing</p><p>b) It doubles</p><p>c) It quadruples</p>","C","","","","","","","","","","",""
"html-keyboard-response","132","233486","0.0-14.0","60f75a701ac4cfc5c17cceb7","bdp_trlrn","Sun Mar 12 2023 22:55:27 GMT-0400 (Eastern Daylight Time)","682243","Untrustworthy,Trustworthy","","919","","","","","","<div class='header' style='text-align:left; position: absolute; top: 5%; left: 5%;'><small>Task 3 of 5</small></div><div class='instruxDiv'><p><strong>3) What happens to the amount of points you send to your partner?</strong></p><p>a) Nothing</p><p>b) It doubles</p><p style='color:#00FF00'>c) It quadruples</p><h3 style='color:#00FF00'>Correct!</h3><h3 class='center-content'>The correct response is c).</h3><h3 class='center-content'>The amount of points you send to your partner quadruples.</h3><p><em>Press SPACEBAR to continue</em></p></div>"," ","","","","","","","","","","",""
"html-keyboard-response","133","257604","0.0-15.0","60f75a701ac4cfc5c17cceb7","bdp_trlrn","Sun Mar 12 2023 22:55:27 GMT-0400 (Eastern Daylight Time)","682243","Untrustworthy,Trustworthy","","24016","","","","","","<div class='header' style='text-align:left; position: absolute; top: 5%; left: 5%;'><small>Task 3 of 5</small></div><div class='instruxDiv'><p><strong>4) If you decided to share 4 out of 5 points with your partner, and they decided to share half of the amount they received with you, how many points would you receive back from them on this round?</strong></p><p>a) 16</p><p>b) 0</p><p>c) 8</p>","C","","","","","","","","","","",""
"html-keyboard-response","134","258344","0.0-16.0","60f75a701ac4cfc5c17cceb7","bdp_trlrn","Sun Mar 12 2023 22:55:27 GMT-0400 (Eastern Daylight Time)","682243","Untrustworthy,Trustworthy","","635","","","","","","<div class='header' style='text-align:left; position: absolute; top: 5%; left: 5%;'><small>Task 3 of 5</small></div><div class='instruxDiv'><p><strong>4) If you decided to share 4 out of 5 points with your partner, and they decided to share half of the amount they received with you, how many points would you receive back from them on this round?</strong></p><p>a) 16</p><p>b) 0</p><p style='color:#00FF00'>c) 8</p><h3 style='color:#00FF00'>Correct!</h3><h3 class='center-content'>The correct response is c).</h3><h3 class='center-content'>If you shared 4 out of 5 points with your partner and they decided to share half of the amount they received with you, you would receive 8 points back (i.e. (4 x 4)/2 = 8).</h3><p><em>Press SPACEBAR to continue</em></p></div>"," ","","","","","","","","","","",""
"html-keyboard-response","135","263461","0.0-17.0","60f75a701ac4cfc5c17cceb7","bdp_trlrn","Sun Mar 12 2023 22:55:27 GMT-0400 (Eastern Daylight Time)","682243","Untrustworthy,Trustworthy","","null","","","","","","<div class='header' style='text-align:left; position: absolute; top: 5%; left: 5%;'><small>Task 3 of 5</small></div><div class='instruxDiv'><p>Thank you for completing the quiz<p>These are the actual partners you will be interacting with in the next block:<p><div class='tc' align='center'><img class='introPic' src='trustrating_stim/white_mw099.bmp'><br><strong>Nathan</strong></div><div class='bl' align='center'><img class='introPic' src='trustrating_stim/white_mw035.bmp'><br><strong>Brian</strong></div><div class='br' align='center'><img class='introPic' src='trustrating_stim/white_00898_960530_fa_edt.bmp'><br><strong>Benjamin</strong></div></div><p>Across <strong>66 rounds</strong> you will interact with each partner <strong>22 times</strong> (in random order).<p style='align:center; color:white'><font <em>Press SPACEBAR to continue</em></p>","null","","","","","","","","","","",""
"instructions","136","269104","0.0-18.0","60f75a701ac4cfc5c17cceb7","bdp_trlrn","Sun Mar 12 2023 22:55:27 GMT-0400 (Eastern Daylight Time)","682243","Untrustworthy,Trustworthy","[{""page_index"":0,""viewing_time"":3755},{""page_index"":1,""viewing_time"":1887}]","5642","","","","","","","","","","","","","","","","","",""
"html-keyboard-response","137","273124","0.0-19.0-1.0","60f75a701ac4cfc5c17cceb7","bdp_trlrn","Sun Mar 12 2023 22:55:27 GMT-0400 (Eastern Daylight Time)","682243","Untrustworthy,Trustworthy","","3906","","","","decision","","<div class='trialDiv'><img src='trustrating_stim/white_mw099.bmp'><br><font class='baseline'><strong>Nathan</strong><p>Choose number of points to send.</font><div class='respPicDiv'><img src='img/responseButtonOffersNo0L.png' class='respPic'></div></div>","3","1","Nathan","3","Kept","0.2,0.65","11","0.2","trustrating_stim/white_mw099.bmp","1.5","5","1"
"html-keyboard-response","138","273382","0.0-19.0-2.0","60f75a701ac4cfc5c17cceb7","bdp_trlrn","Sun Mar 12 2023 22:55:27 GMT-0400 (Eastern Daylight Time)","682243","Untrustworthy,Trustworthy","","null","","","","decisionFB","","<div class='trialDiv'><img src='trustrating_stim/white_mw099.bmp'><br><font class='baseline'><strong>Nathan</strong><p>Choose number of points to send.</font><div class='respPicDiv'><img src='img/responseButtonOffersNo0L3.png' class='respPic'></div></div>","null","1","Nathan","3","Kept","0.2,0.65","11","0.2","trustrating_stim/white_mw099.bmp","1.5","2","1"
"html-keyboard-response","139","274392","0.0-19.0-3.0","60f75a701ac4cfc5c17cceb7","bdp_trlrn","Sun Mar 12 2023 22:55:27 GMT-0400 (Eastern Daylight Time)","682243","Untrustworthy,Trustworthy","","null","","","","feedback","","<div class='trialDiv'><img src='trustrating_stim/white_mw099.bmp'><br><font class='baseline'><strong>Nathan</strong><p>Received: <strong>12</strong></font> &nbsp; &nbsp; &nbsp; &nbsp; &nbsp; &nbsp;<font class='negOutcome'>Shared back: <strong>0</strong></font></font><div class='respPicDiv'><img src='img/responseButtonOffersNo0_wht.png' class='respPic'></div></div>","null","1","Nathan","3","Kept","0.2,0.65","11","0.2","trustrating_stim/white_mw099.bmp","1.5","2","1"
"html-keyboard-response","140","277508","0.0-19.0-1.1","60f75a701ac4cfc5c17cceb7","bdp_trlrn","Sun Mar 12 2023 22:55:27 GMT-0400 (Eastern Daylight Time)","682243","Untrustworthy,Trustworthy","","3115","","","","decision","","<div class='trialDiv'><img src='trustrating_stim/white_00898_960530_fa_edt.bmp'><br><font class='baseline'><strong>Benjamin</strong><p>Choose number of points to send.</font><div class='respPicDiv'><img src='img/responseButtonOffersNo0L.png' class='respPic'></div></div>","5","1","Benjamin","10","Shared","0.65,0.2","8","0.65","trustrating_stim/white_00898_960530_fa_edt.bmp","7","7","2"
"html-keyboard-response","141","277764","0.0-19.0-2.1","60f75a701ac4cfc5c17cceb7","bdp_trlrn","Sun Mar 12 2023 22:55:27 GMT-0400 (Eastern Daylight Time)","682243","Untrustworthy,Trustworthy","","null","","","","decisionFB","","<div class='trialDiv'><img src='trustrating_stim/white_00898_960530_fa_edt.bmp'><br><font class='baseline'><strong>Benjamin</strong><p>Choose number of points to send.</font><div class='respPicDiv'><img src='img/responseButtonOffersNo0L5.png' class='respPic'></div></div>","null","1","Benjamin","10","Shared","0.65,0.2","8","0.65","trustrating_stim/white_00898_960530_fa_edt.bmp","7","2","2"
"html-keyboard-response","142","278775","0.0-19.0-3.1","60f75a701ac4cfc5c17cceb7","bdp_trlrn","Sun Mar 12 2023 22:55:27 GMT-0400 (Eastern Daylight Time)","682243","Untrustworthy,Trustworthy","","null","","","","feedback","","<div class='trialDiv'><img src='trustrating_stim/white_00898_960530_fa_edt.bmp'><br><font class='baseline'><strong>Benjamin</strong><p>Received: <strong>20</strong></font> &nbsp; &nbsp; &nbsp; &nbsp; &nbsp; &nbsp;<font class='posOutcome'>Shared back: <strong>10</strong></font></font><div class='respPicDiv'><img src='img/responseButtonOffersNo0_wht.png' class='respPic'></div></div>","null","1","Benjamin","10","Shared","0.65,0.2","8","0.65","trustrating_stim/white_00898_960530_fa_edt.bmp","7","12","2"
"html-keyboard-response","143","281976","0.0-19.0-1.2","60f75a701ac4cfc5c17cceb7","bdp_trlrn","Sun Mar 12 2023 22:55:27 GMT-0400 (Eastern Daylight Time)","682243","Untrustworthy,Trustworthy","","3200","","","","decision","","<div class='trialDiv'><img src='trustrating_stim/white_mw035.bmp'><br><font class='baseline'><strong>Brian</strong><p>Choose number of points to send.</font><div class='respPicDiv'><img src='img/responseButtonOffersNo0L.png' class='respPic'></div></div>","2","1","Brian","6","Shared","0.8,0.2","8","0.8","trustrating_stim/white_mw035.bmp","2.5","17","3"
"html-keyboard-response","144","282236","0.0-19.0-2.2","60f75a701ac4cfc5c17cceb7","bdp_trlrn","Sun Mar 12 2023 22:55:27 GMT-0400 (Eastern Daylight Time)","682243","Untrustworthy,Trustworthy","","null","","","","decisionFB","","<div class='trialDiv'><img src='trustrating_stim/white_mw035.bmp'><br><font class='baseline'><strong>Brian</strong><p>Choose number of points to send.</font><div class='respPicDiv'><img src='img/responseButtonOffersNo0L2.png' class='respPic'></div></div>","null","1","Brian","6","Shared","0.8,0.2","8","0.8","trustrating_stim/white_mw035.bmp","2.5","15","3"
"html-keyboard-response","145","283244","0.0-19.0-3.2","60f75a701ac4cfc5c17cceb7","bdp_trlrn","Sun Mar 12 2023 22:55:27 GMT-0400 (Eastern Daylight Time)","682243","Untrustworthy,Trustworthy","","null","","","","feedback","","<div class='trialDiv'><img src='trustrating_stim/white_mw035.bmp'><br><font class='baseline'><strong>Brian</strong><p>Received: <strong>8</strong></font> &nbsp; &nbsp; &nbsp; &nbsp; &nbsp; &nbsp;<font class='posOutcome'>Shared back: <strong>4</strong></font></font><div class='respPicDiv'><img src='img/responseButtonOffersNo0_wht.png' class='respPic'></div></div>","null","1","Brian","6","Shared","0.8,0.2","8","0.8","trustrating_stim/white_mw035.bmp","2.5","19","3"
"html-keyboard-response","146","285943","0.0-19.0-1.3","60f75a701ac4cfc5c17cceb7","bdp_trlrn","Sun Mar 12 2023 22:55:27 GMT-0400 (Eastern Daylight Time)","682243","Untrustworthy,Trustworthy","","2698","","","","decision","","<div class='trialDiv'><img src='trustrating_stim/white_00898_960530_fa_edt.bmp'><br><font class='baseline'><strong>Benjamin</strong><p>Choose number of points to send.</font><div class='respPicDiv'><img src='img/responseButtonOffersNo0L.png' class='respPic'></div></div>","5","2","Benjamin","10","Kept","0.65,0.2","8","0.65","trustrating_stim/white_00898_960530_fa_edt.bmp","7","24","4"
"html-keyboard-response","147","286197","0.0-19.0-2.3","60f75a701ac4cfc5c17cceb7","bdp_trlrn","Sun Mar 12 2023 22:55:27 GMT-0400 (Eastern Daylight Time)","682243","Untrustworthy,Trustworthy","","null","","","","decisionFB","","<div class='trialDiv'><img src='trustrating_stim/white_00898_960530_fa_edt.bmp'><br><font class='baseline'><strong>Benjamin</strong><p>Choose number of points to send.</font><div class='respPicDiv'><img src='img/responseButtonOffersNo0L5.png' class='respPic'></div></div>","null","2","Benjamin","10","Kept","0.65,0.2","8","0.65","trustrating_stim/white_00898_960530_fa_edt.bmp","7","19","4"
"html-keyboard-response","148","287203","0.0-19.0-3.3","60f75a701ac4cfc5c17cceb7","bdp_trlrn","Sun Mar 12 2023 22:55:27 GMT-0400 (Eastern Daylight Time)","682243","Untrustworthy,Trustworthy","","null","","","","feedback","","<div class='trialDiv'><img src='trustrating_stim/white_00898_960530_fa_edt.bmp'><br><font class='baseline'><strong>Benjamin</strong><p>Received: <strong>20</strong></font> &nbsp; &nbsp; &nbsp; &nbsp; &nbsp; &nbsp;<font class='negOutcome'>Shared back: <strong>0</strong></font></font><div class='respPicDiv'><img src='img/responseButtonOffersNo0_wht.png' class='respPic'></div></div>","null","2","Benjamin","10","Kept","0.65,0.2","8","0.65","trustrating_stim/white_00898_960530_fa_edt.bmp","7","19","4"
"html-keyboard-response","149","289280","0.0-19.0-1.4","60f75a701ac4cfc5c17cceb7","bdp_trlrn","Sun Mar 12 2023 22:55:27 GMT-0400 (Eastern Daylight Time)","682243","Untrustworthy,Trustworthy","","2076","","","","decision","","<div class='trialDiv'><img src='trustrating_stim/white_mw099.bmp'><br><font class='baseline'><strong>Nathan</strong><p>Choose number of points to send.</font><div class='respPicDiv'><img src='img/responseButtonOffersNo0L.png' class='respPic'></div></div>","2","2","Nathan","3","Kept","0.2,0.65","11","0.2","trustrating_stim/white_mw099.bmp","1.5","24","5"
"html-keyboard-response","150","289531","0.0-19.0-2.4","60f75a701ac4cfc5c17cceb7","bdp_trlrn","Sun Mar 12 2023 22:55:27 GMT-0400 (Eastern Daylight Time)","682243","Untrustworthy,Trustworthy","","null","","","","decisionFB","","<div class='trialDiv'><img src='trustrating_stim/white_mw099.bmp'><br><font class='baseline'><strong>Nathan</strong><p>Choose number of points to send.</font><div class='respPicDiv'><img src='img/responseButtonOffersNo0L2.png' class='respPic'></div></div>","null","2","Nathan","3","Kept","0.2,0.65","11","0.2","trustrating_stim/white_mw099.bmp","1.5","22","5"
"html-keyboard-response","151","290541","0.0-19.0-3.4","60f75a701ac4cfc5c17cceb7","bdp_trlrn","Sun Mar 12 2023 22:55:27 GMT-0400 (Eastern Daylight Time)","682243","Untrustworthy,Trustworthy","","null","","","","feedback","","<div class='trialDiv'><img src='trustrating_stim/white_mw099.bmp'><br><font class='baseline'><strong>Nathan</strong><p>Received: <strong>8</strong></font> &nbsp; &nbsp; &nbsp; &nbsp; &nbsp; &nbsp;<font class='negOutcome'>Shared back: <strong>0</strong></font></font><div class='respPicDiv'><img src='img/responseButtonOffersNo0_wht.png' class='respPic'></div></div>","null","2","Nathan","3","Kept","0.2,0.65","11","0.2","trustrating_stim/white_mw099.bmp","1.5","22","5"
"html-keyboard-response","152","291702","0.0-19.0-1.5","60f75a701ac4cfc5c17cceb7","bdp_trlrn","Sun Mar 12 2023 22:55:27 GMT-0400 (Eastern Daylight Time)","682243","Untrustworthy,Trustworthy","","1160","","","","decision","","<div class='trialDiv'><img src='trustrating_stim/white_mw035.bmp'><br><font class='baseline'><strong>Brian</strong><p>Choose number of points to send.</font><div class='respPicDiv'><img src='img/responseButtonOffersNo0L.png' class='respPic'></div></div>","3","2","Brian","6","Kept","0.8,0.2","8","0.8","trustrating_stim/white_mw035.bmp","2.5","27","6"
"html-keyboard-response","153","291958","0.0-19.0-2.5","60f75a701ac4cfc5c17cceb7","bdp_trlrn","Sun Mar 12 2023 22:55:27 GMT-0400 (Eastern Daylight Time)","682243","Untrustworthy,Trustworthy","","null","","","","decisionFB","","<div class='trialDiv'><img src='trustrating_stim/white_mw035.bmp'><br><font class='baseline'><strong>Brian</strong><p>Choose number of points to send.</font><div class='respPicDiv'><img src='img/responseButtonOffersNo0L3.png' class='respPic'></div></div>","null","2","Brian","6","Kept","0.8,0.2","8","0.8","trustrating_stim/white_mw035.bmp","2.5","24","6"
"html-keyboard-response","154","292968","0.0-19.0-3.5","60f75a701ac4cfc5c17cceb7","bdp_trlrn","Sun Mar 12 2023 22:55:27 GMT-0400 (Eastern Daylight Time)","682243","Untrustworthy,Trustworthy","","null","","","","feedback","","<div class='trialDiv'><img src='trustrating_stim/white_mw035.bmp'><br><font class='baseline'><strong>Brian</strong><p>Received: <strong>12</strong></font> &nbsp; &nbsp; &nbsp; &nbsp; &nbsp; &nbsp;<font class='negOutcome'>Shared back: <strong>0</strong></font></font><div class='respPicDiv'><img src='img/responseButtonOffersNo0_wht.png' class='respPic'></div></div>","null","2","Brian","6","Kept","0.8,0.2","8","0.8","trustrating_stim/white_mw035.bmp","2.5","24","6"
"html-keyboard-response","155","295716","0.0-19.0-1.6","60f75a701ac4cfc5c17cceb7","bdp_trlrn","Sun Mar 12 2023 22:55:27 GMT-0400 (Eastern Daylight Time)","682243","Untrustworthy,Trustworthy","","2747","","","","decision","","<div class='trialDiv'><img src='trustrating_stim/white_00898_960530_fa_edt.bmp'><br><font class='baseline'><strong>Benjamin</strong><p>Choose number of points to send.</font><div class='respPicDiv'><img src='img/responseButtonOffersNo0L.png' class='respPic'></div></div>","3","3","Benjamin","10","Shared","0.65,0.2","8","0.65","trustrating_stim/white_00898_960530_fa_edt.bmp","7","29","7"
"html-keyboard-response","156","295975","0.0-19.0-2.6","60f75a701ac4cfc5c17cceb7","bdp_trlrn","Sun Mar 12 2023 22:55:27 GMT-0400 (Eastern Daylight Time)","682243","Untrustworthy,Trustworthy","","null","","","","decisionFB","","<div class='trialDiv'><img src='trustrating_stim/white_00898_960530_fa_edt.bmp'><br><font class='baseline'><strong>Benjamin</strong><p>Choose number of points to send.</font><div class='respPicDiv'><img src='img/responseButtonOffersNo0L3.png' class='respPic'></div></div>","null","3","Benjamin","10","Shared","0.65,0.2","8","0.65","trustrating_stim/white_00898_960530_fa_edt.bmp","7","26","7"
"html-keyboard-response","157","296980","0.0-19.0-3.6","60f75a701ac4cfc5c17cceb7","bdp_trlrn","Sun Mar 12 2023 22:55:27 GMT-0400 (Eastern Daylight Time)","682243","Untrustworthy,Trustworthy","","null","","","","feedback","","<div class='trialDiv'><img src='trustrating_stim/white_00898_960530_fa_edt.bmp'><br><font class='baseline'><strong>Benjamin</strong><p>Received: <strong>12</strong></font> &nbsp; &nbsp; &nbsp; &nbsp; &nbsp; &nbsp;<font class='posOutcome'>Shared back: <strong>6</strong></font></font><div class='respPicDiv'><img src='img/responseButtonOffersNo0_wht.png' class='respPic'></div></div>","null","3","Benjamin","10","Shared","0.65,0.2","8","0.65","trustrating_stim/white_00898_960530_fa_edt.bmp","7","32","7"
"html-keyboard-response","158","299000","0.0-19.0-1.7","60f75a701ac4cfc5c17cceb7","bdp_trlrn","Sun Mar 12 2023 22:55:27 GMT-0400 (Eastern Daylight Time)","682243","Untrustworthy,Trustworthy","","2017","","","","decision","","<div class='trialDiv'><img src='trustrating_stim/white_mw099.bmp'><br><font class='baseline'><strong>Nathan</strong><p>Choose number of points to send.</font><div class='respPicDiv'><img src='img/responseButtonOffersNo0L.png' class='respPic'></div></div>","3","3","Nathan","3","Shared","0.2,0.65","11","0.2","trustrating_stim/white_mw099.bmp","1.5","37","8"
"html-keyboard-response","159","299255","0.0-19.0-2.7","60f75a701ac4cfc5c17cceb7","bdp_trlrn","Sun Mar 12 2023 22:55:27 GMT-0400 (Eastern Daylight Time)","682243","Untrustworthy,Trustworthy","","null","","","","decisionFB","","<div class='trialDiv'><img src='trustrating_stim/white_mw099.bmp'><br><font class='baseline'><strong>Nathan</strong><p>Choose number of points to send.</font><div class='respPicDiv'><img src='img/responseButtonOffersNo0L3.png' class='respPic'></div></div>","null","3","Nathan","3","Shared","0.2,0.65","11","0.2","trustrating_stim/white_mw099.bmp","1.5","34","8"
"html-keyboard-response","160","300259","0.0-19.0-3.7","60f75a701ac4cfc5c17cceb7","bdp_trlrn","Sun Mar 12 2023 22:55:27 GMT-0400 (Eastern Daylight Time)","682243","Untrustworthy,Trustworthy","","null","","","","feedback","","<div class='trialDiv'><img src='trustrating_stim/white_mw099.bmp'><br><font class='baseline'><strong>Nathan</strong><p>Received: <strong>12</strong></font> &nbsp; &nbsp; &nbsp; &nbsp; &nbsp; &nbsp;<font class='posOutcome'>Shared back: <strong>6</strong></font></font><div class='respPicDiv'><img src='img/responseButtonOffersNo0_wht.png' class='respPic'></div></div>","null","3","Nathan","3","Shared","0.2,0.65","11","0.2","trustrating_stim/white_mw099.bmp","1.5","40","8"
"html-keyboard-response","161","300933","0.0-19.0-1.8","60f75a701ac4cfc5c17cceb7","bdp_trlrn","Sun Mar 12 2023 22:55:27 GMT-0400 (Eastern Daylight Time)","682243","Untrustworthy,Trustworthy","","673","","","","decision","","<div class='trialDiv'><img src='trustrating_stim/white_mw035.bmp'><br><font class='baseline'><strong>Brian</strong><p>Choose number of points to send.</font><div class='respPicDiv'><img src='img/responseButtonOffersNo0L.png' class='respPic'></div></div>","3","3","Brian","6","Shared","0.8,0.2","8","0.8","trustrating_stim/white_mw035.bmp","2.5","45","9"
"html-keyboard-response","162","301190","0.0-19.0-2.8","60f75a701ac4cfc5c17cceb7","bdp_trlrn","Sun Mar 12 2023 22:55:27 GMT-0400 (Eastern Daylight Time)","682243","Untrustworthy,Trustworthy","","null","","","","decisionFB","","<div class='trialDiv'><img src='trustrating_stim/white_mw035.bmp'><br><font class='baseline'><strong>Brian</strong><p>Choose number of points to send.</font><div class='respPicDiv'><img src='img/responseButtonOffersNo0L3.png' class='respPic'></div></div>","null","3","Brian","6","Shared","0.8,0.2","8","0.8","trustrating_stim/white_mw035.bmp","2.5","42","9"
"html-keyboard-response","163","302197","0.0-19.0-3.8","60f75a701ac4cfc5c17cceb7","bdp_trlrn","Sun Mar 12 2023 22:55:27 GMT-0400 (Eastern Daylight Time)","682243","Untrustworthy,Trustworthy","","null","","","","feedback","","<div class='trialDiv'><img src='trustrating_stim/white_mw035.bmp'><br><font class='baseline'><strong>Brian</strong><p>Received: <strong>12</strong></font> &nbsp; &nbsp; &nbsp; &nbsp; &nbsp; &nbsp;<font class='posOutcome'>Shared back: <strong>6</strong></font></font><div class='respPicDiv'><img src='img/responseButtonOffersNo0_wht.png' class='respPic'></div></div>","null","3","Brian","6","Shared","0.8,0.2","8","0.8","trustrating_stim/white_mw035.bmp","2.5","48","9"
"html-keyboard-response","164","303616","0.0-19.0-1.9","60f75a701ac4cfc5c17cceb7","bdp_trlrn","Sun Mar 12 2023 22:55:27 GMT-0400 (Eastern Daylight Time)","682243","Untrustworthy,Trustworthy","","1417","","","","decision","","<div class='trialDiv'><img src='trustrating_stim/white_00898_960530_fa_edt.bmp'><br><font class='baseline'><strong>Benjamin</strong><p>Choose number of points to send.</font><div class='respPicDiv'><img src='img/responseButtonOffersNo0L.png' class='respPic'></div></div>","4","4","Benjamin","10","Kept","0.65,0.2","8","0.65","trustrating_stim/white_00898_960530_fa_edt.bmp","7","53","10"
"html-keyboard-response","165","303869","0.0-19.0-2.9","60f75a701ac4cfc5c17cceb7","bdp_trlrn","Sun Mar 12 2023 22:55:27 GMT-0400 (Eastern Daylight Time)","682243","Untrustworthy,Trustworthy","","null","","","","decisionFB","","<div class='trialDiv'><img src='trustrating_stim/white_00898_960530_fa_edt.bmp'><br><font class='baseline'><strong>Benjamin</strong><p>Choose number of points to send.</font><div class='respPicDiv'><img src='img/responseButtonOffersNo0L4.png' class='respPic'></div></div>","null","4","Benjamin","10","Kept","0.65,0.2","8","0.65","trustrating_stim/white_00898_960530_fa_edt.bmp","7","49","10"
"html-keyboard-response","166","304879","0.0-19.0-3.9","60f75a701ac4cfc5c17cceb7","bdp_trlrn","Sun Mar 12 2023 22:55:27 GMT-0400 (Eastern Daylight Time)","682243","Untrustworthy,Trustworthy","","null","","","","feedback","","<div class='trialDiv'><img src='trustrating_stim/white_00898_960530_fa_edt.bmp'><br><font class='baseline'><strong>Benjamin</strong><p>Received: <strong>16</strong></font> &nbsp; &nbsp; &nbsp; &nbsp; &nbsp; &nbsp;<font class='negOutcome'>Shared back: <strong>0</strong></font></font><div class='respPicDiv'><img src='img/responseButtonOffersNo0_wht.png' class='respPic'></div></div>","null","4","Benjamin","10","Kept","0.65,0.2","8","0.65","trustrating_stim/white_00898_960530_fa_edt.bmp","7","49","10"
"html-keyboard-response","167","306610","0.0-19.0-1.10","60f75a701ac4cfc5c17cceb7","bdp_trlrn","Sun Mar 12 2023 22:55:27 GMT-0400 (Eastern Daylight Time)","682243","Untrustworthy,Trustworthy","","1730","","","","decision","","<div class='trialDiv'><img src='trustrating_stim/white_mw035.bmp'><br><font class='baseline'><strong>Brian</strong><p>Choose number of points to send.</font><div class='respPicDiv'><img src='img/responseButtonOffersNo0L.png' class='respPic'></div></div>","3","4","Brian","6","Shared","0.8,0.2","8","0.8","trustrating_stim/white_mw035.bmp","2.5","54","11"
"html-keyboard-response","168","306871","0.0-19.0-2.10","60f75a701ac4cfc5c17cceb7","bdp_trlrn","Sun Mar 12 2023 22:55:27 GMT-0400 (Eastern Daylight Time)","682243","Untrustworthy,Trustworthy","","null","","","","decisionFB","","<div class='trialDiv'><img src='trustrating_stim/white_mw035.bmp'><br><font class='baseline'><strong>Brian</strong><p>Choose number of points to send.</font><div class='respPicDiv'><img src='img/responseButtonOffersNo0L3.png' class='respPic'></div></div>","null","4","Brian","6","Shared","0.8,0.2","8","0.8","trustrating_stim/white_mw035.bmp","2.5","51","11"
"html-keyboard-response","169","307881","0.0-19.0-3.10","60f75a701ac4cfc5c17cceb7","bdp_trlrn","Sun Mar 12 2023 22:55:27 GMT-0400 (Eastern Daylight Time)","682243","Untrustworthy,Trustworthy","","null","","","","feedback","","<div class='trialDiv'><img src='trustrating_stim/white_mw035.bmp'><br><font class='baseline'><strong>Brian</strong><p>Received: <strong>12</strong></font> &nbsp; &nbsp; &nbsp; &nbsp; &nbsp; &nbsp;<font class='posOutcome'>Shared back: <strong>6</strong></font></font><div class='respPicDiv'><img src='img/responseButtonOffersNo0_wht.png' class='respPic'></div></div>","null","4","Brian","6","Shared","0.8,0.2","8","0.8","trustrating_stim/white_mw035.bmp","2.5","57","11"
"html-keyboard-response","170","309007","0.0-19.0-1.11","60f75a701ac4cfc5c17cceb7","bdp_trlrn","Sun Mar 12 2023 22:55:27 GMT-0400 (Eastern Daylight Time)","682243","Untrustworthy,Trustworthy","","1124","","","","decision","","<div class='trialDiv'><img src='trustrating_stim/white_mw099.bmp'><br><font class='baseline'><strong>Nathan</strong><p>Choose number of points to send.</font><div class='respPicDiv'><img src='img/responseButtonOffersNo0L.png' class='respPic'></div></div>","3","4","Nathan","3","Kept","0.2,0.65","11","0.2","trustrating_stim/white_mw099.bmp","1.5","62","12"
"html-keyboard-response","171","309263","0.0-19.0-2.11","60f75a701ac4cfc5c17cceb7","bdp_trlrn","Sun Mar 12 2023 22:55:27 GMT-0400 (Eastern Daylight Time)","682243","Untrustworthy,Trustworthy","","null","","","","decisionFB","","<div class='trialDiv'><img src='trustrating_stim/white_mw099.bmp'><br><font class='baseline'><strong>Nathan</strong><p>Choose number of points to send.</font><div class='respPicDiv'><img src='img/responseButtonOffersNo0L3.png' class='respPic'></div></div>","null","4","Nathan","3","Kept","0.2,0.65","11","0.2","trustrating_stim/white_mw099.bmp","1.5","59","12"
"html-keyboard-response","172","310273","0.0-19.0-3.11","60f75a701ac4cfc5c17cceb7","bdp_trlrn","Sun Mar 12 2023 22:55:27 GMT-0400 (Eastern Daylight Time)","682243","Untrustworthy,Trustworthy","","null","","","","feedback","","<div class='trialDiv'><img src='trustrating_stim/white_mw099.bmp'><br><font class='baseline'><strong>Nathan</strong><p>Received: <strong>12</strong></font> &nbsp; &nbsp; &nbsp; &nbsp; &nbsp; &nbsp;<font class='negOutcome'>Shared back: <strong>0</strong></font></font><div class='respPicDiv'><img src='img/responseButtonOffersNo0_wht.png' class='respPic'></div></div>","null","4","Nathan","3","Kept","0.2,0.65","11","0.2","trustrating_stim/white_mw099.bmp","1.5","59","12"
"html-keyboard-response","173","312607","0.0-19.0-1.12","60f75a701ac4cfc5c17cceb7","bdp_trlrn","Sun Mar 12 2023 22:55:27 GMT-0400 (Eastern Daylight Time)","682243","Untrustworthy,Trustworthy","","2333","","","","decision","","<div class='trialDiv'><img src='trustrating_stim/white_mw035.bmp'><br><font class='baseline'><strong>Brian</strong><p>Choose number of points to send.</font><div class='respPicDiv'><img src='img/responseButtonOffersNo0L.png' class='respPic'></div></div>","5","5","Brian","6","Shared","0.8,0.2","8","0.8","trustrating_stim/white_mw035.bmp","2.5","64","13"
"html-keyboard-response","174","312862","0.0-19.0-2.12","60f75a701ac4cfc5c17cceb7","bdp_trlrn","Sun Mar 12 2023 22:55:27 GMT-0400 (Eastern Daylight Time)","682243","Untrustworthy,Trustworthy","","null","","","","decisionFB","","<div class='trialDiv'><img src='trustrating_stim/white_mw035.bmp'><br><font class='baseline'><strong>Brian</strong><p>Choose number of points to send.</font><div class='respPicDiv'><img src='img/responseButtonOffersNo0L5.png' class='respPic'></div></div>","null","5","Brian","6","Shared","0.8,0.2","8","0.8","trustrating_stim/white_mw035.bmp","2.5","59","13"
"html-keyboard-response","175","313872","0.0-19.0-3.12","60f75a701ac4cfc5c17cceb7","bdp_trlrn","Sun Mar 12 2023 22:55:27 GMT-0400 (Eastern Daylight Time)","682243","Untrustworthy,Trustworthy","","null","","","","feedback","","<div class='trialDiv'><img src='trustrating_stim/white_mw035.bmp'><br><font class='baseline'><strong>Brian</strong><p>Received: <strong>20</strong></font> &nbsp; &nbsp; &nbsp; &nbsp; &nbsp; &nbsp;<font class='posOutcome'>Shared back: <strong>10</strong></font></font><div class='respPicDiv'><img src='img/responseButtonOffersNo0_wht.png' class='respPic'></div></div>","null","5","Brian","6","Shared","0.8,0.2","8","0.8","trustrating_stim/white_mw035.bmp","2.5","69","13"
"html-keyboard-response","176","314922","0.0-19.0-1.13","60f75a701ac4cfc5c17cceb7","bdp_trlrn","Sun Mar 12 2023 22:55:27 GMT-0400 (Eastern Daylight Time)","682243","Untrustworthy,Trustworthy","","1049","","","","decision","","<div class='trialDiv'><img src='trustrating_stim/white_mw099.bmp'><br><font class='baseline'><strong>Nathan</strong><p>Choose number of points to send.</font><div class='respPicDiv'><img src='img/responseButtonOffersNo0L.png' class='respPic'></div></div>","2","5","Nathan","3","Kept","0.2,0.65","11","0.2","trustrating_stim/white_mw099.bmp","1.5","74","14"
"html-keyboard-response","177","315183","0.0-19.0-2.13","60f75a701ac4cfc5c17cceb7","bdp_trlrn","Sun Mar 12 2023 22:55:27 GMT-0400 (Eastern Daylight Time)","682243","Untrustworthy,Trustworthy","","null","","","","decisionFB","","<div class='trialDiv'><img src='trustrating_stim/white_mw099.bmp'><br><font class='baseline'><strong>Nathan</strong><p>Choose number of points to send.</font><div class='respPicDiv'><img src='img/responseButtonOffersNo0L2.png' class='respPic'></div></div>","null","5","Nathan","3","Kept","0.2,0.65","11","0.2","trustrating_stim/white_mw099.bmp","1.5","72","14"
"html-keyboard-response","178","316189","0.0-19.0-3.13","60f75a701ac4cfc5c17cceb7","bdp_trlrn","Sun Mar 12 2023 22:55:27 GMT-0400 (Eastern Daylight Time)","682243","Untrustworthy,Trustworthy","","null","","","","feedback","","<div class='trialDiv'><img src='trustrating_stim/white_mw099.bmp'><br><font class='baseline'><strong>Nathan</strong><p>Received: <strong>8</strong></font> &nbsp; &nbsp; &nbsp; &nbsp; &nbsp; &nbsp;<font class='negOutcome'>Shared back: <strong>0</strong></font></font><div class='respPicDiv'><img src='img/responseButtonOffersNo0_wht.png' class='respPic'></div></div>","null","5","Nathan","3","Kept","0.2,0.65","11","0.2","trustrating_stim/white_mw099.bmp","1.5","72","14"
"html-keyboard-response","179","316804","0.0-19.0-1.14","60f75a701ac4cfc5c17cceb7","bdp_trlrn","Sun Mar 12 2023 22:55:27 GMT-0400 (Eastern Daylight Time)","682243","Untrustworthy,Trustworthy","","614","","","","decision","","<div class='trialDiv'><img src='trustrating_stim/white_00898_960530_fa_edt.bmp'><br><font class='baseline'><strong>Benjamin</strong><p>Choose number of points to send.</font><div class='respPicDiv'><img src='img/responseButtonOffersNo0L.png' class='respPic'></div></div>","3","5","Benjamin","10","Shared","0.65,0.2","8","0.65","trustrating_stim/white_00898_960530_fa_edt.bmp","7","77","15"
"html-keyboard-response","180","317065","0.0-19.0-2.14","60f75a701ac4cfc5c17cceb7","bdp_trlrn","Sun Mar 12 2023 22:55:27 GMT-0400 (Eastern Daylight Time)","682243","Untrustworthy,Trustworthy","","null","","","","decisionFB","","<div class='trialDiv'><img src='trustrating_stim/white_00898_960530_fa_edt.bmp'><br><font class='baseline'><strong>Benjamin</strong><p>Choose number of points to send.</font><div class='respPicDiv'><img src='img/responseButtonOffersNo0L3.png' class='respPic'></div></div>","null","5","Benjamin","10","Shared","0.65,0.2","8","0.65","trustrating_stim/white_00898_960530_fa_edt.bmp","7","74","15"
"html-keyboard-response","181","318069","0.0-19.0-3.14","60f75a701ac4cfc5c17cceb7","bdp_trlrn","Sun Mar 12 2023 22:55:27 GMT-0400 (Eastern Daylight Time)","682243","Untrustworthy,Trustworthy","","null","","","","feedback","","<div class='trialDiv'><img src='trustrating_stim/white_00898_960530_fa_edt.bmp'><br><font class='baseline'><strong>Benjamin</strong><p>Received: <strong>12</strong></font> &nbsp; &nbsp; &nbsp; &nbsp; &nbsp; &nbsp;<font class='posOutcome'>Shared back: <strong>6</strong></font></font><div class='respPicDiv'><img src='img/responseButtonOffersNo0_wht.png' class='respPic'></div></div>","null","5","Benjamin","10","Shared","0.65,0.2","8","0.65","trustrating_stim/white_00898_960530_fa_edt.bmp","7","80","15"
"html-keyboard-response","182","318928","0.0-19.0-1.15","60f75a701ac4cfc5c17cceb7","bdp_trlrn","Sun Mar 12 2023 22:55:27 GMT-0400 (Eastern Daylight Time)","682243","Untrustworthy,Trustworthy","","858","","","","decision","","<div class='trialDiv'><img src='trustrating_stim/white_mw035.bmp'><br><font class='baseline'><strong>Brian</strong><p>Choose number of points to send.</font><div class='respPicDiv'><img src='img/responseButtonOffersNo0L.png' class='respPic'></div></div>","5","6","Brian","6","Shared","0.8,0.2","8","0.8","trustrating_stim/white_mw035.bmp","2.5","85","16"
"html-keyboard-response","183","319183","0.0-19.0-2.15","60f75a701ac4cfc5c17cceb7","bdp_trlrn","Sun Mar 12 2023 22:55:27 GMT-0400 (Eastern Daylight Time)","682243","Untrustworthy,Trustworthy","","null","","","","decisionFB","","<div class='trialDiv'><img src='trustrating_stim/white_mw035.bmp'><br><font class='baseline'><strong>Brian</strong><p>Choose number of points to send.</font><div class='respPicDiv'><img src='img/responseButtonOffersNo0L5.png' class='respPic'></div></div>","null","6","Brian","6","Shared","0.8,0.2","8","0.8","trustrating_stim/white_mw035.bmp","2.5","80","16"
"html-keyboard-response","184","320188","0.0-19.0-3.15","60f75a701ac4cfc5c17cceb7","bdp_trlrn","Sun Mar 12 2023 22:55:27 GMT-0400 (Eastern Daylight Time)","682243","Untrustworthy,Trustworthy","","null","","","","feedback","","<div class='trialDiv'><img src='trustrating_stim/white_mw035.bmp'><br><font class='baseline'><strong>Brian</strong><p>Received: <strong>20</strong></font> &nbsp; &nbsp; &nbsp; &nbsp; &nbsp; &nbsp;<font class='posOutcome'>Shared back: <strong>10</strong></font></font><div class='respPicDiv'><img src='img/responseButtonOffersNo0_wht.png' class='respPic'></div></div>","null","6","Brian","6","Shared","0.8,0.2","8","0.8","trustrating_stim/white_mw035.bmp","2.5","90","16"
"html-keyboard-response","185","324150","0.0-19.0-1.16","60f75a701ac4cfc5c17cceb7","bdp_trlrn","Sun Mar 12 2023 22:55:27 GMT-0400 (Eastern Daylight Time)","682243","Untrustworthy,Trustworthy","","3961","","","","decision","","<div class='trialDiv'><img src='trustrating_stim/white_00898_960530_fa_edt.bmp'><br><font class='baseline'><strong>Benjamin</strong><p>Choose number of points to send.</font><div class='respPicDiv'><img src='img/responseButtonOffersNo0L.png' class='respPic'></div></div>","3","6","Benjamin","10","Shared","0.65,0.2","8","0.65","trustrating_stim/white_00898_960530_fa_edt.bmp","7","95","17"
"html-keyboard-response","186","324408","0.0-19.0-2.16","60f75a701ac4cfc5c17cceb7","bdp_trlrn","Sun Mar 12 2023 22:55:27 GMT-0400 (Eastern Daylight Time)","682243","Untrustworthy,Trustworthy","","null","","","","decisionFB","","<div class='trialDiv'><img src='trustrating_stim/white_00898_960530_fa_edt.bmp'><br><font class='baseline'><strong>Benjamin</strong><p>Choose number of points to send.</font><div class='respPicDiv'><img src='img/responseButtonOffersNo0L3.png' class='respPic'></div></div>","null","6","Benjamin","10","Shared","0.65,0.2","8","0.65","trustrating_stim/white_00898_960530_fa_edt.bmp","7","92","17"
"html-keyboard-response","187","325413","0.0-19.0-3.16","60f75a701ac4cfc5c17cceb7","bdp_trlrn","Sun Mar 12 2023 22:55:27 GMT-0400 (Eastern Daylight Time)","682243","Untrustworthy,Trustworthy","","null","","","","feedback","","<div class='trialDiv'><img src='trustrating_stim/white_00898_960530_fa_edt.bmp'><br><font class='baseline'><strong>Benjamin</strong><p>Received: <strong>12</strong></font> &nbsp; &nbsp; &nbsp; &nbsp; &nbsp; &nbsp;<font class='posOutcome'>Shared back: <strong>6</strong></font></font><div class='respPicDiv'><img src='img/responseButtonOffersNo0_wht.png' class='respPic'></div></div>","null","6","Benjamin","10","Shared","0.65,0.2","8","0.65","trustrating_stim/white_00898_960530_fa_edt.bmp","7","98","17"
"html-keyboard-response","188","326121","0.0-19.0-1.17","60f75a701ac4cfc5c17cceb7","bdp_trlrn","Sun Mar 12 2023 22:55:27 GMT-0400 (Eastern Daylight Time)","682243","Untrustworthy,Trustworthy","","707","","","","decision","","<div class='trialDiv'><img src='trustrating_stim/white_mw099.bmp'><br><font class='baseline'><strong>Nathan</strong><p>Choose number of points to send.</font><div class='respPicDiv'><img src='img/responseButtonOffersNo0L.png' class='respPic'></div></div>","1","6","Nathan","3","Kept","0.2,0.65","11","0.2","trustrating_stim/white_mw099.bmp","1.5","103","18"
"html-keyboard-response","189","326382","0.0-19.0-2.17","60f75a701ac4cfc5c17cceb7","bdp_trlrn","Sun Mar 12 2023 22:55:27 GMT-0400 (Eastern Daylight Time)","682243","Untrustworthy,Trustworthy","","null","","","","decisionFB","","<div class='trialDiv'><img src='trustrating_stim/white_mw099.bmp'><br><font class='baseline'><strong>Nathan</strong><p>Choose number of points to send.</font><div class='respPicDiv'><img src='img/responseButtonOffersNo0L1.png' class='respPic'></div></div>","null","6","Nathan","3","Kept","0.2,0.65","11","0.2","trustrating_stim/white_mw099.bmp","1.5","102","18"
"html-keyboard-response","190","327392","0.0-19.0-3.17","60f75a701ac4cfc5c17cceb7","bdp_trlrn","Sun Mar 12 2023 22:55:27 GMT-0400 (Eastern Daylight Time)","682243","Untrustworthy,Trustworthy","","null","","","","feedback","","<div class='trialDiv'><img src='trustrating_stim/white_mw099.bmp'><br><font class='baseline'><strong>Nathan</strong><p>Received: <strong>4</strong></font> &nbsp; &nbsp; &nbsp; &nbsp; &nbsp; &nbsp;<font class='negOutcome'>Shared back: <strong>0</strong></font></font><div class='respPicDiv'><img src='img/responseButtonOffersNo0_wht.png' class='respPic'></div></div>","null","6","Nathan","3","Kept","0.2,0.65","11","0.2","trustrating_stim/white_mw099.bmp","1.5","102","18"
"html-keyboard-response","191","328885","0.0-19.0-1.18","60f75a701ac4cfc5c17cceb7","bdp_trlrn","Sun Mar 12 2023 22:55:27 GMT-0400 (Eastern Daylight Time)","682243","Untrustworthy,Trustworthy","","1492","","","","decision","","<div class='trialDiv'><img src='trustrating_stim/white_mw035.bmp'><br><font class='baseline'><strong>Brian</strong><p>Choose number of points to send.</font><div class='respPicDiv'><img src='img/responseButtonOffersNo0L.png' class='respPic'></div></div>","5","7","Brian","6","Shared","0.8,0.2","8","0.8","trustrating_stim/white_mw035.bmp","2.5","107","19"
"html-keyboard-response","192","329143","0.0-19.0-2.18","60f75a701ac4cfc5c17cceb7","bdp_trlrn","Sun Mar 12 2023 22:55:27 GMT-0400 (Eastern Daylight Time)","682243","Untrustworthy,Trustworthy","","null","","","","decisionFB","","<div class='trialDiv'><img src='trustrating_stim/white_mw035.bmp'><br><font class='baseline'><strong>Brian</strong><p>Choose number of points to send.</font><div class='respPicDiv'><img src='img/responseButtonOffersNo0L5.png' class='respPic'></div></div>","null","7","Brian","6","Shared","0.8,0.2","8","0.8","trustrating_stim/white_mw035.bmp","2.5","102","19"
"html-keyboard-response","193","330152","0.0-19.0-3.18","60f75a701ac4cfc5c17cceb7","bdp_trlrn","Sun Mar 12 2023 22:55:27 GMT-0400 (Eastern Daylight Time)","682243","Untrustworthy,Trustworthy","","null","","","","feedback","","<div class='trialDiv'><img src='trustrating_stim/white_mw035.bmp'><br><font class='baseline'><strong>Brian</strong><p>Received: <strong>20</strong></font> &nbsp; &nbsp; &nbsp; &nbsp; &nbsp; &nbsp;<font class='posOutcome'>Shared back: <strong>10</strong></font></font><div class='respPicDiv'><img src='img/responseButtonOffersNo0_wht.png' class='respPic'></div></div>","null","7","Brian","6","Shared","0.8,0.2","8","0.8","trustrating_stim/white_mw035.bmp","2.5","112","19"
"html-keyboard-response","194","331317","0.0-19.0-1.19","60f75a701ac4cfc5c17cceb7","bdp_trlrn","Sun Mar 12 2023 22:55:27 GMT-0400 (Eastern Daylight Time)","682243","Untrustworthy,Trustworthy","","1164","","","","decision","","<div class='trialDiv'><img src='trustrating_stim/white_mw099.bmp'><br><font class='baseline'><strong>Nathan</strong><p>Choose number of points to send.</font><div class='respPicDiv'><img src='img/responseButtonOffersNo0L.png' class='respPic'></div></div>","1","7","Nathan","3","Kept","0.2,0.65","11","0.2","trustrating_stim/white_mw099.bmp","1.5","117","20"
"html-keyboard-response","195","331577","0.0-19.0-2.19","60f75a701ac4cfc5c17cceb7","bdp_trlrn","Sun Mar 12 2023 22:55:27 GMT-0400 (Eastern Daylight Time)","682243","Untrustworthy,Trustworthy","","null","","","","decisionFB","","<div class='trialDiv'><img src='trustrating_stim/white_mw099.bmp'><br><font class='baseline'><strong>Nathan</strong><p>Choose number of points to send.</font><div class='respPicDiv'><img src='img/responseButtonOffersNo0L1.png' class='respPic'></div></div>","null","7","Nathan","3","Kept","0.2,0.65","11","0.2","trustrating_stim/white_mw099.bmp","1.5","116","20"
"html-keyboard-response","196","332581","0.0-19.0-3.19","60f75a701ac4cfc5c17cceb7","bdp_trlrn","Sun Mar 12 2023 22:55:27 GMT-0400 (Eastern Daylight Time)","682243","Untrustworthy,Trustworthy","","null","","","","feedback","","<div class='trialDiv'><img src='trustrating_stim/white_mw099.bmp'><br><font class='baseline'><strong>Nathan</strong><p>Received: <strong>4</strong></font> &nbsp; &nbsp; &nbsp; &nbsp; &nbsp; &nbsp;<font class='negOutcome'>Shared back: <strong>0</strong></font></font><div class='respPicDiv'><img src='img/responseButtonOffersNo0_wht.png' class='respPic'></div></div>","null","7","Nathan","3","Kept","0.2,0.65","11","0.2","trustrating_stim/white_mw099.bmp","1.5","116","20"
"html-keyboard-response","197","333921","0.0-19.0-1.20","60f75a701ac4cfc5c17cceb7","bdp_trlrn","Sun Mar 12 2023 22:55:27 GMT-0400 (Eastern Daylight Time)","682243","Untrustworthy,Trustworthy","","1338","","","","decision","","<div class='trialDiv'><img src='trustrating_stim/white_00898_960530_fa_edt.bmp'><br><font class='baseline'><strong>Benjamin</strong><p>Choose number of points to send.</font><div class='respPicDiv'><img src='img/responseButtonOffersNo0L.png' class='respPic'></div></div>","3","7","Benjamin","10","Kept","0.65,0.2","8","0.65","trustrating_stim/white_00898_960530_fa_edt.bmp","7","121","21"
"html-keyboard-response","198","334174","0.0-19.0-2.20","60f75a701ac4cfc5c17cceb7","bdp_trlrn","Sun Mar 12 2023 22:55:27 GMT-0400 (Eastern Daylight Time)","682243","Untrustworthy,Trustworthy","","null","","","","decisionFB","","<div class='trialDiv'><img src='trustrating_stim/white_00898_960530_fa_edt.bmp'><br><font class='baseline'><strong>Benjamin</strong><p>Choose number of points to send.</font><div class='respPicDiv'><img src='img/responseButtonOffersNo0L3.png' class='respPic'></div></div>","null","7","Benjamin","10","Kept","0.65,0.2","8","0.65","trustrating_stim/white_00898_960530_fa_edt.bmp","7","118","21"
"html-keyboard-response","199","335182","0.0-19.0-3.20","60f75a701ac4cfc5c17cceb7","bdp_trlrn","Sun Mar 12 2023 22:55:27 GMT-0400 (Eastern Daylight Time)","682243","Untrustworthy,Trustworthy","","null","","","","feedback","","<div class='trialDiv'><img src='trustrating_stim/white_00898_960530_fa_edt.bmp'><br><font class='baseline'><strong>Benjamin</strong><p>Received: <strong>12</strong></font> &nbsp; &nbsp; &nbsp; &nbsp; &nbsp; &nbsp;<font class='negOutcome'>Shared back: <strong>0</strong></font></font><div class='respPicDiv'><img src='img/responseButtonOffersNo0_wht.png' class='respPic'></div></div>","null","7","Benjamin","10","Kept","0.65,0.2","8","0.65","trustrating_stim/white_00898_960530_fa_edt.bmp","7","118","21"
"html-keyboard-response","200","335778","0.0-19.0-1.21","60f75a701ac4cfc5c17cceb7","bdp_trlrn","Sun Mar 12 2023 22:55:27 GMT-0400 (Eastern Daylight Time)","682243","Untrustworthy,Trustworthy","","595","","","","decision","","<div class='trialDiv'><img src='trustrating_stim/white_mw035.bmp'><br><font class='baseline'><strong>Brian</strong><p>Choose number of points to send.</font><div class='respPicDiv'><img src='img/responseButtonOffersNo0L.png' class='respPic'></div></div>","5","8","Brian","6","Kept","0.8,0.2","8","0.8","trustrating_stim/white_mw035.bmp","2.5","123","22"
"html-keyboard-response","201","336029","0.0-19.0-2.21","60f75a701ac4cfc5c17cceb7","bdp_trlrn","Sun Mar 12 2023 22:55:27 GMT-0400 (Eastern Daylight Time)","682243","Untrustworthy,Trustworthy","","null","","","","decisionFB","","<div class='trialDiv'><img src='trustrating_stim/white_mw035.bmp'><br><font class='baseline'><strong>Brian</strong><p>Choose number of points to send.</font><div class='respPicDiv'><img src='img/responseButtonOffersNo0L5.png' class='respPic'></div></div>","null","8","Brian","6","Kept","0.8,0.2","8","0.8","trustrating_stim/white_mw035.bmp","2.5","118","22"
"html-keyboard-response","202","337040","0.0-19.0-3.21","60f75a701ac4cfc5c17cceb7","bdp_trlrn","Sun Mar 12 2023 22:55:27 GMT-0400 (Eastern Daylight Time)","682243","Untrustworthy,Trustworthy","","null","","","","feedback","","<div class='trialDiv'><img src='trustrating_stim/white_mw035.bmp'><br><font class='baseline'><strong>Brian</strong><p>Received: <strong>20</strong></font> &nbsp; &nbsp; &nbsp; &nbsp; &nbsp; &nbsp;<font class='negOutcome'>Shared back: <strong>0</strong></font></font><div class='respPicDiv'><img src='img/responseButtonOffersNo0_wht.png' class='respPic'></div></div>","null","8","Brian","6","Kept","0.8,0.2","8","0.8","trustrating_stim/white_mw035.bmp","2.5","118","22"
"html-keyboard-response","203","338690","0.0-19.0-1.22","60f75a701ac4cfc5c17cceb7","bdp_trlrn","Sun Mar 12 2023 22:55:27 GMT-0400 (Eastern Daylight Time)","682243","Untrustworthy,Trustworthy","","1649","","","","decision","","<div class='trialDiv'><img src='trustrating_stim/white_mw099.bmp'><br><font class='baseline'><strong>Nathan</strong><p>Choose number of points to send.</font><div class='respPicDiv'><img src='img/responseButtonOffersNo0L.png' class='respPic'></div></div>","1","8","Nathan","3","Kept","0.2,0.65","11","0.2","trustrating_stim/white_mw099.bmp","1.5","123","23"
"html-keyboard-response","204","338952","0.0-19.0-2.22","60f75a701ac4cfc5c17cceb7","bdp_trlrn","Sun Mar 12 2023 22:55:27 GMT-0400 (Eastern Daylight Time)","682243","Untrustworthy,Trustworthy","","null","","","","decisionFB","","<div class='trialDiv'><img src='trustrating_stim/white_mw099.bmp'><br><font class='baseline'><strong>Nathan</strong><p>Choose number of points to send.</font><div class='respPicDiv'><img src='img/responseButtonOffersNo0L1.png' class='respPic'></div></div>","null","8","Nathan","3","Kept","0.2,0.65","11","0.2","trustrating_stim/white_mw099.bmp","1.5","122","23"
"html-keyboard-response","205","339960","0.0-19.0-3.22","60f75a701ac4cfc5c17cceb7","bdp_trlrn","Sun Mar 12 2023 22:55:27 GMT-0400 (Eastern Daylight Time)","682243","Untrustworthy,Trustworthy","","null","","","","feedback","","<div class='trialDiv'><img src='trustrating_stim/white_mw099.bmp'><br><font class='baseline'><strong>Nathan</strong><p>Received: <strong>4</strong></font> &nbsp; &nbsp; &nbsp; &nbsp; &nbsp; &nbsp;<font class='negOutcome'>Shared back: <strong>0</strong></font></font><div class='respPicDiv'><img src='img/responseButtonOffersNo0_wht.png' class='respPic'></div></div>","null","8","Nathan","3","Kept","0.2,0.65","11","0.2","trustrating_stim/white_mw099.bmp","1.5","122","23"
"html-keyboard-response","206","340629","0.0-19.0-1.23","60f75a701ac4cfc5c17cceb7","bdp_trlrn","Sun Mar 12 2023 22:55:27 GMT-0400 (Eastern Daylight Time)","682243","Untrustworthy,Trustworthy","","668","","","","decision","","<div class='trialDiv'><img src='trustrating_stim/white_00898_960530_fa_edt.bmp'><br><font class='baseline'><strong>Benjamin</strong><p>Choose number of points to send.</font><div class='respPicDiv'><img src='img/responseButtonOffersNo0L.png' class='respPic'></div></div>","3","8","Benjamin","10","Kept","0.65,0.2","8","0.65","trustrating_stim/white_00898_960530_fa_edt.bmp","7","127","24"
"html-keyboard-response","207","340888","0.0-19.0-2.23","60f75a701ac4cfc5c17cceb7","bdp_trlrn","Sun Mar 12 2023 22:55:27 GMT-0400 (Eastern Daylight Time)","682243","Untrustworthy,Trustworthy","","null","","","","decisionFB","","<div class='trialDiv'><img src='trustrating_stim/white_00898_960530_fa_edt.bmp'><br><font class='baseline'><strong>Benjamin</strong><p>Choose number of points to send.</font><div class='respPicDiv'><img src='img/responseButtonOffersNo0L3.png' class='respPic'></div></div>","null","8","Benjamin","10","Kept","0.65,0.2","8","0.65","trustrating_stim/white_00898_960530_fa_edt.bmp","7","124","24"
"html-keyboard-response","208","341893","0.0-19.0-3.23","60f75a701ac4cfc5c17cceb7","bdp_trlrn","Sun Mar 12 2023 22:55:27 GMT-0400 (Eastern Daylight Time)","682243","Untrustworthy,Trustworthy","","null","","","","feedback","","<div class='trialDiv'><img src='trustrating_stim/white_00898_960530_fa_edt.bmp'><br><font class='baseline'><strong>Benjamin</strong><p>Received: <strong>12</strong></font> &nbsp; &nbsp; &nbsp; &nbsp; &nbsp; &nbsp;<font class='negOutcome'>Shared back: <strong>0</strong></font></font><div class='respPicDiv'><img src='img/responseButtonOffersNo0_wht.png' class='respPic'></div></div>","null","8","Benjamin","10","Kept","0.65,0.2","8","0.65","trustrating_stim/white_00898_960530_fa_edt.bmp","7","124","24"
"html-keyboard-response","209","342981","0.0-19.0-1.24","60f75a701ac4cfc5c17cceb7","bdp_trlrn","Sun Mar 12 2023 22:55:27 GMT-0400 (Eastern Daylight Time)","682243","Untrustworthy,Trustworthy","","1087","","","","decision","","<div class='trialDiv'><img src='trustrating_stim/white_mw035.bmp'><br><font class='baseline'><strong>Brian</strong><p>Choose number of points to send.</font><div class='respPicDiv'><img src='img/responseButtonOffersNo0L.png' class='respPic'></div></div>","5","9","Brian","6","Shared","0.8,0.2","8","0.8","trustrating_stim/white_mw035.bmp","2.5","129","25"
"html-keyboard-response","210","343240","0.0-19.0-2.24","60f75a701ac4cfc5c17cceb7","bdp_trlrn","Sun Mar 12 2023 22:55:27 GMT-0400 (Eastern Daylight Time)","682243","Untrustworthy,Trustworthy","","null","","","","decisionFB","","<div class='trialDiv'><img src='trustrating_stim/white_mw035.bmp'><br><font class='baseline'><strong>Brian</strong><p>Choose number of points to send.</font><div class='respPicDiv'><img src='img/responseButtonOffersNo0L5.png' class='respPic'></div></div>","null","9","Brian","6","Shared","0.8,0.2","8","0.8","trustrating_stim/white_mw035.bmp","2.5","124","25"
"html-keyboard-response","211","344249","0.0-19.0-3.24","60f75a701ac4cfc5c17cceb7","bdp_trlrn","Sun Mar 12 2023 22:55:27 GMT-0400 (Eastern Daylight Time)","682243","Untrustworthy,Trustworthy","","null","","","","feedback","","<div class='trialDiv'><img src='trustrating_stim/white_mw035.bmp'><br><font class='baseline'><strong>Brian</strong><p>Received: <strong>20</strong></font> &nbsp; &nbsp; &nbsp; &nbsp; &nbsp; &nbsp;<font class='posOutcome'>Shared back: <strong>10</strong></font></font><div class='respPicDiv'><img src='img/responseButtonOffersNo0_wht.png' class='respPic'></div></div>","null","9","Brian","6","Shared","0.8,0.2","8","0.8","trustrating_stim/white_mw035.bmp","2.5","134","25"
"html-keyboard-response","212","345166","0.0-19.0-1.25","60f75a701ac4cfc5c17cceb7","bdp_trlrn","Sun Mar 12 2023 22:55:27 GMT-0400 (Eastern Daylight Time)","682243","Untrustworthy,Trustworthy","","916","","","","decision","","<div class='trialDiv'><img src='trustrating_stim/white_00898_960530_fa_edt.bmp'><br><font class='baseline'><strong>Benjamin</strong><p>Choose number of points to send.</font><div class='respPicDiv'><img src='img/responseButtonOffersNo0L.png' class='respPic'></div></div>","3","9","Benjamin","10","Shared","0.65,0.2","8","0.65","trustrating_stim/white_00898_960530_fa_edt.bmp","7","139","26"
"html-keyboard-response","213","345422","0.0-19.0-2.25","60f75a701ac4cfc5c17cceb7","bdp_trlrn","Sun Mar 12 2023 22:55:27 GMT-0400 (Eastern Daylight Time)","682243","Untrustworthy,Trustworthy","","null","","","","decisionFB","","<div class='trialDiv'><img src='trustrating_stim/white_00898_960530_fa_edt.bmp'><br><font class='baseline'><strong>Benjamin</strong><p>Choose number of points to send.</font><div class='respPicDiv'><img src='img/responseButtonOffersNo0L3.png' class='respPic'></div></div>","null","9","Benjamin","10","Shared","0.65,0.2","8","0.65","trustrating_stim/white_00898_960530_fa_edt.bmp","7","136","26"
"html-keyboard-response","214","346432","0.0-19.0-3.25","60f75a701ac4cfc5c17cceb7","bdp_trlrn","Sun Mar 12 2023 22:55:27 GMT-0400 (Eastern Daylight Time)","682243","Untrustworthy,Trustworthy","","null","","","","feedback","","<div class='trialDiv'><img src='trustrating_stim/white_00898_960530_fa_edt.bmp'><br><font class='baseline'><strong>Benjamin</strong><p>Received: <strong>12</strong></font> &nbsp; &nbsp; &nbsp; &nbsp; &nbsp; &nbsp;<font class='posOutcome'>Shared back: <strong>6</strong></font></font><div class='respPicDiv'><img src='img/responseButtonOffersNo0_wht.png' class='respPic'></div></div>","null","9","Benjamin","10","Shared","0.65,0.2","8","0.65","trustrating_stim/white_00898_960530_fa_edt.bmp","7","142","26"
"html-keyboard-response","215","346995","0.0-19.0-1.26","60f75a701ac4cfc5c17cceb7","bdp_trlrn","Sun Mar 12 2023 22:55:27 GMT-0400 (Eastern Daylight Time)","682243","Untrustworthy,Trustworthy","","561","","","","decision","","<div class='trialDiv'><img src='trustrating_stim/white_mw099.bmp'><br><font class='baseline'><strong>Nathan</strong><p>Choose number of points to send.</font><div class='respPicDiv'><img src='img/responseButtonOffersNo0L.png' class='respPic'></div></div>","1","9","Nathan","3","Kept","0.2,0.65","11","0.2","trustrating_stim/white_mw099.bmp","1.5","147","27"
"html-keyboard-response","216","347252","0.0-19.0-2.26","60f75a701ac4cfc5c17cceb7","bdp_trlrn","Sun Mar 12 2023 22:55:27 GMT-0400 (Eastern Daylight Time)","682243","Untrustworthy,Trustworthy","","null","","","","decisionFB","","<div class='trialDiv'><img src='trustrating_stim/white_mw099.bmp'><br><font class='baseline'><strong>Nathan</strong><p>Choose number of points to send.</font><div class='respPicDiv'><img src='img/responseButtonOffersNo0L1.png' class='respPic'></div></div>","null","9","Nathan","3","Kept","0.2,0.65","11","0.2","trustrating_stim/white_mw099.bmp","1.5","146","27"
"html-keyboard-response","217","348261","0.0-19.0-3.26","60f75a701ac4cfc5c17cceb7","bdp_trlrn","Sun Mar 12 2023 22:55:27 GMT-0400 (Eastern Daylight Time)","682243","Untrustworthy,Trustworthy","","null","","","","feedback","","<div class='trialDiv'><img src='trustrating_stim/white_mw099.bmp'><br><font class='baseline'><strong>Nathan</strong><p>Received: <strong>4</strong></font> &nbsp; &nbsp; &nbsp; &nbsp; &nbsp; &nbsp;<font class='negOutcome'>Shared back: <strong>0</strong></font></font><div class='respPicDiv'><img src='img/responseButtonOffersNo0_wht.png' class='respPic'></div></div>","null","9","Nathan","3","Kept","0.2,0.65","11","0.2","trustrating_stim/white_mw099.bmp","1.5","146","27"
"html-keyboard-response","218","349014","0.0-19.0-1.27","60f75a701ac4cfc5c17cceb7","bdp_trlrn","Sun Mar 12 2023 22:55:27 GMT-0400 (Eastern Daylight Time)","682243","Untrustworthy,Trustworthy","","752","","","","decision","","<div class='trialDiv'><img src='trustrating_stim/white_mw035.bmp'><br><font class='baseline'><strong>Brian</strong><p>Choose number of points to send.</font><div class='respPicDiv'><img src='img/responseButtonOffersNo0L.png' class='respPic'></div></div>","5","10","Brian","6","Shared","0.8,0.2","8","0.8","trustrating_stim/white_mw035.bmp","2.5","151","28"
"html-keyboard-response","219","349271","0.0-19.0-2.27","60f75a701ac4cfc5c17cceb7","bdp_trlrn","Sun Mar 12 2023 22:55:27 GMT-0400 (Eastern Daylight Time)","682243","Untrustworthy,Trustworthy","","null","","","","decisionFB","","<div class='trialDiv'><img src='trustrating_stim/white_mw035.bmp'><br><font class='baseline'><strong>Brian</strong><p>Choose number of points to send.</font><div class='respPicDiv'><img src='img/responseButtonOffersNo0L5.png' class='respPic'></div></div>","null","10","Brian","6","Shared","0.8,0.2","8","0.8","trustrating_stim/white_mw035.bmp","2.5","146","28"
"html-keyboard-response","220","350280","0.0-19.0-3.27","60f75a701ac4cfc5c17cceb7","bdp_trlrn","Sun Mar 12 2023 22:55:27 GMT-0400 (Eastern Daylight Time)","682243","Untrustworthy,Trustworthy","","null","","","","feedback","","<div class='trialDiv'><img src='trustrating_stim/white_mw035.bmp'><br><font class='baseline'><strong>Brian</strong><p>Received: <strong>20</strong></font> &nbsp; &nbsp; &nbsp; &nbsp; &nbsp; &nbsp;<font class='posOutcome'>Shared back: <strong>10</strong></font></font><div class='respPicDiv'><img src='img/responseButtonOffersNo0_wht.png' class='respPic'></div></div>","null","10","Brian","6","Shared","0.8,0.2","8","0.8","trustrating_stim/white_mw035.bmp","2.5","156","28"
"html-keyboard-response","221","351766","0.0-19.0-1.28","60f75a701ac4cfc5c17cceb7","bdp_trlrn","Sun Mar 12 2023 22:55:27 GMT-0400 (Eastern Daylight Time)","682243","Untrustworthy,Trustworthy","","1485","","","","decision","","<div class='trialDiv'><img src='trustrating_stim/white_00898_960530_fa_edt.bmp'><br><font class='baseline'><strong>Benjamin</strong><p>Choose number of points to send.</font><div class='respPicDiv'><img src='img/responseButtonOffersNo0L.png' class='respPic'></div></div>","3","10","Benjamin","10","Kept","0.65,0.2","8","0.65","trustrating_stim/white_00898_960530_fa_edt.bmp","7","161","29"
