"trial_type","trial_index","time_elapsed","internal_node_id","subject_id","task","startTime","totalTime","labels","view_history","rt","event","trial","time","trialtype","success","stimulus","key_press","aground","name","faceID","outcome","agenttype","agentswpt","agentcurrpshare","face","avgRating","point_total","round"
"pavlovia","0","2","0.0-0.0","5b1a3fa488ee7400012aef74","bdp_trlrn","Wed Mar 15 2023 00:05:15 GMT-0400 (Eastern Daylight Time)","1132743","Trustworthy,Untrustworthy","","","","","","","","","","","","","","","","","","","",""
"instructions","1","5957","0.0-1.0","5b1a3fa488ee7400012aef74","bdp_trlrn","Wed Mar 15 2023 00:05:15 GMT-0400 (Eastern Daylight Time)","1132743","Trustworthy,Untrustworthy","[{""page_index"":0,""viewing_time"":5955}]","5955","","","","","","","","","","","","","","","","","",""
"","","","","5b1a3fa488ee7400012aef74","bdp_trlrn","Wed Mar 15 2023 00:05:15 GMT-0400 (Eastern Daylight Time)","1132743","Trustworthy,Untrustworthy","","","fullscreenenter","2","8242","fullscreenenter","","","","","","","","","","","","","",""
"fullscreen","2","9239","0.0-2.0","5b1a3fa488ee7400012aef74","bdp_trlrn","Wed Mar 15 2023 00:05:15 GMT-0400 (Eastern Daylight Time)","1132743","Trustworthy,Untrustworthy","","","","","","","true","","","","","","","","","","","","",""
"instructions","3","24782","0.0-4.0","5b1a3fa488ee7400012aef74","bdp_trlrn","Wed Mar 15 2023 00:05:15 GMT-0400 (Eastern Daylight Time)","1132743","Trustworthy,Untrustworthy","[{""page_index"":0,""viewing_time"":8373},{""page_index"":1,""viewing_time"":7170}]","15543","","","","","","","","","","","","","","","","","",""
"instructions","4","25852","0.0-5.0","5b1a3fa488ee7400012aef74","bdp_trlrn","Wed Mar 15 2023 00:05:15 GMT-0400 (Eastern Daylight Time)","1132743","Trustworthy,Untrustworthy","[{""page_index"":0,""viewing_time"":1070}]","1070","","","","","","","","","","","","","","","","","",""
"image-keyboard-response","5","32404","0.0-6.0-1.0","5b1a3fa488ee7400012aef74","bdp_trlrn","Wed Mar 15 2023 00:05:15 GMT-0400 (Eastern Daylight Time)","1132743","Trustworthy,Untrustworthy","","6444","","","","rating","","trustrating_stim/white_mw097.bmp","3","","","","","","","","","","",""
"image-keyboard-response","6","32608","0.0-6.0-2.0","5b1a3fa488ee7400012aef74","bdp_trlrn","Wed Mar 15 2023 00:05:15 GMT-0400 (Eastern Daylight Time)","1132743","Trustworthy,Untrustworthy","","null","","","","ratingFB","","trustrating_stim/white_mw097.bmp","null","","","","","","","","","","",""
"image-keyboard-response","7","34684","0.0-6.0-1.1","5b1a3fa488ee7400012aef74","bdp_trlrn","Wed Mar 15 2023 00:05:15 GMT-0400 (Eastern Daylight Time)","1132743","Trustworthy,Untrustworthy","","1968","","","","rating","","trustrating_stim/white_00340_940422_fa_edt.bmp","3","","","","","","","","","","",""
"image-keyboard-response","8","34896","0.0-6.0-2.1","5b1a3fa488ee7400012aef74","bdp_trlrn","Wed Mar 15 2023 00:05:15 GMT-0400 (Eastern Daylight Time)","1132743","Trustworthy,Untrustworthy","","null","","","","ratingFB","","trustrating_stim/white_00340_940422_fa_edt.bmp","null","","","","","","","","","","",""
"image-keyboard-response","9","38685","0.0-6.0-1.2","5b1a3fa488ee7400012aef74","bdp_trlrn","Wed Mar 15 2023 00:05:15 GMT-0400 (Eastern Daylight Time)","1132743","Trustworthy,Untrustworthy","","3687","","","","rating","","trustrating_stim/white_mw035.bmp","3","","","","","","","","","","",""
"image-keyboard-response","10","38890","0.0-6.0-2.2","5b1a3fa488ee7400012aef74","bdp_trlrn","Wed Mar 15 2023 00:05:15 GMT-0400 (Eastern Daylight Time)","1132743","Trustworthy,Untrustworthy","","null","","","","ratingFB","","trustrating_stim/white_mw035.bmp","null","","","","","","","","","","",""
"image-keyboard-response","11","42020","0.0-6.0-1.3","5b1a3fa488ee7400012aef74","bdp_trlrn","Wed Mar 15 2023 00:05:15 GMT-0400 (Eastern Daylight Time)","1132743","Trustworthy,Untrustworthy","","3030","","","","rating","","trustrating_stim/white_00223_940128_fb_edt.bmp","3","","","","","","","","","","",""
"image-keyboard-response","12","42222","0.0-6.0-2.3","5b1a3fa488ee7400012aef74","bdp_trlrn","Wed Mar 15 2023 00:05:15 GMT-0400 (Eastern Daylight Time)","1132743","Trustworthy,Untrustworthy","","null","","","","ratingFB","","trustrating_stim/white_00223_940128_fb_edt.bmp","null","","","","","","","","","","",""
"image-keyboard-response","13","45111","0.0-6.0-1.4","5b1a3fa488ee7400012aef74","bdp_trlrn","Wed Mar 15 2023 00:05:15 GMT-0400 (Eastern Daylight Time)","1132743","Trustworthy,Untrustworthy","","2788","","","","rating","","trustrating_stim/white_00129_931230_fb_edt.bmp","5","","","","","","","","","","",""
"image-keyboard-response","14","45325","0.0-6.0-2.4","5b1a3fa488ee7400012aef74","bdp_trlrn","Wed Mar 15 2023 00:05:15 GMT-0400 (Eastern Daylight Time)","1132743","Trustworthy,Untrustworthy","","null","","","","ratingFB","","trustrating_stim/white_00129_931230_fb_edt.bmp","null","","","","","","","","","","",""
"image-keyboard-response","15","47294","0.0-6.0-1.5","5b1a3fa488ee7400012aef74","bdp_trlrn","Wed Mar 15 2023 00:05:15 GMT-0400 (Eastern Daylight Time)","1132743","Trustworthy,Untrustworthy","","1868","","","","rating","","trustrating_stim/white_mw053.bmp","4","","","","","","","","","","",""
"image-keyboard-response","16","47504","0.0-6.0-2.5","5b1a3fa488ee7400012aef74","bdp_trlrn","Wed Mar 15 2023 00:05:15 GMT-0400 (Eastern Daylight Time)","1132743","Trustworthy,Untrustworthy","","null","","","","ratingFB","","trustrating_stim/white_mw053.bmp","null","","","","","","","","","","",""
"image-keyboard-response","17","51277","0.0-6.0-1.6","5b1a3fa488ee7400012aef74","bdp_trlrn","Wed Mar 15 2023 00:05:15 GMT-0400 (Eastern Daylight Time)","1132743","Trustworthy,Untrustworthy","","3666","","","","rating","","trustrating_stim/white_mw063.bmp","2","","","","","","","","","","",""
"image-keyboard-response","18","51488","0.0-6.0-2.6","5b1a3fa488ee7400012aef74","bdp_trlrn","Wed Mar 15 2023 00:05:15 GMT-0400 (Eastern Daylight Time)","1132743","Trustworthy,Untrustworthy","","null","","","","ratingFB","","trustrating_stim/white_mw063.bmp","null","","","","","","","","","","",""
"image-keyboard-response","19","53460","0.0-6.0-1.7","5b1a3fa488ee7400012aef74","bdp_trlrn","Wed Mar 15 2023 00:05:15 GMT-0400 (Eastern Daylight Time)","1132743","Trustworthy,Untrustworthy","","1871","","","","rating","","trustrating_stim/white_mw049.bmp","6","","","","","","","","","","",""
"image-keyboard-response","20","53663","0.0-6.0-2.7","5b1a3fa488ee7400012aef74","bdp_trlrn","Wed Mar 15 2023 00:05:15 GMT-0400 (Eastern Daylight Time)","1132743","Trustworthy,Untrustworthy","","null","","","","ratingFB","","trustrating_stim/white_mw049.bmp","null","","","","","","","","","","",""
"image-keyboard-response","21","57212","0.0-6.0-1.8","5b1a3fa488ee7400012aef74","bdp_trlrn","Wed Mar 15 2023 00:05:15 GMT-0400 (Eastern Daylight Time)","1132743","Trustworthy,Untrustworthy","","3441","","","","rating","","trustrating_stim/white_00898_960530_fa_edt.bmp","5","","","","","","","","","","",""
"image-keyboard-response","22","57427","0.0-6.0-2.8","5b1a3fa488ee7400012aef74","bdp_trlrn","Wed Mar 15 2023 00:05:15 GMT-0400 (Eastern Daylight Time)","1132743","Trustworthy,Untrustworthy","","null","","","","ratingFB","","trustrating_stim/white_00898_960530_fa_edt.bmp","null","","","","","","","","","","",""
"image-keyboard-response","23","59036","0.0-6.0-1.9","5b1a3fa488ee7400012aef74","bdp_trlrn","Wed Mar 15 2023 00:05:15 GMT-0400 (Eastern Daylight Time)","1132743","Trustworthy,Untrustworthy","","1507","","","","rating","","trustrating_stim/white_mw048.bmp","2","","","","","","","","","","",""
"image-keyboard-response","24","59242","0.0-6.0-2.9","5b1a3fa488ee7400012aef74","bdp_trlrn","Wed Mar 15 2023 00:05:15 GMT-0400 (Eastern Daylight Time)","1132743","Trustworthy,Untrustworthy","","null","","","","ratingFB","","trustrating_stim/white_mw048.bmp","null","","","","","","","","","","",""
"image-keyboard-response","25","62732","0.0-6.0-1.10","5b1a3fa488ee7400012aef74","bdp_trlrn","Wed Mar 15 2023 00:05:15 GMT-0400 (Eastern Daylight Time)","1132743","Trustworthy,Untrustworthy","","3381","","","","rating","","trustrating_stim/white_mw084.bmp","2","","","","","","","","","","",""
"image-keyboard-response","26","62942","0.0-6.0-2.10","5b1a3fa488ee7400012aef74","bdp_trlrn","Wed Mar 15 2023 00:05:15 GMT-0400 (Eastern Daylight Time)","1132743","Trustworthy,Untrustworthy","","null","","","","ratingFB","","trustrating_stim/white_mw084.bmp","null","","","","","","","","","","",""
"image-keyboard-response","27","67380","0.0-6.0-1.11","5b1a3fa488ee7400012aef74","bdp_trlrn","Wed Mar 15 2023 00:05:15 GMT-0400 (Eastern Daylight Time)","1132743","Trustworthy,Untrustworthy","","4337","","","","rating","","trustrating_stim/white_mw099.bmp","3","","","","","","","","","","",""
"image-keyboard-response","28","67581","0.0-6.0-2.11","5b1a3fa488ee7400012aef74","bdp_trlrn","Wed Mar 15 2023 00:05:15 GMT-0400 (Eastern Daylight Time)","1132743","Trustworthy,Untrustworthy","","null","","","","ratingFB","","trustrating_stim/white_mw099.bmp","null","","","","","","","","","","",""
"image-keyboard-response","29","71812","0.0-6.0-1.12","5b1a3fa488ee7400012aef74","bdp_trlrn","Wed Mar 15 2023 00:05:15 GMT-0400 (Eastern Daylight Time)","1132743","Trustworthy,Untrustworthy","","4123","","","","rating","","trustrating_stim/white_mw071.bmp","3","","","","","","","","","","",""
"image-keyboard-response","30","72020","0.0-6.0-2.12","5b1a3fa488ee7400012aef74","bdp_trlrn","Wed Mar 15 2023 00:05:15 GMT-0400 (Eastern Daylight Time)","1132743","Trustworthy,Untrustworthy","","null","","","","ratingFB","","trustrating_stim/white_mw071.bmp","null","","","","","","","","","","",""
"image-keyboard-response","31","73788","0.0-6.0-1.13","5b1a3fa488ee7400012aef74","bdp_trlrn","Wed Mar 15 2023 00:05:15 GMT-0400 (Eastern Daylight Time)","1132743","Trustworthy,Untrustworthy","","1659","","","","rating","","trustrating_stim/white_mw089.bmp","3","","","","","","","","","","",""
"image-keyboard-response","32","74000","0.0-6.0-2.13","5b1a3fa488ee7400012aef74","bdp_trlrn","Wed Mar 15 2023 00:05:15 GMT-0400 (Eastern Daylight Time)","1132743","Trustworthy,Untrustworthy","","null","","","","ratingFB","","trustrating_stim/white_mw089.bmp","null","","","","","","","","","","",""
"image-keyboard-response","33","77934","0.0-6.0-1.14","5b1a3fa488ee7400012aef74","bdp_trlrn","Wed Mar 15 2023 00:05:15 GMT-0400 (Eastern Daylight Time)","1132743","Trustworthy,Untrustworthy","","3827","","","","rating","","trustrating_stim/white_00761_941201_fb_edt.bmp","5","","","","","","","","","","",""
"image-keyboard-response","34","78147","0.0-6.0-2.14","5b1a3fa488ee7400012aef74","bdp_trlrn","Wed Mar 15 2023 00:05:15 GMT-0400 (Eastern Daylight Time)","1132743","Trustworthy,Untrustworthy","","null","","","","ratingFB","","trustrating_stim/white_00761_941201_fb_edt.bmp","null","","","","","","","","","","",""
"image-keyboard-response","35","82356","0.0-6.0-1.15","5b1a3fa488ee7400012aef74","bdp_trlrn","Wed Mar 15 2023 00:05:15 GMT-0400 (Eastern Daylight Time)","1132743","Trustworthy,Untrustworthy","","4108","","","","rating","","trustrating_stim/white_00109_931230_fa_edt.bmp","6","","","","","","","","","","",""
"image-keyboard-response","36","82566","0.0-6.0-2.15","5b1a3fa488ee7400012aef74","bdp_trlrn","Wed Mar 15 2023 00:05:15 GMT-0400 (Eastern Daylight Time)","1132743","Trustworthy,Untrustworthy","","null","","","","ratingFB","","trustrating_stim/white_00109_931230_fa_edt.bmp","null","","","","","","","","","","",""
"image-keyboard-response","37","85956","0.0-6.0-1.16","5b1a3fa488ee7400012aef74","bdp_trlrn","Wed Mar 15 2023 00:05:15 GMT-0400 (Eastern Daylight Time)","1132743","Trustworthy,Untrustworthy","","3282","","","","rating","","trustrating_stim/white_00299_940422_fa_edt.bmp","5","","","","","","","","","","",""
"image-keyboard-response","38","86160","0.0-6.0-2.16","5b1a3fa488ee7400012aef74","bdp_trlrn","Wed Mar 15 2023 00:05:15 GMT-0400 (Eastern Daylight Time)","1132743","Trustworthy,Untrustworthy","","null","","","","ratingFB","","trustrating_stim/white_00299_940422_fa_edt.bmp","null","","","","","","","","","","",""
"image-keyboard-response","39","87701","0.0-6.0-1.17","5b1a3fa488ee7400012aef74","bdp_trlrn","Wed Mar 15 2023 00:05:15 GMT-0400 (Eastern Daylight Time)","1132743","Trustworthy,Untrustworthy","","1440","","","","rating","","trustrating_stim/white_mw066.bmp","4","","","","","","","","","","",""
"image-keyboard-response","40","87912","0.0-6.0-2.17","5b1a3fa488ee7400012aef74","bdp_trlrn","Wed Mar 15 2023 00:05:15 GMT-0400 (Eastern Daylight Time)","1132743","Trustworthy,Untrustworthy","","null","","","","ratingFB","","trustrating_stim/white_mw066.bmp","null","","","","","","","","","","",""
"image-keyboard-response","41","89244","0.0-6.0-1.18","5b1a3fa488ee7400012aef74","bdp_trlrn","Wed Mar 15 2023 00:05:15 GMT-0400 (Eastern Daylight Time)","1132743","Trustworthy,Untrustworthy","","1224","","","","rating","","trustrating_stim/white_mw060.bmp","2","","","","","","","","","","",""
"image-keyboard-response","42","89447","0.0-6.0-2.18","5b1a3fa488ee7400012aef74","bdp_trlrn","Wed Mar 15 2023 00:05:15 GMT-0400 (Eastern Daylight Time)","1132743","Trustworthy,Untrustworthy","","null","","","","ratingFB","","trustrating_stim/white_mw060.bmp","null","","","","","","","","","","",""
"image-keyboard-response","43","91749","0.0-6.0-1.19","5b1a3fa488ee7400012aef74","bdp_trlrn","Wed Mar 15 2023 00:05:15 GMT-0400 (Eastern Daylight Time)","1132743","Trustworthy,Untrustworthy","","2201","","","","rating","","trustrating_stim/white_00785_941205_fb_edt.bmp","3","","","","","","","","","","",""
"image-keyboard-response","44","91955","0.0-6.0-2.19","5b1a3fa488ee7400012aef74","bdp_trlrn","Wed Mar 15 2023 00:05:15 GMT-0400 (Eastern Daylight Time)","1132743","Trustworthy,Untrustworthy","","null","","","","ratingFB","","trustrating_stim/white_00785_941205_fb_edt.bmp","null","","","","","","","","","","",""
"image-keyboard-response","45","93917","0.0-6.0-1.20","5b1a3fa488ee7400012aef74","bdp_trlrn","Wed Mar 15 2023 00:05:15 GMT-0400 (Eastern Daylight Time)","1132743","Trustworthy,Untrustworthy","","1861","","","","rating","","trustrating_stim/white_00120_931230_fa_edt.bmp","5","","","","","","","","","","",""
"image-keyboard-response","46","94121","0.0-6.0-2.20","5b1a3fa488ee7400012aef74","bdp_trlrn","Wed Mar 15 2023 00:05:15 GMT-0400 (Eastern Daylight Time)","1132743","Trustworthy,Untrustworthy","","null","","","","ratingFB","","trustrating_stim/white_00120_931230_fa_edt.bmp","null","","","","","","","","","","",""
"image-keyboard-response","47","97524","0.0-6.0-1.21","5b1a3fa488ee7400012aef74","bdp_trlrn","Wed Mar 15 2023 00:05:15 GMT-0400 (Eastern Daylight Time)","1132743","Trustworthy,Untrustworthy","","3303","","","","rating","","trustrating_stim/white_00519_940519_fb_edt.bmp","5","","","","","","","","","","",""
"image-keyboard-response","48","97727","0.0-6.0-2.21","5b1a3fa488ee7400012aef74","bdp_trlrn","Wed Mar 15 2023 00:05:15 GMT-0400 (Eastern Daylight Time)","1132743","Trustworthy,Untrustworthy","","null","","","","ratingFB","","trustrating_stim/white_00519_940519_fb_edt.bmp","null","","","","","","","","","","",""
"image-keyboard-response","49","99324","0.0-6.0-1.22","5b1a3fa488ee7400012aef74","bdp_trlrn","Wed Mar 15 2023 00:05:15 GMT-0400 (Eastern Daylight Time)","1132743","Trustworthy,Untrustworthy","","1496","","","","rating","","trustrating_stim/white_mw056.bmp","3","","","","","","","","","","",""
"image-keyboard-response","50","99527","0.0-6.0-2.22","5b1a3fa488ee7400012aef74","bdp_trlrn","Wed Mar 15 2023 00:05:15 GMT-0400 (Eastern Daylight Time)","1132743","Trustworthy,Untrustworthy","","null","","","","ratingFB","","trustrating_stim/white_mw056.bmp","null","","","","","","","","","","",""
"image-keyboard-response","51","103420","0.0-6.0-1.23","5b1a3fa488ee7400012aef74","bdp_trlrn","Wed Mar 15 2023 00:05:15 GMT-0400 (Eastern Daylight Time)","1132743","Trustworthy,Untrustworthy","","3792","","","","rating","","trustrating_stim/white_00807_941205_fb_edt.bmp","4","","","","","","","","","","",""
"image-keyboard-response","52","103628","0.0-6.0-2.23","5b1a3fa488ee7400012aef74","bdp_trlrn","Wed Mar 15 2023 00:05:15 GMT-0400 (Eastern Daylight Time)","1132743","Trustworthy,Untrustworthy","","null","","","","ratingFB","","trustrating_stim/white_00807_941205_fb_edt.bmp","null","","","","","","","","","","",""
"image-keyboard-response","53","106093","0.0-6.0-1.24","5b1a3fa488ee7400012aef74","bdp_trlrn","Wed Mar 15 2023 00:05:15 GMT-0400 (Eastern Daylight Time)","1132743","Trustworthy,Untrustworthy","","2364","","","","rating","","trustrating_stim/white_00602_940928_fb_edt.bmp","7","","","","","","","","","","",""
"image-keyboard-response","54","106309","0.0-6.0-2.24","5b1a3fa488ee7400012aef74","bdp_trlrn","Wed Mar 15 2023 00:05:15 GMT-0400 (Eastern Daylight Time)","1132743","Trustworthy,Untrustworthy","","null","","","","ratingFB","","trustrating_stim/white_00602_940928_fb_edt.bmp","null","","","","","","","","","","",""
"image-keyboard-response","55","108165","0.0-6.0-1.25","5b1a3fa488ee7400012aef74","bdp_trlrn","Wed Mar 15 2023 00:05:15 GMT-0400 (Eastern Daylight Time)","1132743","Trustworthy,Untrustworthy","","1749","","","","rating","","trustrating_stim/white_mw046.bmp","4","","","","","","","","","","",""
"image-keyboard-response","56","108369","0.0-6.0-2.25","5b1a3fa488ee7400012aef74","bdp_trlrn","Wed Mar 15 2023 00:05:15 GMT-0400 (Eastern Daylight Time)","1132743","Trustworthy,Untrustworthy","","null","","","","ratingFB","","trustrating_stim/white_mw046.bmp","null","","","","","","","","","","",""
"image-keyboard-response","57","110084","0.0-6.0-1.26","5b1a3fa488ee7400012aef74","bdp_trlrn","Wed Mar 15 2023 00:05:15 GMT-0400 (Eastern Daylight Time)","1132743","Trustworthy,Untrustworthy","","1615","","","","rating","","trustrating_stim/white_00757_941201_fa_edt.bmp","3","","","","","","","","","","",""
"image-keyboard-response","58","110289","0.0-6.0-2.26","5b1a3fa488ee7400012aef74","bdp_trlrn","Wed Mar 15 2023 00:05:15 GMT-0400 (Eastern Daylight Time)","1132743","Trustworthy,Untrustworthy","","null","","","","ratingFB","","trustrating_stim/white_00757_941201_fa_edt.bmp","null","","","","","","","","","","",""
"image-keyboard-response","59","111628","0.0-6.0-1.27","5b1a3fa488ee7400012aef74","bdp_trlrn","Wed Mar 15 2023 00:05:15 GMT-0400 (Eastern Daylight Time)","1132743","Trustworthy,Untrustworthy","","1238","","","","rating","","trustrating_stim/white_00659_941121_fa_edt.bmp","2","","","","","","","","","","",""
"image-keyboard-response","60","111840","0.0-6.0-2.27","5b1a3fa488ee7400012aef74","bdp_trlrn","Wed Mar 15 2023 00:05:15 GMT-0400 (Eastern Daylight Time)","1132743","Trustworthy,Untrustworthy","","null","","","","ratingFB","","trustrating_stim/white_00659_941121_fa_edt.bmp","null","","","","","","","","","","",""
"image-keyboard-response","61","117764","0.0-6.0-1.28","5b1a3fa488ee7400012aef74","bdp_trlrn","Wed Mar 15 2023 00:05:15 GMT-0400 (Eastern Daylight Time)","1132743","Trustworthy,Untrustworthy","","5817","","","","rating","","trustrating_stim/white_00577_940928_fa_edt.bmp","3","","","","","","","","","","",""
"image-keyboard-response","62","117979","0.0-6.0-2.28","5b1a3fa488ee7400012aef74","bdp_trlrn","Wed Mar 15 2023 00:05:15 GMT-0400 (Eastern Daylight Time)","1132743","Trustworthy,Untrustworthy","","null","","","","ratingFB","","trustrating_stim/white_00577_940928_fa_edt.bmp","null","","","","","","","","","","",""
"image-keyboard-response","63","119468","0.0-6.0-1.29","5b1a3fa488ee7400012aef74","bdp_trlrn","Wed Mar 15 2023 00:05:15 GMT-0400 (Eastern Daylight Time)","1132743","Trustworthy,Untrustworthy","","1381","","","","rating","","trustrating_stim/white_mw033.bmp","4","","","","","","","","","","",""
"image-keyboard-response","64","119682","0.0-6.0-2.29","5b1a3fa488ee7400012aef74","bdp_trlrn","Wed Mar 15 2023 00:05:15 GMT-0400 (Eastern Daylight Time)","1132743","Trustworthy,Untrustworthy","","null","","","","ratingFB","","trustrating_stim/white_mw033.bmp","null","","","","","","","","","","",""
"image-keyboard-response","65","122830","0.0-6.0-1.30","5b1a3fa488ee7400012aef74","bdp_trlrn","Wed Mar 15 2023 00:05:15 GMT-0400 (Eastern Daylight Time)","1132743","Trustworthy,Untrustworthy","","3041","","","","rating","","trustrating_stim/white_mw049.bmp","6","","","","","","","","","","",""
"image-keyboard-response","66","123043","0.0-6.0-2.30","5b1a3fa488ee7400012aef74","bdp_trlrn","Wed Mar 15 2023 00:05:15 GMT-0400 (Eastern Daylight Time)","1132743","Trustworthy,Untrustworthy","","null","","","","ratingFB","","trustrating_stim/white_mw049.bmp","null","","","","","","","","","","",""
"image-keyboard-response","67","126484","0.0-6.0-1.31","5b1a3fa488ee7400012aef74","bdp_trlrn","Wed Mar 15 2023 00:05:15 GMT-0400 (Eastern Daylight Time)","1132743","Trustworthy,Untrustworthy","","3333","","","","rating","","trustrating_stim/white_00340_940422_fa_edt.bmp","2","","","","","","","","","","",""
"image-keyboard-response","68","126689","0.0-6.0-2.31","5b1a3fa488ee7400012aef74","bdp_trlrn","Wed Mar 15 2023 00:05:15 GMT-0400 (Eastern Daylight Time)","1132743","Trustworthy,Untrustworthy","","null","","","","ratingFB","","trustrating_stim/white_00340_940422_fa_edt.bmp","null","","","","","","","","","","",""
"image-keyboard-response","69","128196","0.0-6.0-1.32","5b1a3fa488ee7400012aef74","bdp_trlrn","Wed Mar 15 2023 00:05:15 GMT-0400 (Eastern Daylight Time)","1132743","Trustworthy,Untrustworthy","","1399","","","","rating","","trustrating_stim/white_00223_940128_fb_edt.bmp","3","","","","","","","","","","",""
"image-keyboard-response","70","128408","0.0-6.0-2.32","5b1a3fa488ee7400012aef74","bdp_trlrn","Wed Mar 15 2023 00:05:15 GMT-0400 (Eastern Daylight Time)","1132743","Trustworthy,Untrustworthy","","null","","","","ratingFB","","trustrating_stim/white_00223_940128_fb_edt.bmp","null","","","","","","","","","","",""
"image-keyboard-response","71","131948","0.0-6.0-1.33","5b1a3fa488ee7400012aef74","bdp_trlrn","Wed Mar 15 2023 00:05:15 GMT-0400 (Eastern Daylight Time)","1132743","Trustworthy,Untrustworthy","","3432","","","","rating","","trustrating_stim/white_00519_940519_fb_edt.bmp","6","","","","","","","","","","",""
"image-keyboard-response","72","132155","0.0-6.0-2.33","5b1a3fa488ee7400012aef74","bdp_trlrn","Wed Mar 15 2023 00:05:15 GMT-0400 (Eastern Daylight Time)","1132743","Trustworthy,Untrustworthy","","null","","","","ratingFB","","trustrating_stim/white_00519_940519_fb_edt.bmp","null","","","","","","","","","","",""
"image-keyboard-response","73","140372","0.0-6.0-1.34","5b1a3fa488ee7400012aef74","bdp_trlrn","Wed Mar 15 2023 00:05:15 GMT-0400 (Eastern Daylight Time)","1132743","Trustworthy,Untrustworthy","","8116","","","","rating","","trustrating_stim/white_mw071.bmp","2","","","","","","","","","","",""
"image-keyboard-response","74","140574","0.0-6.0-2.34","5b1a3fa488ee7400012aef74","bdp_trlrn","Wed Mar 15 2023 00:05:15 GMT-0400 (Eastern Daylight Time)","1132743","Trustworthy,Untrustworthy","","null","","","","ratingFB","","trustrating_stim/white_mw071.bmp","null","","","","","","","","","","",""
"image-keyboard-response","75","142669","0.0-6.0-1.35","5b1a3fa488ee7400012aef74","bdp_trlrn","Wed Mar 15 2023 00:05:15 GMT-0400 (Eastern Daylight Time)","1132743","Trustworthy,Untrustworthy","","1987","","","","rating","","trustrating_stim/white_mw033.bmp","4","","","","","","","","","","",""
"image-keyboard-response","76","142876","0.0-6.0-2.35","5b1a3fa488ee7400012aef74","bdp_trlrn","Wed Mar 15 2023 00:05:15 GMT-0400 (Eastern Daylight Time)","1132743","Trustworthy,Untrustworthy","","null","","","","ratingFB","","trustrating_stim/white_mw033.bmp","null","","","","","","","","","","",""
"image-keyboard-response","77","145516","0.0-6.0-1.36","5b1a3fa488ee7400012aef74","bdp_trlrn","Wed Mar 15 2023 00:05:15 GMT-0400 (Eastern Daylight Time)","1132743","Trustworthy,Untrustworthy","","2532","","","","rating","","trustrating_stim/white_00602_940928_fb_edt.bmp","7","","","","","","","","","","",""
"image-keyboard-response","78","145732","0.0-6.0-2.36","5b1a3fa488ee7400012aef74","bdp_trlrn","Wed Mar 15 2023 00:05:15 GMT-0400 (Eastern Daylight Time)","1132743","Trustworthy,Untrustworthy","","null","","","","ratingFB","","trustrating_stim/white_00602_940928_fb_edt.bmp","null","","","","","","","","","","",""
"image-keyboard-response","79","148398","0.0-6.0-1.37","5b1a3fa488ee7400012aef74","bdp_trlrn","Wed Mar 15 2023 00:05:15 GMT-0400 (Eastern Daylight Time)","1132743","Trustworthy,Untrustworthy","","2558","","","","rating","","trustrating_stim/white_00898_960530_fa_edt.bmp","6","","","","","","","","","","",""
"image-keyboard-response","80","148601","0.0-6.0-2.37","5b1a3fa488ee7400012aef74","bdp_trlrn","Wed Mar 15 2023 00:05:15 GMT-0400 (Eastern Daylight Time)","1132743","Trustworthy,Untrustworthy","","null","","","","ratingFB","","trustrating_stim/white_00898_960530_fa_edt.bmp","null","","","","","","","","","","",""
"image-keyboard-response","81","152948","0.0-6.0-1.38","5b1a3fa488ee7400012aef74","bdp_trlrn","Wed Mar 15 2023 00:05:15 GMT-0400 (Eastern Daylight Time)","1132743","Trustworthy,Untrustworthy","","4240","","","","rating","","trustrating_stim/white_00659_941121_fa_edt.bmp","1","","","","","","","","","","",""
"image-keyboard-response","82","153160","0.0-6.0-2.38","5b1a3fa488ee7400012aef74","bdp_trlrn","Wed Mar 15 2023 00:05:15 GMT-0400 (Eastern Daylight Time)","1132743","Trustworthy,Untrustworthy","","null","","","","ratingFB","","trustrating_stim/white_00659_941121_fa_edt.bmp","null","","","","","","","","","","",""
"image-keyboard-response","83","154998","0.0-6.0-1.39","5b1a3fa488ee7400012aef74","bdp_trlrn","Wed Mar 15 2023 00:05:15 GMT-0400 (Eastern Daylight Time)","1132743","Trustworthy,Untrustworthy","","1731","","","","rating","","trustrating_stim/white_mw089.bmp","2","","","","","","","","","","",""
"image-keyboard-response","84","155204","0.0-6.0-2.39","5b1a3fa488ee7400012aef74","bdp_trlrn","Wed Mar 15 2023 00:05:15 GMT-0400 (Eastern Daylight Time)","1132743","Trustworthy,Untrustworthy","","null","","","","ratingFB","","trustrating_stim/white_mw089.bmp","null","","","","","","","","","","",""
"image-keyboard-response","85","157884","0.0-6.0-1.40","5b1a3fa488ee7400012aef74","bdp_trlrn","Wed Mar 15 2023 00:05:15 GMT-0400 (Eastern Daylight Time)","1132743","Trustworthy,Untrustworthy","","2578","","","","rating","","trustrating_stim/white_00299_940422_fa_edt.bmp","5","","","","","","","","","","",""
"image-keyboard-response","86","158092","0.0-6.0-2.40","5b1a3fa488ee7400012aef74","bdp_trlrn","Wed Mar 15 2023 00:05:15 GMT-0400 (Eastern Daylight Time)","1132743","Trustworthy,Untrustworthy","","null","","","","ratingFB","","trustrating_stim/white_00299_940422_fa_edt.bmp","null","","","","","","","","","","",""
"image-keyboard-response","87","159980","0.0-6.0-1.41","5b1a3fa488ee7400012aef74","bdp_trlrn","Wed Mar 15 2023 00:05:15 GMT-0400 (Eastern Daylight Time)","1132743","Trustworthy,Untrustworthy","","1781","","","","rating","","trustrating_stim/white_00807_941205_fb_edt.bmp","3","","","","","","","","","","",""
"image-keyboard-response","88","160181","0.0-6.0-2.41","5b1a3fa488ee7400012aef74","bdp_trlrn","Wed Mar 15 2023 00:05:15 GMT-0400 (Eastern Daylight Time)","1132743","Trustworthy,Untrustworthy","","null","","","","ratingFB","","trustrating_stim/white_00807_941205_fb_edt.bmp","null","","","","","","","","","","",""
"image-keyboard-response","89","169741","0.0-6.0-1.42","5b1a3fa488ee7400012aef74","bdp_trlrn","Wed Mar 15 2023 00:05:15 GMT-0400 (Eastern Daylight Time)","1132743","Trustworthy,Untrustworthy","","9458","","","","rating","","trustrating_stim/white_mw035.bmp","4","","","","","","","","","","",""
"image-keyboard-response","90","169949","0.0-6.0-2.42","5b1a3fa488ee7400012aef74","bdp_trlrn","Wed Mar 15 2023 00:05:15 GMT-0400 (Eastern Daylight Time)","1132743","Trustworthy,Untrustworthy","","null","","","","ratingFB","","trustrating_stim/white_mw035.bmp","null","","","","","","","","","","",""
"image-keyboard-response","91","171532","0.0-6.0-1.43","5b1a3fa488ee7400012aef74","bdp_trlrn","Wed Mar 15 2023 00:05:15 GMT-0400 (Eastern Daylight Time)","1132743","Trustworthy,Untrustworthy","","1475","","","","rating","","trustrating_stim/white_mw048.bmp","2","","","","","","","","","","",""
"image-keyboard-response","92","171745","0.0-6.0-2.43","5b1a3fa488ee7400012aef74","bdp_trlrn","Wed Mar 15 2023 00:05:15 GMT-0400 (Eastern Daylight Time)","1132743","Trustworthy,Untrustworthy","","null","","","","ratingFB","","trustrating_stim/white_mw048.bmp","null","","","","","","","","","","",""
"image-keyboard-response","93","173052","0.0-6.0-1.44","5b1a3fa488ee7400012aef74","bdp_trlrn","Wed Mar 15 2023 00:05:15 GMT-0400 (Eastern Daylight Time)","1132743","Trustworthy,Untrustworthy","","1198","","","","rating","","trustrating_stim/white_mw046.bmp","3","","","","","","","","","","",""
"image-keyboard-response","94","173254","0.0-6.0-2.44","5b1a3fa488ee7400012aef74","bdp_trlrn","Wed Mar 15 2023 00:05:15 GMT-0400 (Eastern Daylight Time)","1132743","Trustworthy,Untrustworthy","","null","","","","ratingFB","","trustrating_stim/white_mw046.bmp","null","","","","","","","","","","",""
"image-keyboard-response","95","175293","0.0-6.0-1.45","5b1a3fa488ee7400012aef74","bdp_trlrn","Wed Mar 15 2023 00:05:15 GMT-0400 (Eastern Daylight Time)","1132743","Trustworthy,Untrustworthy","","1938","","","","rating","","trustrating_stim/white_00761_941201_fb_edt.bmp","5","","","","","","","","","","",""
"image-keyboard-response","96","175496","0.0-6.0-2.45","5b1a3fa488ee7400012aef74","bdp_trlrn","Wed Mar 15 2023 00:05:15 GMT-0400 (Eastern Daylight Time)","1132743","Trustworthy,Untrustworthy","","null","","","","ratingFB","","trustrating_stim/white_00761_941201_fb_edt.bmp","null","","","","","","","","","","",""
"image-keyboard-response","97","179277","0.0-6.0-1.46","5b1a3fa488ee7400012aef74","bdp_trlrn","Wed Mar 15 2023 00:05:15 GMT-0400 (Eastern Daylight Time)","1132743","Trustworthy,Untrustworthy","","3680","","","","rating","","trustrating_stim/white_00785_941205_fb_edt.bmp","4","","","","","","","","","","",""
"image-keyboard-response","98","179490","0.0-6.0-2.46","5b1a3fa488ee7400012aef74","bdp_trlrn","Wed Mar 15 2023 00:05:15 GMT-0400 (Eastern Daylight Time)","1132743","Trustworthy,Untrustworthy","","null","","","","ratingFB","","trustrating_stim/white_00785_941205_fb_edt.bmp","null","","","","","","","","","","",""
"image-keyboard-response","99","181220","0.0-6.0-1.47","5b1a3fa488ee7400012aef74","bdp_trlrn","Wed Mar 15 2023 00:05:15 GMT-0400 (Eastern Daylight Time)","1132743","Trustworthy,Untrustworthy","","1623","","","","rating","","trustrating_stim/white_mw099.bmp","3","","","","","","","","","","",""
"image-keyboard-response","100","181423","0.0-6.0-2.47","5b1a3fa488ee7400012aef74","bdp_trlrn","Wed Mar 15 2023 00:05:15 GMT-0400 (Eastern Daylight Time)","1132743","Trustworthy,Untrustworthy","","null","","","","ratingFB","","trustrating_stim/white_mw099.bmp","null","","","","","","","","","","",""
"image-keyboard-response","101","182606","0.0-6.0-1.48","5b1a3fa488ee7400012aef74","bdp_trlrn","Wed Mar 15 2023 00:05:15 GMT-0400 (Eastern Daylight Time)","1132743","Trustworthy,Untrustworthy","","1075","","","","rating","","trustrating_stim/white_mw060.bmp","2","","","","","","","","","","",""
"image-keyboard-response","102","182821","0.0-6.0-2.48","5b1a3fa488ee7400012aef74","bdp_trlrn","Wed Mar 15 2023 00:05:15 GMT-0400 (Eastern Daylight Time)","1132743","Trustworthy,Untrustworthy","","null","","","","ratingFB","","trustrating_stim/white_mw060.bmp","null","","","","","","","","","","",""
"image-keyboard-response","103","183940","0.0-6.0-1.49","5b1a3fa488ee7400012aef74","bdp_trlrn","Wed Mar 15 2023 00:05:15 GMT-0400 (Eastern Daylight Time)","1132743","Trustworthy,Untrustworthy","","1011","","","","rating","","trustrating_stim/white_mw066.bmp","2","","","","","","","","","","",""
"image-keyboard-response","104","184141","0.0-6.0-2.49","5b1a3fa488ee7400012aef74","bdp_trlrn","Wed Mar 15 2023 00:05:15 GMT-0400 (Eastern Daylight Time)","1132743","Trustworthy,Untrustworthy","","null","","","","ratingFB","","trustrating_stim/white_mw066.bmp","null","","","","","","","","","","",""
"image-keyboard-response","105","185844","0.0-6.0-1.50","5b1a3fa488ee7400012aef74","bdp_trlrn","Wed Mar 15 2023 00:05:15 GMT-0400 (Eastern Daylight Time)","1132743","Trustworthy,Untrustworthy","","1596","","","","rating","","trustrating_stim/white_00577_940928_fa_edt.bmp","2","","","","","","","","","","",""
"image-keyboard-response","106","186047","0.0-6.0-2.50","5b1a3fa488ee7400012aef74","bdp_trlrn","Wed Mar 15 2023 00:05:15 GMT-0400 (Eastern Daylight Time)","1132743","Trustworthy,Untrustworthy","","null","","","","ratingFB","","trustrating_stim/white_00577_940928_fa_edt.bmp","null","","","","","","","","","","",""
"image-keyboard-response","107","196725","0.0-6.0-1.51","5b1a3fa488ee7400012aef74","bdp_trlrn","Wed Mar 15 2023 00:05:15 GMT-0400 (Eastern Daylight Time)","1132743","Trustworthy,Untrustworthy","","10576","","","","rating","","trustrating_stim/white_00757_941201_fa_edt.bmp","3","","","","","","","","","","",""
"image-keyboard-response","108","196928","0.0-6.0-2.51","5b1a3fa488ee7400012aef74","bdp_trlrn","Wed Mar 15 2023 00:05:15 GMT-0400 (Eastern Daylight Time)","1132743","Trustworthy,Untrustworthy","","null","","","","ratingFB","","trustrating_stim/white_00757_941201_fa_edt.bmp","null","","","","","","","","","","",""
"image-keyboard-response","109","201084","0.0-6.0-1.52","5b1a3fa488ee7400012aef74","bdp_trlrn","Wed Mar 15 2023 00:05:15 GMT-0400 (Eastern Daylight Time)","1132743","Trustworthy,Untrustworthy","","4048","","","","rating","","trustrating_stim/white_00120_931230_fa_edt.bmp","6","","","","","","","","","","",""
"image-keyboard-response","110","201290","0.0-6.0-2.52","5b1a3fa488ee7400012aef74","bdp_trlrn","Wed Mar 15 2023 00:05:15 GMT-0400 (Eastern Daylight Time)","1132743","Trustworthy,Untrustworthy","","null","","","","ratingFB","","trustrating_stim/white_00120_931230_fa_edt.bmp","null","","","","","","","","","","",""
"image-keyboard-response","111","204532","0.0-6.0-1.53","5b1a3fa488ee7400012aef74","bdp_trlrn","Wed Mar 15 2023 00:05:15 GMT-0400 (Eastern Daylight Time)","1132743","Trustworthy,Untrustworthy","","3141","","","","rating","","trustrating_stim/white_mw097.bmp","4","","","","","","","","","","",""
"image-keyboard-response","112","204740","0.0-6.0-2.53","5b1a3fa488ee7400012aef74","bdp_trlrn","Wed Mar 15 2023 00:05:15 GMT-0400 (Eastern Daylight Time)","1132743","Trustworthy,Untrustworthy","","null","","","","ratingFB","","trustrating_stim/white_mw097.bmp","null","","","","","","","","","","",""
"image-keyboard-response","113","205924","0.0-6.0-1.54","5b1a3fa488ee7400012aef74","bdp_trlrn","Wed Mar 15 2023 00:05:15 GMT-0400 (Eastern Daylight Time)","1132743","Trustworthy,Untrustworthy","","1082","","","","rating","","trustrating_stim/white_mw084.bmp","3","","","","","","","","","","",""
"image-keyboard-response","114","206136","0.0-6.0-2.54","5b1a3fa488ee7400012aef74","bdp_trlrn","Wed Mar 15 2023 00:05:15 GMT-0400 (Eastern Daylight Time)","1132743","Trustworthy,Untrustworthy","","null","","","","ratingFB","","trustrating_stim/white_mw084.bmp","null","","","","","","","","","","",""
"image-keyboard-response","115","207332","0.0-6.0-1.55","5b1a3fa488ee7400012aef74","bdp_trlrn","Wed Mar 15 2023 00:05:15 GMT-0400 (Eastern Daylight Time)","1132743","Trustworthy,Untrustworthy","","1095","","","","rating","","trustrating_stim/white_mw063.bmp","2","","","","","","","","","","",""
"image-keyboard-response","116","207548","0.0-6.0-2.55","5b1a3fa488ee7400012aef74","bdp_trlrn","Wed Mar 15 2023 00:05:15 GMT-0400 (Eastern Daylight Time)","1132743","Trustworthy,Untrustworthy","","null","","","","ratingFB","","trustrating_stim/white_mw063.bmp","null","","","","","","","","","","",""
"image-keyboard-response","117","209916","0.0-6.0-1.56","5b1a3fa488ee7400012aef74","bdp_trlrn","Wed Mar 15 2023 00:05:15 GMT-0400 (Eastern Daylight Time)","1132743","Trustworthy,Untrustworthy","","2260","","","","rating","","trustrating_stim/white_mw053.bmp","4","","","","","","","","","","",""
"image-keyboard-response","118","210128","0.0-6.0-2.56","5b1a3fa488ee7400012aef74","bdp_trlrn","Wed Mar 15 2023 00:05:15 GMT-0400 (Eastern Daylight Time)","1132743","Trustworthy,Untrustworthy","","null","","","","ratingFB","","trustrating_stim/white_mw053.bmp","null","","","","","","","","","","",""
"image-keyboard-response","119","211572","0.0-6.0-1.57","5b1a3fa488ee7400012aef74","bdp_trlrn","Wed Mar 15 2023 00:05:15 GMT-0400 (Eastern Daylight Time)","1132743","Trustworthy,Untrustworthy","","1343","","","","rating","","trustrating_stim/white_mw056.bmp","3","","","","","","","","","","",""
"image-keyboard-response","120","211786","0.0-6.0-2.57","5b1a3fa488ee7400012aef74","bdp_trlrn","Wed Mar 15 2023 00:05:15 GMT-0400 (Eastern Daylight Time)","1132743","Trustworthy,Untrustworthy","","null","","","","ratingFB","","trustrating_stim/white_mw056.bmp","null","","","","","","","","","","",""
"image-keyboard-response","121","214437","0.0-6.0-1.58","5b1a3fa488ee7400012aef74","bdp_trlrn","Wed Mar 15 2023 00:05:15 GMT-0400 (Eastern Daylight Time)","1132743","Trustworthy,Untrustworthy","","2549","","","","rating","","trustrating_stim/white_00109_931230_fa_edt.bmp","6","","","","","","","","","","",""
"image-keyboard-response","122","214641","0.0-6.0-2.58","5b1a3fa488ee7400012aef74","bdp_trlrn","Wed Mar 15 2023 00:05:15 GMT-0400 (Eastern Daylight Time)","1132743","Trustworthy,Untrustworthy","","null","","","","ratingFB","","trustrating_stim/white_00109_931230_fa_edt.bmp","null","","","","","","","","","","",""
"image-keyboard-response","123","215924","0.0-6.0-1.59","5b1a3fa488ee7400012aef74","bdp_trlrn","Wed Mar 15 2023 00:05:15 GMT-0400 (Eastern Daylight Time)","1132743","Trustworthy,Untrustworthy","","1179","","","","rating","","trustrating_stim/white_00129_931230_fb_edt.bmp","4","","","","","","","","","","",""
"image-keyboard-response","124","216130","0.0-6.0-2.59","5b1a3fa488ee7400012aef74","bdp_trlrn","Wed Mar 15 2023 00:05:15 GMT-0400 (Eastern Daylight Time)","1132743","Trustworthy,Untrustworthy","","null","","","","ratingFB","","trustrating_stim/white_00129_931230_fb_edt.bmp","null","","","","","","","","","","",""
"instructions","125","218239","0.0-7.0","5b1a3fa488ee7400012aef74","bdp_trlrn","Wed Mar 15 2023 00:05:15 GMT-0400 (Eastern Daylight Time)","1132743","Trustworthy,Untrustworthy","[{""page_index"":0,""viewing_time"":2008}]","2008","","","","","","","","","","","","","","","","","",""
"instructions","126","308596","0.0-8.0","5b1a3fa488ee7400012aef74","bdp_trlrn","Wed Mar 15 2023 00:05:15 GMT-0400 (Eastern Daylight Time)","1132743","Trustworthy,Untrustworthy","[{""page_index"":0,""viewing_time"":13991},{""page_index"":1,""viewing_time"":5495},{""page_index"":2,""viewing_time"":7457},{""page_index"":3,""viewing_time"":7576},{""page_index"":4,""viewing_time"":8610},{""page_index"":5,""viewing_time"":13221},{""page_index"":6,""viewing_time"":14656},{""page_index"":7,""viewing_time"":11738},{""page_index"":6,""viewing_time"":3326},{""page_index"":7,""viewing_time"":4184}]","90254","","","","","","","","","","","","","","","","","",""
"html-keyboard-response","127","310428","0.0-9.0","5b1a3fa488ee7400012aef74","bdp_trlrn","Wed Mar 15 2023 00:05:15 GMT-0400 (Eastern Daylight Time)","1132743","Trustworthy,Untrustworthy","","1832","","","","","","<div class='header' style='text-align:left; position: absolute; top: 5%; left: 5%;'><small>Task 2 of 5</small></div><div class='instruxDiv'><p><strong>1) What is the minimum number of points you can choose to send to your partner?</strong></p><p>a) 0</p><p>b) 1</p><p>c) 5</p>","A","","","","","","","","","","",""
"html-keyboard-response","128","319511","0.0-10.0","5b1a3fa488ee7400012aef74","bdp_trlrn","Wed Mar 15 2023 00:05:15 GMT-0400 (Eastern Daylight Time)","1132743","Trustworthy,Untrustworthy","","8973","","","","","","<div class='header' style='text-align:left; position: absolute; top: 5%; left: 5%;'><small>Task 2 of 5</small></div><div class='instruxDiv'><p><strong>1) What is the minimum number of points you can choose to send to your partner?</strong></p><p style='color:#FF0000'>a) 0</p><p>b) 1</p><p>c) 5</p><h3 style='color:#FF0000'>Incorrect!</h3><h3 class='center-content'>The correct response is b).</h3><h3 class='center-content'>The minimum number of points you can choose to send to your partner is 1 point.</h3><p><em>Press SPACEBAR to continue</em></p></div>"," ","","","","","","","","","","",""
"html-keyboard-response","129","323292","0.0-11.0","5b1a3fa488ee7400012aef74","bdp_trlrn","Wed Mar 15 2023 00:05:15 GMT-0400 (Eastern Daylight Time)","1132743","Trustworthy,Untrustworthy","","3679","","","","","","<div class='header' style='text-align:left; position: absolute; top: 5%; left: 5%;'><small>Task 2 of 5</small></div><div class='instruxDiv'><p><strong>2) What is the maximum number of points you can choose to send to your partner?</strong></p><p>a) 8</p><p>b) 5</p><p>c) 3</p>","B","","","","","","","","","","",""
"html-keyboard-response","130","323964","0.0-12.0","5b1a3fa488ee7400012aef74","bdp_trlrn","Wed Mar 15 2023 00:05:15 GMT-0400 (Eastern Daylight Time)","1132743","Trustworthy,Untrustworthy","","568","","","","","","<div class='header' style='text-align:left; position: absolute; top: 5%; left: 5%;'><small>Task 2 of 5</small></div><div class='instruxDiv'><p><strong>2) What is the maximum number of points you can choose to send to your partner?</strong></p><p>a) 8</p><p style='color:#00FF00'>b) 5</p><p>c) 3</p><h3 style='color:#00FF00'>Correct!</h3><h3 class='center-content'>The correct response is b).</h3><h3 class='center-content'>The maximum number of points you can choose to send to your partner is 5 points.</h3><p><em>Press SPACEBAR to continue</em></p></div>"," ","","","","","","","","","","",""
"html-keyboard-response","131","328324","0.0-13.0","5b1a3fa488ee7400012aef74","bdp_trlrn","Wed Mar 15 2023 00:05:15 GMT-0400 (Eastern Daylight Time)","1132743","Trustworthy,Untrustworthy","","4249","","","","","","<div class='header' style='text-align:left; position: absolute; top: 5%; left: 5%;'><small>Task 2 of 5</small></div><div class='instruxDiv'><p><strong>3) What happens to the amount of points you send to your partner?</strong></p><p>a) Nothing</p><p>b) It doubles</p><p>c) It quadruples</p>","C","","","","","","","","","","",""
"html-keyboard-response","132","329660","0.0-14.0","5b1a3fa488ee7400012aef74","bdp_trlrn","Wed Mar 15 2023 00:05:15 GMT-0400 (Eastern Daylight Time)","1132743","Trustworthy,Untrustworthy","","1223","","","","","","<div class='header' style='text-align:left; position: absolute; top: 5%; left: 5%;'><small>Task 2 of 5</small></div><div class='instruxDiv'><p><strong>3) What happens to the amount of points you send to your partner?</strong></p><p>a) Nothing</p><p>b) It doubles</p><p style='color:#00FF00'>c) It quadruples</p><h3 style='color:#00FF00'>Correct!</h3><h3 class='center-content'>The correct response is c).</h3><h3 class='center-content'>The amount of points you send to your partner quadruples.</h3><p><em>Press SPACEBAR to continue</em></p></div>"," ","","","","","","","","","","",""
"html-keyboard-response","133","353318","0.0-15.0","5b1a3fa488ee7400012aef74","bdp_trlrn","Wed Mar 15 2023 00:05:15 GMT-0400 (Eastern Daylight Time)","1132743","Trustworthy,Untrustworthy","","23554","","","","","","<div class='header' style='text-align:left; position: absolute; top: 5%; left: 5%;'><small>Task 2 of 5</small></div><div class='instruxDiv'><p><strong>4) If you decided to share 4 out of 5 points with your partner, and they decided to share half of the amount they received with you, how many points would you receive back from them on this round?</strong></p><p>a) 16</p><p>b) 0</p><p>c) 8</p>","C","","","","","","","","","","",""
"html-keyboard-response","134","354655","0.0-16.0","5b1a3fa488ee7400012aef74","bdp_trlrn","Wed Mar 15 2023 00:05:15 GMT-0400 (Eastern Daylight Time)","1132743","Trustworthy,Untrustworthy","","1235","","","","","","<div class='header' style='text-align:left; position: absolute; top: 5%; left: 5%;'><small>Task 2 of 5</small></div><div class='instruxDiv'><p><strong>4) If you decided to share 4 out of 5 points with your partner, and they decided to share half of the amount they received with you, how many points would you receive back from them on this round?</strong></p><p>a) 16</p><p>b) 0</p><p style='color:#00FF00'>c) 8</p><h3 style='color:#00FF00'>Correct!</h3><h3 class='center-content'>The correct response is c).</h3><h3 class='center-content'>If you shared 4 out of 5 points with your partner and they decided to share half of the amount they received with you, you would receive 8 points back (i.e. (4 x 4)/2 = 8).</h3><p><em>Press SPACEBAR to continue</em></p></div>"," ","","","","","","","","","","",""
"html-keyboard-response","135","359771","0.0-17.0","5b1a3fa488ee7400012aef74","bdp_trlrn","Wed Mar 15 2023 00:05:15 GMT-0400 (Eastern Daylight Time)","1132743","Trustworthy,Untrustworthy","","null","","","","","","<div class='header' style='text-align:left; position: absolute; top: 5%; left: 5%;'><small>Task 2 of 5</small></div><div class='instruxDiv'><p>Thank you for completing the quiz<p>These are the actual partners you will be interacting with in the next block:<p><div class='tc' align='center'><img class='introPic' src='trustrating_stim/white_mw063.bmp'><br><strong>David</strong></div><div class='bl' align='center'><img class='introPic' src='trustrating_stim/white_mw056.bmp'><br><strong>Anthony</strong></div><div class='br' align='center'><img class='introPic' src='trustrating_stim/white_00898_960530_fa_edt.bmp'><br><strong>Chris</strong></div></div><p>Across <strong>66 rounds</strong> you will interact with each partner <strong>22 times</strong> (in random order).<p style='align:center; color:white'><font <em>Press SPACEBAR to continue</em></p>","null","","","","","","","","","","",""
"instructions","136","362102","0.0-18.0","5b1a3fa488ee7400012aef74","bdp_trlrn","Wed Mar 15 2023 00:05:15 GMT-0400 (Eastern Daylight Time)","1132743","Trustworthy,Untrustworthy","[{""page_index"":0,""viewing_time"":90},{""page_index"":1,""viewing_time"":2241}]","2331","","","","","","","","","","","","","","","","","",""
"html-keyboard-response","137","367748","0.0-19.0-1.0","5b1a3fa488ee7400012aef74","bdp_trlrn","Wed Mar 15 2023 00:05:15 GMT-0400 (Eastern Daylight Time)","1132743","Trustworthy,Untrustworthy","","5539","","","","decision","","<div class='trialDiv'><img src='trustrating_stim/white_00898_960530_fa_edt.bmp'><br><font class='baseline'><strong>Chris</strong><p>Choose number of points to send.</font><div class='respPicDiv'><img src='img/responseButtonOffersNo0L.png' class='respPic'></div></div>","5","1","Chris","8","Shared","0.8,0.35","8","0.8","trustrating_stim/white_00898_960530_fa_edt.bmp","5.5","5","1"
"html-keyboard-response","138","368001","0.0-19.0-2.0","5b1a3fa488ee7400012aef74","bdp_trlrn","Wed Mar 15 2023 00:05:15 GMT-0400 (Eastern Daylight Time)","1132743","Trustworthy,Untrustworthy","","null","","","","decisionFB","","<div class='trialDiv'><img src='trustrating_stim/white_00898_960530_fa_edt.bmp'><br><font class='baseline'><strong>Chris</strong><p>Choose number of points to send.</font><div class='respPicDiv'><img src='img/responseButtonOffersNo0L5.png' class='respPic'></div></div>","null","1","Chris","8","Shared","0.8,0.35","8","0.8","trustrating_stim/white_00898_960530_fa_edt.bmp","5.5","0","1"
"html-keyboard-response","139","369014","0.0-19.0-3.0","5b1a3fa488ee7400012aef74","bdp_trlrn","Wed Mar 15 2023 00:05:15 GMT-0400 (Eastern Daylight Time)","1132743","Trustworthy,Untrustworthy","","null","","","","feedback","","<div class='trialDiv'><img src='trustrating_stim/white_00898_960530_fa_edt.bmp'><br><font class='baseline'><strong>Chris</strong><p>Received: <strong>20</strong></font> &nbsp; &nbsp; &nbsp; &nbsp; &nbsp; &nbsp;<font class='posOutcome'>Shared back: <strong>10</strong></font></font><div class='respPicDiv'><img src='img/responseButtonOffersNo0_wht.png' class='respPic'></div></div>","null","1","Chris","8","Shared","0.8,0.35","8","0.8","trustrating_stim/white_00898_960530_fa_edt.bmp","5.5","10","1"
"html-keyboard-response","140","373669","0.0-19.0-1.1","5b1a3fa488ee7400012aef74","bdp_trlrn","Wed Mar 15 2023 00:05:15 GMT-0400 (Eastern Daylight Time)","1132743","Trustworthy,Untrustworthy","","4654","","","","decision","","<div class='trialDiv'><img src='trustrating_stim/white_mw056.bmp'><br><font class='baseline'><strong>Anthony</strong><p>Choose number of points to send.</font><div class='respPicDiv'><img src='img/responseButtonOffersNo0L.png' class='respPic'></div></div>","5","1","Anthony","4","Kept","0.2,0.8","10","0.2","trustrating_stim/white_mw056.bmp","3","15","2"
"html-keyboard-response","141","373928","0.0-19.0-2.1","5b1a3fa488ee7400012aef74","bdp_trlrn","Wed Mar 15 2023 00:05:15 GMT-0400 (Eastern Daylight Time)","1132743","Trustworthy,Untrustworthy","","null","","","","decisionFB","","<div class='trialDiv'><img src='trustrating_stim/white_mw056.bmp'><br><font class='baseline'><strong>Anthony</strong><p>Choose number of points to send.</font><div class='respPicDiv'><img src='img/responseButtonOffersNo0L5.png' class='respPic'></div></div>","null","1","Anthony","4","Kept","0.2,0.8","10","0.2","trustrating_stim/white_mw056.bmp","3","10","2"
"html-keyboard-response","142","374942","0.0-19.0-3.1","5b1a3fa488ee7400012aef74","bdp_trlrn","Wed Mar 15 2023 00:05:15 GMT-0400 (Eastern Daylight Time)","1132743","Trustworthy,Untrustworthy","","null","","","","feedback","","<div class='trialDiv'><img src='trustrating_stim/white_mw056.bmp'><br><font class='baseline'><strong>Anthony</strong><p>Received: <strong>20</strong></font> &nbsp; &nbsp; &nbsp; &nbsp; &nbsp; &nbsp;<font class='negOutcome'>Shared back: <strong>0</strong></font></font><div class='respPicDiv'><img src='img/responseButtonOffersNo0_wht.png' class='respPic'></div></div>","null","1","Anthony","4","Kept","0.2,0.8","10","0.2","trustrating_stim/white_mw056.bmp","3","10","2"
"html-keyboard-response","143","378468","0.0-19.0-1.2","5b1a3fa488ee7400012aef74","bdp_trlrn","Wed Mar 15 2023 00:05:15 GMT-0400 (Eastern Daylight Time)","1132743","Trustworthy,Untrustworthy","","3526","","","","decision","","<div class='trialDiv'><img src='trustrating_stim/white_mw063.bmp'><br><font class='baseline'><strong>David</strong><p>Choose number of points to send.</font><div class='respPicDiv'><img src='img/responseButtonOffersNo0L.png' class='respPic'></div></div>","5","1","David","2","Kept","0.2,0.65","10","0.2","trustrating_stim/white_mw063.bmp","2","15","3"
"html-keyboard-response","144","378731","0.0-19.0-2.2","5b1a3fa488ee7400012aef74","bdp_trlrn","Wed Mar 15 2023 00:05:15 GMT-0400 (Eastern Daylight Time)","1132743","Trustworthy,Untrustworthy","","null","","","","decisionFB","","<div class='trialDiv'><img src='trustrating_stim/white_mw063.bmp'><br><font class='baseline'><strong>David</strong><p>Choose number of points to send.</font><div class='respPicDiv'><img src='img/responseButtonOffersNo0L5.png' class='respPic'></div></div>","null","1","David","2","Kept","0.2,0.65","10","0.2","trustrating_stim/white_mw063.bmp","2","10","3"
"html-keyboard-response","145","379744","0.0-19.0-3.2","5b1a3fa488ee7400012aef74","bdp_trlrn","Wed Mar 15 2023 00:05:15 GMT-0400 (Eastern Daylight Time)","1132743","Trustworthy,Untrustworthy","","null","","","","feedback","","<div class='trialDiv'><img src='trustrating_stim/white_mw063.bmp'><br><font class='baseline'><strong>David</strong><p>Received: <strong>20</strong></font> &nbsp; &nbsp; &nbsp; &nbsp; &nbsp; &nbsp;<font class='negOutcome'>Shared back: <strong>0</strong></font></font><div class='respPicDiv'><img src='img/responseButtonOffersNo0_wht.png' class='respPic'></div></div>","null","1","David","2","Kept","0.2,0.65","10","0.2","trustrating_stim/white_mw063.bmp","2","10","3"
"html-keyboard-response","146","396037","0.0-19.0-1.3","5b1a3fa488ee7400012aef74","bdp_trlrn","Wed Mar 15 2023 00:05:15 GMT-0400 (Eastern Daylight Time)","1132743","Trustworthy,Untrustworthy","","16292","","","","decision","","<div class='trialDiv'><img src='trustrating_stim/white_00898_960530_fa_edt.bmp'><br><font class='baseline'><strong>Chris</strong><p>Choose number of points to send.</font><div class='respPicDiv'><img src='img/responseButtonOffersNo0L.png' class='respPic'></div></div>","5","2","Chris","8","Shared","0.8,0.35","8","0.8","trustrating_stim/white_00898_960530_fa_edt.bmp","5.5","15","4"
"html-keyboard-response","147","396292","0.0-19.0-2.3","5b1a3fa488ee7400012aef74","bdp_trlrn","Wed Mar 15 2023 00:05:15 GMT-0400 (Eastern Daylight Time)","1132743","Trustworthy,Untrustworthy","","null","","","","decisionFB","","<div class='trialDiv'><img src='trustrating_stim/white_00898_960530_fa_edt.bmp'><br><font class='baseline'><strong>Chris</strong><p>Choose number of points to send.</font><div class='respPicDiv'><img src='img/responseButtonOffersNo0L5.png' class='respPic'></div></div>","null","2","Chris","8","Shared","0.8,0.35","8","0.8","trustrating_stim/white_00898_960530_fa_edt.bmp","5.5","10","4"
"html-keyboard-response","148","397305","0.0-19.0-3.3","5b1a3fa488ee7400012aef74","bdp_trlrn","Wed Mar 15 2023 00:05:15 GMT-0400 (Eastern Daylight Time)","1132743","Trustworthy,Untrustworthy","","null","","","","feedback","","<div class='trialDiv'><img src='trustrating_stim/white_00898_960530_fa_edt.bmp'><br><font class='baseline'><strong>Chris</strong><p>Received: <strong>20</strong></font> &nbsp; &nbsp; &nbsp; &nbsp; &nbsp; &nbsp;<font class='posOutcome'>Shared back: <strong>10</strong></font></font><div class='respPicDiv'><img src='img/responseButtonOffersNo0_wht.png' class='respPic'></div></div>","null","2","Chris","8","Shared","0.8,0.35","8","0.8","trustrating_stim/white_00898_960530_fa_edt.bmp","5.5","20","4"
"html-keyboard-response","149","405542","0.0-19.0-1.4","5b1a3fa488ee7400012aef74","bdp_trlrn","Wed Mar 15 2023 00:05:15 GMT-0400 (Eastern Daylight Time)","1132743","Trustworthy,Untrustworthy","","8237","","","","decision","","<div class='trialDiv'><img src='trustrating_stim/white_mw056.bmp'><br><font class='baseline'><strong>Anthony</strong><p>Choose number of points to send.</font><div class='respPicDiv'><img src='img/responseButtonOffersNo0L.png' class='respPic'></div></div>","5","2","Anthony","4","Kept","0.2,0.8","10","0.2","trustrating_stim/white_mw056.bmp","3","25","5"
"html-keyboard-response","150","405797","0.0-19.0-2.4","5b1a3fa488ee7400012aef74","bdp_trlrn","Wed Mar 15 2023 00:05:15 GMT-0400 (Eastern Daylight Time)","1132743","Trustworthy,Untrustworthy","","null","","","","decisionFB","","<div class='trialDiv'><img src='trustrating_stim/white_mw056.bmp'><br><font class='baseline'><strong>Anthony</strong><p>Choose number of points to send.</font><div class='respPicDiv'><img src='img/responseButtonOffersNo0L5.png' class='respPic'></div></div>","null","2","Anthony","4","Kept","0.2,0.8","10","0.2","trustrating_stim/white_mw056.bmp","3","20","5"
"html-keyboard-response","151","406809","0.0-19.0-3.4","5b1a3fa488ee7400012aef74","bdp_trlrn","Wed Mar 15 2023 00:05:15 GMT-0400 (Eastern Daylight Time)","1132743","Trustworthy,Untrustworthy","","null","","","","feedback","","<div class='trialDiv'><img src='trustrating_stim/white_mw056.bmp'><br><font class='baseline'><strong>Anthony</strong><p>Received: <strong>20</strong></font> &nbsp; &nbsp; &nbsp; &nbsp; &nbsp; &nbsp;<font class='negOutcome'>Shared back: <strong>0</strong></font></font><div class='respPicDiv'><img src='img/responseButtonOffersNo0_wht.png' class='respPic'></div></div>","null","2","Anthony","4","Kept","0.2,0.8","10","0.2","trustrating_stim/white_mw056.bmp","3","20","5"
"html-keyboard-response","152","409111","0.0-19.0-1.5","5b1a3fa488ee7400012aef74","bdp_trlrn","Wed Mar 15 2023 00:05:15 GMT-0400 (Eastern Daylight Time)","1132743","Trustworthy,Untrustworthy","","2302","","","","decision","","<div class='trialDiv'><img src='trustrating_stim/white_mw063.bmp'><br><font class='baseline'><strong>David</strong><p>Choose number of points to send.</font><div class='respPicDiv'><img src='img/responseButtonOffersNo0L.png' class='respPic'></div></div>","5","2","David","2","Kept","0.2,0.65","10","0.2","trustrating_stim/white_mw063.bmp","2","25","6"
"html-keyboard-response","153","409370","0.0-19.0-2.5","5b1a3fa488ee7400012aef74","bdp_trlrn","Wed Mar 15 2023 00:05:15 GMT-0400 (Eastern Daylight Time)","1132743","Trustworthy,Untrustworthy","","null","","","","decisionFB","","<div class='trialDiv'><img src='trustrating_stim/white_mw063.bmp'><br><font class='baseline'><strong>David</strong><p>Choose number of points to send.</font><div class='respPicDiv'><img src='img/responseButtonOffersNo0L5.png' class='respPic'></div></div>","null","2","David","2","Kept","0.2,0.65","10","0.2","trustrating_stim/white_mw063.bmp","2","20","6"
"html-keyboard-response","154","410382","0.0-19.0-3.5","5b1a3fa488ee7400012aef74","bdp_trlrn","Wed Mar 15 2023 00:05:15 GMT-0400 (Eastern Daylight Time)","1132743","Trustworthy,Untrustworthy","","null","","","","feedback","","<div class='trialDiv'><img src='trustrating_stim/white_mw063.bmp'><br><font class='baseline'><strong>David</strong><p>Received: <strong>20</strong></font> &nbsp; &nbsp; &nbsp; &nbsp; &nbsp; &nbsp;<font class='negOutcome'>Shared back: <strong>0</strong></font></font><div class='respPicDiv'><img src='img/responseButtonOffersNo0_wht.png' class='respPic'></div></div>","null","2","David","2","Kept","0.2,0.65","10","0.2","trustrating_stim/white_mw063.bmp","2","20","6"
"html-keyboard-response","155","413652","0.0-19.0-1.6","5b1a3fa488ee7400012aef74","bdp_trlrn","Wed Mar 15 2023 00:05:15 GMT-0400 (Eastern Daylight Time)","1132743","Trustworthy,Untrustworthy","","3269","","","","decision","","<div class='trialDiv'><img src='trustrating_stim/white_mw056.bmp'><br><font class='baseline'><strong>Anthony</strong><p>Choose number of points to send.</font><div class='respPicDiv'><img src='img/responseButtonOffersNo0L.png' class='respPic'></div></div>","1","3","Anthony","4","Kept","0.2,0.8","10","0.2","trustrating_stim/white_mw056.bmp","3","25","7"
"html-keyboard-response","156","413911","0.0-19.0-2.6","5b1a3fa488ee7400012aef74","bdp_trlrn","Wed Mar 15 2023 00:05:15 GMT-0400 (Eastern Daylight Time)","1132743","Trustworthy,Untrustworthy","","null","","","","decisionFB","","<div class='trialDiv'><img src='trustrating_stim/white_mw056.bmp'><br><font class='baseline'><strong>Anthony</strong><p>Choose number of points to send.</font><div class='respPicDiv'><img src='img/responseButtonOffersNo0L1.png' class='respPic'></div></div>","null","3","Anthony","4","Kept","0.2,0.8","10","0.2","trustrating_stim/white_mw056.bmp","3","24","7"
"html-keyboard-response","157","414926","0.0-19.0-3.6","5b1a3fa488ee7400012aef74","bdp_trlrn","Wed Mar 15 2023 00:05:15 GMT-0400 (Eastern Daylight Time)","1132743","Trustworthy,Untrustworthy","","null","","","","feedback","","<div class='trialDiv'><img src='trustrating_stim/white_mw056.bmp'><br><font class='baseline'><strong>Anthony</strong><p>Received: <strong>4</strong></font> &nbsp; &nbsp; &nbsp; &nbsp; &nbsp; &nbsp;<font class='negOutcome'>Shared back: <strong>0</strong></font></font><div class='respPicDiv'><img src='img/responseButtonOffersNo0_wht.png' class='respPic'></div></div>","null","3","Anthony","4","Kept","0.2,0.8","10","0.2","trustrating_stim/white_mw056.bmp","3","24","7"
"html-keyboard-response","158","416631","0.0-19.0-1.7","5b1a3fa488ee7400012aef74","bdp_trlrn","Wed Mar 15 2023 00:05:15 GMT-0400 (Eastern Daylight Time)","1132743","Trustworthy,Untrustworthy","","1705","","","","decision","","<div class='trialDiv'><img src='trustrating_stim/white_mw063.bmp'><br><font class='baseline'><strong>David</strong><p>Choose number of points to send.</font><div class='respPicDiv'><img src='img/responseButtonOffersNo0L.png' class='respPic'></div></div>","1","3","David","2","Kept","0.2,0.65","10","0.2","trustrating_stim/white_mw063.bmp","2","29","8"
"html-keyboard-response","159","416890","0.0-19.0-2.7","5b1a3fa488ee7400012aef74","bdp_trlrn","Wed Mar 15 2023 00:05:15 GMT-0400 (Eastern Daylight Time)","1132743","Trustworthy,Untrustworthy","","null","","","","decisionFB","","<div class='trialDiv'><img src='trustrating_stim/white_mw063.bmp'><br><font class='baseline'><strong>David</strong><p>Choose number of points to send.</font><div class='respPicDiv'><img src='img/responseButtonOffersNo0L1.png' class='respPic'></div></div>","null","3","David","2","Kept","0.2,0.65","10","0.2","trustrating_stim/white_mw063.bmp","2","28","8"
"html-keyboard-response","160","417906","0.0-19.0-3.7","5b1a3fa488ee7400012aef74","bdp_trlrn","Wed Mar 15 2023 00:05:15 GMT-0400 (Eastern Daylight Time)","1132743","Trustworthy,Untrustworthy","","null","","","","feedback","","<div class='trialDiv'><img src='trustrating_stim/white_mw063.bmp'><br><font class='baseline'><strong>David</strong><p>Received: <strong>4</strong></font> &nbsp; &nbsp; &nbsp; &nbsp; &nbsp; &nbsp;<font class='negOutcome'>Shared back: <strong>0</strong></font></font><div class='respPicDiv'><img src='img/responseButtonOffersNo0_wht.png' class='respPic'></div></div>","null","3","David","2","Kept","0.2,0.65","10","0.2","trustrating_stim/white_mw063.bmp","2","28","8"
"html-keyboard-response","161","419270","0.0-19.0-1.8","5b1a3fa488ee7400012aef74","bdp_trlrn","Wed Mar 15 2023 00:05:15 GMT-0400 (Eastern Daylight Time)","1132743","Trustworthy,Untrustworthy","","1363","","","","decision","","<div class='trialDiv'><img src='trustrating_stim/white_00898_960530_fa_edt.bmp'><br><font class='baseline'><strong>Chris</strong><p>Choose number of points to send.</font><div class='respPicDiv'><img src='img/responseButtonOffersNo0L.png' class='respPic'></div></div>","5","3","Chris","8","Shared","0.8,0.35","8","0.8","trustrating_stim/white_00898_960530_fa_edt.bmp","5.5","33","9"
"html-keyboard-response","162","419534","0.0-19.0-2.8","5b1a3fa488ee7400012aef74","bdp_trlrn","Wed Mar 15 2023 00:05:15 GMT-0400 (Eastern Daylight Time)","1132743","Trustworthy,Untrustworthy","","null","","","","decisionFB","","<div class='trialDiv'><img src='trustrating_stim/white_00898_960530_fa_edt.bmp'><br><font class='baseline'><strong>Chris</strong><p>Choose number of points to send.</font><div class='respPicDiv'><img src='img/responseButtonOffersNo0L5.png' class='respPic'></div></div>","null","3","Chris","8","Shared","0.8,0.35","8","0.8","trustrating_stim/white_00898_960530_fa_edt.bmp","5.5","28","9"
"html-keyboard-response","163","420545","0.0-19.0-3.8","5b1a3fa488ee7400012aef74","bdp_trlrn","Wed Mar 15 2023 00:05:15 GMT-0400 (Eastern Daylight Time)","1132743","Trustworthy,Untrustworthy","","null","","","","feedback","","<div class='trialDiv'><img src='trustrating_stim/white_00898_960530_fa_edt.bmp'><br><font class='baseline'><strong>Chris</strong><p>Received: <strong>20</strong></font> &nbsp; &nbsp; &nbsp; &nbsp; &nbsp; &nbsp;<font class='posOutcome'>Shared back: <strong>10</strong></font></font><div class='respPicDiv'><img src='img/responseButtonOffersNo0_wht.png' class='respPic'></div></div>","null","3","Chris","8","Shared","0.8,0.35","8","0.8","trustrating_stim/white_00898_960530_fa_edt.bmp","5.5","38","9"
"html-keyboard-response","164","421702","0.0-19.0-1.9","5b1a3fa488ee7400012aef74","bdp_trlrn","Wed Mar 15 2023 00:05:15 GMT-0400 (Eastern Daylight Time)","1132743","Trustworthy,Untrustworthy","","1156","","","","decision","","<div class='trialDiv'><img src='trustrating_stim/white_mw063.bmp'><br><font class='baseline'><strong>David</strong><p>Choose number of points to send.</font><div class='respPicDiv'><img src='img/responseButtonOffersNo0L.png' class='respPic'></div></div>","1","4","David","2","Shared","0.2,0.65","10","0.2","trustrating_stim/white_mw063.bmp","2","43","10"
"html-keyboard-response","165","421956","0.0-19.0-2.9","5b1a3fa488ee7400012aef74","bdp_trlrn","Wed Mar 15 2023 00:05:15 GMT-0400 (Eastern Daylight Time)","1132743","Trustworthy,Untrustworthy","","null","","","","decisionFB","","<div class='trialDiv'><img src='trustrating_stim/white_mw063.bmp'><br><font class='baseline'><strong>David</strong><p>Choose number of points to send.</font><div class='respPicDiv'><img src='img/responseButtonOffersNo0L1.png' class='respPic'></div></div>","null","4","David","2","Shared","0.2,0.65","10","0.2","trustrating_stim/white_mw063.bmp","2","42","10"
"html-keyboard-response","166","422969","0.0-19.0-3.9","5b1a3fa488ee7400012aef74","bdp_trlrn","Wed Mar 15 2023 00:05:15 GMT-0400 (Eastern Daylight Time)","1132743","Trustworthy,Untrustworthy","","null","","","","feedback","","<div class='trialDiv'><img src='trustrating_stim/white_mw063.bmp'><br><font class='baseline'><strong>David</strong><p>Received: <strong>4</strong></font> &nbsp; &nbsp; &nbsp; &nbsp; &nbsp; &nbsp;<font class='posOutcome'>Shared back: <strong>2</strong></font></font><div class='respPicDiv'><img src='img/responseButtonOffersNo0_wht.png' class='respPic'></div></div>","null","4","David","2","Shared","0.2,0.65","10","0.2","trustrating_stim/white_mw063.bmp","2","44","10"
"html-keyboard-response","167","427259","0.0-19.0-1.10","5b1a3fa488ee7400012aef74","bdp_trlrn","Wed Mar 15 2023 00:05:15 GMT-0400 (Eastern Daylight Time)","1132743","Trustworthy,Untrustworthy","","4289","","","","decision","","<div class='trialDiv'><img src='trustrating_stim/white_mw056.bmp'><br><font class='baseline'><strong>Anthony</strong><p>Choose number of points to send.</font><div class='respPicDiv'><img src='img/responseButtonOffersNo0L.png' class='respPic'></div></div>","1","4","Anthony","4","Kept","0.2,0.8","10","0.2","trustrating_stim/white_mw056.bmp","3","49","11"
"html-keyboard-response","168","427514","0.0-19.0-2.10","5b1a3fa488ee7400012aef74","bdp_trlrn","Wed Mar 15 2023 00:05:15 GMT-0400 (Eastern Daylight Time)","1132743","Trustworthy,Untrustworthy","","null","","","","decisionFB","","<div class='trialDiv'><img src='trustrating_stim/white_mw056.bmp'><br><font class='baseline'><strong>Anthony</strong><p>Choose number of points to send.</font><div class='respPicDiv'><img src='img/responseButtonOffersNo0L1.png' class='respPic'></div></div>","null","4","Anthony","4","Kept","0.2,0.8","10","0.2","trustrating_stim/white_mw056.bmp","3","48","11"
"html-keyboard-response","169","428529","0.0-19.0-3.10","5b1a3fa488ee7400012aef74","bdp_trlrn","Wed Mar 15 2023 00:05:15 GMT-0400 (Eastern Daylight Time)","1132743","Trustworthy,Untrustworthy","","null","","","","feedback","","<div class='trialDiv'><img src='trustrating_stim/white_mw056.bmp'><br><font class='baseline'><strong>Anthony</strong><p>Received: <strong>4</strong></font> &nbsp; &nbsp; &nbsp; &nbsp; &nbsp; &nbsp;<font class='negOutcome'>Shared back: <strong>0</strong></font></font><div class='respPicDiv'><img src='img/responseButtonOffersNo0_wht.png' class='respPic'></div></div>","null","4","Anthony","4","Kept","0.2,0.8","10","0.2","trustrating_stim/white_mw056.bmp","3","48","11"
"html-keyboard-response","170","429868","0.0-19.0-1.11","5b1a3fa488ee7400012aef74","bdp_trlrn","Wed Mar 15 2023 00:05:15 GMT-0400 (Eastern Daylight Time)","1132743","Trustworthy,Untrustworthy","","1339","","","","decision","","<div class='trialDiv'><img src='trustrating_stim/white_00898_960530_fa_edt.bmp'><br><font class='baseline'><strong>Chris</strong><p>Choose number of points to send.</font><div class='respPicDiv'><img src='img/responseButtonOffersNo0L.png' class='respPic'></div></div>","5","4","Chris","8","Shared","0.8,0.35","8","0.8","trustrating_stim/white_00898_960530_fa_edt.bmp","5.5","53","12"
"html-keyboard-response","171","430122","0.0-19.0-2.11","5b1a3fa488ee7400012aef74","bdp_trlrn","Wed Mar 15 2023 00:05:15 GMT-0400 (Eastern Daylight Time)","1132743","Trustworthy,Untrustworthy","","null","","","","decisionFB","","<div class='trialDiv'><img src='trustrating_stim/white_00898_960530_fa_edt.bmp'><br><font class='baseline'><strong>Chris</strong><p>Choose number of points to send.</font><div class='respPicDiv'><img src='img/responseButtonOffersNo0L5.png' class='respPic'></div></div>","null","4","Chris","8","Shared","0.8,0.35","8","0.8","trustrating_stim/white_00898_960530_fa_edt.bmp","5.5","48","12"
"html-keyboard-response","172","431135","0.0-19.0-3.11","5b1a3fa488ee7400012aef74","bdp_trlrn","Wed Mar 15 2023 00:05:15 GMT-0400 (Eastern Daylight Time)","1132743","Trustworthy,Untrustworthy","","null","","","","feedback","","<div class='trialDiv'><img src='trustrating_stim/white_00898_960530_fa_edt.bmp'><br><font class='baseline'><strong>Chris</strong><p>Received: <strong>20</strong></font> &nbsp; &nbsp; &nbsp; &nbsp; &nbsp; &nbsp;<font class='posOutcome'>Shared back: <strong>10</strong></font></font><div class='respPicDiv'><img src='img/responseButtonOffersNo0_wht.png' class='respPic'></div></div>","null","4","Chris","8","Shared","0.8,0.35","8","0.8","trustrating_stim/white_00898_960530_fa_edt.bmp","5.5","58","12"
"html-keyboard-response","173","432277","0.0-19.0-1.12","5b1a3fa488ee7400012aef74","bdp_trlrn","Wed Mar 15 2023 00:05:15 GMT-0400 (Eastern Daylight Time)","1132743","Trustworthy,Untrustworthy","","1141","","","","decision","","<div class='trialDiv'><img src='trustrating_stim/white_mw056.bmp'><br><font class='baseline'><strong>Anthony</strong><p>Choose number of points to send.</font><div class='respPicDiv'><img src='img/responseButtonOffersNo0L.png' class='respPic'></div></div>","1","5","Anthony","4","Kept","0.2,0.8","10","0.2","trustrating_stim/white_mw056.bmp","3","63","13"
"html-keyboard-response","174","432531","0.0-19.0-2.12","5b1a3fa488ee7400012aef74","bdp_trlrn","Wed Mar 15 2023 00:05:15 GMT-0400 (Eastern Daylight Time)","1132743","Trustworthy,Untrustworthy","","null","","","","decisionFB","","<div class='trialDiv'><img src='trustrating_stim/white_mw056.bmp'><br><font class='baseline'><strong>Anthony</strong><p>Choose number of points to send.</font><div class='respPicDiv'><img src='img/responseButtonOffersNo0L1.png' class='respPic'></div></div>","null","5","Anthony","4","Kept","0.2,0.8","10","0.2","trustrating_stim/white_mw056.bmp","3","62","13"
"html-keyboard-response","175","433545","0.0-19.0-3.12","5b1a3fa488ee7400012aef74","bdp_trlrn","Wed Mar 15 2023 00:05:15 GMT-0400 (Eastern Daylight Time)","1132743","Trustworthy,Untrustworthy","","null","","","","feedback","","<div class='trialDiv'><img src='trustrating_stim/white_mw056.bmp'><br><font class='baseline'><strong>Anthony</strong><p>Received: <strong>4</strong></font> &nbsp; &nbsp; &nbsp; &nbsp; &nbsp; &nbsp;<font class='negOutcome'>Shared back: <strong>0</strong></font></font><div class='respPicDiv'><img src='img/responseButtonOffersNo0_wht.png' class='respPic'></div></div>","null","5","Anthony","4","Kept","0.2,0.8","10","0.2","trustrating_stim/white_mw056.bmp","3","62","13"
"html-keyboard-response","176","434747","0.0-19.0-1.13","5b1a3fa488ee7400012aef74","bdp_trlrn","Wed Mar 15 2023 00:05:15 GMT-0400 (Eastern Daylight Time)","1132743","Trustworthy,Untrustworthy","","1201","","","","decision","","<div class='trialDiv'><img src='trustrating_stim/white_00898_960530_fa_edt.bmp'><br><font class='baseline'><strong>Chris</strong><p>Choose number of points to send.</font><div class='respPicDiv'><img src='img/responseButtonOffersNo0L.png' class='respPic'></div></div>","5","5","Chris","8","Shared","0.8,0.35","8","0.8","trustrating_stim/white_00898_960530_fa_edt.bmp","5.5","67","14"
"html-keyboard-response","177","435004","0.0-19.0-2.13","5b1a3fa488ee7400012aef74","bdp_trlrn","Wed Mar 15 2023 00:05:15 GMT-0400 (Eastern Daylight Time)","1132743","Trustworthy,Untrustworthy","","null","","","","decisionFB","","<div class='trialDiv'><img src='trustrating_stim/white_00898_960530_fa_edt.bmp'><br><font class='baseline'><strong>Chris</strong><p>Choose number of points to send.</font><div class='respPicDiv'><img src='img/responseButtonOffersNo0L5.png' class='respPic'></div></div>","null","5","Chris","8","Shared","0.8,0.35","8","0.8","trustrating_stim/white_00898_960530_fa_edt.bmp","5.5","62","14"
"html-keyboard-response","178","436019","0.0-19.0-3.13","5b1a3fa488ee7400012aef74","bdp_trlrn","Wed Mar 15 2023 00:05:15 GMT-0400 (Eastern Daylight Time)","1132743","Trustworthy,Untrustworthy","","null","","","","feedback","","<div class='trialDiv'><img src='trustrating_stim/white_00898_960530_fa_edt.bmp'><br><font class='baseline'><strong>Chris</strong><p>Received: <strong>20</strong></font> &nbsp; &nbsp; &nbsp; &nbsp; &nbsp; &nbsp;<font class='posOutcome'>Shared back: <strong>10</strong></font></font><div class='respPicDiv'><img src='img/responseButtonOffersNo0_wht.png' class='respPic'></div></div>","null","5","Chris","8","Shared","0.8,0.35","8","0.8","trustrating_stim/white_00898_960530_fa_edt.bmp","5.5","72","14"
"html-keyboard-response","179","438012","0.0-19.0-1.14","5b1a3fa488ee7400012aef74","bdp_trlrn","Wed Mar 15 2023 00:05:15 GMT-0400 (Eastern Daylight Time)","1132743","Trustworthy,Untrustworthy","","1993","","","","decision","","<div class='trialDiv'><img src='trustrating_stim/white_mw063.bmp'><br><font class='baseline'><strong>David</strong><p>Choose number of points to send.</font><div class='respPicDiv'><img src='img/responseButtonOffersNo0L.png' class='respPic'></div></div>","2","5","David","2","Kept","0.2,0.65","10","0.2","trustrating_stim/white_mw063.bmp","2","77","15"
"html-keyboard-response","180","438274","0.0-19.0-2.14","5b1a3fa488ee7400012aef74","bdp_trlrn","Wed Mar 15 2023 00:05:15 GMT-0400 (Eastern Daylight Time)","1132743","Trustworthy,Untrustworthy","","null","","","","decisionFB","","<div class='trialDiv'><img src='trustrating_stim/white_mw063.bmp'><br><font class='baseline'><strong>David</strong><p>Choose number of points to send.</font><div class='respPicDiv'><img src='img/responseButtonOffersNo0L2.png' class='respPic'></div></div>","null","5","David","2","Kept","0.2,0.65","10","0.2","trustrating_stim/white_mw063.bmp","2","75","15"
"html-keyboard-response","181","439286","0.0-19.0-3.14","5b1a3fa488ee7400012aef74","bdp_trlrn","Wed Mar 15 2023 00:05:15 GMT-0400 (Eastern Daylight Time)","1132743","Trustworthy,Untrustworthy","","null","","","","feedback","","<div class='trialDiv'><img src='trustrating_stim/white_mw063.bmp'><br><font class='baseline'><strong>David</strong><p>Received: <strong>8</strong></font> &nbsp; &nbsp; &nbsp; &nbsp; &nbsp; &nbsp;<font class='negOutcome'>Shared back: <strong>0</strong></font></font><div class='respPicDiv'><img src='img/responseButtonOffersNo0_wht.png' class='respPic'></div></div>","null","5","David","2","Kept","0.2,0.65","10","0.2","trustrating_stim/white_mw063.bmp","2","75","15"
"html-keyboard-response","182","442557","0.0-19.0-1.15","5b1a3fa488ee7400012aef74","bdp_trlrn","Wed Mar 15 2023 00:05:15 GMT-0400 (Eastern Daylight Time)","1132743","Trustworthy,Untrustworthy","","3271","","","","decision","","<div class='trialDiv'><img src='trustrating_stim/white_00898_960530_fa_edt.bmp'><br><font class='baseline'><strong>Chris</strong><p>Choose number of points to send.</font><div class='respPicDiv'><img src='img/responseButtonOffersNo0L.png' class='respPic'></div></div>","5","6","Chris","8","Shared","0.8,0.35","8","0.8","trustrating_stim/white_00898_960530_fa_edt.bmp","5.5","80","16"
"html-keyboard-response","183","442818","0.0-19.0-2.15","5b1a3fa488ee7400012aef74","bdp_trlrn","Wed Mar 15 2023 00:05:15 GMT-0400 (Eastern Daylight Time)","1132743","Trustworthy,Untrustworthy","","null","","","","decisionFB","","<div class='trialDiv'><img src='trustrating_stim/white_00898_960530_fa_edt.bmp'><br><font class='baseline'><strong>Chris</strong><p>Choose number of points to send.</font><div class='respPicDiv'><img src='img/responseButtonOffersNo0L5.png' class='respPic'></div></div>","null","6","Chris","8","Shared","0.8,0.35","8","0.8","trustrating_stim/white_00898_960530_fa_edt.bmp","5.5","75","16"
"html-keyboard-response","184","443833","0.0-19.0-3.15","5b1a3fa488ee7400012aef74","bdp_trlrn","Wed Mar 15 2023 00:05:15 GMT-0400 (Eastern Daylight Time)","1132743","Trustworthy,Untrustworthy","","null","","","","feedback","","<div class='trialDiv'><img src='trustrating_stim/white_00898_960530_fa_edt.bmp'><br><font class='baseline'><strong>Chris</strong><p>Received: <strong>20</strong></font> &nbsp; &nbsp; &nbsp; &nbsp; &nbsp; &nbsp;<font class='posOutcome'>Shared back: <strong>10</strong></font></font><div class='respPicDiv'><img src='img/responseButtonOffersNo0_wht.png' class='respPic'></div></div>","null","6","Chris","8","Shared","0.8,0.35","8","0.8","trustrating_stim/white_00898_960530_fa_edt.bmp","5.5","85","16"
"html-keyboard-response","185","445355","0.0-19.0-1.16","5b1a3fa488ee7400012aef74","bdp_trlrn","Wed Mar 15 2023 00:05:15 GMT-0400 (Eastern Daylight Time)","1132743","Trustworthy,Untrustworthy","","1522","","","","decision","","<div class='trialDiv'><img src='trustrating_stim/white_mw063.bmp'><br><font class='baseline'><strong>David</strong><p>Choose number of points to send.</font><div class='respPicDiv'><img src='img/responseButtonOffersNo0L.png' class='respPic'></div></div>","1","6","David","2","Kept","0.2,0.65","10","0.2","trustrating_stim/white_mw063.bmp","2","90","17"
"html-keyboard-response","186","445612","0.0-19.0-2.16","5b1a3fa488ee7400012aef74","bdp_trlrn","Wed Mar 15 2023 00:05:15 GMT-0400 (Eastern Daylight Time)","1132743","Trustworthy,Untrustworthy","","null","","","","decisionFB","","<div class='trialDiv'><img src='trustrating_stim/white_mw063.bmp'><br><font class='baseline'><strong>David</strong><p>Choose number of points to send.</font><div class='respPicDiv'><img src='img/responseButtonOffersNo0L1.png' class='respPic'></div></div>","null","6","David","2","Kept","0.2,0.65","10","0.2","trustrating_stim/white_mw063.bmp","2","89","17"
"html-keyboard-response","187","446625","0.0-19.0-3.16","5b1a3fa488ee7400012aef74","bdp_trlrn","Wed Mar 15 2023 00:05:15 GMT-0400 (Eastern Daylight Time)","1132743","Trustworthy,Untrustworthy","","null","","","","feedback","","<div class='trialDiv'><img src='trustrating_stim/white_mw063.bmp'><br><font class='baseline'><strong>David</strong><p>Received: <strong>4</strong></font> &nbsp; &nbsp; &nbsp; &nbsp; &nbsp; &nbsp;<font class='negOutcome'>Shared back: <strong>0</strong></font></font><div class='respPicDiv'><img src='img/responseButtonOffersNo0_wht.png' class='respPic'></div></div>","null","6","David","2","Kept","0.2,0.65","10","0.2","trustrating_stim/white_mw063.bmp","2","89","17"
"html-keyboard-response","188","447908","0.0-19.0-1.17","5b1a3fa488ee7400012aef74","bdp_trlrn","Wed Mar 15 2023 00:05:15 GMT-0400 (Eastern Daylight Time)","1132743","Trustworthy,Untrustworthy","","1281","","","","decision","","<div class='trialDiv'><img src='trustrating_stim/white_mw056.bmp'><br><font class='baseline'><strong>Anthony</strong><p>Choose number of points to send.</font><div class='respPicDiv'><img src='img/responseButtonOffersNo0L.png' class='respPic'></div></div>","1","6","Anthony","4","Kept","0.2,0.8","10","0.2","trustrating_stim/white_mw056.bmp","3","94","18"
"html-keyboard-response","189","448160","0.0-19.0-2.17","5b1a3fa488ee7400012aef74","bdp_trlrn","Wed Mar 15 2023 00:05:15 GMT-0400 (Eastern Daylight Time)","1132743","Trustworthy,Untrustworthy","","null","","","","decisionFB","","<div class='trialDiv'><img src='trustrating_stim/white_mw056.bmp'><br><font class='baseline'><strong>Anthony</strong><p>Choose number of points to send.</font><div class='respPicDiv'><img src='img/responseButtonOffersNo0L1.png' class='respPic'></div></div>","null","6","Anthony","4","Kept","0.2,0.8","10","0.2","trustrating_stim/white_mw056.bmp","3","93","18"
"html-keyboard-response","190","449172","0.0-19.0-3.17","5b1a3fa488ee7400012aef74","bdp_trlrn","Wed Mar 15 2023 00:05:15 GMT-0400 (Eastern Daylight Time)","1132743","Trustworthy,Untrustworthy","","null","","","","feedback","","<div class='trialDiv'><img src='trustrating_stim/white_mw056.bmp'><br><font class='baseline'><strong>Anthony</strong><p>Received: <strong>4</strong></font> &nbsp; &nbsp; &nbsp; &nbsp; &nbsp; &nbsp;<font class='negOutcome'>Shared back: <strong>0</strong></font></font><div class='respPicDiv'><img src='img/responseButtonOffersNo0_wht.png' class='respPic'></div></div>","null","6","Anthony","4","Kept","0.2,0.8","10","0.2","trustrating_stim/white_mw056.bmp","3","93","18"
"html-keyboard-response","191","449844","0.0-19.0-1.18","5b1a3fa488ee7400012aef74","bdp_trlrn","Wed Mar 15 2023 00:05:15 GMT-0400 (Eastern Daylight Time)","1132743","Trustworthy,Untrustworthy","","671","","","","decision","","<div class='trialDiv'><img src='trustrating_stim/white_00898_960530_fa_edt.bmp'><br><font class='baseline'><strong>Chris</strong><p>Choose number of points to send.</font><div class='respPicDiv'><img src='img/responseButtonOffersNo0L.png' class='respPic'></div></div>","5","7","Chris","8","Shared","0.8,0.35","8","0.8","trustrating_stim/white_00898_960530_fa_edt.bmp","5.5","98","19"
"html-keyboard-response","192","450106","0.0-19.0-2.18","5b1a3fa488ee7400012aef74","bdp_trlrn","Wed Mar 15 2023 00:05:15 GMT-0400 (Eastern Daylight Time)","1132743","Trustworthy,Untrustworthy","","null","","","","decisionFB","","<div class='trialDiv'><img src='trustrating_stim/white_00898_960530_fa_edt.bmp'><br><font class='baseline'><strong>Chris</strong><p>Choose number of points to send.</font><div class='respPicDiv'><img src='img/responseButtonOffersNo0L5.png' class='respPic'></div></div>","null","7","Chris","8","Shared","0.8,0.35","8","0.8","trustrating_stim/white_00898_960530_fa_edt.bmp","5.5","93","19"
"html-keyboard-response","193","451121","0.0-19.0-3.18","5b1a3fa488ee7400012aef74","bdp_trlrn","Wed Mar 15 2023 00:05:15 GMT-0400 (Eastern Daylight Time)","1132743","Trustworthy,Untrustworthy","","null","","","","feedback","","<div class='trialDiv'><img src='trustrating_stim/white_00898_960530_fa_edt.bmp'><br><font class='baseline'><strong>Chris</strong><p>Received: <strong>20</strong></font> &nbsp; &nbsp; &nbsp; &nbsp; &nbsp; &nbsp;<font class='posOutcome'>Shared back: <strong>10</strong></font></font><div class='respPicDiv'><img src='img/responseButtonOffersNo0_wht.png' class='respPic'></div></div>","null","7","Chris","8","Shared","0.8,0.35","8","0.8","trustrating_stim/white_00898_960530_fa_edt.bmp","5.5","103","19"
"html-keyboard-response","194","451883","0.0-19.0-1.19","5b1a3fa488ee7400012aef74","bdp_trlrn","Wed Mar 15 2023 00:05:15 GMT-0400 (Eastern Daylight Time)","1132743","Trustworthy,Untrustworthy","","762","","","","decision","","<div class='trialDiv'><img src='trustrating_stim/white_mw063.bmp'><br><font class='baseline'><strong>David</strong><p>Choose number of points to send.</font><div class='respPicDiv'><img src='img/responseButtonOffersNo0L.png' class='respPic'></div></div>","1","7","David","2","Kept","0.2,0.65","10","0.2","trustrating_stim/white_mw063.bmp","2","108","20"
"html-keyboard-response","195","452147","0.0-19.0-2.19","5b1a3fa488ee7400012aef74","bdp_trlrn","Wed Mar 15 2023 00:05:15 GMT-0400 (Eastern Daylight Time)","1132743","Trustworthy,Untrustworthy","","null","","","","decisionFB","","<div class='trialDiv'><img src='trustrating_stim/white_mw063.bmp'><br><font class='baseline'><strong>David</strong><p>Choose number of points to send.</font><div class='respPicDiv'><img src='img/responseButtonOffersNo0L1.png' class='respPic'></div></div>","null","7","David","2","Kept","0.2,0.65","10","0.2","trustrating_stim/white_mw063.bmp","2","107","20"
"html-keyboard-response","196","453163","0.0-19.0-3.19","5b1a3fa488ee7400012aef74","bdp_trlrn","Wed Mar 15 2023 00:05:15 GMT-0400 (Eastern Daylight Time)","1132743","Trustworthy,Untrustworthy","","null","","","","feedback","","<div class='trialDiv'><img src='trustrating_stim/white_mw063.bmp'><br><font class='baseline'><strong>David</strong><p>Received: <strong>4</strong></font> &nbsp; &nbsp; &nbsp; &nbsp; &nbsp; &nbsp;<font class='negOutcome'>Shared back: <strong>0</strong></font></font><div class='respPicDiv'><img src='img/responseButtonOffersNo0_wht.png' class='respPic'></div></div>","null","7","David","2","Kept","0.2,0.65","10","0.2","trustrating_stim/white_mw063.bmp","2","107","20"
"html-keyboard-response","197","454774","0.0-19.0-1.20","5b1a3fa488ee7400012aef74","bdp_trlrn","Wed Mar 15 2023 00:05:15 GMT-0400 (Eastern Daylight Time)","1132743","Trustworthy,Untrustworthy","","1609","","","","decision","","<div class='trialDiv'><img src='trustrating_stim/white_mw056.bmp'><br><font class='baseline'><strong>Anthony</strong><p>Choose number of points to send.</font><div class='respPicDiv'><img src='img/responseButtonOffersNo0L.png' class='respPic'></div></div>","1","7","Anthony","4","Kept","0.2,0.8","10","0.2","trustrating_stim/white_mw056.bmp","3","112","21"
"html-keyboard-response","198","455038","0.0-19.0-2.20","5b1a3fa488ee7400012aef74","bdp_trlrn","Wed Mar 15 2023 00:05:15 GMT-0400 (Eastern Daylight Time)","1132743","Trustworthy,Untrustworthy","","null","","","","decisionFB","","<div class='trialDiv'><img src='trustrating_stim/white_mw056.bmp'><br><font class='baseline'><strong>Anthony</strong><p>Choose number of points to send.</font><div class='respPicDiv'><img src='img/responseButtonOffersNo0L1.png' class='respPic'></div></div>","null","7","Anthony","4","Kept","0.2,0.8","10","0.2","trustrating_stim/white_mw056.bmp","3","111","21"
"html-keyboard-response","199","456052","0.0-19.0-3.20","5b1a3fa488ee7400012aef74","bdp_trlrn","Wed Mar 15 2023 00:05:15 GMT-0400 (Eastern Daylight Time)","1132743","Trustworthy,Untrustworthy","","null","","","","feedback","","<div class='trialDiv'><img src='trustrating_stim/white_mw056.bmp'><br><font class='baseline'><strong>Anthony</strong><p>Received: <strong>4</strong></font> &nbsp; &nbsp; &nbsp; &nbsp; &nbsp; &nbsp;<font class='negOutcome'>Shared back: <strong>0</strong></font></font><div class='respPicDiv'><img src='img/responseButtonOffersNo0_wht.png' class='respPic'></div></div>","null","7","Anthony","4","Kept","0.2,0.8","10","0.2","trustrating_stim/white_mw056.bmp","3","111","21"
"html-keyboard-response","200","457605","0.0-19.0-1.21","5b1a3fa488ee7400012aef74","bdp_trlrn","Wed Mar 15 2023 00:05:15 GMT-0400 (Eastern Daylight Time)","1132743","Trustworthy,Untrustworthy","","1553","","","","decision","","<div class='trialDiv'><img src='trustrating_stim/white_00898_960530_fa_edt.bmp'><br><font class='baseline'><strong>Chris</strong><p>Choose number of points to send.</font><div class='respPicDiv'><img src='img/responseButtonOffersNo0L.png' class='respPic'></div></div>","5","8","Chris","8","Kept","0.8,0.35","8","0.8","trustrating_stim/white_00898_960530_fa_edt.bmp","5.5","116","22"
"html-keyboard-response","201","457863","0.0-19.0-2.21","5b1a3fa488ee7400012aef74","bdp_trlrn","Wed Mar 15 2023 00:05:15 GMT-0400 (Eastern Daylight Time)","1132743","Trustworthy,Untrustworthy","","null","","","","decisionFB","","<div class='trialDiv'><img src='trustrating_stim/white_00898_960530_fa_edt.bmp'><br><font class='baseline'><strong>Chris</strong><p>Choose number of points to send.</font><div class='respPicDiv'><img src='img/responseButtonOffersNo0L5.png' class='respPic'></div></div>","null","8","Chris","8","Kept","0.8,0.35","8","0.8","trustrating_stim/white_00898_960530_fa_edt.bmp","5.5","111","22"
"html-keyboard-response","202","458877","0.0-19.0-3.21","5b1a3fa488ee7400012aef74","bdp_trlrn","Wed Mar 15 2023 00:05:15 GMT-0400 (Eastern Daylight Time)","1132743","Trustworthy,Untrustworthy","","null","","","","feedback","","<div class='trialDiv'><img src='trustrating_stim/white_00898_960530_fa_edt.bmp'><br><font class='baseline'><strong>Chris</strong><p>Received: <strong>20</strong></font> &nbsp; &nbsp; &nbsp; &nbsp; &nbsp; &nbsp;<font class='negOutcome'>Shared back: <strong>0</strong></font></font><div class='respPicDiv'><img src='img/responseButtonOffersNo0_wht.png' class='respPic'></div></div>","null","8","Chris","8","Kept","0.8,0.35","8","0.8","trustrating_stim/white_00898_960530_fa_edt.bmp","5.5","111","22"
"html-keyboard-response","203","460965","0.0-19.0-1.22","5b1a3fa488ee7400012aef74","bdp_trlrn","Wed Mar 15 2023 00:05:15 GMT-0400 (Eastern Daylight Time)","1132743","Trustworthy,Untrustworthy","","2088","","","","decision","","<div class='trialDiv'><img src='trustrating_stim/white_mw056.bmp'><br><font class='baseline'><strong>Anthony</strong><p>Choose number of points to send.</font><div class='respPicDiv'><img src='img/responseButtonOffersNo0L.png' class='respPic'></div></div>","1","8","Anthony","4","Kept","0.2,0.8","10","0.2","trustrating_stim/white_mw056.bmp","3","116","23"
"html-keyboard-response","204","461229","0.0-19.0-2.22","5b1a3fa488ee7400012aef74","bdp_trlrn","Wed Mar 15 2023 00:05:15 GMT-0400 (Eastern Daylight Time)","1132743","Trustworthy,Untrustworthy","","null","","","","decisionFB","","<div class='trialDiv'><img src='trustrating_stim/white_mw056.bmp'><br><font class='baseline'><strong>Anthony</strong><p>Choose number of points to send.</font><div class='respPicDiv'><img src='img/responseButtonOffersNo0L1.png' class='respPic'></div></div>","null","8","Anthony","4","Kept","0.2,0.8","10","0.2","trustrating_stim/white_mw056.bmp","3","115","23"
"html-keyboard-response","205","462244","0.0-19.0-3.22","5b1a3fa488ee7400012aef74","bdp_trlrn","Wed Mar 15 2023 00:05:15 GMT-0400 (Eastern Daylight Time)","1132743","Trustworthy,Untrustworthy","","null","","","","feedback","","<div class='trialDiv'><img src='trustrating_stim/white_mw056.bmp'><br><font class='baseline'><strong>Anthony</strong><p>Received: <strong>4</strong></font> &nbsp; &nbsp; &nbsp; &nbsp; &nbsp; &nbsp;<font class='negOutcome'>Shared back: <strong>0</strong></font></font><div class='respPicDiv'><img src='img/responseButtonOffersNo0_wht.png' class='respPic'></div></div>","null","8","Anthony","4","Kept","0.2,0.8","10","0.2","trustrating_stim/white_mw056.bmp","3","115","23"
"html-keyboard-response","206","463869","0.0-19.0-1.23","5b1a3fa488ee7400012aef74","bdp_trlrn","Wed Mar 15 2023 00:05:15 GMT-0400 (Eastern Daylight Time)","1132743","Trustworthy,Untrustworthy","","1624","","","","decision","","<div class='trialDiv'><img src='trustrating_stim/white_mw063.bmp'><br><font class='baseline'><strong>David</strong><p>Choose number of points to send.</font><div class='respPicDiv'><img src='img/responseButtonOffersNo0L.png' class='respPic'></div></div>","1","8","David","2","Shared","0.2,0.65","10","0.2","trustrating_stim/white_mw063.bmp","2","120","24"
"html-keyboard-response","207","464132","0.0-19.0-2.23","5b1a3fa488ee7400012aef74","bdp_trlrn","Wed Mar 15 2023 00:05:15 GMT-0400 (Eastern Daylight Time)","1132743","Trustworthy,Untrustworthy","","null","","","","decisionFB","","<div class='trialDiv'><img src='trustrating_stim/white_mw063.bmp'><br><font class='baseline'><strong>David</strong><p>Choose number of points to send.</font><div class='respPicDiv'><img src='img/responseButtonOffersNo0L1.png' class='respPic'></div></div>","null","8","David","2","Shared","0.2,0.65","10","0.2","trustrating_stim/white_mw063.bmp","2","119","24"
"html-keyboard-response","208","465144","0.0-19.0-3.23","5b1a3fa488ee7400012aef74","bdp_trlrn","Wed Mar 15 2023 00:05:15 GMT-0400 (Eastern Daylight Time)","1132743","Trustworthy,Untrustworthy","","null","","","","feedback","","<div class='trialDiv'><img src='trustrating_stim/white_mw063.bmp'><br><font class='baseline'><strong>David</strong><p>Received: <strong>4</strong></font> &nbsp; &nbsp; &nbsp; &nbsp; &nbsp; &nbsp;<font class='posOutcome'>Shared back: <strong>2</strong></font></font><div class='respPicDiv'><img src='img/responseButtonOffersNo0_wht.png' class='respPic'></div></div>","null","8","David","2","Shared","0.2,0.65","10","0.2","trustrating_stim/white_mw063.bmp","2","121","24"
"html-keyboard-response","209","466292","0.0-19.0-1.24","5b1a3fa488ee7400012aef74","bdp_trlrn","Wed Mar 15 2023 00:05:15 GMT-0400 (Eastern Daylight Time)","1132743","Trustworthy,Untrustworthy","","1147","","","","decision","","<div class='trialDiv'><img src='trustrating_stim/white_00898_960530_fa_edt.bmp'><br><font class='baseline'><strong>Chris</strong><p>Choose number of points to send.</font><div class='respPicDiv'><img src='img/responseButtonOffersNo0L.png' class='respPic'></div></div>","5","9","Chris","8","Kept","0.8,0.35","8","0.8","trustrating_stim/white_00898_960530_fa_edt.bmp","5.5","126","25"
"html-keyboard-response","210","466554","0.0-19.0-2.24","5b1a3fa488ee7400012aef74","bdp_trlrn","Wed Mar 15 2023 00:05:15 GMT-0400 (Eastern Daylight Time)","1132743","Trustworthy,Untrustworthy","","null","","","","decisionFB","","<div class='trialDiv'><img src='trustrating_stim/white_00898_960530_fa_edt.bmp'><br><font class='baseline'><strong>Chris</strong><p>Choose number of points to send.</font><div class='respPicDiv'><img src='img/responseButtonOffersNo0L5.png' class='respPic'></div></div>","null","9","Chris","8","Kept","0.8,0.35","8","0.8","trustrating_stim/white_00898_960530_fa_edt.bmp","5.5","121","25"
"html-keyboard-response","211","467567","0.0-19.0-3.24","5b1a3fa488ee7400012aef74","bdp_trlrn","Wed Mar 15 2023 00:05:15 GMT-0400 (Eastern Daylight Time)","1132743","Trustworthy,Untrustworthy","","null","","","","feedback","","<div class='trialDiv'><img src='trustrating_stim/white_00898_960530_fa_edt.bmp'><br><font class='baseline'><strong>Chris</strong><p>Received: <strong>20</strong></font> &nbsp; &nbsp; &nbsp; &nbsp; &nbsp; &nbsp;<font class='negOutcome'>Shared back: <strong>0</strong></font></font><div class='respPicDiv'><img src='img/responseButtonOffersNo0_wht.png' class='respPic'></div></div>","null","9","Chris","8","Kept","0.8,0.35","8","0.8","trustrating_stim/white_00898_960530_fa_edt.bmp","5.5","121","25"
"html-keyboard-response","212","467587","0.0-19.0-1.25","5b1a3fa488ee7400012aef74","bdp_trlrn","Wed Mar 15 2023 00:05:15 GMT-0400 (Eastern Daylight Time)","1132743","Trustworthy,Untrustworthy","","20","","","","decision","","<div class='trialDiv'><img src='trustrating_stim/white_mw063.bmp'><br><font class='baseline'><strong>David</strong><p>Choose number of points to send.</font><div class='respPicDiv'><img src='img/responseButtonOffersNo0L.png' class='respPic'></div></div>","5","9","David","2","Kept","0.2,0.65","10","0.2","trustrating_stim/white_mw063.bmp","2","126","26"
"html-keyboard-response","213","467843","0.0-19.0-2.25","5b1a3fa488ee7400012aef74","bdp_trlrn","Wed Mar 15 2023 00:05:15 GMT-0400 (Eastern Daylight Time)","1132743","Trustworthy,Untrustworthy","","null","","","","decisionFB","","<div class='trialDiv'><img src='trustrating_stim/white_mw063.bmp'><br><font class='baseline'><strong>David</strong><p>Choose number of points to send.</font><div class='respPicDiv'><img src='img/responseButtonOffersNo0L5.png' class='respPic'></div></div>","null","9","David","2","Kept","0.2,0.65","10","0.2","trustrating_stim/white_mw063.bmp","2","121","26"
"html-keyboard-response","214","468857","0.0-19.0-3.25","5b1a3fa488ee7400012aef74","bdp_trlrn","Wed Mar 15 2023 00:05:15 GMT-0400 (Eastern Daylight Time)","1132743","Trustworthy,Untrustworthy","","null","","","","feedback","","<div class='trialDiv'><img src='trustrating_stim/white_mw063.bmp'><br><font class='baseline'><strong>David</strong><p>Received: <strong>20</strong></font> &nbsp; &nbsp; &nbsp; &nbsp; &nbsp; &nbsp;<font class='negOutcome'>Shared back: <strong>0</strong></font></font><div class='respPicDiv'><img src='img/responseButtonOffersNo0_wht.png' class='respPic'></div></div>","null","9","David","2","Kept","0.2,0.65","10","0.2","trustrating_stim/white_mw063.bmp","2","121","26"
"html-keyboard-response","215","471301","0.0-19.0-1.26","5b1a3fa488ee7400012aef74","bdp_trlrn","Wed Mar 15 2023 00:05:15 GMT-0400 (Eastern Daylight Time)","1132743","Trustworthy,Untrustworthy","","2444","","","","decision","","<div class='trialDiv'><img src='trustrating_stim/white_mw056.bmp'><br><font class='baseline'><strong>Anthony</strong><p>Choose number of points to send.</font><div class='respPicDiv'><img src='img/responseButtonOffersNo0L.png' class='respPic'></div></div>","1","9","Anthony","4","Shared","0.2,0.8","10","0.2","trustrating_stim/white_mw056.bmp","3","126","27"
"html-keyboard-response","216","471553","0.0-19.0-2.26","5b1a3fa488ee7400012aef74","bdp_trlrn","Wed Mar 15 2023 00:05:15 GMT-0400 (Eastern Daylight Time)","1132743","Trustworthy,Untrustworthy","","null","","","","decisionFB","","<div class='trialDiv'><img src='trustrating_stim/white_mw056.bmp'><br><font class='baseline'><strong>Anthony</strong><p>Choose number of points to send.</font><div class='respPicDiv'><img src='img/responseButtonOffersNo0L1.png' class='respPic'></div></div>","null","9","Anthony","4","Shared","0.2,0.8","10","0.2","trustrating_stim/white_mw056.bmp","3","125","27"
"html-keyboard-response","217","472566","0.0-19.0-3.26","5b1a3fa488ee7400012aef74","bdp_trlrn","Wed Mar 15 2023 00:05:15 GMT-0400 (Eastern Daylight Time)","1132743","Trustworthy,Untrustworthy","","null","","","","feedback","","<div class='trialDiv'><img src='trustrating_stim/white_mw056.bmp'><br><font class='baseline'><strong>Anthony</strong><p>Received: <strong>4</strong></font> &nbsp; &nbsp; &nbsp; &nbsp; &nbsp; &nbsp;<font class='posOutcome'>Shared back: <strong>2</strong></font></font><div class='respPicDiv'><img src='img/responseButtonOffersNo0_wht.png' class='respPic'></div></div>","null","9","Anthony","4","Shared","0.2,0.8","10","0.2","trustrating_stim/white_mw056.bmp","3","127","27"
"html-keyboard-response","218","476420","0.0-19.0-1.27","5b1a3fa488ee7400012aef74","bdp_trlrn","Wed Mar 15 2023 00:05:15 GMT-0400 (Eastern Daylight Time)","1132743","Trustworthy,Untrustworthy","","3854","","","","decision","","<div class='trialDiv'><img src='trustrating_stim/white_00898_960530_fa_edt.bmp'><br><font class='baseline'><strong>Chris</strong><p>Choose number of points to send.</font><div class='respPicDiv'><img src='img/responseButtonOffersNo0L.png' class='respPic'></div></div>","1","10","Chris","8","Kept","0.8,0.35","8","0.8","trustrating_stim/white_00898_960530_fa_edt.bmp","5.5","132","28"
"html-keyboard-response","219","476675","0.0-19.0-2.27","5b1a3fa488ee7400012aef74","bdp_trlrn","Wed Mar 15 2023 00:05:15 GMT-0400 (Eastern Daylight Time)","1132743","Trustworthy,Untrustworthy","","null","","","","decisionFB","","<div class='trialDiv'><img src='trustrating_stim/white_00898_960530_fa_edt.bmp'><br><font class='baseline'><strong>Chris</strong><p>Choose number of points to send.</font><div class='respPicDiv'><img src='img/responseButtonOffersNo0L1.png' class='respPic'></div></div>","null","10","Chris","8","Kept","0.8,0.35","8","0.8","trustrating_stim/white_00898_960530_fa_edt.bmp","5.5","131","28"
"html-keyboard-response","220","477687","0.0-19.0-3.27","5b1a3fa488ee7400012aef74","bdp_trlrn","Wed Mar 15 2023 00:05:15 GMT-0400 (Eastern Daylight Time)","1132743","Trustworthy,Untrustworthy","","null","","","","feedback","","<div class='trialDiv'><img src='trustrating_stim/white_00898_960530_fa_edt.bmp'><br><font class='baseline'><strong>Chris</strong><p>Received: <strong>4</strong></font> &nbsp; &nbsp; &nbsp; &nbsp; &nbsp; &nbsp;<font class='negOutcome'>Shared back: <strong>0</strong></font></font><div class='respPicDiv'><img src='img/responseButtonOffersNo0_wht.png' class='respPic'></div></div>","null","10","Chris","8","Kept","0.8,0.35","8","0.8","trustrating_stim/white_00898_960530_fa_edt.bmp","5.5","131","28"
