"trial_type","trial_index","time_elapsed","internal_node_id","subject_id","task","startTime","totalTime","labels","view_history","rt","event","trial","time","trialtype","success","stimulus","key_press","aground","name","faceID","outcome","agenttype","agentswpt","agentcurrpshare","face","avgRating","point_total","round"
"pavlovia","0","3","0.0-0.0","5fb3d39a2ceaab00087faddb","bdp_trlrn","Wed Mar 15 2023 14:13:51 GMT-0500 (Central Daylight Time)","519972","Untrustworthy,Trustworthy","","","","","","","","","","","","","","","","","","","",""
"instructions","1","3663","0.0-1.0","5fb3d39a2ceaab00087faddb","bdp_trlrn","Wed Mar 15 2023 14:13:51 GMT-0500 (Central Daylight Time)","519972","Untrustworthy,Trustworthy","[{""page_index"":0,""viewing_time"":3660}]","3660","","","","","","","","","","","","","","","","","",""
"","","","","5fb3d39a2ceaab00087faddb","bdp_trlrn","Wed Mar 15 2023 14:13:51 GMT-0500 (Central Daylight Time)","519972","Untrustworthy,Trustworthy","","","fullscreenenter","2","6070","fullscreenenter","","","","","","","","","","","","","",""
"fullscreen","2","7033","0.0-2.0","5fb3d39a2ceaab00087faddb","bdp_trlrn","Wed Mar 15 2023 14:13:51 GMT-0500 (Central Daylight Time)","519972","Untrustworthy,Trustworthy","","","","","","","true","","","","","","","","","","","","",""
"instructions","3","15195","0.0-4.0","5fb3d39a2ceaab00087faddb","bdp_trlrn","Wed Mar 15 2023 14:13:51 GMT-0500 (Central Daylight Time)","519972","Untrustworthy,Trustworthy","[{""page_index"":0,""viewing_time"":6162},{""page_index"":1,""viewing_time"":2000}]","8162","","","","","","","","","","","","","","","","","",""
"instructions","4","16239","0.0-5.0","5fb3d39a2ceaab00087faddb","bdp_trlrn","Wed Mar 15 2023 14:13:51 GMT-0500 (Central Daylight Time)","519972","Untrustworthy,Trustworthy","[{""page_index"":0,""viewing_time"":1044}]","1044","","","","","","","","","","","","","","","","","",""
"image-keyboard-response","5","17505","0.0-6.0-1.0","5fb3d39a2ceaab00087faddb","bdp_trlrn","Wed Mar 15 2023 14:13:51 GMT-0500 (Central Daylight Time)","519972","Untrustworthy,Trustworthy","","1146","","","","rating","","trustrating_stim/white_00659_941121_fa_edt.bmp","2","","","","","","","","","","",""
"image-keyboard-response","6","17710","0.0-6.0-2.0","5fb3d39a2ceaab00087faddb","bdp_trlrn","Wed Mar 15 2023 14:13:51 GMT-0500 (Central Daylight Time)","519972","Untrustworthy,Trustworthy","","null","","","","ratingFB","","trustrating_stim/white_00659_941121_fa_edt.bmp","null","","","","","","","","","","",""
"image-keyboard-response","7","18603","0.0-6.0-1.1","5fb3d39a2ceaab00087faddb","bdp_trlrn","Wed Mar 15 2023 14:13:51 GMT-0500 (Central Daylight Time)","519972","Untrustworthy,Trustworthy","","790","","","","rating","","trustrating_stim/white_mw033.bmp","3","","","","","","","","","","",""
"image-keyboard-response","8","18816","0.0-6.0-2.1","5fb3d39a2ceaab00087faddb","bdp_trlrn","Wed Mar 15 2023 14:13:51 GMT-0500 (Central Daylight Time)","519972","Untrustworthy,Trustworthy","","null","","","","ratingFB","","trustrating_stim/white_mw033.bmp","null","","","","","","","","","","",""
"image-keyboard-response","9","20457","0.0-6.0-1.2","5fb3d39a2ceaab00087faddb","bdp_trlrn","Wed Mar 15 2023 14:13:51 GMT-0500 (Central Daylight Time)","519972","Untrustworthy,Trustworthy","","1539","","","","rating","","trustrating_stim/white_00299_940422_fa_edt.bmp","4","","","","","","","","","","",""
"image-keyboard-response","10","20660","0.0-6.0-2.2","5fb3d39a2ceaab00087faddb","bdp_trlrn","Wed Mar 15 2023 14:13:51 GMT-0500 (Central Daylight Time)","519972","Untrustworthy,Trustworthy","","null","","","","ratingFB","","trustrating_stim/white_00299_940422_fa_edt.bmp","null","","","","","","","","","","",""
"image-keyboard-response","11","22007","0.0-6.0-1.3","5fb3d39a2ceaab00087faddb","bdp_trlrn","Wed Mar 15 2023 14:13:51 GMT-0500 (Central Daylight Time)","519972","Untrustworthy,Trustworthy","","1247","","","","rating","","trustrating_stim/white_mw053.bmp","3","","","","","","","","","","",""
"image-keyboard-response","12","22218","0.0-6.0-2.3","5fb3d39a2ceaab00087faddb","bdp_trlrn","Wed Mar 15 2023 14:13:51 GMT-0500 (Central Daylight Time)","519972","Untrustworthy,Trustworthy","","null","","","","ratingFB","","trustrating_stim/white_mw053.bmp","null","","","","","","","","","","",""
"image-keyboard-response","13","23119","0.0-6.0-1.4","5fb3d39a2ceaab00087faddb","bdp_trlrn","Wed Mar 15 2023 14:13:51 GMT-0500 (Central Daylight Time)","519972","Untrustworthy,Trustworthy","","792","","","","rating","","trustrating_stim/white_mw097.bmp","1","","","","","","","","","","",""
"image-keyboard-response","14","23323","0.0-6.0-2.4","5fb3d39a2ceaab00087faddb","bdp_trlrn","Wed Mar 15 2023 14:13:51 GMT-0500 (Central Daylight Time)","519972","Untrustworthy,Trustworthy","","null","","","","ratingFB","","trustrating_stim/white_mw097.bmp","null","","","","","","","","","","",""
"image-keyboard-response","15","24648","0.0-6.0-1.5","5fb3d39a2ceaab00087faddb","bdp_trlrn","Wed Mar 15 2023 14:13:51 GMT-0500 (Central Daylight Time)","519972","Untrustworthy,Trustworthy","","1224","","","","rating","","trustrating_stim/white_mw049.bmp","2","","","","","","","","","","",""
"image-keyboard-response","16","24851","0.0-6.0-2.5","5fb3d39a2ceaab00087faddb","bdp_trlrn","Wed Mar 15 2023 14:13:51 GMT-0500 (Central Daylight Time)","519972","Untrustworthy,Trustworthy","","null","","","","ratingFB","","trustrating_stim/white_mw049.bmp","null","","","","","","","","","","",""
"image-keyboard-response","17","25720","0.0-6.0-1.6","5fb3d39a2ceaab00087faddb","bdp_trlrn","Wed Mar 15 2023 14:13:51 GMT-0500 (Central Daylight Time)","519972","Untrustworthy,Trustworthy","","759","","","","rating","","trustrating_stim/white_mw060.bmp","1","","","","","","","","","","",""
"image-keyboard-response","18","25931","0.0-6.0-2.6","5fb3d39a2ceaab00087faddb","bdp_trlrn","Wed Mar 15 2023 14:13:51 GMT-0500 (Central Daylight Time)","519972","Untrustworthy,Trustworthy","","null","","","","ratingFB","","trustrating_stim/white_mw060.bmp","null","","","","","","","","","","",""
"image-keyboard-response","19","27170","0.0-6.0-1.7","5fb3d39a2ceaab00087faddb","bdp_trlrn","Wed Mar 15 2023 14:13:51 GMT-0500 (Central Daylight Time)","519972","Untrustworthy,Trustworthy","","1137","","","","rating","","trustrating_stim/white_00129_931230_fb_edt.bmp","4","","","","","","","","","","",""
"image-keyboard-response","20","27382","0.0-6.0-2.7","5fb3d39a2ceaab00087faddb","bdp_trlrn","Wed Mar 15 2023 14:13:51 GMT-0500 (Central Daylight Time)","519972","Untrustworthy,Trustworthy","","null","","","","ratingFB","","trustrating_stim/white_00129_931230_fb_edt.bmp","null","","","","","","","","","","",""
"image-keyboard-response","21","28484","0.0-6.0-1.8","5fb3d39a2ceaab00087faddb","bdp_trlrn","Wed Mar 15 2023 14:13:51 GMT-0500 (Central Daylight Time)","519972","Untrustworthy,Trustworthy","","1001","","","","rating","","trustrating_stim/white_mw099.bmp","2","","","","","","","","","","",""
"image-keyboard-response","22","28689","0.0-6.0-2.8","5fb3d39a2ceaab00087faddb","bdp_trlrn","Wed Mar 15 2023 14:13:51 GMT-0500 (Central Daylight Time)","519972","Untrustworthy,Trustworthy","","null","","","","ratingFB","","trustrating_stim/white_mw099.bmp","null","","","","","","","","","","",""
"image-keyboard-response","23","30042","0.0-6.0-1.9","5fb3d39a2ceaab00087faddb","bdp_trlrn","Wed Mar 15 2023 14:13:51 GMT-0500 (Central Daylight Time)","519972","Untrustworthy,Trustworthy","","1251","","","","rating","","trustrating_stim/white_00898_960530_fa_edt.bmp","1","","","","","","","","","","",""
"image-keyboard-response","24","30243","0.0-6.0-2.9","5fb3d39a2ceaab00087faddb","bdp_trlrn","Wed Mar 15 2023 14:13:51 GMT-0500 (Central Daylight Time)","519972","Untrustworthy,Trustworthy","","null","","","","ratingFB","","trustrating_stim/white_00898_960530_fa_edt.bmp","null","","","","","","","","","","",""
"image-keyboard-response","25","31245","0.0-6.0-1.10","5fb3d39a2ceaab00087faddb","bdp_trlrn","Wed Mar 15 2023 14:13:51 GMT-0500 (Central Daylight Time)","519972","Untrustworthy,Trustworthy","","898","","","","rating","","trustrating_stim/white_mw046.bmp","1","","","","","","","","","","",""
"image-keyboard-response","26","31447","0.0-6.0-2.10","5fb3d39a2ceaab00087faddb","bdp_trlrn","Wed Mar 15 2023 14:13:51 GMT-0500 (Central Daylight Time)","519972","Untrustworthy,Trustworthy","","null","","","","ratingFB","","trustrating_stim/white_mw046.bmp","null","","","","","","","","","","",""
"image-keyboard-response","27","32435","0.0-6.0-1.11","5fb3d39a2ceaab00087faddb","bdp_trlrn","Wed Mar 15 2023 14:13:51 GMT-0500 (Central Daylight Time)","519972","Untrustworthy,Trustworthy","","887","","","","rating","","trustrating_stim/white_mw089.bmp","2","","","","","","","","","","",""
"image-keyboard-response","28","32637","0.0-6.0-2.11","5fb3d39a2ceaab00087faddb","bdp_trlrn","Wed Mar 15 2023 14:13:51 GMT-0500 (Central Daylight Time)","519972","Untrustworthy,Trustworthy","","null","","","","ratingFB","","trustrating_stim/white_mw089.bmp","null","","","","","","","","","","",""
"image-keyboard-response","29","33690","0.0-6.0-1.12","5fb3d39a2ceaab00087faddb","bdp_trlrn","Wed Mar 15 2023 14:13:51 GMT-0500 (Central Daylight Time)","519972","Untrustworthy,Trustworthy","","951","","","","rating","","trustrating_stim/white_00785_941205_fb_edt.bmp","1","","","","","","","","","","",""
"image-keyboard-response","30","33891","0.0-6.0-2.12","5fb3d39a2ceaab00087faddb","bdp_trlrn","Wed Mar 15 2023 14:13:51 GMT-0500 (Central Daylight Time)","519972","Untrustworthy,Trustworthy","","null","","","","ratingFB","","trustrating_stim/white_00785_941205_fb_edt.bmp","null","","","","","","","","","","",""
"image-keyboard-response","31","35001","0.0-6.0-1.13","5fb3d39a2ceaab00087faddb","bdp_trlrn","Wed Mar 15 2023 14:13:51 GMT-0500 (Central Daylight Time)","519972","Untrustworthy,Trustworthy","","1009","","","","rating","","trustrating_stim/white_mw035.bmp","2","","","","","","","","","","",""
"image-keyboard-response","32","35203","0.0-6.0-2.13","5fb3d39a2ceaab00087faddb","bdp_trlrn","Wed Mar 15 2023 14:13:51 GMT-0500 (Central Daylight Time)","519972","Untrustworthy,Trustworthy","","null","","","","ratingFB","","trustrating_stim/white_mw035.bmp","null","","","","","","","","","","",""
"image-keyboard-response","33","36209","0.0-6.0-1.14","5fb3d39a2ceaab00087faddb","bdp_trlrn","Wed Mar 15 2023 14:13:51 GMT-0500 (Central Daylight Time)","519972","Untrustworthy,Trustworthy","","904","","","","rating","","trustrating_stim/white_00519_940519_fb_edt.bmp","1","","","","","","","","","","",""
"image-keyboard-response","34","36410","0.0-6.0-2.14","5fb3d39a2ceaab00087faddb","bdp_trlrn","Wed Mar 15 2023 14:13:51 GMT-0500 (Central Daylight Time)","519972","Untrustworthy,Trustworthy","","null","","","","ratingFB","","trustrating_stim/white_00519_940519_fb_edt.bmp","null","","","","","","","","","","",""
"image-keyboard-response","35","37355","0.0-6.0-1.15","5fb3d39a2ceaab00087faddb","bdp_trlrn","Wed Mar 15 2023 14:13:51 GMT-0500 (Central Daylight Time)","519972","Untrustworthy,Trustworthy","","844","","","","rating","","trustrating_stim/white_mw048.bmp","1","","","","","","","","","","",""
"image-keyboard-response","36","37559","0.0-6.0-2.15","5fb3d39a2ceaab00087faddb","bdp_trlrn","Wed Mar 15 2023 14:13:51 GMT-0500 (Central Daylight Time)","519972","Untrustworthy,Trustworthy","","null","","","","ratingFB","","trustrating_stim/white_mw048.bmp","null","","","","","","","","","","",""
"image-keyboard-response","37","38450","0.0-6.0-1.16","5fb3d39a2ceaab00087faddb","bdp_trlrn","Wed Mar 15 2023 14:13:51 GMT-0500 (Central Daylight Time)","519972","Untrustworthy,Trustworthy","","790","","","","rating","","trustrating_stim/white_mw084.bmp","1","","","","","","","","","","",""
"image-keyboard-response","38","38651","0.0-6.0-2.16","5fb3d39a2ceaab00087faddb","bdp_trlrn","Wed Mar 15 2023 14:13:51 GMT-0500 (Central Daylight Time)","519972","Untrustworthy,Trustworthy","","null","","","","ratingFB","","trustrating_stim/white_mw084.bmp","null","","","","","","","","","","",""
"image-keyboard-response","39","39542","0.0-6.0-1.17","5fb3d39a2ceaab00087faddb","bdp_trlrn","Wed Mar 15 2023 14:13:51 GMT-0500 (Central Daylight Time)","519972","Untrustworthy,Trustworthy","","789","","","","rating","","trustrating_stim/white_mw063.bmp","1","","","","","","","","","","",""
"image-keyboard-response","40","39744","0.0-6.0-2.17","5fb3d39a2ceaab00087faddb","bdp_trlrn","Wed Mar 15 2023 14:13:51 GMT-0500 (Central Daylight Time)","519972","Untrustworthy,Trustworthy","","null","","","","ratingFB","","trustrating_stim/white_mw063.bmp","null","","","","","","","","","","",""
"image-keyboard-response","41","40772","0.0-6.0-1.18","5fb3d39a2ceaab00087faddb","bdp_trlrn","Wed Mar 15 2023 14:13:51 GMT-0500 (Central Daylight Time)","519972","Untrustworthy,Trustworthy","","926","","","","rating","","trustrating_stim/white_00340_940422_fa_edt.bmp","1","","","","","","","","","","",""
"image-keyboard-response","42","40974","0.0-6.0-2.18","5fb3d39a2ceaab00087faddb","bdp_trlrn","Wed Mar 15 2023 14:13:51 GMT-0500 (Central Daylight Time)","519972","Untrustworthy,Trustworthy","","null","","","","ratingFB","","trustrating_stim/white_00340_940422_fa_edt.bmp","null","","","","","","","","","","",""
"image-keyboard-response","43","41955","0.0-6.0-1.19","5fb3d39a2ceaab00087faddb","bdp_trlrn","Wed Mar 15 2023 14:13:51 GMT-0500 (Central Daylight Time)","519972","Untrustworthy,Trustworthy","","879","","","","rating","","trustrating_stim/white_mw056.bmp","1","","","","","","","","","","",""
"image-keyboard-response","44","42156","0.0-6.0-2.19","5fb3d39a2ceaab00087faddb","bdp_trlrn","Wed Mar 15 2023 14:13:51 GMT-0500 (Central Daylight Time)","519972","Untrustworthy,Trustworthy","","null","","","","ratingFB","","trustrating_stim/white_mw056.bmp","null","","","","","","","","","","",""
"image-keyboard-response","45","43426","0.0-6.0-1.20","5fb3d39a2ceaab00087faddb","bdp_trlrn","Wed Mar 15 2023 14:13:51 GMT-0500 (Central Daylight Time)","519972","Untrustworthy,Trustworthy","","1167","","","","rating","","trustrating_stim/white_00109_931230_fa_edt.bmp","2","","","","","","","","","","",""
"image-keyboard-response","46","43628","0.0-6.0-2.20","5fb3d39a2ceaab00087faddb","bdp_trlrn","Wed Mar 15 2023 14:13:51 GMT-0500 (Central Daylight Time)","519972","Untrustworthy,Trustworthy","","null","","","","ratingFB","","trustrating_stim/white_00109_931230_fa_edt.bmp","null","","","","","","","","","","",""
"image-keyboard-response","47","44446","0.0-6.0-1.21","5fb3d39a2ceaab00087faddb","bdp_trlrn","Wed Mar 15 2023 14:13:51 GMT-0500 (Central Daylight Time)","519972","Untrustworthy,Trustworthy","","716","","","","rating","","trustrating_stim/white_00757_941201_fa_edt.bmp","1","","","","","","","","","","",""
"image-keyboard-response","48","44647","0.0-6.0-2.21","5fb3d39a2ceaab00087faddb","bdp_trlrn","Wed Mar 15 2023 14:13:51 GMT-0500 (Central Daylight Time)","519972","Untrustworthy,Trustworthy","","null","","","","ratingFB","","trustrating_stim/white_00757_941201_fa_edt.bmp","null","","","","","","","","","","",""
"image-keyboard-response","49","45747","0.0-6.0-1.22","5fb3d39a2ceaab00087faddb","bdp_trlrn","Wed Mar 15 2023 14:13:51 GMT-0500 (Central Daylight Time)","519972","Untrustworthy,Trustworthy","","997","","","","rating","","trustrating_stim/white_00120_931230_fa_edt.bmp","1","","","","","","","","","","",""
"image-keyboard-response","50","45948","0.0-6.0-2.22","5fb3d39a2ceaab00087faddb","bdp_trlrn","Wed Mar 15 2023 14:13:51 GMT-0500 (Central Daylight Time)","519972","Untrustworthy,Trustworthy","","null","","","","ratingFB","","trustrating_stim/white_00120_931230_fa_edt.bmp","null","","","","","","","","","","",""
"image-keyboard-response","51","46817","0.0-6.0-1.23","5fb3d39a2ceaab00087faddb","bdp_trlrn","Wed Mar 15 2023 14:13:51 GMT-0500 (Central Daylight Time)","519972","Untrustworthy,Trustworthy","","767","","","","rating","","trustrating_stim/white_00807_941205_fb_edt.bmp","1","","","","","","","","","","",""
"image-keyboard-response","52","47019","0.0-6.0-2.23","5fb3d39a2ceaab00087faddb","bdp_trlrn","Wed Mar 15 2023 14:13:51 GMT-0500 (Central Daylight Time)","519972","Untrustworthy,Trustworthy","","null","","","","ratingFB","","trustrating_stim/white_00807_941205_fb_edt.bmp","null","","","","","","","","","","",""
"image-keyboard-response","53","48018","0.0-6.0-1.24","5fb3d39a2ceaab00087faddb","bdp_trlrn","Wed Mar 15 2023 14:13:51 GMT-0500 (Central Daylight Time)","519972","Untrustworthy,Trustworthy","","897","","","","rating","","trustrating_stim/white_00761_941201_fb_edt.bmp","1","","","","","","","","","","",""
"image-keyboard-response","54","48220","0.0-6.0-2.24","5fb3d39a2ceaab00087faddb","bdp_trlrn","Wed Mar 15 2023 14:13:51 GMT-0500 (Central Daylight Time)","519972","Untrustworthy,Trustworthy","","null","","","","ratingFB","","trustrating_stim/white_00761_941201_fb_edt.bmp","null","","","","","","","","","","",""
"image-keyboard-response","55","49929","0.0-6.0-1.25","5fb3d39a2ceaab00087faddb","bdp_trlrn","Wed Mar 15 2023 14:13:51 GMT-0500 (Central Daylight Time)","519972","Untrustworthy,Trustworthy","","1604","","","","rating","","trustrating_stim/white_00602_940928_fb_edt.bmp","3","","","","","","","","","","",""
"image-keyboard-response","56","50131","0.0-6.0-2.25","5fb3d39a2ceaab00087faddb","bdp_trlrn","Wed Mar 15 2023 14:13:51 GMT-0500 (Central Daylight Time)","519972","Untrustworthy,Trustworthy","","null","","","","ratingFB","","trustrating_stim/white_00602_940928_fb_edt.bmp","null","","","","","","","","","","",""
"image-keyboard-response","57","51051","0.0-6.0-1.26","5fb3d39a2ceaab00087faddb","bdp_trlrn","Wed Mar 15 2023 14:13:51 GMT-0500 (Central Daylight Time)","519972","Untrustworthy,Trustworthy","","817","","","","rating","","trustrating_stim/white_00223_940128_fb_edt.bmp","1","","","","","","","","","","",""
"image-keyboard-response","58","51254","0.0-6.0-2.26","5fb3d39a2ceaab00087faddb","bdp_trlrn","Wed Mar 15 2023 14:13:51 GMT-0500 (Central Daylight Time)","519972","Untrustworthy,Trustworthy","","null","","","","ratingFB","","trustrating_stim/white_00223_940128_fb_edt.bmp","null","","","","","","","","","","",""
"image-keyboard-response","59","52152","0.0-6.0-1.27","5fb3d39a2ceaab00087faddb","bdp_trlrn","Wed Mar 15 2023 14:13:51 GMT-0500 (Central Daylight Time)","519972","Untrustworthy,Trustworthy","","795","","","","rating","","trustrating_stim/white_00577_940928_fa_edt.bmp","1","","","","","","","","","","",""
"image-keyboard-response","60","52354","0.0-6.0-2.27","5fb3d39a2ceaab00087faddb","bdp_trlrn","Wed Mar 15 2023 14:13:51 GMT-0500 (Central Daylight Time)","519972","Untrustworthy,Trustworthy","","null","","","","ratingFB","","trustrating_stim/white_00577_940928_fa_edt.bmp","null","","","","","","","","","","",""
"image-keyboard-response","61","53294","0.0-6.0-1.28","5fb3d39a2ceaab00087faddb","bdp_trlrn","Wed Mar 15 2023 14:13:51 GMT-0500 (Central Daylight Time)","519972","Untrustworthy,Trustworthy","","838","","","","rating","","trustrating_stim/white_mw066.bmp","1","","","","","","","","","","",""
"image-keyboard-response","62","53495","0.0-6.0-2.28","5fb3d39a2ceaab00087faddb","bdp_trlrn","Wed Mar 15 2023 14:13:51 GMT-0500 (Central Daylight Time)","519972","Untrustworthy,Trustworthy","","null","","","","ratingFB","","trustrating_stim/white_mw066.bmp","null","","","","","","","","","","",""
"image-keyboard-response","63","54313","0.0-6.0-1.29","5fb3d39a2ceaab00087faddb","bdp_trlrn","Wed Mar 15 2023 14:13:51 GMT-0500 (Central Daylight Time)","519972","Untrustworthy,Trustworthy","","716","","","","rating","","trustrating_stim/white_mw071.bmp","1","","","","","","","","","","",""
"image-keyboard-response","64","54514","0.0-6.0-2.29","5fb3d39a2ceaab00087faddb","bdp_trlrn","Wed Mar 15 2023 14:13:51 GMT-0500 (Central Daylight Time)","519972","Untrustworthy,Trustworthy","","null","","","","ratingFB","","trustrating_stim/white_mw071.bmp","null","","","","","","","","","","",""
"image-keyboard-response","65","55573","0.0-6.0-1.30","5fb3d39a2ceaab00087faddb","bdp_trlrn","Wed Mar 15 2023 14:13:51 GMT-0500 (Central Daylight Time)","519972","Untrustworthy,Trustworthy","","957","","","","rating","","trustrating_stim/white_00761_941201_fb_edt.bmp","1","","","","","","","","","","",""
"image-keyboard-response","66","55776","0.0-6.0-2.30","5fb3d39a2ceaab00087faddb","bdp_trlrn","Wed Mar 15 2023 14:13:51 GMT-0500 (Central Daylight Time)","519972","Untrustworthy,Trustworthy","","null","","","","ratingFB","","trustrating_stim/white_00761_941201_fb_edt.bmp","null","","","","","","","","","","",""
"image-keyboard-response","67","56685","0.0-6.0-1.31","5fb3d39a2ceaab00087faddb","bdp_trlrn","Wed Mar 15 2023 14:13:51 GMT-0500 (Central Daylight Time)","519972","Untrustworthy,Trustworthy","","807","","","","rating","","trustrating_stim/white_mw099.bmp","1","","","","","","","","","","",""
"image-keyboard-response","68","56886","0.0-6.0-2.31","5fb3d39a2ceaab00087faddb","bdp_trlrn","Wed Mar 15 2023 14:13:51 GMT-0500 (Central Daylight Time)","519972","Untrustworthy,Trustworthy","","null","","","","ratingFB","","trustrating_stim/white_mw099.bmp","null","","","","","","","","","","",""
"image-keyboard-response","69","57774","0.0-6.0-1.32","5fb3d39a2ceaab00087faddb","bdp_trlrn","Wed Mar 15 2023 14:13:51 GMT-0500 (Central Daylight Time)","519972","Untrustworthy,Trustworthy","","785","","","","rating","","trustrating_stim/white_00785_941205_fb_edt.bmp","1","","","","","","","","","","",""
"image-keyboard-response","70","57976","0.0-6.0-2.32","5fb3d39a2ceaab00087faddb","bdp_trlrn","Wed Mar 15 2023 14:13:51 GMT-0500 (Central Daylight Time)","519972","Untrustworthy,Trustworthy","","null","","","","ratingFB","","trustrating_stim/white_00785_941205_fb_edt.bmp","null","","","","","","","","","","",""
"image-keyboard-response","71","58887","0.0-6.0-1.33","5fb3d39a2ceaab00087faddb","bdp_trlrn","Wed Mar 15 2023 14:13:51 GMT-0500 (Central Daylight Time)","519972","Untrustworthy,Trustworthy","","808","","","","rating","","trustrating_stim/white_mw060.bmp","1","","","","","","","","","","",""
"image-keyboard-response","72","59089","0.0-6.0-2.33","5fb3d39a2ceaab00087faddb","bdp_trlrn","Wed Mar 15 2023 14:13:51 GMT-0500 (Central Daylight Time)","519972","Untrustworthy,Trustworthy","","null","","","","ratingFB","","trustrating_stim/white_mw060.bmp","null","","","","","","","","","","",""
"image-keyboard-response","73","60020","0.0-6.0-1.34","5fb3d39a2ceaab00087faddb","bdp_trlrn","Wed Mar 15 2023 14:13:51 GMT-0500 (Central Daylight Time)","519972","Untrustworthy,Trustworthy","","829","","","","rating","","trustrating_stim/white_mw053.bmp","1","","","","","","","","","","",""
"image-keyboard-response","74","60236","0.0-6.0-2.34","5fb3d39a2ceaab00087faddb","bdp_trlrn","Wed Mar 15 2023 14:13:51 GMT-0500 (Central Daylight Time)","519972","Untrustworthy,Trustworthy","","null","","","","ratingFB","","trustrating_stim/white_mw053.bmp","null","","","","","","","","","","",""
"image-keyboard-response","75","61106","0.0-6.0-1.35","5fb3d39a2ceaab00087faddb","bdp_trlrn","Wed Mar 15 2023 14:13:51 GMT-0500 (Central Daylight Time)","519972","Untrustworthy,Trustworthy","","768","","","","rating","","trustrating_stim/white_mw071.bmp","1","","","","","","","","","","",""
"image-keyboard-response","76","61308","0.0-6.0-2.35","5fb3d39a2ceaab00087faddb","bdp_trlrn","Wed Mar 15 2023 14:13:51 GMT-0500 (Central Daylight Time)","519972","Untrustworthy,Trustworthy","","null","","","","ratingFB","","trustrating_stim/white_mw071.bmp","null","","","","","","","","","","",""
"image-keyboard-response","77","62861","0.0-6.0-1.36","5fb3d39a2ceaab00087faddb","bdp_trlrn","Wed Mar 15 2023 14:13:51 GMT-0500 (Central Daylight Time)","519972","Untrustworthy,Trustworthy","","1450","","","","rating","","trustrating_stim/white_00602_940928_fb_edt.bmp","2","","","","","","","","","","",""
"image-keyboard-response","78","63062","0.0-6.0-2.36","5fb3d39a2ceaab00087faddb","bdp_trlrn","Wed Mar 15 2023 14:13:51 GMT-0500 (Central Daylight Time)","519972","Untrustworthy,Trustworthy","","null","","","","ratingFB","","trustrating_stim/white_00602_940928_fb_edt.bmp","null","","","","","","","","","","",""
"image-keyboard-response","79","64190","0.0-6.0-1.37","5fb3d39a2ceaab00087faddb","bdp_trlrn","Wed Mar 15 2023 14:13:51 GMT-0500 (Central Daylight Time)","519972","Untrustworthy,Trustworthy","","1026","","","","rating","","trustrating_stim/white_00898_960530_fa_edt.bmp","1","","","","","","","","","","",""
"image-keyboard-response","80","64392","0.0-6.0-2.37","5fb3d39a2ceaab00087faddb","bdp_trlrn","Wed Mar 15 2023 14:13:51 GMT-0500 (Central Daylight Time)","519972","Untrustworthy,Trustworthy","","null","","","","ratingFB","","trustrating_stim/white_00898_960530_fa_edt.bmp","null","","","","","","","","","","",""
"image-keyboard-response","81","65311","0.0-6.0-1.38","5fb3d39a2ceaab00087faddb","bdp_trlrn","Wed Mar 15 2023 14:13:51 GMT-0500 (Central Daylight Time)","519972","Untrustworthy,Trustworthy","","816","","","","rating","","trustrating_stim/white_mw035.bmp","1","","","","","","","","","","",""
"image-keyboard-response","82","65512","0.0-6.0-2.38","5fb3d39a2ceaab00087faddb","bdp_trlrn","Wed Mar 15 2023 14:13:51 GMT-0500 (Central Daylight Time)","519972","Untrustworthy,Trustworthy","","null","","","","ratingFB","","trustrating_stim/white_mw035.bmp","null","","","","","","","","","","",""
"image-keyboard-response","83","66416","0.0-6.0-1.39","5fb3d39a2ceaab00087faddb","bdp_trlrn","Wed Mar 15 2023 14:13:51 GMT-0500 (Central Daylight Time)","519972","Untrustworthy,Trustworthy","","801","","","","rating","","trustrating_stim/white_mw084.bmp","1","","","","","","","","","","",""
"image-keyboard-response","84","66618","0.0-6.0-2.39","5fb3d39a2ceaab00087faddb","bdp_trlrn","Wed Mar 15 2023 14:13:51 GMT-0500 (Central Daylight Time)","519972","Untrustworthy,Trustworthy","","null","","","","ratingFB","","trustrating_stim/white_mw084.bmp","null","","","","","","","","","","",""
"image-keyboard-response","85","67560","0.0-6.0-1.40","5fb3d39a2ceaab00087faddb","bdp_trlrn","Wed Mar 15 2023 14:13:51 GMT-0500 (Central Daylight Time)","519972","Untrustworthy,Trustworthy","","840","","","","rating","","trustrating_stim/white_mw046.bmp","1","","","","","","","","","","",""
"image-keyboard-response","86","67761","0.0-6.0-2.40","5fb3d39a2ceaab00087faddb","bdp_trlrn","Wed Mar 15 2023 14:13:51 GMT-0500 (Central Daylight Time)","519972","Untrustworthy,Trustworthy","","null","","","","ratingFB","","trustrating_stim/white_mw046.bmp","null","","","","","","","","","","",""
"image-keyboard-response","87","68847","0.0-6.0-1.41","5fb3d39a2ceaab00087faddb","bdp_trlrn","Wed Mar 15 2023 14:13:51 GMT-0500 (Central Daylight Time)","519972","Untrustworthy,Trustworthy","","984","","","","rating","","trustrating_stim/white_00299_940422_fa_edt.bmp","2","","","","","","","","","","",""
"image-keyboard-response","88","69049","0.0-6.0-2.41","5fb3d39a2ceaab00087faddb","bdp_trlrn","Wed Mar 15 2023 14:13:51 GMT-0500 (Central Daylight Time)","519972","Untrustworthy,Trustworthy","","null","","","","ratingFB","","trustrating_stim/white_00299_940422_fa_edt.bmp","null","","","","","","","","","","",""
"image-keyboard-response","89","70057","0.0-6.0-1.42","5fb3d39a2ceaab00087faddb","bdp_trlrn","Wed Mar 15 2023 14:13:51 GMT-0500 (Central Daylight Time)","519972","Untrustworthy,Trustworthy","","904","","","","rating","","trustrating_stim/white_00757_941201_fa_edt.bmp","1","","","","","","","","","","",""
"image-keyboard-response","90","70258","0.0-6.0-2.42","5fb3d39a2ceaab00087faddb","bdp_trlrn","Wed Mar 15 2023 14:13:51 GMT-0500 (Central Daylight Time)","519972","Untrustworthy,Trustworthy","","null","","","","ratingFB","","trustrating_stim/white_00757_941201_fa_edt.bmp","null","","","","","","","","","","",""
"image-keyboard-response","91","71193","0.0-6.0-1.43","5fb3d39a2ceaab00087faddb","bdp_trlrn","Wed Mar 15 2023 14:13:51 GMT-0500 (Central Daylight Time)","519972","Untrustworthy,Trustworthy","","833","","","","rating","","trustrating_stim/white_mw097.bmp","1","","","","","","","","","","",""
"image-keyboard-response","92","71394","0.0-6.0-2.43","5fb3d39a2ceaab00087faddb","bdp_trlrn","Wed Mar 15 2023 14:13:51 GMT-0500 (Central Daylight Time)","519972","Untrustworthy,Trustworthy","","null","","","","ratingFB","","trustrating_stim/white_mw097.bmp","null","","","","","","","","","","",""
"image-keyboard-response","93","72635","0.0-6.0-1.44","5fb3d39a2ceaab00087faddb","bdp_trlrn","Wed Mar 15 2023 14:13:51 GMT-0500 (Central Daylight Time)","519972","Untrustworthy,Trustworthy","","1139","","","","rating","","trustrating_stim/white_00109_931230_fa_edt.bmp","2","","","","","","","","","","",""
"image-keyboard-response","94","72837","0.0-6.0-2.44","5fb3d39a2ceaab00087faddb","bdp_trlrn","Wed Mar 15 2023 14:13:51 GMT-0500 (Central Daylight Time)","519972","Untrustworthy,Trustworthy","","null","","","","ratingFB","","trustrating_stim/white_00109_931230_fa_edt.bmp","null","","","","","","","","","","",""
"image-keyboard-response","95","74142","0.0-6.0-1.45","5fb3d39a2ceaab00087faddb","bdp_trlrn","Wed Mar 15 2023 14:13:51 GMT-0500 (Central Daylight Time)","519972","Untrustworthy,Trustworthy","","1204","","","","rating","","trustrating_stim/white_00223_940128_fb_edt.bmp","1","","","","","","","","","","",""
"image-keyboard-response","96","74344","0.0-6.0-2.45","5fb3d39a2ceaab00087faddb","bdp_trlrn","Wed Mar 15 2023 14:13:51 GMT-0500 (Central Daylight Time)","519972","Untrustworthy,Trustworthy","","null","","","","ratingFB","","trustrating_stim/white_00223_940128_fb_edt.bmp","null","","","","","","","","","","",""
"image-keyboard-response","97","75189","0.0-6.0-1.46","5fb3d39a2ceaab00087faddb","bdp_trlrn","Wed Mar 15 2023 14:13:51 GMT-0500 (Central Daylight Time)","519972","Untrustworthy,Trustworthy","","742","","","","rating","","trustrating_stim/white_00519_940519_fb_edt.bmp","1","","","","","","","","","","",""
"image-keyboard-response","98","75390","0.0-6.0-2.46","5fb3d39a2ceaab00087faddb","bdp_trlrn","Wed Mar 15 2023 14:13:51 GMT-0500 (Central Daylight Time)","519972","Untrustworthy,Trustworthy","","null","","","","ratingFB","","trustrating_stim/white_00519_940519_fb_edt.bmp","null","","","","","","","","","","",""
"image-keyboard-response","99","77192","0.0-6.0-1.47","5fb3d39a2ceaab00087faddb","bdp_trlrn","Wed Mar 15 2023 14:13:51 GMT-0500 (Central Daylight Time)","519972","Untrustworthy,Trustworthy","","1700","","","","rating","","trustrating_stim/white_mw049.bmp","3","","","","","","","","","","",""
"image-keyboard-response","100","77394","0.0-6.0-2.47","5fb3d39a2ceaab00087faddb","bdp_trlrn","Wed Mar 15 2023 14:13:51 GMT-0500 (Central Daylight Time)","519972","Untrustworthy,Trustworthy","","null","","","","ratingFB","","trustrating_stim/white_mw049.bmp","null","","","","","","","","","","",""
"image-keyboard-response","101","79087","0.0-6.0-1.48","5fb3d39a2ceaab00087faddb","bdp_trlrn","Wed Mar 15 2023 14:13:51 GMT-0500 (Central Daylight Time)","519972","Untrustworthy,Trustworthy","","1591","","","","rating","","trustrating_stim/white_mw066.bmp","3","","","","","","","","","","",""
"image-keyboard-response","102","79290","0.0-6.0-2.48","5fb3d39a2ceaab00087faddb","bdp_trlrn","Wed Mar 15 2023 14:13:51 GMT-0500 (Central Daylight Time)","519972","Untrustworthy,Trustworthy","","null","","","","ratingFB","","trustrating_stim/white_mw066.bmp","null","","","","","","","","","","",""
"image-keyboard-response","103","80239","0.0-6.0-1.49","5fb3d39a2ceaab00087faddb","bdp_trlrn","Wed Mar 15 2023 14:13:51 GMT-0500 (Central Daylight Time)","519972","Untrustworthy,Trustworthy","","844","","","","rating","","trustrating_stim/white_mw089.bmp","1","","","","","","","","","","",""
"image-keyboard-response","104","80440","0.0-6.0-2.49","5fb3d39a2ceaab00087faddb","bdp_trlrn","Wed Mar 15 2023 14:13:51 GMT-0500 (Central Daylight Time)","519972","Untrustworthy,Trustworthy","","null","","","","ratingFB","","trustrating_stim/white_mw089.bmp","null","","","","","","","","","","",""
"image-keyboard-response","105","81332","0.0-6.0-1.50","5fb3d39a2ceaab00087faddb","bdp_trlrn","Wed Mar 15 2023 14:13:51 GMT-0500 (Central Daylight Time)","519972","Untrustworthy,Trustworthy","","786","","","","rating","","trustrating_stim/white_mw063.bmp","1","","","","","","","","","","",""
"image-keyboard-response","106","81534","0.0-6.0-2.50","5fb3d39a2ceaab00087faddb","bdp_trlrn","Wed Mar 15 2023 14:13:51 GMT-0500 (Central Daylight Time)","519972","Untrustworthy,Trustworthy","","null","","","","ratingFB","","trustrating_stim/white_mw063.bmp","null","","","","","","","","","","",""
"image-keyboard-response","107","82292","0.0-6.0-1.51","5fb3d39a2ceaab00087faddb","bdp_trlrn","Wed Mar 15 2023 14:13:51 GMT-0500 (Central Daylight Time)","519972","Untrustworthy,Trustworthy","","654","","","","rating","","trustrating_stim/white_mw056.bmp","1","","","","","","","","","","",""
"image-keyboard-response","108","82493","0.0-6.0-2.51","5fb3d39a2ceaab00087faddb","bdp_trlrn","Wed Mar 15 2023 14:13:51 GMT-0500 (Central Daylight Time)","519972","Untrustworthy,Trustworthy","","null","","","","ratingFB","","trustrating_stim/white_mw056.bmp","null","","","","","","","","","","",""
"image-keyboard-response","109","83470","0.0-6.0-1.52","5fb3d39a2ceaab00087faddb","bdp_trlrn","Wed Mar 15 2023 14:13:51 GMT-0500 (Central Daylight Time)","519972","Untrustworthy,Trustworthy","","873","","","","rating","","trustrating_stim/white_mw033.bmp","1","","","","","","","","","","",""
"image-keyboard-response","110","83671","0.0-6.0-2.52","5fb3d39a2ceaab00087faddb","bdp_trlrn","Wed Mar 15 2023 14:13:51 GMT-0500 (Central Daylight Time)","519972","Untrustworthy,Trustworthy","","null","","","","ratingFB","","trustrating_stim/white_mw033.bmp","null","","","","","","","","","","",""
"image-keyboard-response","111","84563","0.0-6.0-1.53","5fb3d39a2ceaab00087faddb","bdp_trlrn","Wed Mar 15 2023 14:13:51 GMT-0500 (Central Daylight Time)","519972","Untrustworthy,Trustworthy","","791","","","","rating","","trustrating_stim/white_00340_940422_fa_edt.bmp","1","","","","","","","","","","",""
"image-keyboard-response","112","84765","0.0-6.0-2.53","5fb3d39a2ceaab00087faddb","bdp_trlrn","Wed Mar 15 2023 14:13:51 GMT-0500 (Central Daylight Time)","519972","Untrustworthy,Trustworthy","","null","","","","ratingFB","","trustrating_stim/white_00340_940422_fa_edt.bmp","null","","","","","","","","","","",""
"image-keyboard-response","113","85850","0.0-6.0-1.54","5fb3d39a2ceaab00087faddb","bdp_trlrn","Wed Mar 15 2023 14:13:51 GMT-0500 (Central Daylight Time)","519972","Untrustworthy,Trustworthy","","981","","","","rating","","trustrating_stim/white_00129_931230_fb_edt.bmp","2","","","","","","","","","","",""
"image-keyboard-response","114","86051","0.0-6.0-2.54","5fb3d39a2ceaab00087faddb","bdp_trlrn","Wed Mar 15 2023 14:13:51 GMT-0500 (Central Daylight Time)","519972","Untrustworthy,Trustworthy","","null","","","","ratingFB","","trustrating_stim/white_00129_931230_fb_edt.bmp","null","","","","","","","","","","",""
"image-keyboard-response","115","86860","0.0-6.0-1.55","5fb3d39a2ceaab00087faddb","bdp_trlrn","Wed Mar 15 2023 14:13:51 GMT-0500 (Central Daylight Time)","519972","Untrustworthy,Trustworthy","","704","","","","rating","","trustrating_stim/white_00807_941205_fb_edt.bmp","1","","","","","","","","","","",""
"image-keyboard-response","116","87061","0.0-6.0-2.55","5fb3d39a2ceaab00087faddb","bdp_trlrn","Wed Mar 15 2023 14:13:51 GMT-0500 (Central Daylight Time)","519972","Untrustworthy,Trustworthy","","null","","","","ratingFB","","trustrating_stim/white_00807_941205_fb_edt.bmp","null","","","","","","","","","","",""
"image-keyboard-response","117","88416","0.0-6.0-1.56","5fb3d39a2ceaab00087faddb","bdp_trlrn","Wed Mar 15 2023 14:13:51 GMT-0500 (Central Daylight Time)","519972","Untrustworthy,Trustworthy","","1253","","","","rating","","trustrating_stim/white_00120_931230_fa_edt.bmp","1","","","","","","","","","","",""
"image-keyboard-response","118","88619","0.0-6.0-2.56","5fb3d39a2ceaab00087faddb","bdp_trlrn","Wed Mar 15 2023 14:13:51 GMT-0500 (Central Daylight Time)","519972","Untrustworthy,Trustworthy","","null","","","","ratingFB","","trustrating_stim/white_00120_931230_fa_edt.bmp","null","","","","","","","","","","",""
"image-keyboard-response","119","89516","0.0-6.0-1.57","5fb3d39a2ceaab00087faddb","bdp_trlrn","Wed Mar 15 2023 14:13:51 GMT-0500 (Central Daylight Time)","519972","Untrustworthy,Trustworthy","","794","","","","rating","","trustrating_stim/white_00659_941121_fa_edt.bmp","1","","","","","","","","","","",""
"image-keyboard-response","120","89716","0.0-6.0-2.57","5fb3d39a2ceaab00087faddb","bdp_trlrn","Wed Mar 15 2023 14:13:51 GMT-0500 (Central Daylight Time)","519972","Untrustworthy,Trustworthy","","null","","","","ratingFB","","trustrating_stim/white_00659_941121_fa_edt.bmp","null","","","","","","","","","","",""
"image-keyboard-response","121","90578","0.0-6.0-1.58","5fb3d39a2ceaab00087faddb","bdp_trlrn","Wed Mar 15 2023 14:13:51 GMT-0500 (Central Daylight Time)","519972","Untrustworthy,Trustworthy","","759","","","","rating","","trustrating_stim/white_00577_940928_fa_edt.bmp","1","","","","","","","","","","",""
"image-keyboard-response","122","90780","0.0-6.0-2.58","5fb3d39a2ceaab00087faddb","bdp_trlrn","Wed Mar 15 2023 14:13:51 GMT-0500 (Central Daylight Time)","519972","Untrustworthy,Trustworthy","","null","","","","ratingFB","","trustrating_stim/white_00577_940928_fa_edt.bmp","null","","","","","","","","","","",""
"image-keyboard-response","123","91660","0.0-6.0-1.59","5fb3d39a2ceaab00087faddb","bdp_trlrn","Wed Mar 15 2023 14:13:51 GMT-0500 (Central Daylight Time)","519972","Untrustworthy,Trustworthy","","765","","","","rating","","trustrating_stim/white_mw048.bmp","1","","","","","","","","","","",""
"image-keyboard-response","124","91861","0.0-6.0-2.59","5fb3d39a2ceaab00087faddb","bdp_trlrn","Wed Mar 15 2023 14:13:51 GMT-0500 (Central Daylight Time)","519972","Untrustworthy,Trustworthy","","null","","","","ratingFB","","trustrating_stim/white_mw048.bmp","null","","","","","","","","","","",""
"instructions","125","93178","0.0-7.0","5fb3d39a2ceaab00087faddb","bdp_trlrn","Wed Mar 15 2023 14:13:51 GMT-0500 (Central Daylight Time)","519972","Untrustworthy,Trustworthy","[{""page_index"":0,""viewing_time"":1214}]","1214","","","","","","","","","","","","","","","","","",""
"instructions","126","145395","0.0-8.0","5fb3d39a2ceaab00087faddb","bdp_trlrn","Wed Mar 15 2023 14:13:51 GMT-0500 (Central Daylight Time)","519972","Untrustworthy,Trustworthy","[{""page_index"":0,""viewing_time"":4764},{""page_index"":1,""viewing_time"":14204},{""page_index"":2,""viewing_time"":2376},{""page_index"":3,""viewing_time"":5312},{""page_index"":4,""viewing_time"":4195},{""page_index"":5,""viewing_time"":6399},{""page_index"":6,""viewing_time"":12993},{""page_index"":7,""viewing_time"":1859}]","52102","","","","","","","","","","","","","","","","","",""
"html-keyboard-response","127","150345","0.0-9.0","5fb3d39a2ceaab00087faddb","bdp_trlrn","Wed Mar 15 2023 14:13:51 GMT-0500 (Central Daylight Time)","519972","Untrustworthy,Trustworthy","","4947","","","","","","<div class='header' style='text-align:left; position: absolute; top: 5%; left: 5%;'><small>Task 3 of 5</small></div><div class='instruxDiv'><p><strong>1) What is the minimum number of points you can choose to send to your partner?</strong></p><p>a) 0</p><p>b) 1</p><p>c) 5</p>","C","","","","","","","","","","",""
"html-keyboard-response","128","154406","0.0-10.0","5fb3d39a2ceaab00087faddb","bdp_trlrn","Wed Mar 15 2023 14:13:51 GMT-0500 (Central Daylight Time)","519972","Untrustworthy,Trustworthy","","3959","","","","","","<div class='header' style='text-align:left; position: absolute; top: 5%; left: 5%;'><small>Task 3 of 5</small></div><div class='instruxDiv'><p><strong>1) What is the minimum number of points you can choose to send to your partner?</strong></p><p>a) 1</p><p>b) 1</p><p style='color:#FF0000'>c) 5</p><h3 style='color:#FF0000'>Incorrect!</h3><h3 class='center-content'>The correct response is b).</h3><h3 class='center-content'>The minimum number of points you can choose to send to your partner is 1 point.</h3><p><em>Press SPACEBAR to continue</em></p></div>"," ","","","","","","","","","","",""
"html-keyboard-response","129","159493","0.0-11.0","5fb3d39a2ceaab00087faddb","bdp_trlrn","Wed Mar 15 2023 14:13:51 GMT-0500 (Central Daylight Time)","519972","Untrustworthy,Trustworthy","","4985","","","","","","<div class='header' style='text-align:left; position: absolute; top: 5%; left: 5%;'><small>Task 3 of 5</small></div><div class='instruxDiv'><p><strong>2) What is the maximum number of points you can choose to send to your partner?</strong></p><p>a) 8</p><p>b) 5</p><p>c) 3</p>","C","","","","","","","","","","",""
"html-keyboard-response","130","162181","0.0-12.0","5fb3d39a2ceaab00087faddb","bdp_trlrn","Wed Mar 15 2023 14:13:51 GMT-0500 (Central Daylight Time)","519972","Untrustworthy,Trustworthy","","2585","","","","","","<div class='header' style='text-align:left; position: absolute; top: 5%; left: 5%;'><small>Task 3 of 5</small></div><div class='instruxDiv'><p><strong>2) What is the maximum number of points you can choose to send to your partner?</strong></p><p>a) 8</p><p>b) 5</p><p style='color:#FF0000'>c) 3</p><h3 style='color:#FF0000'>Incorrect!</h3><h3 class='center-content'>The correct response is b).</h3><h3 class='center-content'>The maximum number of points you can choose to send to your partner is 5 points.</h3><p><em>Press SPACEBAR to continue</em></p></div>"," ","","","","","","","","","","",""
"html-keyboard-response","131","165400","0.0-13.0","5fb3d39a2ceaab00087faddb","bdp_trlrn","Wed Mar 15 2023 14:13:51 GMT-0500 (Central Daylight Time)","519972","Untrustworthy,Trustworthy","","3118","","","","","","<div class='header' style='text-align:left; position: absolute; top: 5%; left: 5%;'><small>Task 3 of 5</small></div><div class='instruxDiv'><p><strong>3) What happens to the amount of points you send to your partner?</strong></p><p>a) Nothing</p><p>b) It doubles</p><p>c) It quadruples</p>","B","","","","","","","","","","",""
"html-keyboard-response","132","166925","0.0-14.0","5fb3d39a2ceaab00087faddb","bdp_trlrn","Wed Mar 15 2023 14:13:51 GMT-0500 (Central Daylight Time)","519972","Untrustworthy,Trustworthy","","1423","","","","","","<div class='header' style='text-align:left; position: absolute; top: 5%; left: 5%;'><small>Task 3 of 5</small></div><div class='instruxDiv'><p><strong>3) What happens to the amount of points you send to your partner?</strong></p><p>a) Nothing</p><p style='color:#FF0000'>b) It doubles</p><p>c) It quadruples</p><h3 style='color:#FF0000'>Incorrect!</h3><h3 class='center-content'>The correct response is c).</h3><h3 class='center-content'>The amount of points you send to your partner quadruples.</h3><p><em>Press SPACEBAR to continue</em></p></div>"," ","","","","","","","","","","",""
"html-keyboard-response","133","177502","0.0-15.0","5fb3d39a2ceaab00087faddb","bdp_trlrn","Wed Mar 15 2023 14:13:51 GMT-0500 (Central Daylight Time)","519972","Untrustworthy,Trustworthy","","10476","","","","","","<div class='header' style='text-align:left; position: absolute; top: 5%; left: 5%;'><small>Task 3 of 5</small></div><div class='instruxDiv'><p><strong>4) If you decided to share 4 out of 5 points with your partner, and they decided to share half of the amount they received with you, how many points would you receive back from them on this round?</strong></p><p>a) 16</p><p>b) 0</p><p>c) 8</p>","C","","","","","","","","","","",""
"html-keyboard-response","134","179629","0.0-16.0","5fb3d39a2ceaab00087faddb","bdp_trlrn","Wed Mar 15 2023 14:13:51 GMT-0500 (Central Daylight Time)","519972","Untrustworthy,Trustworthy","","2025","","","","","","<div class='header' style='text-align:left; position: absolute; top: 5%; left: 5%;'><small>Task 3 of 5</small></div><div class='instruxDiv'><p><strong>4) If you decided to share 4 out of 5 points with your partner, and they decided to share half of the amount they received with you, how many points would you receive back from them on this round?</strong></p><p>a) 16</p><p>b) 0</p><p style='color:#00FF00'>c) 8</p><h3 style='color:#00FF00'>Correct!</h3><h3 class='center-content'>The correct response is c).</h3><h3 class='center-content'>If you shared 4 out of 5 points with your partner and they decided to share half of the amount they received with you, you would receive 8 points back (i.e. (4 x 4)/2 = 8).</h3><p><em>Press SPACEBAR to continue</em></p></div>"," ","","","","","","","","","","",""
"html-keyboard-response","135","184732","0.0-17.0","5fb3d39a2ceaab00087faddb","bdp_trlrn","Wed Mar 15 2023 14:13:51 GMT-0500 (Central Daylight Time)","519972","Untrustworthy,Trustworthy","","null","","","","","","<div class='header' style='text-align:left; position: absolute; top: 5%; left: 5%;'><small>Task 3 of 5</small></div><div class='instruxDiv'><p>Thank you for completing the quiz<p>These are the actual partners you will be interacting with in the next block:<p><div class='tc' align='center'><img class='introPic' src='trustrating_stim/white_mw048.bmp'><br><strong>Nathan</strong></div><div class='bl' align='center'><img class='introPic' src='trustrating_stim/white_mw046.bmp'><br><strong>Sebastian</strong></div><div class='br' align='center'><img class='introPic' src='trustrating_stim/white_00129_931230_fb_edt.bmp'><br><strong>Marcus</strong></div></div><p>Across <strong>66 rounds</strong> you will interact with each partner <strong>22 times</strong> (in random order).<p style='align:center; color:white'><font <em>Press SPACEBAR to continue</em></p>","null","","","","","","","","","","",""
"instructions","136","189368","0.0-18.0","5fb3d39a2ceaab00087faddb","bdp_trlrn","Wed Mar 15 2023 14:13:51 GMT-0500 (Central Daylight Time)","519972","Untrustworthy,Trustworthy","[{""page_index"":0,""viewing_time"":2571},{""page_index"":1,""viewing_time"":2063}]","4635","","","","","","","","","","","","","","","","","",""
"html-keyboard-response","137","194193","0.0-19.0-1.0","5fb3d39a2ceaab00087faddb","bdp_trlrn","Wed Mar 15 2023 14:13:51 GMT-0500 (Central Daylight Time)","519972","Untrustworthy,Trustworthy","","4723","","","","decision","","<div class='trialDiv'><img src='trustrating_stim/white_00129_931230_fb_edt.bmp'><br><font class='baseline'><strong>Marcus</strong><p>Choose number of points to send.</font><div class='respPicDiv'><img src='img/responseButtonOffersNo0L.png' class='respPic'></div></div>","5","1","Marcus","11","Shared","0.65,0.2","8","0.65","trustrating_stim/white_00129_931230_fb_edt.bmp","3","5","1"
"html-keyboard-response","138","194456","0.0-19.0-2.0","5fb3d39a2ceaab00087faddb","bdp_trlrn","Wed Mar 15 2023 14:13:51 GMT-0500 (Central Daylight Time)","519972","Untrustworthy,Trustworthy","","null","","","","decisionFB","","<div class='trialDiv'><img src='trustrating_stim/white_00129_931230_fb_edt.bmp'><br><font class='baseline'><strong>Marcus</strong><p>Choose number of points to send.</font><div class='respPicDiv'><img src='img/responseButtonOffersNo0L5.png' class='respPic'></div></div>","null","1","Marcus","11","Shared","0.65,0.2","8","0.65","trustrating_stim/white_00129_931230_fb_edt.bmp","3","0","1"
"html-keyboard-response","139","195458","0.0-19.0-3.0","5fb3d39a2ceaab00087faddb","bdp_trlrn","Wed Mar 15 2023 14:13:51 GMT-0500 (Central Daylight Time)","519972","Untrustworthy,Trustworthy","","null","","","","feedback","","<div class='trialDiv'><img src='trustrating_stim/white_00129_931230_fb_edt.bmp'><br><font class='baseline'><strong>Marcus</strong><p>Received: <strong>20</strong></font> &nbsp; &nbsp; &nbsp; &nbsp; &nbsp; &nbsp;<font class='posOutcome'>Shared back: <strong>10</strong></font></font><div class='respPicDiv'><img src='img/responseButtonOffersNo0_wht.png' class='respPic'></div></div>","null","1","Marcus","11","Shared","0.65,0.2","8","0.65","trustrating_stim/white_00129_931230_fb_edt.bmp","3","10","1"
"html-keyboard-response","140","197106","0.0-19.0-1.1","5fb3d39a2ceaab00087faddb","bdp_trlrn","Wed Mar 15 2023 14:13:51 GMT-0500 (Central Daylight Time)","519972","Untrustworthy,Trustworthy","","1647","","","","decision","","<div class='trialDiv'><img src='trustrating_stim/white_mw048.bmp'><br><font class='baseline'><strong>Nathan</strong><p>Choose number of points to send.</font><div class='respPicDiv'><img src='img/responseButtonOffersNo0L.png' class='respPic'></div></div>","2","1","Nathan","3","Kept","0.2,0.8","8","0.2","trustrating_stim/white_mw048.bmp","1","15","2"
"html-keyboard-response","141","197357","0.0-19.0-2.1","5fb3d39a2ceaab00087faddb","bdp_trlrn","Wed Mar 15 2023 14:13:51 GMT-0500 (Central Daylight Time)","519972","Untrustworthy,Trustworthy","","null","","","","decisionFB","","<div class='trialDiv'><img src='trustrating_stim/white_mw048.bmp'><br><font class='baseline'><strong>Nathan</strong><p>Choose number of points to send.</font><div class='respPicDiv'><img src='img/responseButtonOffersNo0L2.png' class='respPic'></div></div>","null","1","Nathan","3","Kept","0.2,0.8","8","0.2","trustrating_stim/white_mw048.bmp","1","13","2"
"html-keyboard-response","142","198360","0.0-19.0-3.1","5fb3d39a2ceaab00087faddb","bdp_trlrn","Wed Mar 15 2023 14:13:51 GMT-0500 (Central Daylight Time)","519972","Untrustworthy,Trustworthy","","null","","","","feedback","","<div class='trialDiv'><img src='trustrating_stim/white_mw048.bmp'><br><font class='baseline'><strong>Nathan</strong><p>Received: <strong>8</strong></font> &nbsp; &nbsp; &nbsp; &nbsp; &nbsp; &nbsp;<font class='negOutcome'>Shared back: <strong>0</strong></font></font><div class='respPicDiv'><img src='img/responseButtonOffersNo0_wht.png' class='respPic'></div></div>","null","1","Nathan","3","Kept","0.2,0.8","8","0.2","trustrating_stim/white_mw048.bmp","1","13","2"
"html-keyboard-response","143","199584","0.0-19.0-1.2","5fb3d39a2ceaab00087faddb","bdp_trlrn","Wed Mar 15 2023 14:13:51 GMT-0500 (Central Daylight Time)","519972","Untrustworthy,Trustworthy","","1222","","","","decision","","<div class='trialDiv'><img src='trustrating_stim/white_mw046.bmp'><br><font class='baseline'><strong>Sebastian</strong><p>Choose number of points to send.</font><div class='respPicDiv'><img src='img/responseButtonOffersNo0L.png' class='respPic'></div></div>","1","1","Sebastian","5","Kept","0.2,0.65","14","0.2","trustrating_stim/white_mw046.bmp","1","18","3"
"html-keyboard-response","144","199835","0.0-19.0-2.2","5fb3d39a2ceaab00087faddb","bdp_trlrn","Wed Mar 15 2023 14:13:51 GMT-0500 (Central Daylight Time)","519972","Untrustworthy,Trustworthy","","null","","","","decisionFB","","<div class='trialDiv'><img src='trustrating_stim/white_mw046.bmp'><br><font class='baseline'><strong>Sebastian</strong><p>Choose number of points to send.</font><div class='respPicDiv'><img src='img/responseButtonOffersNo0L1.png' class='respPic'></div></div>","null","1","Sebastian","5","Kept","0.2,0.65","14","0.2","trustrating_stim/white_mw046.bmp","1","17","3"
"html-keyboard-response","145","200836","0.0-19.0-3.2","5fb3d39a2ceaab00087faddb","bdp_trlrn","Wed Mar 15 2023 14:13:51 GMT-0500 (Central Daylight Time)","519972","Untrustworthy,Trustworthy","","null","","","","feedback","","<div class='trialDiv'><img src='trustrating_stim/white_mw046.bmp'><br><font class='baseline'><strong>Sebastian</strong><p>Received: <strong>4</strong></font> &nbsp; &nbsp; &nbsp; &nbsp; &nbsp; &nbsp;<font class='negOutcome'>Shared back: <strong>0</strong></font></font><div class='respPicDiv'><img src='img/responseButtonOffersNo0_wht.png' class='respPic'></div></div>","null","1","Sebastian","5","Kept","0.2,0.65","14","0.2","trustrating_stim/white_mw046.bmp","1","17","3"
"html-keyboard-response","146","201850","0.0-19.0-1.3","5fb3d39a2ceaab00087faddb","bdp_trlrn","Wed Mar 15 2023 14:13:51 GMT-0500 (Central Daylight Time)","519972","Untrustworthy,Trustworthy","","1014","","","","decision","","<div class='trialDiv'><img src='trustrating_stim/white_mw048.bmp'><br><font class='baseline'><strong>Nathan</strong><p>Choose number of points to send.</font><div class='respPicDiv'><img src='img/responseButtonOffersNo0L.png' class='respPic'></div></div>","2","2","Nathan","3","Kept","0.2,0.8","8","0.2","trustrating_stim/white_mw048.bmp","1","22","4"
"html-keyboard-response","147","202112","0.0-19.0-2.3","5fb3d39a2ceaab00087faddb","bdp_trlrn","Wed Mar 15 2023 14:13:51 GMT-0500 (Central Daylight Time)","519972","Untrustworthy,Trustworthy","","null","","","","decisionFB","","<div class='trialDiv'><img src='trustrating_stim/white_mw048.bmp'><br><font class='baseline'><strong>Nathan</strong><p>Choose number of points to send.</font><div class='respPicDiv'><img src='img/responseButtonOffersNo0L2.png' class='respPic'></div></div>","null","2","Nathan","3","Kept","0.2,0.8","8","0.2","trustrating_stim/white_mw048.bmp","1","20","4"
"html-keyboard-response","148","203117","0.0-19.0-3.3","5fb3d39a2ceaab00087faddb","bdp_trlrn","Wed Mar 15 2023 14:13:51 GMT-0500 (Central Daylight Time)","519972","Untrustworthy,Trustworthy","","null","","","","feedback","","<div class='trialDiv'><img src='trustrating_stim/white_mw048.bmp'><br><font class='baseline'><strong>Nathan</strong><p>Received: <strong>8</strong></font> &nbsp; &nbsp; &nbsp; &nbsp; &nbsp; &nbsp;<font class='negOutcome'>Shared back: <strong>0</strong></font></font><div class='respPicDiv'><img src='img/responseButtonOffersNo0_wht.png' class='respPic'></div></div>","null","2","Nathan","3","Kept","0.2,0.8","8","0.2","trustrating_stim/white_mw048.bmp","1","20","4"
"html-keyboard-response","149","206033","0.0-19.0-1.4","5fb3d39a2ceaab00087faddb","bdp_trlrn","Wed Mar 15 2023 14:13:51 GMT-0500 (Central Daylight Time)","519972","Untrustworthy,Trustworthy","","2915","","","","decision","","<div class='trialDiv'><img src='trustrating_stim/white_00129_931230_fb_edt.bmp'><br><font class='baseline'><strong>Marcus</strong><p>Choose number of points to send.</font><div class='respPicDiv'><img src='img/responseButtonOffersNo0L.png' class='respPic'></div></div>","5","2","Marcus","11","Kept","0.65,0.2","8","0.65","trustrating_stim/white_00129_931230_fb_edt.bmp","3","25","5"
"html-keyboard-response","150","206285","0.0-19.0-2.4","5fb3d39a2ceaab00087faddb","bdp_trlrn","Wed Mar 15 2023 14:13:51 GMT-0500 (Central Daylight Time)","519972","Untrustworthy,Trustworthy","","null","","","","decisionFB","","<div class='trialDiv'><img src='trustrating_stim/white_00129_931230_fb_edt.bmp'><br><font class='baseline'><strong>Marcus</strong><p>Choose number of points to send.</font><div class='respPicDiv'><img src='img/responseButtonOffersNo0L5.png' class='respPic'></div></div>","null","2","Marcus","11","Kept","0.65,0.2","8","0.65","trustrating_stim/white_00129_931230_fb_edt.bmp","3","20","5"
"html-keyboard-response","151","207288","0.0-19.0-3.4","5fb3d39a2ceaab00087faddb","bdp_trlrn","Wed Mar 15 2023 14:13:51 GMT-0500 (Central Daylight Time)","519972","Untrustworthy,Trustworthy","","null","","","","feedback","","<div class='trialDiv'><img src='trustrating_stim/white_00129_931230_fb_edt.bmp'><br><font class='baseline'><strong>Marcus</strong><p>Received: <strong>20</strong></font> &nbsp; &nbsp; &nbsp; &nbsp; &nbsp; &nbsp;<font class='negOutcome'>Shared back: <strong>0</strong></font></font><div class='respPicDiv'><img src='img/responseButtonOffersNo0_wht.png' class='respPic'></div></div>","null","2","Marcus","11","Kept","0.65,0.2","8","0.65","trustrating_stim/white_00129_931230_fb_edt.bmp","3","20","5"
"html-keyboard-response","152","208574","0.0-19.0-1.5","5fb3d39a2ceaab00087faddb","bdp_trlrn","Wed Mar 15 2023 14:13:51 GMT-0500 (Central Daylight Time)","519972","Untrustworthy,Trustworthy","","1285","","","","decision","","<div class='trialDiv'><img src='trustrating_stim/white_mw046.bmp'><br><font class='baseline'><strong>Sebastian</strong><p>Choose number of points to send.</font><div class='respPicDiv'><img src='img/responseButtonOffersNo0L.png' class='respPic'></div></div>","2","2","Sebastian","5","Kept","0.2,0.65","14","0.2","trustrating_stim/white_mw046.bmp","1","25","6"
"html-keyboard-response","153","208826","0.0-19.0-2.5","5fb3d39a2ceaab00087faddb","bdp_trlrn","Wed Mar 15 2023 14:13:51 GMT-0500 (Central Daylight Time)","519972","Untrustworthy,Trustworthy","","null","","","","decisionFB","","<div class='trialDiv'><img src='trustrating_stim/white_mw046.bmp'><br><font class='baseline'><strong>Sebastian</strong><p>Choose number of points to send.</font><div class='respPicDiv'><img src='img/responseButtonOffersNo0L2.png' class='respPic'></div></div>","null","2","Sebastian","5","Kept","0.2,0.65","14","0.2","trustrating_stim/white_mw046.bmp","1","23","6"
"html-keyboard-response","154","209827","0.0-19.0-3.5","5fb3d39a2ceaab00087faddb","bdp_trlrn","Wed Mar 15 2023 14:13:51 GMT-0500 (Central Daylight Time)","519972","Untrustworthy,Trustworthy","","null","","","","feedback","","<div class='trialDiv'><img src='trustrating_stim/white_mw046.bmp'><br><font class='baseline'><strong>Sebastian</strong><p>Received: <strong>8</strong></font> &nbsp; &nbsp; &nbsp; &nbsp; &nbsp; &nbsp;<font class='negOutcome'>Shared back: <strong>0</strong></font></font><div class='respPicDiv'><img src='img/responseButtonOffersNo0_wht.png' class='respPic'></div></div>","null","2","Sebastian","5","Kept","0.2,0.65","14","0.2","trustrating_stim/white_mw046.bmp","1","23","6"
"html-keyboard-response","155","211553","0.0-19.0-1.6","5fb3d39a2ceaab00087faddb","bdp_trlrn","Wed Mar 15 2023 14:13:51 GMT-0500 (Central Daylight Time)","519972","Untrustworthy,Trustworthy","","1725","","","","decision","","<div class='trialDiv'><img src='trustrating_stim/white_00129_931230_fb_edt.bmp'><br><font class='baseline'><strong>Marcus</strong><p>Choose number of points to send.</font><div class='respPicDiv'><img src='img/responseButtonOffersNo0L.png' class='respPic'></div></div>","5","3","Marcus","11","Kept","0.65,0.2","8","0.65","trustrating_stim/white_00129_931230_fb_edt.bmp","3","28","7"
"html-keyboard-response","156","211805","0.0-19.0-2.6","5fb3d39a2ceaab00087faddb","bdp_trlrn","Wed Mar 15 2023 14:13:51 GMT-0500 (Central Daylight Time)","519972","Untrustworthy,Trustworthy","","null","","","","decisionFB","","<div class='trialDiv'><img src='trustrating_stim/white_00129_931230_fb_edt.bmp'><br><font class='baseline'><strong>Marcus</strong><p>Choose number of points to send.</font><div class='respPicDiv'><img src='img/responseButtonOffersNo0L5.png' class='respPic'></div></div>","null","3","Marcus","11","Kept","0.65,0.2","8","0.65","trustrating_stim/white_00129_931230_fb_edt.bmp","3","23","7"
"html-keyboard-response","157","212806","0.0-19.0-3.6","5fb3d39a2ceaab00087faddb","bdp_trlrn","Wed Mar 15 2023 14:13:51 GMT-0500 (Central Daylight Time)","519972","Untrustworthy,Trustworthy","","null","","","","feedback","","<div class='trialDiv'><img src='trustrating_stim/white_00129_931230_fb_edt.bmp'><br><font class='baseline'><strong>Marcus</strong><p>Received: <strong>20</strong></font> &nbsp; &nbsp; &nbsp; &nbsp; &nbsp; &nbsp;<font class='negOutcome'>Shared back: <strong>0</strong></font></font><div class='respPicDiv'><img src='img/responseButtonOffersNo0_wht.png' class='respPic'></div></div>","null","3","Marcus","11","Kept","0.65,0.2","8","0.65","trustrating_stim/white_00129_931230_fb_edt.bmp","3","23","7"
"html-keyboard-response","158","213725","0.0-19.0-1.7","5fb3d39a2ceaab00087faddb","bdp_trlrn","Wed Mar 15 2023 14:13:51 GMT-0500 (Central Daylight Time)","519972","Untrustworthy,Trustworthy","","918","","","","decision","","<div class='trialDiv'><img src='trustrating_stim/white_mw046.bmp'><br><font class='baseline'><strong>Sebastian</strong><p>Choose number of points to send.</font><div class='respPicDiv'><img src='img/responseButtonOffersNo0L.png' class='respPic'></div></div>","1","3","Sebastian","5","Shared","0.2,0.65","14","0.2","trustrating_stim/white_mw046.bmp","1","28","8"
"html-keyboard-response","159","213977","0.0-19.0-2.7","5fb3d39a2ceaab00087faddb","bdp_trlrn","Wed Mar 15 2023 14:13:51 GMT-0500 (Central Daylight Time)","519972","Untrustworthy,Trustworthy","","null","","","","decisionFB","","<div class='trialDiv'><img src='trustrating_stim/white_mw046.bmp'><br><font class='baseline'><strong>Sebastian</strong><p>Choose number of points to send.</font><div class='respPicDiv'><img src='img/responseButtonOffersNo0L1.png' class='respPic'></div></div>","null","3","Sebastian","5","Shared","0.2,0.65","14","0.2","trustrating_stim/white_mw046.bmp","1","27","8"
"html-keyboard-response","160","214979","0.0-19.0-3.7","5fb3d39a2ceaab00087faddb","bdp_trlrn","Wed Mar 15 2023 14:13:51 GMT-0500 (Central Daylight Time)","519972","Untrustworthy,Trustworthy","","null","","","","feedback","","<div class='trialDiv'><img src='trustrating_stim/white_mw046.bmp'><br><font class='baseline'><strong>Sebastian</strong><p>Received: <strong>4</strong></font> &nbsp; &nbsp; &nbsp; &nbsp; &nbsp; &nbsp;<font class='posOutcome'>Shared back: <strong>2</strong></font></font><div class='respPicDiv'><img src='img/responseButtonOffersNo0_wht.png' class='respPic'></div></div>","null","3","Sebastian","5","Shared","0.2,0.65","14","0.2","trustrating_stim/white_mw046.bmp","1","29","8"
"html-keyboard-response","161","216003","0.0-19.0-1.8","5fb3d39a2ceaab00087faddb","bdp_trlrn","Wed Mar 15 2023 14:13:51 GMT-0500 (Central Daylight Time)","519972","Untrustworthy,Trustworthy","","1019","","","","decision","","<div class='trialDiv'><img src='trustrating_stim/white_mw048.bmp'><br><font class='baseline'><strong>Nathan</strong><p>Choose number of points to send.</font><div class='respPicDiv'><img src='img/responseButtonOffersNo0L.png' class='respPic'></div></div>","1","3","Nathan","3","Kept","0.2,0.8","8","0.2","trustrating_stim/white_mw048.bmp","1","34","9"
"html-keyboard-response","162","216268","0.0-19.0-2.8","5fb3d39a2ceaab00087faddb","bdp_trlrn","Wed Mar 15 2023 14:13:51 GMT-0500 (Central Daylight Time)","519972","Untrustworthy,Trustworthy","","null","","","","decisionFB","","<div class='trialDiv'><img src='trustrating_stim/white_mw048.bmp'><br><font class='baseline'><strong>Nathan</strong><p>Choose number of points to send.</font><div class='respPicDiv'><img src='img/responseButtonOffersNo0L1.png' class='respPic'></div></div>","null","3","Nathan","3","Kept","0.2,0.8","8","0.2","trustrating_stim/white_mw048.bmp","1","33","9"
"html-keyboard-response","163","217270","0.0-19.0-3.8","5fb3d39a2ceaab00087faddb","bdp_trlrn","Wed Mar 15 2023 14:13:51 GMT-0500 (Central Daylight Time)","519972","Untrustworthy,Trustworthy","","null","","","","feedback","","<div class='trialDiv'><img src='trustrating_stim/white_mw048.bmp'><br><font class='baseline'><strong>Nathan</strong><p>Received: <strong>4</strong></font> &nbsp; &nbsp; &nbsp; &nbsp; &nbsp; &nbsp;<font class='negOutcome'>Shared back: <strong>0</strong></font></font><div class='respPicDiv'><img src='img/responseButtonOffersNo0_wht.png' class='respPic'></div></div>","null","3","Nathan","3","Kept","0.2,0.8","8","0.2","trustrating_stim/white_mw048.bmp","1","33","9"
"html-keyboard-response","164","218118","0.0-19.0-1.9","5fb3d39a2ceaab00087faddb","bdp_trlrn","Wed Mar 15 2023 14:13:51 GMT-0500 (Central Daylight Time)","519972","Untrustworthy,Trustworthy","","847","","","","decision","","<div class='trialDiv'><img src='trustrating_stim/white_mw046.bmp'><br><font class='baseline'><strong>Sebastian</strong><p>Choose number of points to send.</font><div class='respPicDiv'><img src='img/responseButtonOffersNo0L.png' class='respPic'></div></div>","1","4","Sebastian","5","Kept","0.2,0.65","14","0.2","trustrating_stim/white_mw046.bmp","1","38","10"
"html-keyboard-response","165","218370","0.0-19.0-2.9","5fb3d39a2ceaab00087faddb","bdp_trlrn","Wed Mar 15 2023 14:13:51 GMT-0500 (Central Daylight Time)","519972","Untrustworthy,Trustworthy","","null","","","","decisionFB","","<div class='trialDiv'><img src='trustrating_stim/white_mw046.bmp'><br><font class='baseline'><strong>Sebastian</strong><p>Choose number of points to send.</font><div class='respPicDiv'><img src='img/responseButtonOffersNo0L1.png' class='respPic'></div></div>","null","4","Sebastian","5","Kept","0.2,0.65","14","0.2","trustrating_stim/white_mw046.bmp","1","37","10"
"html-keyboard-response","166","219371","0.0-19.0-3.9","5fb3d39a2ceaab00087faddb","bdp_trlrn","Wed Mar 15 2023 14:13:51 GMT-0500 (Central Daylight Time)","519972","Untrustworthy,Trustworthy","","null","","","","feedback","","<div class='trialDiv'><img src='trustrating_stim/white_mw046.bmp'><br><font class='baseline'><strong>Sebastian</strong><p>Received: <strong>4</strong></font> &nbsp; &nbsp; &nbsp; &nbsp; &nbsp; &nbsp;<font class='negOutcome'>Shared back: <strong>0</strong></font></font><div class='respPicDiv'><img src='img/responseButtonOffersNo0_wht.png' class='respPic'></div></div>","null","4","Sebastian","5","Kept","0.2,0.65","14","0.2","trustrating_stim/white_mw046.bmp","1","37","10"
"html-keyboard-response","167","219978","0.0-19.0-1.10","5fb3d39a2ceaab00087faddb","bdp_trlrn","Wed Mar 15 2023 14:13:51 GMT-0500 (Central Daylight Time)","519972","Untrustworthy,Trustworthy","","606","","","","decision","","<div class='trialDiv'><img src='trustrating_stim/white_mw048.bmp'><br><font class='baseline'><strong>Nathan</strong><p>Choose number of points to send.</font><div class='respPicDiv'><img src='img/responseButtonOffersNo0L.png' class='respPic'></div></div>","1","4","Nathan","3","Kept","0.2,0.8","8","0.2","trustrating_stim/white_mw048.bmp","1","42","11"
"html-keyboard-response","168","220231","0.0-19.0-2.10","5fb3d39a2ceaab00087faddb","bdp_trlrn","Wed Mar 15 2023 14:13:51 GMT-0500 (Central Daylight Time)","519972","Untrustworthy,Trustworthy","","null","","","","decisionFB","","<div class='trialDiv'><img src='trustrating_stim/white_mw048.bmp'><br><font class='baseline'><strong>Nathan</strong><p>Choose number of points to send.</font><div class='respPicDiv'><img src='img/responseButtonOffersNo0L1.png' class='respPic'></div></div>","null","4","Nathan","3","Kept","0.2,0.8","8","0.2","trustrating_stim/white_mw048.bmp","1","41","11"
"html-keyboard-response","169","221234","0.0-19.0-3.10","5fb3d39a2ceaab00087faddb","bdp_trlrn","Wed Mar 15 2023 14:13:51 GMT-0500 (Central Daylight Time)","519972","Untrustworthy,Trustworthy","","null","","","","feedback","","<div class='trialDiv'><img src='trustrating_stim/white_mw048.bmp'><br><font class='baseline'><strong>Nathan</strong><p>Received: <strong>4</strong></font> &nbsp; &nbsp; &nbsp; &nbsp; &nbsp; &nbsp;<font class='negOutcome'>Shared back: <strong>0</strong></font></font><div class='respPicDiv'><img src='img/responseButtonOffersNo0_wht.png' class='respPic'></div></div>","null","4","Nathan","3","Kept","0.2,0.8","8","0.2","trustrating_stim/white_mw048.bmp","1","41","11"
"html-keyboard-response","170","223576","0.0-19.0-1.11","5fb3d39a2ceaab00087faddb","bdp_trlrn","Wed Mar 15 2023 14:13:51 GMT-0500 (Central Daylight Time)","519972","Untrustworthy,Trustworthy","","2340","","","","decision","","<div class='trialDiv'><img src='trustrating_stim/white_00129_931230_fb_edt.bmp'><br><font class='baseline'><strong>Marcus</strong><p>Choose number of points to send.</font><div class='respPicDiv'><img src='img/responseButtonOffersNo0L.png' class='respPic'></div></div>","3","4","Marcus","11","Shared","0.65,0.2","8","0.65","trustrating_stim/white_00129_931230_fb_edt.bmp","3","46","12"
"html-keyboard-response","171","223830","0.0-19.0-2.11","5fb3d39a2ceaab00087faddb","bdp_trlrn","Wed Mar 15 2023 14:13:51 GMT-0500 (Central Daylight Time)","519972","Untrustworthy,Trustworthy","","null","","","","decisionFB","","<div class='trialDiv'><img src='trustrating_stim/white_00129_931230_fb_edt.bmp'><br><font class='baseline'><strong>Marcus</strong><p>Choose number of points to send.</font><div class='respPicDiv'><img src='img/responseButtonOffersNo0L3.png' class='respPic'></div></div>","null","4","Marcus","11","Shared","0.65,0.2","8","0.65","trustrating_stim/white_00129_931230_fb_edt.bmp","3","43","12"
"html-keyboard-response","172","224831","0.0-19.0-3.11","5fb3d39a2ceaab00087faddb","bdp_trlrn","Wed Mar 15 2023 14:13:51 GMT-0500 (Central Daylight Time)","519972","Untrustworthy,Trustworthy","","null","","","","feedback","","<div class='trialDiv'><img src='trustrating_stim/white_00129_931230_fb_edt.bmp'><br><font class='baseline'><strong>Marcus</strong><p>Received: <strong>12</strong></font> &nbsp; &nbsp; &nbsp; &nbsp; &nbsp; &nbsp;<font class='posOutcome'>Shared back: <strong>6</strong></font></font><div class='respPicDiv'><img src='img/responseButtonOffersNo0_wht.png' class='respPic'></div></div>","null","4","Marcus","11","Shared","0.65,0.2","8","0.65","trustrating_stim/white_00129_931230_fb_edt.bmp","3","49","12"
"html-keyboard-response","173","225860","0.0-19.0-1.12","5fb3d39a2ceaab00087faddb","bdp_trlrn","Wed Mar 15 2023 14:13:51 GMT-0500 (Central Daylight Time)","519972","Untrustworthy,Trustworthy","","1029","","","","decision","","<div class='trialDiv'><img src='trustrating_stim/white_mw046.bmp'><br><font class='baseline'><strong>Sebastian</strong><p>Choose number of points to send.</font><div class='respPicDiv'><img src='img/responseButtonOffersNo0L.png' class='respPic'></div></div>","2","5","Sebastian","5","Shared","0.2,0.65","14","0.2","trustrating_stim/white_mw046.bmp","1","54","13"
"html-keyboard-response","174","226112","0.0-19.0-2.12","5fb3d39a2ceaab00087faddb","bdp_trlrn","Wed Mar 15 2023 14:13:51 GMT-0500 (Central Daylight Time)","519972","Untrustworthy,Trustworthy","","null","","","","decisionFB","","<div class='trialDiv'><img src='trustrating_stim/white_mw046.bmp'><br><font class='baseline'><strong>Sebastian</strong><p>Choose number of points to send.</font><div class='respPicDiv'><img src='img/responseButtonOffersNo0L2.png' class='respPic'></div></div>","null","5","Sebastian","5","Shared","0.2,0.65","14","0.2","trustrating_stim/white_mw046.bmp","1","52","13"
"html-keyboard-response","175","227115","0.0-19.0-3.12","5fb3d39a2ceaab00087faddb","bdp_trlrn","Wed Mar 15 2023 14:13:51 GMT-0500 (Central Daylight Time)","519972","Untrustworthy,Trustworthy","","null","","","","feedback","","<div class='trialDiv'><img src='trustrating_stim/white_mw046.bmp'><br><font class='baseline'><strong>Sebastian</strong><p>Received: <strong>8</strong></font> &nbsp; &nbsp; &nbsp; &nbsp; &nbsp; &nbsp;<font class='posOutcome'>Shared back: <strong>4</strong></font></font><div class='respPicDiv'><img src='img/responseButtonOffersNo0_wht.png' class='respPic'></div></div>","null","5","Sebastian","5","Shared","0.2,0.65","14","0.2","trustrating_stim/white_mw046.bmp","1","56","13"
"html-keyboard-response","176","228021","0.0-19.0-1.13","5fb3d39a2ceaab00087faddb","bdp_trlrn","Wed Mar 15 2023 14:13:51 GMT-0500 (Central Daylight Time)","519972","Untrustworthy,Trustworthy","","904","","","","decision","","<div class='trialDiv'><img src='trustrating_stim/white_mw048.bmp'><br><font class='baseline'><strong>Nathan</strong><p>Choose number of points to send.</font><div class='respPicDiv'><img src='img/responseButtonOffersNo0L.png' class='respPic'></div></div>","1","5","Nathan","3","Kept","0.2,0.8","8","0.2","trustrating_stim/white_mw048.bmp","1","61","14"
"html-keyboard-response","177","228273","0.0-19.0-2.13","5fb3d39a2ceaab00087faddb","bdp_trlrn","Wed Mar 15 2023 14:13:51 GMT-0500 (Central Daylight Time)","519972","Untrustworthy,Trustworthy","","null","","","","decisionFB","","<div class='trialDiv'><img src='trustrating_stim/white_mw048.bmp'><br><font class='baseline'><strong>Nathan</strong><p>Choose number of points to send.</font><div class='respPicDiv'><img src='img/responseButtonOffersNo0L1.png' class='respPic'></div></div>","null","5","Nathan","3","Kept","0.2,0.8","8","0.2","trustrating_stim/white_mw048.bmp","1","60","14"
"html-keyboard-response","178","229275","0.0-19.0-3.13","5fb3d39a2ceaab00087faddb","bdp_trlrn","Wed Mar 15 2023 14:13:51 GMT-0500 (Central Daylight Time)","519972","Untrustworthy,Trustworthy","","null","","","","feedback","","<div class='trialDiv'><img src='trustrating_stim/white_mw048.bmp'><br><font class='baseline'><strong>Nathan</strong><p>Received: <strong>4</strong></font> &nbsp; &nbsp; &nbsp; &nbsp; &nbsp; &nbsp;<font class='negOutcome'>Shared back: <strong>0</strong></font></font><div class='respPicDiv'><img src='img/responseButtonOffersNo0_wht.png' class='respPic'></div></div>","null","5","Nathan","3","Kept","0.2,0.8","8","0.2","trustrating_stim/white_mw048.bmp","1","60","14"
"html-keyboard-response","179","231122","0.0-19.0-1.14","5fb3d39a2ceaab00087faddb","bdp_trlrn","Wed Mar 15 2023 14:13:51 GMT-0500 (Central Daylight Time)","519972","Untrustworthy,Trustworthy","","1846","","","","decision","","<div class='trialDiv'><img src='trustrating_stim/white_00129_931230_fb_edt.bmp'><br><font class='baseline'><strong>Marcus</strong><p>Choose number of points to send.</font><div class='respPicDiv'><img src='img/responseButtonOffersNo0L.png' class='respPic'></div></div>","5","5","Marcus","11","Shared","0.65,0.2","8","0.65","trustrating_stim/white_00129_931230_fb_edt.bmp","3","65","15"
"html-keyboard-response","180","231375","0.0-19.0-2.14","5fb3d39a2ceaab00087faddb","bdp_trlrn","Wed Mar 15 2023 14:13:51 GMT-0500 (Central Daylight Time)","519972","Untrustworthy,Trustworthy","","null","","","","decisionFB","","<div class='trialDiv'><img src='trustrating_stim/white_00129_931230_fb_edt.bmp'><br><font class='baseline'><strong>Marcus</strong><p>Choose number of points to send.</font><div class='respPicDiv'><img src='img/responseButtonOffersNo0L5.png' class='respPic'></div></div>","null","5","Marcus","11","Shared","0.65,0.2","8","0.65","trustrating_stim/white_00129_931230_fb_edt.bmp","3","60","15"
"html-keyboard-response","181","232376","0.0-19.0-3.14","5fb3d39a2ceaab00087faddb","bdp_trlrn","Wed Mar 15 2023 14:13:51 GMT-0500 (Central Daylight Time)","519972","Untrustworthy,Trustworthy","","null","","","","feedback","","<div class='trialDiv'><img src='trustrating_stim/white_00129_931230_fb_edt.bmp'><br><font class='baseline'><strong>Marcus</strong><p>Received: <strong>20</strong></font> &nbsp; &nbsp; &nbsp; &nbsp; &nbsp; &nbsp;<font class='posOutcome'>Shared back: <strong>10</strong></font></font><div class='respPicDiv'><img src='img/responseButtonOffersNo0_wht.png' class='respPic'></div></div>","null","5","Marcus","11","Shared","0.65,0.2","8","0.65","trustrating_stim/white_00129_931230_fb_edt.bmp","3","70","15"
"html-keyboard-response","182","233621","0.0-19.0-1.15","5fb3d39a2ceaab00087faddb","bdp_trlrn","Wed Mar 15 2023 14:13:51 GMT-0500 (Central Daylight Time)","519972","Untrustworthy,Trustworthy","","1244","","","","decision","","<div class='trialDiv'><img src='trustrating_stim/white_mw048.bmp'><br><font class='baseline'><strong>Nathan</strong><p>Choose number of points to send.</font><div class='respPicDiv'><img src='img/responseButtonOffersNo0L.png' class='respPic'></div></div>","1","6","Nathan","3","Kept","0.2,0.8","8","0.2","trustrating_stim/white_mw048.bmp","1","75","16"
"html-keyboard-response","183","233873","0.0-19.0-2.15","5fb3d39a2ceaab00087faddb","bdp_trlrn","Wed Mar 15 2023 14:13:51 GMT-0500 (Central Daylight Time)","519972","Untrustworthy,Trustworthy","","null","","","","decisionFB","","<div class='trialDiv'><img src='trustrating_stim/white_mw048.bmp'><br><font class='baseline'><strong>Nathan</strong><p>Choose number of points to send.</font><div class='respPicDiv'><img src='img/responseButtonOffersNo0L1.png' class='respPic'></div></div>","null","6","Nathan","3","Kept","0.2,0.8","8","0.2","trustrating_stim/white_mw048.bmp","1","74","16"
"html-keyboard-response","184","234876","0.0-19.0-3.15","5fb3d39a2ceaab00087faddb","bdp_trlrn","Wed Mar 15 2023 14:13:51 GMT-0500 (Central Daylight Time)","519972","Untrustworthy,Trustworthy","","null","","","","feedback","","<div class='trialDiv'><img src='trustrating_stim/white_mw048.bmp'><br><font class='baseline'><strong>Nathan</strong><p>Received: <strong>4</strong></font> &nbsp; &nbsp; &nbsp; &nbsp; &nbsp; &nbsp;<font class='negOutcome'>Shared back: <strong>0</strong></font></font><div class='respPicDiv'><img src='img/responseButtonOffersNo0_wht.png' class='respPic'></div></div>","null","6","Nathan","3","Kept","0.2,0.8","8","0.2","trustrating_stim/white_mw048.bmp","1","74","16"
"html-keyboard-response","185","236036","0.0-19.0-1.16","5fb3d39a2ceaab00087faddb","bdp_trlrn","Wed Mar 15 2023 14:13:51 GMT-0500 (Central Daylight Time)","519972","Untrustworthy,Trustworthy","","1159","","","","decision","","<div class='trialDiv'><img src='trustrating_stim/white_mw046.bmp'><br><font class='baseline'><strong>Sebastian</strong><p>Choose number of points to send.</font><div class='respPicDiv'><img src='img/responseButtonOffersNo0L.png' class='respPic'></div></div>","4","6","Sebastian","5","Kept","0.2,0.65","14","0.2","trustrating_stim/white_mw046.bmp","1","79","17"
"html-keyboard-response","186","236287","0.0-19.0-2.16","5fb3d39a2ceaab00087faddb","bdp_trlrn","Wed Mar 15 2023 14:13:51 GMT-0500 (Central Daylight Time)","519972","Untrustworthy,Trustworthy","","null","","","","decisionFB","","<div class='trialDiv'><img src='trustrating_stim/white_mw046.bmp'><br><font class='baseline'><strong>Sebastian</strong><p>Choose number of points to send.</font><div class='respPicDiv'><img src='img/responseButtonOffersNo0L4.png' class='respPic'></div></div>","null","6","Sebastian","5","Kept","0.2,0.65","14","0.2","trustrating_stim/white_mw046.bmp","1","75","17"
"html-keyboard-response","187","237290","0.0-19.0-3.16","5fb3d39a2ceaab00087faddb","bdp_trlrn","Wed Mar 15 2023 14:13:51 GMT-0500 (Central Daylight Time)","519972","Untrustworthy,Trustworthy","","null","","","","feedback","","<div class='trialDiv'><img src='trustrating_stim/white_mw046.bmp'><br><font class='baseline'><strong>Sebastian</strong><p>Received: <strong>16</strong></font> &nbsp; &nbsp; &nbsp; &nbsp; &nbsp; &nbsp;<font class='negOutcome'>Shared back: <strong>0</strong></font></font><div class='respPicDiv'><img src='img/responseButtonOffersNo0_wht.png' class='respPic'></div></div>","null","6","Sebastian","5","Kept","0.2,0.65","14","0.2","trustrating_stim/white_mw046.bmp","1","75","17"
"html-keyboard-response","188","238489","0.0-19.0-1.17","5fb3d39a2ceaab00087faddb","bdp_trlrn","Wed Mar 15 2023 14:13:51 GMT-0500 (Central Daylight Time)","519972","Untrustworthy,Trustworthy","","1198","","","","decision","","<div class='trialDiv'><img src='trustrating_stim/white_00129_931230_fb_edt.bmp'><br><font class='baseline'><strong>Marcus</strong><p>Choose number of points to send.</font><div class='respPicDiv'><img src='img/responseButtonOffersNo0L.png' class='respPic'></div></div>","3","6","Marcus","11","Shared","0.65,0.2","8","0.65","trustrating_stim/white_00129_931230_fb_edt.bmp","3","80","18"
"html-keyboard-response","189","238741","0.0-19.0-2.17","5fb3d39a2ceaab00087faddb","bdp_trlrn","Wed Mar 15 2023 14:13:51 GMT-0500 (Central Daylight Time)","519972","Untrustworthy,Trustworthy","","null","","","","decisionFB","","<div class='trialDiv'><img src='trustrating_stim/white_00129_931230_fb_edt.bmp'><br><font class='baseline'><strong>Marcus</strong><p>Choose number of points to send.</font><div class='respPicDiv'><img src='img/responseButtonOffersNo0L3.png' class='respPic'></div></div>","null","6","Marcus","11","Shared","0.65,0.2","8","0.65","trustrating_stim/white_00129_931230_fb_edt.bmp","3","77","18"
"html-keyboard-response","190","239742","0.0-19.0-3.17","5fb3d39a2ceaab00087faddb","bdp_trlrn","Wed Mar 15 2023 14:13:51 GMT-0500 (Central Daylight Time)","519972","Untrustworthy,Trustworthy","","null","","","","feedback","","<div class='trialDiv'><img src='trustrating_stim/white_00129_931230_fb_edt.bmp'><br><font class='baseline'><strong>Marcus</strong><p>Received: <strong>12</strong></font> &nbsp; &nbsp; &nbsp; &nbsp; &nbsp; &nbsp;<font class='posOutcome'>Shared back: <strong>6</strong></font></font><div class='respPicDiv'><img src='img/responseButtonOffersNo0_wht.png' class='respPic'></div></div>","null","6","Marcus","11","Shared","0.65,0.2","8","0.65","trustrating_stim/white_00129_931230_fb_edt.bmp","3","83","18"
"html-keyboard-response","191","240540","0.0-19.0-1.18","5fb3d39a2ceaab00087faddb","bdp_trlrn","Wed Mar 15 2023 14:13:51 GMT-0500 (Central Daylight Time)","519972","Untrustworthy,Trustworthy","","796","","","","decision","","<div class='trialDiv'><img src='trustrating_stim/white_mw048.bmp'><br><font class='baseline'><strong>Nathan</strong><p>Choose number of points to send.</font><div class='respPicDiv'><img src='img/responseButtonOffersNo0L.png' class='respPic'></div></div>","1","7","Nathan","3","Shared","0.2,0.8","8","0.2","trustrating_stim/white_mw048.bmp","1","88","19"
"html-keyboard-response","192","240791","0.0-19.0-2.18","5fb3d39a2ceaab00087faddb","bdp_trlrn","Wed Mar 15 2023 14:13:51 GMT-0500 (Central Daylight Time)","519972","Untrustworthy,Trustworthy","","null","","","","decisionFB","","<div class='trialDiv'><img src='trustrating_stim/white_mw048.bmp'><br><font class='baseline'><strong>Nathan</strong><p>Choose number of points to send.</font><div class='respPicDiv'><img src='img/responseButtonOffersNo0L1.png' class='respPic'></div></div>","null","7","Nathan","3","Shared","0.2,0.8","8","0.2","trustrating_stim/white_mw048.bmp","1","87","19"
"html-keyboard-response","193","241793","0.0-19.0-3.18","5fb3d39a2ceaab00087faddb","bdp_trlrn","Wed Mar 15 2023 14:13:51 GMT-0500 (Central Daylight Time)","519972","Untrustworthy,Trustworthy","","null","","","","feedback","","<div class='trialDiv'><img src='trustrating_stim/white_mw048.bmp'><br><font class='baseline'><strong>Nathan</strong><p>Received: <strong>4</strong></font> &nbsp; &nbsp; &nbsp; &nbsp; &nbsp; &nbsp;<font class='posOutcome'>Shared back: <strong>2</strong></font></font><div class='respPicDiv'><img src='img/responseButtonOffersNo0_wht.png' class='respPic'></div></div>","null","7","Nathan","3","Shared","0.2,0.8","8","0.2","trustrating_stim/white_mw048.bmp","1","89","19"
"html-keyboard-response","194","242569","0.0-19.0-1.19","5fb3d39a2ceaab00087faddb","bdp_trlrn","Wed Mar 15 2023 14:13:51 GMT-0500 (Central Daylight Time)","519972","Untrustworthy,Trustworthy","","776","","","","decision","","<div class='trialDiv'><img src='trustrating_stim/white_00129_931230_fb_edt.bmp'><br><font class='baseline'><strong>Marcus</strong><p>Choose number of points to send.</font><div class='respPicDiv'><img src='img/responseButtonOffersNo0L.png' class='respPic'></div></div>","1","7","Marcus","11","Kept","0.65,0.2","8","0.65","trustrating_stim/white_00129_931230_fb_edt.bmp","3","94","20"
"html-keyboard-response","195","242821","0.0-19.0-2.19","5fb3d39a2ceaab00087faddb","bdp_trlrn","Wed Mar 15 2023 14:13:51 GMT-0500 (Central Daylight Time)","519972","Untrustworthy,Trustworthy","","null","","","","decisionFB","","<div class='trialDiv'><img src='trustrating_stim/white_00129_931230_fb_edt.bmp'><br><font class='baseline'><strong>Marcus</strong><p>Choose number of points to send.</font><div class='respPicDiv'><img src='img/responseButtonOffersNo0L1.png' class='respPic'></div></div>","null","7","Marcus","11","Kept","0.65,0.2","8","0.65","trustrating_stim/white_00129_931230_fb_edt.bmp","3","93","20"
"html-keyboard-response","196","243822","0.0-19.0-3.19","5fb3d39a2ceaab00087faddb","bdp_trlrn","Wed Mar 15 2023 14:13:51 GMT-0500 (Central Daylight Time)","519972","Untrustworthy,Trustworthy","","null","","","","feedback","","<div class='trialDiv'><img src='trustrating_stim/white_00129_931230_fb_edt.bmp'><br><font class='baseline'><strong>Marcus</strong><p>Received: <strong>4</strong></font> &nbsp; &nbsp; &nbsp; &nbsp; &nbsp; &nbsp;<font class='negOutcome'>Shared back: <strong>0</strong></font></font><div class='respPicDiv'><img src='img/responseButtonOffersNo0_wht.png' class='respPic'></div></div>","null","7","Marcus","11","Kept","0.65,0.2","8","0.65","trustrating_stim/white_00129_931230_fb_edt.bmp","3","93","20"
"html-keyboard-response","197","245715","0.0-19.0-1.20","5fb3d39a2ceaab00087faddb","bdp_trlrn","Wed Mar 15 2023 14:13:51 GMT-0500 (Central Daylight Time)","519972","Untrustworthy,Trustworthy","","1893","","","","decision","","<div class='trialDiv'><img src='trustrating_stim/white_mw046.bmp'><br><font class='baseline'><strong>Sebastian</strong><p>Choose number of points to send.</font><div class='respPicDiv'><img src='img/responseButtonOffersNo0L.png' class='respPic'></div></div>","5","7","Sebastian","5","Kept","0.2,0.65","14","0.2","trustrating_stim/white_mw046.bmp","1","98","21"
"html-keyboard-response","198","245967","0.0-19.0-2.20","5fb3d39a2ceaab00087faddb","bdp_trlrn","Wed Mar 15 2023 14:13:51 GMT-0500 (Central Daylight Time)","519972","Untrustworthy,Trustworthy","","null","","","","decisionFB","","<div class='trialDiv'><img src='trustrating_stim/white_mw046.bmp'><br><font class='baseline'><strong>Sebastian</strong><p>Choose number of points to send.</font><div class='respPicDiv'><img src='img/responseButtonOffersNo0L5.png' class='respPic'></div></div>","null","7","Sebastian","5","Kept","0.2,0.65","14","0.2","trustrating_stim/white_mw046.bmp","1","93","21"
"html-keyboard-response","199","246968","0.0-19.0-3.20","5fb3d39a2ceaab00087faddb","bdp_trlrn","Wed Mar 15 2023 14:13:51 GMT-0500 (Central Daylight Time)","519972","Untrustworthy,Trustworthy","","null","","","","feedback","","<div class='trialDiv'><img src='trustrating_stim/white_mw046.bmp'><br><font class='baseline'><strong>Sebastian</strong><p>Received: <strong>20</strong></font> &nbsp; &nbsp; &nbsp; &nbsp; &nbsp; &nbsp;<font class='negOutcome'>Shared back: <strong>0</strong></font></font><div class='respPicDiv'><img src='img/responseButtonOffersNo0_wht.png' class='respPic'></div></div>","null","7","Sebastian","5","Kept","0.2,0.65","14","0.2","trustrating_stim/white_mw046.bmp","1","93","21"
"html-keyboard-response","200","248078","0.0-19.0-1.21","5fb3d39a2ceaab00087faddb","bdp_trlrn","Wed Mar 15 2023 14:13:51 GMT-0500 (Central Daylight Time)","519972","Untrustworthy,Trustworthy","","1110","","","","decision","","<div class='trialDiv'><img src='trustrating_stim/white_00129_931230_fb_edt.bmp'><br><font class='baseline'><strong>Marcus</strong><p>Choose number of points to send.</font><div class='respPicDiv'><img src='img/responseButtonOffersNo0L.png' class='respPic'></div></div>","5","8","Marcus","11","Kept","0.65,0.2","8","0.65","trustrating_stim/white_00129_931230_fb_edt.bmp","3","98","22"
"html-keyboard-response","201","248330","0.0-19.0-2.21","5fb3d39a2ceaab00087faddb","bdp_trlrn","Wed Mar 15 2023 14:13:51 GMT-0500 (Central Daylight Time)","519972","Untrustworthy,Trustworthy","","null","","","","decisionFB","","<div class='trialDiv'><img src='trustrating_stim/white_00129_931230_fb_edt.bmp'><br><font class='baseline'><strong>Marcus</strong><p>Choose number of points to send.</font><div class='respPicDiv'><img src='img/responseButtonOffersNo0L5.png' class='respPic'></div></div>","null","8","Marcus","11","Kept","0.65,0.2","8","0.65","trustrating_stim/white_00129_931230_fb_edt.bmp","3","93","22"
"html-keyboard-response","202","249332","0.0-19.0-3.21","5fb3d39a2ceaab00087faddb","bdp_trlrn","Wed Mar 15 2023 14:13:51 GMT-0500 (Central Daylight Time)","519972","Untrustworthy,Trustworthy","","null","","","","feedback","","<div class='trialDiv'><img src='trustrating_stim/white_00129_931230_fb_edt.bmp'><br><font class='baseline'><strong>Marcus</strong><p>Received: <strong>20</strong></font> &nbsp; &nbsp; &nbsp; &nbsp; &nbsp; &nbsp;<font class='negOutcome'>Shared back: <strong>0</strong></font></font><div class='respPicDiv'><img src='img/responseButtonOffersNo0_wht.png' class='respPic'></div></div>","null","8","Marcus","11","Kept","0.65,0.2","8","0.65","trustrating_stim/white_00129_931230_fb_edt.bmp","3","93","22"
"html-keyboard-response","203","250429","0.0-19.0-1.22","5fb3d39a2ceaab00087faddb","bdp_trlrn","Wed Mar 15 2023 14:13:51 GMT-0500 (Central Daylight Time)","519972","Untrustworthy,Trustworthy","","1096","","","","decision","","<div class='trialDiv'><img src='trustrating_stim/white_mw048.bmp'><br><font class='baseline'><strong>Nathan</strong><p>Choose number of points to send.</font><div class='respPicDiv'><img src='img/responseButtonOffersNo0L.png' class='respPic'></div></div>","5","8","Nathan","3","Shared","0.2,0.8","8","0.2","trustrating_stim/white_mw048.bmp","1","98","23"
"html-keyboard-response","204","250681","0.0-19.0-2.22","5fb3d39a2ceaab00087faddb","bdp_trlrn","Wed Mar 15 2023 14:13:51 GMT-0500 (Central Daylight Time)","519972","Untrustworthy,Trustworthy","","null","","","","decisionFB","","<div class='trialDiv'><img src='trustrating_stim/white_mw048.bmp'><br><font class='baseline'><strong>Nathan</strong><p>Choose number of points to send.</font><div class='respPicDiv'><img src='img/responseButtonOffersNo0L5.png' class='respPic'></div></div>","null","8","Nathan","3","Shared","0.2,0.8","8","0.2","trustrating_stim/white_mw048.bmp","1","93","23"
"html-keyboard-response","205","251683","0.0-19.0-3.22","5fb3d39a2ceaab00087faddb","bdp_trlrn","Wed Mar 15 2023 14:13:51 GMT-0500 (Central Daylight Time)","519972","Untrustworthy,Trustworthy","","null","","","","feedback","","<div class='trialDiv'><img src='trustrating_stim/white_mw048.bmp'><br><font class='baseline'><strong>Nathan</strong><p>Received: <strong>20</strong></font> &nbsp; &nbsp; &nbsp; &nbsp; &nbsp; &nbsp;<font class='posOutcome'>Shared back: <strong>10</strong></font></font><div class='respPicDiv'><img src='img/responseButtonOffersNo0_wht.png' class='respPic'></div></div>","null","8","Nathan","3","Shared","0.2,0.8","8","0.2","trustrating_stim/white_mw048.bmp","1","103","23"
"html-keyboard-response","206","252973","0.0-19.0-1.23","5fb3d39a2ceaab00087faddb","bdp_trlrn","Wed Mar 15 2023 14:13:51 GMT-0500 (Central Daylight Time)","519972","Untrustworthy,Trustworthy","","1289","","","","decision","","<div class='trialDiv'><img src='trustrating_stim/white_mw046.bmp'><br><font class='baseline'><strong>Sebastian</strong><p>Choose number of points to send.</font><div class='respPicDiv'><img src='img/responseButtonOffersNo0L.png' class='respPic'></div></div>","3","8","Sebastian","5","Kept","0.2,0.65","14","0.2","trustrating_stim/white_mw046.bmp","1","108","24"
"html-keyboard-response","207","253225","0.0-19.0-2.23","5fb3d39a2ceaab00087faddb","bdp_trlrn","Wed Mar 15 2023 14:13:51 GMT-0500 (Central Daylight Time)","519972","Untrustworthy,Trustworthy","","null","","","","decisionFB","","<div class='trialDiv'><img src='trustrating_stim/white_mw046.bmp'><br><font class='baseline'><strong>Sebastian</strong><p>Choose number of points to send.</font><div class='respPicDiv'><img src='img/responseButtonOffersNo0L3.png' class='respPic'></div></div>","null","8","Sebastian","5","Kept","0.2,0.65","14","0.2","trustrating_stim/white_mw046.bmp","1","105","24"
"html-keyboard-response","208","254228","0.0-19.0-3.23","5fb3d39a2ceaab00087faddb","bdp_trlrn","Wed Mar 15 2023 14:13:51 GMT-0500 (Central Daylight Time)","519972","Untrustworthy,Trustworthy","","null","","","","feedback","","<div class='trialDiv'><img src='trustrating_stim/white_mw046.bmp'><br><font class='baseline'><strong>Sebastian</strong><p>Received: <strong>12</strong></font> &nbsp; &nbsp; &nbsp; &nbsp; &nbsp; &nbsp;<font class='negOutcome'>Shared back: <strong>0</strong></font></font><div class='respPicDiv'><img src='img/responseButtonOffersNo0_wht.png' class='respPic'></div></div>","null","8","Sebastian","5","Kept","0.2,0.65","14","0.2","trustrating_stim/white_mw046.bmp","1","105","24"
"html-keyboard-response","209","254822","0.0-19.0-1.24","5fb3d39a2ceaab00087faddb","bdp_trlrn","Wed Mar 15 2023 14:13:51 GMT-0500 (Central Daylight Time)","519972","Untrustworthy,Trustworthy","","593","","","","decision","","<div class='trialDiv'><img src='trustrating_stim/white_00129_931230_fb_edt.bmp'><br><font class='baseline'><strong>Marcus</strong><p>Choose number of points to send.</font><div class='respPicDiv'><img src='img/responseButtonOffersNo0L.png' class='respPic'></div></div>","3","9","Marcus","11","Kept","0.65,0.2","8","0.65","trustrating_stim/white_00129_931230_fb_edt.bmp","3","110","25"
"html-keyboard-response","210","255073","0.0-19.0-2.24","5fb3d39a2ceaab00087faddb","bdp_trlrn","Wed Mar 15 2023 14:13:51 GMT-0500 (Central Daylight Time)","519972","Untrustworthy,Trustworthy","","null","","","","decisionFB","","<div class='trialDiv'><img src='trustrating_stim/white_00129_931230_fb_edt.bmp'><br><font class='baseline'><strong>Marcus</strong><p>Choose number of points to send.</font><div class='respPicDiv'><img src='img/responseButtonOffersNo0L3.png' class='respPic'></div></div>","null","9","Marcus","11","Kept","0.65,0.2","8","0.65","trustrating_stim/white_00129_931230_fb_edt.bmp","3","107","25"
"html-keyboard-response","211","256076","0.0-19.0-3.24","5fb3d39a2ceaab00087faddb","bdp_trlrn","Wed Mar 15 2023 14:13:51 GMT-0500 (Central Daylight Time)","519972","Untrustworthy,Trustworthy","","null","","","","feedback","","<div class='trialDiv'><img src='trustrating_stim/white_00129_931230_fb_edt.bmp'><br><font class='baseline'><strong>Marcus</strong><p>Received: <strong>12</strong></font> &nbsp; &nbsp; &nbsp; &nbsp; &nbsp; &nbsp;<font class='negOutcome'>Shared back: <strong>0</strong></font></font><div class='respPicDiv'><img src='img/responseButtonOffersNo0_wht.png' class='respPic'></div></div>","null","9","Marcus","11","Kept","0.65,0.2","8","0.65","trustrating_stim/white_00129_931230_fb_edt.bmp","3","107","25"
"html-keyboard-response","212","256591","0.0-19.0-1.25","5fb3d39a2ceaab00087faddb","bdp_trlrn","Wed Mar 15 2023 14:13:51 GMT-0500 (Central Daylight Time)","519972","Untrustworthy,Trustworthy","","514","","","","decision","","<div class='trialDiv'><img src='trustrating_stim/white_mw048.bmp'><br><font class='baseline'><strong>Nathan</strong><p>Choose number of points to send.</font><div class='respPicDiv'><img src='img/responseButtonOffersNo0L.png' class='respPic'></div></div>","3","9","Nathan","3","Shared","0.2,0.8","8","0.2","trustrating_stim/white_mw048.bmp","1","112","26"
"html-keyboard-response","213","256843","0.0-19.0-2.25","5fb3d39a2ceaab00087faddb","bdp_trlrn","Wed Mar 15 2023 14:13:51 GMT-0500 (Central Daylight Time)","519972","Untrustworthy,Trustworthy","","null","","","","decisionFB","","<div class='trialDiv'><img src='trustrating_stim/white_mw048.bmp'><br><font class='baseline'><strong>Nathan</strong><p>Choose number of points to send.</font><div class='respPicDiv'><img src='img/responseButtonOffersNo0L3.png' class='respPic'></div></div>","null","9","Nathan","3","Shared","0.2,0.8","8","0.2","trustrating_stim/white_mw048.bmp","1","109","26"
"html-keyboard-response","214","257845","0.0-19.0-3.25","5fb3d39a2ceaab00087faddb","bdp_trlrn","Wed Mar 15 2023 14:13:51 GMT-0500 (Central Daylight Time)","519972","Untrustworthy,Trustworthy","","null","","","","feedback","","<div class='trialDiv'><img src='trustrating_stim/white_mw048.bmp'><br><font class='baseline'><strong>Nathan</strong><p>Received: <strong>12</strong></font> &nbsp; &nbsp; &nbsp; &nbsp; &nbsp; &nbsp;<font class='posOutcome'>Shared back: <strong>6</strong></font></font><div class='respPicDiv'><img src='img/responseButtonOffersNo0_wht.png' class='respPic'></div></div>","null","9","Nathan","3","Shared","0.2,0.8","8","0.2","trustrating_stim/white_mw048.bmp","1","115","26"
"html-keyboard-response","215","259693","0.0-19.0-1.26","5fb3d39a2ceaab00087faddb","bdp_trlrn","Wed Mar 15 2023 14:13:51 GMT-0500 (Central Daylight Time)","519972","Untrustworthy,Trustworthy","","1847","","","","decision","","<div class='trialDiv'><img src='trustrating_stim/white_mw046.bmp'><br><font class='baseline'><strong>Sebastian</strong><p>Choose number of points to send.</font><div class='respPicDiv'><img src='img/responseButtonOffersNo0L.png' class='respPic'></div></div>","1","9","Sebastian","5","Kept","0.2,0.65","14","0.2","trustrating_stim/white_mw046.bmp","1","120","27"
"html-keyboard-response","216","259946","0.0-19.0-2.26","5fb3d39a2ceaab00087faddb","bdp_trlrn","Wed Mar 15 2023 14:13:51 GMT-0500 (Central Daylight Time)","519972","Untrustworthy,Trustworthy","","null","","","","decisionFB","","<div class='trialDiv'><img src='trustrating_stim/white_mw046.bmp'><br><font class='baseline'><strong>Sebastian</strong><p>Choose number of points to send.</font><div class='respPicDiv'><img src='img/responseButtonOffersNo0L1.png' class='respPic'></div></div>","null","9","Sebastian","5","Kept","0.2,0.65","14","0.2","trustrating_stim/white_mw046.bmp","1","119","27"
"html-keyboard-response","217","260949","0.0-19.0-3.26","5fb3d39a2ceaab00087faddb","bdp_trlrn","Wed Mar 15 2023 14:13:51 GMT-0500 (Central Daylight Time)","519972","Untrustworthy,Trustworthy","","null","","","","feedback","","<div class='trialDiv'><img src='trustrating_stim/white_mw046.bmp'><br><font class='baseline'><strong>Sebastian</strong><p>Received: <strong>4</strong></font> &nbsp; &nbsp; &nbsp; &nbsp; &nbsp; &nbsp;<font class='negOutcome'>Shared back: <strong>0</strong></font></font><div class='respPicDiv'><img src='img/responseButtonOffersNo0_wht.png' class='respPic'></div></div>","null","9","Sebastian","5","Kept","0.2,0.65","14","0.2","trustrating_stim/white_mw046.bmp","1","119","27"
"html-keyboard-response","218","262789","0.0-19.0-1.27","5fb3d39a2ceaab00087faddb","bdp_trlrn","Wed Mar 15 2023 14:13:51 GMT-0500 (Central Daylight Time)","519972","Untrustworthy,Trustworthy","","1840","","","","decision","","<div class='trialDiv'><img src='trustrating_stim/white_mw048.bmp'><br><font class='baseline'><strong>Nathan</strong><p>Choose number of points to send.</font><div class='respPicDiv'><img src='img/responseButtonOffersNo0L.png' class='respPic'></div></div>","1","10","Nathan","3","Shared","0.2,0.8","8","0.2","trustrating_stim/white_mw048.bmp","1","124","28"
"html-keyboard-response","219","263042","0.0-19.0-2.27","5fb3d39a2ceaab00087faddb","bdp_trlrn","Wed Mar 15 2023 14:13:51 GMT-0500 (Central Daylight Time)","519972","Untrustworthy,Trustworthy","","null","","","","decisionFB","","<div class='trialDiv'><img src='trustrating_stim/white_mw048.bmp'><br><font class='baseline'><strong>Nathan</strong><p>Choose number of points to send.</font><div class='respPicDiv'><img src='img/responseButtonOffersNo0L1.png' class='respPic'></div></div>","null","10","Nathan","3","Shared","0.2,0.8","8","0.2","trustrating_stim/white_mw048.bmp","1","123","28"
"html-keyboard-response","220","264047","0.0-19.0-3.27","5fb3d39a2ceaab00087faddb","bdp_trlrn","Wed Mar 15 2023 14:13:51 GMT-0500 (Central Daylight Time)","519972","Untrustworthy,Trustworthy","","null","","","","feedback","","<div class='trialDiv'><img src='trustrating_stim/white_mw048.bmp'><br><font class='baseline'><strong>Nathan</strong><p>Received: <strong>4</strong></font> &nbsp; &nbsp; &nbsp; &nbsp; &nbsp; &nbsp;<font class='posOutcome'>Shared back: <strong>2</strong></font></font><div class='respPicDiv'><img src='img/responseButtonOffersNo0_wht.png' class='respPic'></div></div>","null","10","Nathan","3","Shared","0.2,0.8","8","0.2","trustrating_stim/white_mw048.bmp","1","125","28"
"html-keyboard-response","221","264742","0.0-19.0-1.28","5fb3d39a2ceaab00087faddb","bdp_trlrn","Wed Mar 15 2023 14:13:51 GMT-0500 (Central Daylight Time)","519972","Untrustworthy,Trustworthy","","694","","","","decision","","<div class='trialDiv'><img src='trustrating_stim/white_00129_931230_fb_edt.bmp'><br><font class='baseline'><strong>Marcus</strong><p>Choose number of points to send.</font><div class='respPicDiv'><img src='img/responseButtonOffersNo0L.png' class='respPic'></div></div>","1","10","Marcus","11","Shared","0.65,0.2","8","0.65","trustrating_stim/white_00129_931230_fb_edt.bmp","3","130","29"
