"trial_type","trial_index","time_elapsed","internal_node_id","subject_id","task","startTime","totalTime","labels","event","trial","time","trialtype","numBlurs","view_history","rt","success","stimulus","key_press","aground","name","faceID","outcome","agenttype","agentswpt","agentcurrpshare","face","avgRating","point_total","round"
"pavlovia","0","2","0.0-0.0","610075c1ef04d1f734032f69","bdp_trlrn","Tue Mar 14 2023 00:30:47 GMT-0400 (Eastern Daylight Time)","450684","Untrustworthy,Trustworthy","","","","","","","","","","","","","","","","","","","","",""
"","","","","610075c1ef04d1f734032f69","bdp_trlrn","Tue Mar 14 2023 00:30:47 GMT-0400 (Eastern Daylight Time)","450684","Untrustworthy,Trustworthy","blur","1","3464","blurevent","1","","","","","","","","","","","","","","","",""
"","","","","610075c1ef04d1f734032f69","bdp_trlrn","Tue Mar 14 2023 00:30:47 GMT-0400 (Eastern Daylight Time)","450684","Untrustworthy,Trustworthy","focus","1","6485","focusevent","","","","","","","","","","","","","","","","",""
"instructions","1","7263","0.0-1.0","610075c1ef04d1f734032f69","bdp_trlrn","Tue Mar 14 2023 00:30:47 GMT-0400 (Eastern Daylight Time)","450684","Untrustworthy,Trustworthy","","","","","","[{""page_index"":0,""viewing_time"":7260}]","7260","","","","","","","","","","","","","",""
"","","","","610075c1ef04d1f734032f69","bdp_trlrn","Tue Mar 14 2023 00:30:47 GMT-0400 (Eastern Daylight Time)","450684","Untrustworthy,Trustworthy","fullscreenenter","2","10230","fullscreenenter","","","","","","","","","","","","","","","","",""
"fullscreen","2","11226","0.0-2.0","610075c1ef04d1f734032f69","bdp_trlrn","Tue Mar 14 2023 00:30:47 GMT-0400 (Eastern Daylight Time)","450684","Untrustworthy,Trustworthy","","","","","","","","true","","","","","","","","","","","","",""
"instructions","3","16365","0.0-4.0","610075c1ef04d1f734032f69","bdp_trlrn","Tue Mar 14 2023 00:30:47 GMT-0400 (Eastern Daylight Time)","450684","Untrustworthy,Trustworthy","","","","","","[{""page_index"":0,""viewing_time"":4136},{""page_index"":1,""viewing_time"":997}]","5133","","","","","","","","","","","","","",""
"instructions","4","17340","0.0-5.0","610075c1ef04d1f734032f69","bdp_trlrn","Tue Mar 14 2023 00:30:47 GMT-0400 (Eastern Daylight Time)","450684","Untrustworthy,Trustworthy","","","","","","[{""page_index"":0,""viewing_time"":974}]","974","","","","","","","","","","","","","",""
"image-keyboard-response","5","19212","0.0-6.0-1.0","610075c1ef04d1f734032f69","bdp_trlrn","Tue Mar 14 2023 00:30:47 GMT-0400 (Eastern Daylight Time)","450684","Untrustworthy,Trustworthy","","","","rating","","","1768","","trustrating_stim/white_mw056.bmp","5","","","","","","","","","","",""
"image-keyboard-response","6","19417","0.0-6.0-2.0","610075c1ef04d1f734032f69","bdp_trlrn","Tue Mar 14 2023 00:30:47 GMT-0400 (Eastern Daylight Time)","450684","Untrustworthy,Trustworthy","","","","ratingFB","","","null","","trustrating_stim/white_mw056.bmp","null","","","","","","","","","","",""
"image-keyboard-response","7","20103","0.0-6.0-1.1","610075c1ef04d1f734032f69","bdp_trlrn","Tue Mar 14 2023 00:30:47 GMT-0400 (Eastern Daylight Time)","450684","Untrustworthy,Trustworthy","","","","rating","","","577","","trustrating_stim/white_00757_941201_fa_edt.bmp","5","","","","","","","","","","",""
"image-keyboard-response","8","20319","0.0-6.0-2.1","610075c1ef04d1f734032f69","bdp_trlrn","Tue Mar 14 2023 00:30:47 GMT-0400 (Eastern Daylight Time)","450684","Untrustworthy,Trustworthy","","","","ratingFB","","","null","","trustrating_stim/white_00757_941201_fa_edt.bmp","null","","","","","","","","","","",""
"image-keyboard-response","9","20957","0.0-6.0-1.2","610075c1ef04d1f734032f69","bdp_trlrn","Tue Mar 14 2023 00:30:47 GMT-0400 (Eastern Daylight Time)","450684","Untrustworthy,Trustworthy","","","","rating","","","530","","trustrating_stim/white_mw049.bmp","5","","","","","","","","","","",""
"image-keyboard-response","10","21161","0.0-6.0-2.2","610075c1ef04d1f734032f69","bdp_trlrn","Tue Mar 14 2023 00:30:47 GMT-0400 (Eastern Daylight Time)","450684","Untrustworthy,Trustworthy","","","","ratingFB","","","null","","trustrating_stim/white_mw049.bmp","null","","","","","","","","","","",""
"image-keyboard-response","11","21832","0.0-6.0-1.3","610075c1ef04d1f734032f69","bdp_trlrn","Tue Mar 14 2023 00:30:47 GMT-0400 (Eastern Daylight Time)","450684","Untrustworthy,Trustworthy","","","","rating","","","562","","trustrating_stim/white_00602_940928_fb_edt.bmp","5","","","","","","","","","","",""
"image-keyboard-response","12","22048","0.0-6.0-2.3","610075c1ef04d1f734032f69","bdp_trlrn","Tue Mar 14 2023 00:30:47 GMT-0400 (Eastern Daylight Time)","450684","Untrustworthy,Trustworthy","","","","ratingFB","","","null","","trustrating_stim/white_00602_940928_fb_edt.bmp","null","","","","","","","","","","",""
"image-keyboard-response","13","22557","0.0-6.0-1.4","610075c1ef04d1f734032f69","bdp_trlrn","Tue Mar 14 2023 00:30:47 GMT-0400 (Eastern Daylight Time)","450684","Untrustworthy,Trustworthy","","","","rating","","","407","","trustrating_stim/white_00129_931230_fb_edt.bmp","5","","","","","","","","","","",""
"image-keyboard-response","14","22765","0.0-6.0-2.4","610075c1ef04d1f734032f69","bdp_trlrn","Tue Mar 14 2023 00:30:47 GMT-0400 (Eastern Daylight Time)","450684","Untrustworthy,Trustworthy","","","","ratingFB","","","null","","trustrating_stim/white_00129_931230_fb_edt.bmp","null","","","","","","","","","","",""
"image-keyboard-response","15","23307","0.0-6.0-1.5","610075c1ef04d1f734032f69","bdp_trlrn","Tue Mar 14 2023 00:30:47 GMT-0400 (Eastern Daylight Time)","450684","Untrustworthy,Trustworthy","","","","rating","","","441","","trustrating_stim/white_mw071.bmp","5","","","","","","","","","","",""
"image-keyboard-response","16","23510","0.0-6.0-2.5","610075c1ef04d1f734032f69","bdp_trlrn","Tue Mar 14 2023 00:30:47 GMT-0400 (Eastern Daylight Time)","450684","Untrustworthy,Trustworthy","","","","ratingFB","","","null","","trustrating_stim/white_mw071.bmp","null","","","","","","","","","","",""
"image-keyboard-response","17","23952","0.0-6.0-1.6","610075c1ef04d1f734032f69","bdp_trlrn","Tue Mar 14 2023 00:30:47 GMT-0400 (Eastern Daylight Time)","450684","Untrustworthy,Trustworthy","","","","rating","","","341","","trustrating_stim/white_mw063.bmp","5","","","","","","","","","","",""
"image-keyboard-response","18","24161","0.0-6.0-2.6","610075c1ef04d1f734032f69","bdp_trlrn","Tue Mar 14 2023 00:30:47 GMT-0400 (Eastern Daylight Time)","450684","Untrustworthy,Trustworthy","","","","ratingFB","","","null","","trustrating_stim/white_mw063.bmp","null","","","","","","","","","","",""
"image-keyboard-response","19","24583","0.0-6.0-1.7","610075c1ef04d1f734032f69","bdp_trlrn","Tue Mar 14 2023 00:30:47 GMT-0400 (Eastern Daylight Time)","450684","Untrustworthy,Trustworthy","","","","rating","","","320","","trustrating_stim/white_00761_941201_fb_edt.bmp","5","","","","","","","","","","",""
"image-keyboard-response","20","24787","0.0-6.0-2.7","610075c1ef04d1f734032f69","bdp_trlrn","Tue Mar 14 2023 00:30:47 GMT-0400 (Eastern Daylight Time)","450684","Untrustworthy,Trustworthy","","","","ratingFB","","","null","","trustrating_stim/white_00761_941201_fb_edt.bmp","null","","","","","","","","","","",""
"image-keyboard-response","21","25218","0.0-6.0-1.8","610075c1ef04d1f734032f69","bdp_trlrn","Tue Mar 14 2023 00:30:47 GMT-0400 (Eastern Daylight Time)","450684","Untrustworthy,Trustworthy","","","","rating","","","322","","trustrating_stim/white_00785_941205_fb_edt.bmp","5","","","","","","","","","","",""
"image-keyboard-response","22","25423","0.0-6.0-2.8","610075c1ef04d1f734032f69","bdp_trlrn","Tue Mar 14 2023 00:30:47 GMT-0400 (Eastern Daylight Time)","450684","Untrustworthy,Trustworthy","","","","ratingFB","","","null","","trustrating_stim/white_00785_941205_fb_edt.bmp","null","","","","","","","","","","",""
"image-keyboard-response","23","25836","0.0-6.0-1.9","610075c1ef04d1f734032f69","bdp_trlrn","Tue Mar 14 2023 00:30:47 GMT-0400 (Eastern Daylight Time)","450684","Untrustworthy,Trustworthy","","","","rating","","","302","","trustrating_stim/white_00109_931230_fa_edt.bmp","5","","","","","","","","","","",""
"image-keyboard-response","24","26045","0.0-6.0-2.9","610075c1ef04d1f734032f69","bdp_trlrn","Tue Mar 14 2023 00:30:47 GMT-0400 (Eastern Daylight Time)","450684","Untrustworthy,Trustworthy","","","","ratingFB","","","null","","trustrating_stim/white_00109_931230_fa_edt.bmp","null","","","","","","","","","","",""
"image-keyboard-response","25","26415","0.0-6.0-1.10","610075c1ef04d1f734032f69","bdp_trlrn","Tue Mar 14 2023 00:30:47 GMT-0400 (Eastern Daylight Time)","450684","Untrustworthy,Trustworthy","","","","rating","","","270","","trustrating_stim/white_mw097.bmp","5","","","","","","","","","","",""
"image-keyboard-response","26","26620","0.0-6.0-2.10","610075c1ef04d1f734032f69","bdp_trlrn","Tue Mar 14 2023 00:30:47 GMT-0400 (Eastern Daylight Time)","450684","Untrustworthy,Trustworthy","","","","ratingFB","","","null","","trustrating_stim/white_mw097.bmp","null","","","","","","","","","","",""
"image-keyboard-response","27","26987","0.0-6.0-1.11","610075c1ef04d1f734032f69","bdp_trlrn","Tue Mar 14 2023 00:30:47 GMT-0400 (Eastern Daylight Time)","450684","Untrustworthy,Trustworthy","","","","rating","","","258","","trustrating_stim/white_00120_931230_fa_edt.bmp","5","","","","","","","","","","",""
"image-keyboard-response","28","27195","0.0-6.0-2.11","610075c1ef04d1f734032f69","bdp_trlrn","Tue Mar 14 2023 00:30:47 GMT-0400 (Eastern Daylight Time)","450684","Untrustworthy,Trustworthy","","","","ratingFB","","","null","","trustrating_stim/white_00120_931230_fa_edt.bmp","null","","","","","","","","","","",""
"image-keyboard-response","29","27561","0.0-6.0-1.12","610075c1ef04d1f734032f69","bdp_trlrn","Tue Mar 14 2023 00:30:47 GMT-0400 (Eastern Daylight Time)","450684","Untrustworthy,Trustworthy","","","","rating","","","257","","trustrating_stim/white_00577_940928_fa_edt.bmp","5","","","","","","","","","","",""
"image-keyboard-response","30","27772","0.0-6.0-2.12","610075c1ef04d1f734032f69","bdp_trlrn","Tue Mar 14 2023 00:30:47 GMT-0400 (Eastern Daylight Time)","450684","Untrustworthy,Trustworthy","","","","ratingFB","","","null","","trustrating_stim/white_00577_940928_fa_edt.bmp","null","","","","","","","","","","",""
"image-keyboard-response","31","28151","0.0-6.0-1.13","610075c1ef04d1f734032f69","bdp_trlrn","Tue Mar 14 2023 00:30:47 GMT-0400 (Eastern Daylight Time)","450684","Untrustworthy,Trustworthy","","","","rating","","","277","","trustrating_stim/white_00807_941205_fb_edt.bmp","5","","","","","","","","","","",""
"image-keyboard-response","32","28360","0.0-6.0-2.13","610075c1ef04d1f734032f69","bdp_trlrn","Tue Mar 14 2023 00:30:47 GMT-0400 (Eastern Daylight Time)","450684","Untrustworthy,Trustworthy","","","","ratingFB","","","null","","trustrating_stim/white_00807_941205_fb_edt.bmp","null","","","","","","","","","","",""
"image-keyboard-response","33","28750","0.0-6.0-1.14","610075c1ef04d1f734032f69","bdp_trlrn","Tue Mar 14 2023 00:30:47 GMT-0400 (Eastern Daylight Time)","450684","Untrustworthy,Trustworthy","","","","rating","","","282","","trustrating_stim/white_mw066.bmp","5","","","","","","","","","","",""
"image-keyboard-response","34","28965","0.0-6.0-2.14","610075c1ef04d1f734032f69","bdp_trlrn","Tue Mar 14 2023 00:30:47 GMT-0400 (Eastern Daylight Time)","450684","Untrustworthy,Trustworthy","","","","ratingFB","","","null","","trustrating_stim/white_mw066.bmp","null","","","","","","","","","","",""
"image-keyboard-response","35","29345","0.0-6.0-1.15","610075c1ef04d1f734032f69","bdp_trlrn","Tue Mar 14 2023 00:30:47 GMT-0400 (Eastern Daylight Time)","450684","Untrustworthy,Trustworthy","","","","rating","","","279","","trustrating_stim/white_00659_941121_fa_edt.bmp","5","","","","","","","","","","",""
"image-keyboard-response","36","29546","0.0-6.0-2.15","610075c1ef04d1f734032f69","bdp_trlrn","Tue Mar 14 2023 00:30:47 GMT-0400 (Eastern Daylight Time)","450684","Untrustworthy,Trustworthy","","","","ratingFB","","","null","","trustrating_stim/white_00659_941121_fa_edt.bmp","null","","","","","","","","","","",""
"image-keyboard-response","37","29930","0.0-6.0-1.16","610075c1ef04d1f734032f69","bdp_trlrn","Tue Mar 14 2023 00:30:47 GMT-0400 (Eastern Daylight Time)","450684","Untrustworthy,Trustworthy","","","","rating","","","283","","trustrating_stim/white_mw033.bmp","5","","","","","","","","","","",""
"image-keyboard-response","38","30132","0.0-6.0-2.16","610075c1ef04d1f734032f69","bdp_trlrn","Tue Mar 14 2023 00:30:47 GMT-0400 (Eastern Daylight Time)","450684","Untrustworthy,Trustworthy","","","","ratingFB","","","null","","trustrating_stim/white_mw033.bmp","null","","","","","","","","","","",""
"image-keyboard-response","39","30493","0.0-6.0-1.17","610075c1ef04d1f734032f69","bdp_trlrn","Tue Mar 14 2023 00:30:47 GMT-0400 (Eastern Daylight Time)","450684","Untrustworthy,Trustworthy","","","","rating","","","260","","trustrating_stim/white_mw048.bmp","5","","","","","","","","","","",""
"image-keyboard-response","40","30694","0.0-6.0-2.17","610075c1ef04d1f734032f69","bdp_trlrn","Tue Mar 14 2023 00:30:47 GMT-0400 (Eastern Daylight Time)","450684","Untrustworthy,Trustworthy","","","","ratingFB","","","null","","trustrating_stim/white_mw048.bmp","null","","","","","","","","","","",""
"image-keyboard-response","41","31061","0.0-6.0-1.18","610075c1ef04d1f734032f69","bdp_trlrn","Tue Mar 14 2023 00:30:47 GMT-0400 (Eastern Daylight Time)","450684","Untrustworthy,Trustworthy","","","","rating","","","266","","trustrating_stim/white_00223_940128_fb_edt.bmp","5","","","","","","","","","","",""
"image-keyboard-response","42","31262","0.0-6.0-2.18","610075c1ef04d1f734032f69","bdp_trlrn","Tue Mar 14 2023 00:30:47 GMT-0400 (Eastern Daylight Time)","450684","Untrustworthy,Trustworthy","","","","ratingFB","","","null","","trustrating_stim/white_00223_940128_fb_edt.bmp","null","","","","","","","","","","",""
"image-keyboard-response","43","31640","0.0-6.0-1.19","610075c1ef04d1f734032f69","bdp_trlrn","Tue Mar 14 2023 00:30:47 GMT-0400 (Eastern Daylight Time)","450684","Untrustworthy,Trustworthy","","","","rating","","","275","","trustrating_stim/white_00898_960530_fa_edt.bmp","5","","","","","","","","","","",""
"image-keyboard-response","44","31841","0.0-6.0-2.19","610075c1ef04d1f734032f69","bdp_trlrn","Tue Mar 14 2023 00:30:47 GMT-0400 (Eastern Daylight Time)","450684","Untrustworthy,Trustworthy","","","","ratingFB","","","null","","trustrating_stim/white_00898_960530_fa_edt.bmp","null","","","","","","","","","","",""
"image-keyboard-response","45","32217","0.0-6.0-1.20","610075c1ef04d1f734032f69","bdp_trlrn","Tue Mar 14 2023 00:30:47 GMT-0400 (Eastern Daylight Time)","450684","Untrustworthy,Trustworthy","","","","rating","","","275","","trustrating_stim/white_mw089.bmp","5","","","","","","","","","","",""
"image-keyboard-response","46","32418","0.0-6.0-2.20","610075c1ef04d1f734032f69","bdp_trlrn","Tue Mar 14 2023 00:30:47 GMT-0400 (Eastern Daylight Time)","450684","Untrustworthy,Trustworthy","","","","ratingFB","","","null","","trustrating_stim/white_mw089.bmp","null","","","","","","","","","","",""
"image-keyboard-response","47","32790","0.0-6.0-1.21","610075c1ef04d1f734032f69","bdp_trlrn","Tue Mar 14 2023 00:30:47 GMT-0400 (Eastern Daylight Time)","450684","Untrustworthy,Trustworthy","","","","rating","","","271","","trustrating_stim/white_00519_940519_fb_edt.bmp","5","","","","","","","","","","",""
"image-keyboard-response","48","32991","0.0-6.0-2.21","610075c1ef04d1f734032f69","bdp_trlrn","Tue Mar 14 2023 00:30:47 GMT-0400 (Eastern Daylight Time)","450684","Untrustworthy,Trustworthy","","","","ratingFB","","","null","","trustrating_stim/white_00519_940519_fb_edt.bmp","null","","","","","","","","","","",""
"image-keyboard-response","49","33395","0.0-6.0-1.22","610075c1ef04d1f734032f69","bdp_trlrn","Tue Mar 14 2023 00:30:47 GMT-0400 (Eastern Daylight Time)","450684","Untrustworthy,Trustworthy","","","","rating","","","303","","trustrating_stim/white_mw053.bmp","5","","","","","","","","","","",""
"image-keyboard-response","50","33596","0.0-6.0-2.22","610075c1ef04d1f734032f69","bdp_trlrn","Tue Mar 14 2023 00:30:47 GMT-0400 (Eastern Daylight Time)","450684","Untrustworthy,Trustworthy","","","","ratingFB","","","null","","trustrating_stim/white_mw053.bmp","null","","","","","","","","","","",""
"image-keyboard-response","51","33976","0.0-6.0-1.23","610075c1ef04d1f734032f69","bdp_trlrn","Tue Mar 14 2023 00:30:47 GMT-0400 (Eastern Daylight Time)","450684","Untrustworthy,Trustworthy","","","","rating","","","279","","trustrating_stim/white_00299_940422_fa_edt.bmp","5","","","","","","","","","","",""
"image-keyboard-response","52","34178","0.0-6.0-2.23","610075c1ef04d1f734032f69","bdp_trlrn","Tue Mar 14 2023 00:30:47 GMT-0400 (Eastern Daylight Time)","450684","Untrustworthy,Trustworthy","","","","ratingFB","","","null","","trustrating_stim/white_00299_940422_fa_edt.bmp","null","","","","","","","","","","",""
"image-keyboard-response","53","34547","0.0-6.0-1.24","610075c1ef04d1f734032f69","bdp_trlrn","Tue Mar 14 2023 00:30:47 GMT-0400 (Eastern Daylight Time)","450684","Untrustworthy,Trustworthy","","","","rating","","","268","","trustrating_stim/white_mw035.bmp","5","","","","","","","","","","",""
"image-keyboard-response","54","34749","0.0-6.0-2.24","610075c1ef04d1f734032f69","bdp_trlrn","Tue Mar 14 2023 00:30:47 GMT-0400 (Eastern Daylight Time)","450684","Untrustworthy,Trustworthy","","","","ratingFB","","","null","","trustrating_stim/white_mw035.bmp","null","","","","","","","","","","",""
"image-keyboard-response","55","35112","0.0-6.0-1.25","610075c1ef04d1f734032f69","bdp_trlrn","Tue Mar 14 2023 00:30:47 GMT-0400 (Eastern Daylight Time)","450684","Untrustworthy,Trustworthy","","","","rating","","","261","","trustrating_stim/white_mw084.bmp","5","","","","","","","","","","",""
"image-keyboard-response","56","35314","0.0-6.0-2.25","610075c1ef04d1f734032f69","bdp_trlrn","Tue Mar 14 2023 00:30:47 GMT-0400 (Eastern Daylight Time)","450684","Untrustworthy,Trustworthy","","","","ratingFB","","","null","","trustrating_stim/white_mw084.bmp","null","","","","","","","","","","",""
"image-keyboard-response","57","35752","0.0-6.0-1.26","610075c1ef04d1f734032f69","bdp_trlrn","Tue Mar 14 2023 00:30:47 GMT-0400 (Eastern Daylight Time)","450684","Untrustworthy,Trustworthy","","","","rating","","","337","","trustrating_stim/white_mw060.bmp","5","","","","","","","","","","",""
"image-keyboard-response","58","35954","0.0-6.0-2.26","610075c1ef04d1f734032f69","bdp_trlrn","Tue Mar 14 2023 00:30:47 GMT-0400 (Eastern Daylight Time)","450684","Untrustworthy,Trustworthy","","","","ratingFB","","","null","","trustrating_stim/white_mw060.bmp","null","","","","","","","","","","",""
"image-keyboard-response","59","36330","0.0-6.0-1.27","610075c1ef04d1f734032f69","bdp_trlrn","Tue Mar 14 2023 00:30:47 GMT-0400 (Eastern Daylight Time)","450684","Untrustworthy,Trustworthy","","","","rating","","","276","","trustrating_stim/white_mw046.bmp","5","","","","","","","","","","",""
"image-keyboard-response","60","36531","0.0-6.0-2.27","610075c1ef04d1f734032f69","bdp_trlrn","Tue Mar 14 2023 00:30:47 GMT-0400 (Eastern Daylight Time)","450684","Untrustworthy,Trustworthy","","","","ratingFB","","","null","","trustrating_stim/white_mw046.bmp","null","","","","","","","","","","",""
"image-keyboard-response","61","36951","0.0-6.0-1.28","610075c1ef04d1f734032f69","bdp_trlrn","Tue Mar 14 2023 00:30:47 GMT-0400 (Eastern Daylight Time)","450684","Untrustworthy,Trustworthy","","","","rating","","","318","","trustrating_stim/white_00340_940422_fa_edt.bmp","5","","","","","","","","","","",""
"image-keyboard-response","62","37152","0.0-6.0-2.28","610075c1ef04d1f734032f69","bdp_trlrn","Tue Mar 14 2023 00:30:47 GMT-0400 (Eastern Daylight Time)","450684","Untrustworthy,Trustworthy","","","","ratingFB","","","null","","trustrating_stim/white_00340_940422_fa_edt.bmp","null","","","","","","","","","","",""
"image-keyboard-response","63","37659","0.0-6.0-1.29","610075c1ef04d1f734032f69","bdp_trlrn","Tue Mar 14 2023 00:30:47 GMT-0400 (Eastern Daylight Time)","450684","Untrustworthy,Trustworthy","","","","rating","","","405","","trustrating_stim/white_mw099.bmp","5","","","","","","","","","","",""
"image-keyboard-response","64","37861","0.0-6.0-2.29","610075c1ef04d1f734032f69","bdp_trlrn","Tue Mar 14 2023 00:30:47 GMT-0400 (Eastern Daylight Time)","450684","Untrustworthy,Trustworthy","","","","ratingFB","","","null","","trustrating_stim/white_mw099.bmp","null","","","","","","","","","","",""
"image-keyboard-response","65","38237","0.0-6.0-1.30","610075c1ef04d1f734032f69","bdp_trlrn","Tue Mar 14 2023 00:30:47 GMT-0400 (Eastern Daylight Time)","450684","Untrustworthy,Trustworthy","","","","rating","","","274","","trustrating_stim/white_mw033.bmp","5","","","","","","","","","","",""
"image-keyboard-response","66","38438","0.0-6.0-2.30","610075c1ef04d1f734032f69","bdp_trlrn","Tue Mar 14 2023 00:30:47 GMT-0400 (Eastern Daylight Time)","450684","Untrustworthy,Trustworthy","","","","ratingFB","","","null","","trustrating_stim/white_mw033.bmp","null","","","","","","","","","","",""
"image-keyboard-response","67","38982","0.0-6.0-1.31","610075c1ef04d1f734032f69","bdp_trlrn","Tue Mar 14 2023 00:30:47 GMT-0400 (Eastern Daylight Time)","450684","Untrustworthy,Trustworthy","","","","rating","","","443","","trustrating_stim/white_00120_931230_fa_edt.bmp","5","","","","","","","","","","",""
"image-keyboard-response","68","39183","0.0-6.0-2.31","610075c1ef04d1f734032f69","bdp_trlrn","Tue Mar 14 2023 00:30:47 GMT-0400 (Eastern Daylight Time)","450684","Untrustworthy,Trustworthy","","","","ratingFB","","","null","","trustrating_stim/white_00120_931230_fa_edt.bmp","null","","","","","","","","","","",""
"image-keyboard-response","69","40365","0.0-6.0-1.32","610075c1ef04d1f734032f69","bdp_trlrn","Tue Mar 14 2023 00:30:47 GMT-0400 (Eastern Daylight Time)","450684","Untrustworthy,Trustworthy","","","","rating","","","1081","","trustrating_stim/white_00898_960530_fa_edt.bmp","5","","","","","","","","","","",""
"image-keyboard-response","70","40566","0.0-6.0-2.32","610075c1ef04d1f734032f69","bdp_trlrn","Tue Mar 14 2023 00:30:47 GMT-0400 (Eastern Daylight Time)","450684","Untrustworthy,Trustworthy","","","","ratingFB","","","null","","trustrating_stim/white_00898_960530_fa_edt.bmp","null","","","","","","","","","","",""
"image-keyboard-response","71","41180","0.0-6.0-1.33","610075c1ef04d1f734032f69","bdp_trlrn","Tue Mar 14 2023 00:30:47 GMT-0400 (Eastern Daylight Time)","450684","Untrustworthy,Trustworthy","","","","rating","","","513","","trustrating_stim/white_00602_940928_fb_edt.bmp","5","","","","","","","","","","",""
"image-keyboard-response","72","41382","0.0-6.0-2.33","610075c1ef04d1f734032f69","bdp_trlrn","Tue Mar 14 2023 00:30:47 GMT-0400 (Eastern Daylight Time)","450684","Untrustworthy,Trustworthy","","","","ratingFB","","","null","","trustrating_stim/white_00602_940928_fb_edt.bmp","null","","","","","","","","","","",""
"image-keyboard-response","73","42140","0.0-6.0-1.34","610075c1ef04d1f734032f69","bdp_trlrn","Tue Mar 14 2023 00:30:47 GMT-0400 (Eastern Daylight Time)","450684","Untrustworthy,Trustworthy","","","","rating","","","657","","trustrating_stim/white_00659_941121_fa_edt.bmp","5","","","","","","","","","","",""
"image-keyboard-response","74","42341","0.0-6.0-2.34","610075c1ef04d1f734032f69","bdp_trlrn","Tue Mar 14 2023 00:30:47 GMT-0400 (Eastern Daylight Time)","450684","Untrustworthy,Trustworthy","","","","ratingFB","","","null","","trustrating_stim/white_00659_941121_fa_edt.bmp","null","","","","","","","","","","",""
"image-keyboard-response","75","43271","0.0-6.0-1.35","610075c1ef04d1f734032f69","bdp_trlrn","Tue Mar 14 2023 00:30:47 GMT-0400 (Eastern Daylight Time)","450684","Untrustworthy,Trustworthy","","","","rating","","","829","","trustrating_stim/white_mw099.bmp","5","","","","","","","","","","",""
"image-keyboard-response","76","43472","0.0-6.0-2.35","610075c1ef04d1f734032f69","bdp_trlrn","Tue Mar 14 2023 00:30:47 GMT-0400 (Eastern Daylight Time)","450684","Untrustworthy,Trustworthy","","","","ratingFB","","","null","","trustrating_stim/white_mw099.bmp","null","","","","","","","","","","",""
"image-keyboard-response","77","43769","0.0-6.0-1.36","610075c1ef04d1f734032f69","bdp_trlrn","Tue Mar 14 2023 00:30:47 GMT-0400 (Eastern Daylight Time)","450684","Untrustworthy,Trustworthy","","","","rating","","","195","","trustrating_stim/white_mw066.bmp","5","","","","","","","","","","",""
"image-keyboard-response","78","43970","0.0-6.0-2.36","610075c1ef04d1f734032f69","bdp_trlrn","Tue Mar 14 2023 00:30:47 GMT-0400 (Eastern Daylight Time)","450684","Untrustworthy,Trustworthy","","","","ratingFB","","","null","","trustrating_stim/white_mw066.bmp","null","","","","","","","","","","",""
"image-keyboard-response","79","44314","0.0-6.0-1.37","610075c1ef04d1f734032f69","bdp_trlrn","Tue Mar 14 2023 00:30:47 GMT-0400 (Eastern Daylight Time)","450684","Untrustworthy,Trustworthy","","","","rating","","","242","","trustrating_stim/white_mw056.bmp","5","","","","","","","","","","",""
"image-keyboard-response","80","44515","0.0-6.0-2.37","610075c1ef04d1f734032f69","bdp_trlrn","Tue Mar 14 2023 00:30:47 GMT-0400 (Eastern Daylight Time)","450684","Untrustworthy,Trustworthy","","","","ratingFB","","","null","","trustrating_stim/white_mw056.bmp","null","","","","","","","","","","",""
"image-keyboard-response","81","44900","0.0-6.0-1.38","610075c1ef04d1f734032f69","bdp_trlrn","Tue Mar 14 2023 00:30:47 GMT-0400 (Eastern Daylight Time)","450684","Untrustworthy,Trustworthy","","","","rating","","","284","","trustrating_stim/white_00223_940128_fb_edt.bmp","5","","","","","","","","","","",""
"image-keyboard-response","82","45101","0.0-6.0-2.38","610075c1ef04d1f734032f69","bdp_trlrn","Tue Mar 14 2023 00:30:47 GMT-0400 (Eastern Daylight Time)","450684","Untrustworthy,Trustworthy","","","","ratingFB","","","null","","trustrating_stim/white_00223_940128_fb_edt.bmp","null","","","","","","","","","","",""
"image-keyboard-response","83","45454","0.0-6.0-1.39","610075c1ef04d1f734032f69","bdp_trlrn","Tue Mar 14 2023 00:30:47 GMT-0400 (Eastern Daylight Time)","450684","Untrustworthy,Trustworthy","","","","rating","","","251","","trustrating_stim/white_00340_940422_fa_edt.bmp","5","","","","","","","","","","",""
"image-keyboard-response","84","45655","0.0-6.0-2.39","610075c1ef04d1f734032f69","bdp_trlrn","Tue Mar 14 2023 00:30:47 GMT-0400 (Eastern Daylight Time)","450684","Untrustworthy,Trustworthy","","","","ratingFB","","","null","","trustrating_stim/white_00340_940422_fa_edt.bmp","null","","","","","","","","","","",""
"image-keyboard-response","85","45984","0.0-6.0-1.40","610075c1ef04d1f734032f69","bdp_trlrn","Tue Mar 14 2023 00:30:47 GMT-0400 (Eastern Daylight Time)","450684","Untrustworthy,Trustworthy","","","","rating","","","228","","trustrating_stim/white_mw063.bmp","5","","","","","","","","","","",""
"image-keyboard-response","86","46185","0.0-6.0-2.40","610075c1ef04d1f734032f69","bdp_trlrn","Tue Mar 14 2023 00:30:47 GMT-0400 (Eastern Daylight Time)","450684","Untrustworthy,Trustworthy","","","","ratingFB","","","null","","trustrating_stim/white_mw063.bmp","null","","","","","","","","","","",""
"image-keyboard-response","87","46522","0.0-6.0-1.41","610075c1ef04d1f734032f69","bdp_trlrn","Tue Mar 14 2023 00:30:47 GMT-0400 (Eastern Daylight Time)","450684","Untrustworthy,Trustworthy","","","","rating","","","236","","trustrating_stim/white_00761_941201_fb_edt.bmp","5","","","","","","","","","","",""
"image-keyboard-response","88","46724","0.0-6.0-2.41","610075c1ef04d1f734032f69","bdp_trlrn","Tue Mar 14 2023 00:30:47 GMT-0400 (Eastern Daylight Time)","450684","Untrustworthy,Trustworthy","","","","ratingFB","","","null","","trustrating_stim/white_00761_941201_fb_edt.bmp","null","","","","","","","","","","",""
"image-keyboard-response","89","47095","0.0-6.0-1.42","610075c1ef04d1f734032f69","bdp_trlrn","Tue Mar 14 2023 00:30:47 GMT-0400 (Eastern Daylight Time)","450684","Untrustworthy,Trustworthy","","","","rating","","","270","","trustrating_stim/white_mw071.bmp","5","","","","","","","","","","",""
"image-keyboard-response","90","47297","0.0-6.0-2.42","610075c1ef04d1f734032f69","bdp_trlrn","Tue Mar 14 2023 00:30:47 GMT-0400 (Eastern Daylight Time)","450684","Untrustworthy,Trustworthy","","","","ratingFB","","","null","","trustrating_stim/white_mw071.bmp","null","","","","","","","","","","",""
"image-keyboard-response","91","47647","0.0-6.0-1.43","610075c1ef04d1f734032f69","bdp_trlrn","Tue Mar 14 2023 00:30:47 GMT-0400 (Eastern Daylight Time)","450684","Untrustworthy,Trustworthy","","","","rating","","","248","","trustrating_stim/white_00129_931230_fb_edt.bmp","5","","","","","","","","","","",""
"image-keyboard-response","92","47849","0.0-6.0-2.43","610075c1ef04d1f734032f69","bdp_trlrn","Tue Mar 14 2023 00:30:47 GMT-0400 (Eastern Daylight Time)","450684","Untrustworthy,Trustworthy","","","","ratingFB","","","null","","trustrating_stim/white_00129_931230_fb_edt.bmp","null","","","","","","","","","","",""
"image-keyboard-response","93","48185","0.0-6.0-1.44","610075c1ef04d1f734032f69","bdp_trlrn","Tue Mar 14 2023 00:30:47 GMT-0400 (Eastern Daylight Time)","450684","Untrustworthy,Trustworthy","","","","rating","","","233","","trustrating_stim/white_mw097.bmp","5","","","","","","","","","","",""
"image-keyboard-response","94","48386","0.0-6.0-2.44","610075c1ef04d1f734032f69","bdp_trlrn","Tue Mar 14 2023 00:30:47 GMT-0400 (Eastern Daylight Time)","450684","Untrustworthy,Trustworthy","","","","ratingFB","","","null","","trustrating_stim/white_mw097.bmp","null","","","","","","","","","","",""
"image-keyboard-response","95","48717","0.0-6.0-1.45","610075c1ef04d1f734032f69","bdp_trlrn","Tue Mar 14 2023 00:30:47 GMT-0400 (Eastern Daylight Time)","450684","Untrustworthy,Trustworthy","","","","rating","","","228","","trustrating_stim/white_00785_941205_fb_edt.bmp","5","","","","","","","","","","",""
"image-keyboard-response","96","48917","0.0-6.0-2.45","610075c1ef04d1f734032f69","bdp_trlrn","Tue Mar 14 2023 00:30:47 GMT-0400 (Eastern Daylight Time)","450684","Untrustworthy,Trustworthy","","","","ratingFB","","","null","","trustrating_stim/white_00785_941205_fb_edt.bmp","null","","","","","","","","","","",""
"image-keyboard-response","97","49289","0.0-6.0-1.46","610075c1ef04d1f734032f69","bdp_trlrn","Tue Mar 14 2023 00:30:47 GMT-0400 (Eastern Daylight Time)","450684","Untrustworthy,Trustworthy","","","","rating","","","270","","trustrating_stim/white_mw089.bmp","5","","","","","","","","","","",""
"image-keyboard-response","98","49490","0.0-6.0-2.46","610075c1ef04d1f734032f69","bdp_trlrn","Tue Mar 14 2023 00:30:47 GMT-0400 (Eastern Daylight Time)","450684","Untrustworthy,Trustworthy","","","","ratingFB","","","null","","trustrating_stim/white_mw089.bmp","null","","","","","","","","","","",""
"image-keyboard-response","99","49823","0.0-6.0-1.47","610075c1ef04d1f734032f69","bdp_trlrn","Tue Mar 14 2023 00:30:47 GMT-0400 (Eastern Daylight Time)","450684","Untrustworthy,Trustworthy","","","","rating","","","229","","trustrating_stim/white_00807_941205_fb_edt.bmp","5","","","","","","","","","","",""
"image-keyboard-response","100","50024","0.0-6.0-2.47","610075c1ef04d1f734032f69","bdp_trlrn","Tue Mar 14 2023 00:30:47 GMT-0400 (Eastern Daylight Time)","450684","Untrustworthy,Trustworthy","","","","ratingFB","","","null","","trustrating_stim/white_00807_941205_fb_edt.bmp","null","","","","","","","","","","",""
"image-keyboard-response","101","50373","0.0-6.0-1.48","610075c1ef04d1f734032f69","bdp_trlrn","Tue Mar 14 2023 00:30:47 GMT-0400 (Eastern Daylight Time)","450684","Untrustworthy,Trustworthy","","","","rating","","","246","","trustrating_stim/white_00109_931230_fa_edt.bmp","5","","","","","","","","","","",""
"image-keyboard-response","102","50576","0.0-6.0-2.48","610075c1ef04d1f734032f69","bdp_trlrn","Tue Mar 14 2023 00:30:47 GMT-0400 (Eastern Daylight Time)","450684","Untrustworthy,Trustworthy","","","","ratingFB","","","null","","trustrating_stim/white_00109_931230_fa_edt.bmp","null","","","","","","","","","","",""
"image-keyboard-response","103","50899","0.0-6.0-1.49","610075c1ef04d1f734032f69","bdp_trlrn","Tue Mar 14 2023 00:30:47 GMT-0400 (Eastern Daylight Time)","450684","Untrustworthy,Trustworthy","","","","rating","","","219","","trustrating_stim/white_mw035.bmp","5","","","","","","","","","","",""
"image-keyboard-response","104","51100","0.0-6.0-2.49","610075c1ef04d1f734032f69","bdp_trlrn","Tue Mar 14 2023 00:30:47 GMT-0400 (Eastern Daylight Time)","450684","Untrustworthy,Trustworthy","","","","ratingFB","","","null","","trustrating_stim/white_mw035.bmp","null","","","","","","","","","","",""
"image-keyboard-response","105","51458","0.0-6.0-1.50","610075c1ef04d1f734032f69","bdp_trlrn","Tue Mar 14 2023 00:30:47 GMT-0400 (Eastern Daylight Time)","450684","Untrustworthy,Trustworthy","","","","rating","","","255","","trustrating_stim/white_00757_941201_fa_edt.bmp","5","","","","","","","","","","",""
"image-keyboard-response","106","51659","0.0-6.0-2.50","610075c1ef04d1f734032f69","bdp_trlrn","Tue Mar 14 2023 00:30:47 GMT-0400 (Eastern Daylight Time)","450684","Untrustworthy,Trustworthy","","","","ratingFB","","","null","","trustrating_stim/white_00757_941201_fa_edt.bmp","null","","","","","","","","","","",""
"image-keyboard-response","107","51982","0.0-6.0-1.51","610075c1ef04d1f734032f69","bdp_trlrn","Tue Mar 14 2023 00:30:47 GMT-0400 (Eastern Daylight Time)","450684","Untrustworthy,Trustworthy","","","","rating","","","219","","trustrating_stim/white_00519_940519_fb_edt.bmp","5","","","","","","","","","","",""
"image-keyboard-response","108","52184","0.0-6.0-2.51","610075c1ef04d1f734032f69","bdp_trlrn","Tue Mar 14 2023 00:30:47 GMT-0400 (Eastern Daylight Time)","450684","Untrustworthy,Trustworthy","","","","ratingFB","","","null","","trustrating_stim/white_00519_940519_fb_edt.bmp","null","","","","","","","","","","",""
"image-keyboard-response","109","52516","0.0-6.0-1.52","610075c1ef04d1f734032f69","bdp_trlrn","Tue Mar 14 2023 00:30:47 GMT-0400 (Eastern Daylight Time)","450684","Untrustworthy,Trustworthy","","","","rating","","","228","","trustrating_stim/white_mw046.bmp","5","","","","","","","","","","",""
"image-keyboard-response","110","52718","0.0-6.0-2.52","610075c1ef04d1f734032f69","bdp_trlrn","Tue Mar 14 2023 00:30:47 GMT-0400 (Eastern Daylight Time)","450684","Untrustworthy,Trustworthy","","","","ratingFB","","","null","","trustrating_stim/white_mw046.bmp","null","","","","","","","","","","",""
"image-keyboard-response","111","53047","0.0-6.0-1.53","610075c1ef04d1f734032f69","bdp_trlrn","Tue Mar 14 2023 00:30:47 GMT-0400 (Eastern Daylight Time)","450684","Untrustworthy,Trustworthy","","","","rating","","","225","","trustrating_stim/white_00299_940422_fa_edt.bmp","5","","","","","","","","","","",""
"image-keyboard-response","112","53249","0.0-6.0-2.53","610075c1ef04d1f734032f69","bdp_trlrn","Tue Mar 14 2023 00:30:47 GMT-0400 (Eastern Daylight Time)","450684","Untrustworthy,Trustworthy","","","","ratingFB","","","null","","trustrating_stim/white_00299_940422_fa_edt.bmp","null","","","","","","","","","","",""
"image-keyboard-response","113","53552","0.0-6.0-1.54","610075c1ef04d1f734032f69","bdp_trlrn","Tue Mar 14 2023 00:30:47 GMT-0400 (Eastern Daylight Time)","450684","Untrustworthy,Trustworthy","","","","rating","","","202","","trustrating_stim/white_mw060.bmp","5","","","","","","","","","","",""
"image-keyboard-response","114","53753","0.0-6.0-2.54","610075c1ef04d1f734032f69","bdp_trlrn","Tue Mar 14 2023 00:30:47 GMT-0400 (Eastern Daylight Time)","450684","Untrustworthy,Trustworthy","","","","ratingFB","","","null","","trustrating_stim/white_mw060.bmp","null","","","","","","","","","","",""
"image-keyboard-response","115","54074","0.0-6.0-1.55","610075c1ef04d1f734032f69","bdp_trlrn","Tue Mar 14 2023 00:30:47 GMT-0400 (Eastern Daylight Time)","450684","Untrustworthy,Trustworthy","","","","rating","","","219","","trustrating_stim/white_00577_940928_fa_edt.bmp","5","","","","","","","","","","",""
"image-keyboard-response","116","54276","0.0-6.0-2.55","610075c1ef04d1f734032f69","bdp_trlrn","Tue Mar 14 2023 00:30:47 GMT-0400 (Eastern Daylight Time)","450684","Untrustworthy,Trustworthy","","","","ratingFB","","","null","","trustrating_stim/white_00577_940928_fa_edt.bmp","null","","","","","","","","","","",""
"image-keyboard-response","117","54583","0.0-6.0-1.56","610075c1ef04d1f734032f69","bdp_trlrn","Tue Mar 14 2023 00:30:47 GMT-0400 (Eastern Daylight Time)","450684","Untrustworthy,Trustworthy","","","","rating","","","205","","trustrating_stim/white_mw048.bmp","5","","","","","","","","","","",""
"image-keyboard-response","118","54785","0.0-6.0-2.56","610075c1ef04d1f734032f69","bdp_trlrn","Tue Mar 14 2023 00:30:47 GMT-0400 (Eastern Daylight Time)","450684","Untrustworthy,Trustworthy","","","","ratingFB","","","null","","trustrating_stim/white_mw048.bmp","null","","","","","","","","","","",""
"image-keyboard-response","119","55091","0.0-6.0-1.57","610075c1ef04d1f734032f69","bdp_trlrn","Tue Mar 14 2023 00:30:47 GMT-0400 (Eastern Daylight Time)","450684","Untrustworthy,Trustworthy","","","","rating","","","203","","trustrating_stim/white_mw053.bmp","5","","","","","","","","","","",""
"image-keyboard-response","120","55292","0.0-6.0-2.57","610075c1ef04d1f734032f69","bdp_trlrn","Tue Mar 14 2023 00:30:47 GMT-0400 (Eastern Daylight Time)","450684","Untrustworthy,Trustworthy","","","","ratingFB","","","null","","trustrating_stim/white_mw053.bmp","null","","","","","","","","","","",""
"image-keyboard-response","121","55617","0.0-6.0-1.58","610075c1ef04d1f734032f69","bdp_trlrn","Tue Mar 14 2023 00:30:47 GMT-0400 (Eastern Daylight Time)","450684","Untrustworthy,Trustworthy","","","","rating","","","222","","trustrating_stim/white_mw084.bmp","5","","","","","","","","","","",""
"image-keyboard-response","122","55818","0.0-6.0-2.58","610075c1ef04d1f734032f69","bdp_trlrn","Tue Mar 14 2023 00:30:47 GMT-0400 (Eastern Daylight Time)","450684","Untrustworthy,Trustworthy","","","","ratingFB","","","null","","trustrating_stim/white_mw084.bmp","null","","","","","","","","","","",""
"image-keyboard-response","123","56171","0.0-6.0-1.59","610075c1ef04d1f734032f69","bdp_trlrn","Tue Mar 14 2023 00:30:47 GMT-0400 (Eastern Daylight Time)","450684","Untrustworthy,Trustworthy","","","","rating","","","251","","trustrating_stim/white_mw049.bmp","5","","","","","","","","","","",""
"image-keyboard-response","124","56372","0.0-6.0-2.59","610075c1ef04d1f734032f69","bdp_trlrn","Tue Mar 14 2023 00:30:47 GMT-0400 (Eastern Daylight Time)","450684","Untrustworthy,Trustworthy","","","","ratingFB","","","null","","trustrating_stim/white_mw049.bmp","null","","","","","","","","","","",""
"instructions","125","57346","0.0-7.0","610075c1ef04d1f734032f69","bdp_trlrn","Tue Mar 14 2023 00:30:47 GMT-0400 (Eastern Daylight Time)","450684","Untrustworthy,Trustworthy","","","","","","[{""page_index"":0,""viewing_time"":870}]","870","","","","","","","","","","","","","",""
"instructions","126","96331","0.0-8.0","610075c1ef04d1f734032f69","bdp_trlrn","Tue Mar 14 2023 00:30:47 GMT-0400 (Eastern Daylight Time)","450684","Untrustworthy,Trustworthy","","","","","","[{""page_index"":0,""viewing_time"":5126},{""page_index"":1,""viewing_time"":4003},{""page_index"":2,""viewing_time"":5184},{""page_index"":3,""viewing_time"":1853},{""page_index"":4,""viewing_time"":1971},{""page_index"":5,""viewing_time"":13530},{""page_index"":6,""viewing_time"":6668},{""page_index"":7,""viewing_time"":549}]","38884","","","","","","","","","","","","","",""
"html-keyboard-response","127","102905","0.0-9.0","610075c1ef04d1f734032f69","bdp_trlrn","Tue Mar 14 2023 00:30:47 GMT-0400 (Eastern Daylight Time)","450684","Untrustworthy,Trustworthy","","","","","","","6573","","<div class='header' style='text-align:left; position: absolute; top: 5%; left: 5%;'><small>Task 3 of 5</small></div><div class='instruxDiv'><p><strong>1) What is the minimum number of points you can choose to send to your partner?</strong></p><p>a) 0</p><p>b) 1</p><p>c) 5</p>","A","","","","","","","","","","",""
"html-keyboard-response","128","104735","0.0-10.0","610075c1ef04d1f734032f69","bdp_trlrn","Tue Mar 14 2023 00:30:47 GMT-0400 (Eastern Daylight Time)","450684","Untrustworthy,Trustworthy","","","","","","","1727","","<div class='header' style='text-align:left; position: absolute; top: 5%; left: 5%;'><small>Task 3 of 5</small></div><div class='instruxDiv'><p><strong>1) What is the minimum number of points you can choose to send to your partner?</strong></p><p style='color:#FF0000'>a) 0</p><p>b) 1</p><p>c) 5</p><h3 style='color:#FF0000'>Incorrect!</h3><h3 class='center-content'>The correct response is b).</h3><h3 class='center-content'>The minimum number of points you can choose to send to your partner is 1 point.</h3><p><em>Press SPACEBAR to continue</em></p></div>"," ","","","","","","","","","","",""
"html-keyboard-response","129","107446","0.0-11.0","610075c1ef04d1f734032f69","bdp_trlrn","Tue Mar 14 2023 00:30:47 GMT-0400 (Eastern Daylight Time)","450684","Untrustworthy,Trustworthy","","","","","","","2610","","<div class='header' style='text-align:left; position: absolute; top: 5%; left: 5%;'><small>Task 3 of 5</small></div><div class='instruxDiv'><p><strong>2) What is the maximum number of points you can choose to send to your partner?</strong></p><p>a) 8</p><p>b) 5</p><p>c) 3</p>","B","","","","","","","","","","",""
"html-keyboard-response","130","108900","0.0-12.0","610075c1ef04d1f734032f69","bdp_trlrn","Tue Mar 14 2023 00:30:47 GMT-0400 (Eastern Daylight Time)","450684","Untrustworthy,Trustworthy","","","","","","","1353","","<div class='header' style='text-align:left; position: absolute; top: 5%; left: 5%;'><small>Task 3 of 5</small></div><div class='instruxDiv'><p><strong>2) What is the maximum number of points you can choose to send to your partner?</strong></p><p>a) 8</p><p style='color:#00FF00'>b) 5</p><p>c) 3</p><h3 style='color:#00FF00'>Correct!</h3><h3 class='center-content'>The correct response is b).</h3><h3 class='center-content'>The maximum number of points you can choose to send to your partner is 5 points.</h3><p><em>Press SPACEBAR to continue</em></p></div>"," ","","","","","","","","","","",""
"html-keyboard-response","131","111681","0.0-13.0","610075c1ef04d1f734032f69","bdp_trlrn","Tue Mar 14 2023 00:30:47 GMT-0400 (Eastern Daylight Time)","450684","Untrustworthy,Trustworthy","","","","","","","2681","","<div class='header' style='text-align:left; position: absolute; top: 5%; left: 5%;'><small>Task 3 of 5</small></div><div class='instruxDiv'><p><strong>3) What happens to the amount of points you send to your partner?</strong></p><p>a) Nothing</p><p>b) It doubles</p><p>c) It quadruples</p>","C","","","","","","","","","","",""
"html-keyboard-response","132","112334","0.0-14.0","610075c1ef04d1f734032f69","bdp_trlrn","Tue Mar 14 2023 00:30:47 GMT-0400 (Eastern Daylight Time)","450684","Untrustworthy,Trustworthy","","","","","","","552","","<div class='header' style='text-align:left; position: absolute; top: 5%; left: 5%;'><small>Task 3 of 5</small></div><div class='instruxDiv'><p><strong>3) What happens to the amount of points you send to your partner?</strong></p><p>a) Nothing</p><p>b) It doubles</p><p style='color:#00FF00'>c) It quadruples</p><h3 style='color:#00FF00'>Correct!</h3><h3 class='center-content'>The correct response is c).</h3><h3 class='center-content'>The amount of points you send to your partner quadruples.</h3><p><em>Press SPACEBAR to continue</em></p></div>"," ","","","","","","","","","","",""
"html-keyboard-response","133","123060","0.0-15.0","610075c1ef04d1f734032f69","bdp_trlrn","Tue Mar 14 2023 00:30:47 GMT-0400 (Eastern Daylight Time)","450684","Untrustworthy,Trustworthy","","","","","","","10626","","<div class='header' style='text-align:left; position: absolute; top: 5%; left: 5%;'><small>Task 3 of 5</small></div><div class='instruxDiv'><p><strong>4) If you decided to share 4 out of 5 points with your partner, and they decided to share half of the amount they received with you, how many points would you receive back from them on this round?</strong></p><p>a) 16</p><p>b) 0</p><p>c) 8</p>","C","","","","","","","","","","",""
"html-keyboard-response","134","123689","0.0-16.0","610075c1ef04d1f734032f69","bdp_trlrn","Tue Mar 14 2023 00:30:47 GMT-0400 (Eastern Daylight Time)","450684","Untrustworthy,Trustworthy","","","","","","","527","","<div class='header' style='text-align:left; position: absolute; top: 5%; left: 5%;'><small>Task 3 of 5</small></div><div class='instruxDiv'><p><strong>4) If you decided to share 4 out of 5 points with your partner, and they decided to share half of the amount they received with you, how many points would you receive back from them on this round?</strong></p><p>a) 16</p><p>b) 0</p><p style='color:#00FF00'>c) 8</p><h3 style='color:#00FF00'>Correct!</h3><h3 class='center-content'>The correct response is c).</h3><h3 class='center-content'>If you shared 4 out of 5 points with your partner and they decided to share half of the amount they received with you, you would receive 8 points back (i.e. (4 x 4)/2 = 8).</h3><p><em>Press SPACEBAR to continue</em></p></div>"," ","","","","","","","","","","",""
"html-keyboard-response","135","128791","0.0-17.0","610075c1ef04d1f734032f69","bdp_trlrn","Tue Mar 14 2023 00:30:47 GMT-0400 (Eastern Daylight Time)","450684","Untrustworthy,Trustworthy","","","","","","","null","","<div class='header' style='text-align:left; position: absolute; top: 5%; left: 5%;'><small>Task 3 of 5</small></div><div class='instruxDiv'><p>Thank you for completing the quiz<p>These are the actual partners you will be interacting with in the next block:<p><div class='tc' align='center'><img class='introPic' src='trustrating_stim/white_00761_941201_fb_edt.bmp'><br><strong>David</strong></div><div class='bl' align='center'><img class='introPic' src='trustrating_stim/white_mw046.bmp'><br><strong>Nathan</strong></div><div class='br' align='center'><img class='introPic' src='trustrating_stim/white_mw071.bmp'><br><strong>Michael</strong></div></div><p>Across <strong>66 rounds</strong> you will interact with each partner <strong>22 times</strong> (in random order).<p style='align:center; color:white'><font <em>Press SPACEBAR to continue</em></p>","null","","","","","","","","","","",""
"instructions","136","148544","0.0-18.0","610075c1ef04d1f734032f69","bdp_trlrn","Tue Mar 14 2023 00:30:47 GMT-0400 (Eastern Daylight Time)","450684","Untrustworthy,Trustworthy","","","","","","[{""page_index"":0,""viewing_time"":18594},{""page_index"":1,""viewing_time"":1159}]","19753","","","","","","","","","","","","","",""
"html-keyboard-response","137","153599","0.0-19.0-1.0","610075c1ef04d1f734032f69","bdp_trlrn","Tue Mar 14 2023 00:30:47 GMT-0400 (Eastern Daylight Time)","450684","Untrustworthy,Trustworthy","","","","decision","","","4950","","<div class='trialDiv'><img src='trustrating_stim/white_mw046.bmp'><br><font class='baseline'><strong>Nathan</strong><p>Choose number of points to send.</font><div class='respPicDiv'><img src='img/responseButtonOffersNo0L.png' class='respPic'></div></div>","3","1","Nathan","4","Kept","0.35,0.8","13","0.35","trustrating_stim/white_mw046.bmp","5","5","1"
"html-keyboard-response","138","153854","0.0-19.0-2.0","610075c1ef04d1f734032f69","bdp_trlrn","Tue Mar 14 2023 00:30:47 GMT-0400 (Eastern Daylight Time)","450684","Untrustworthy,Trustworthy","","","","decisionFB","","","null","","<div class='trialDiv'><img src='trustrating_stim/white_mw046.bmp'><br><font class='baseline'><strong>Nathan</strong><p>Choose number of points to send.</font><div class='respPicDiv'><img src='img/responseButtonOffersNo0L3.png' class='respPic'></div></div>","null","1","Nathan","4","Kept","0.35,0.8","13","0.35","trustrating_stim/white_mw046.bmp","5","2","1"
"html-keyboard-response","139","154867","0.0-19.0-3.0","610075c1ef04d1f734032f69","bdp_trlrn","Tue Mar 14 2023 00:30:47 GMT-0400 (Eastern Daylight Time)","450684","Untrustworthy,Trustworthy","","","","feedback","","","null","","<div class='trialDiv'><img src='trustrating_stim/white_mw046.bmp'><br><font class='baseline'><strong>Nathan</strong><p>Received: <strong>12</strong></font> &nbsp; &nbsp; &nbsp; &nbsp; &nbsp; &nbsp;<font class='negOutcome'>Shared back: <strong>0</strong></font></font><div class='respPicDiv'><img src='img/responseButtonOffersNo0_wht.png' class='respPic'></div></div>","null","1","Nathan","4","Kept","0.35,0.8","13","0.35","trustrating_stim/white_mw046.bmp","5","2","1"
"html-keyboard-response","140","157097","0.0-19.0-1.1","610075c1ef04d1f734032f69","bdp_trlrn","Tue Mar 14 2023 00:30:47 GMT-0400 (Eastern Daylight Time)","450684","Untrustworthy,Trustworthy","","","","decision","","","2229","","<div class='trialDiv'><img src='trustrating_stim/white_mw071.bmp'><br><font class='baseline'><strong>Michael</strong><p>Choose number of points to send.</font><div class='respPicDiv'><img src='img/responseButtonOffersNo0L.png' class='respPic'></div></div>","3","1","Michael","8","Shared","0.65,0.2","9","0.65","trustrating_stim/white_mw071.bmp","5","7","2"
"html-keyboard-response","141","157350","0.0-19.0-2.1","610075c1ef04d1f734032f69","bdp_trlrn","Tue Mar 14 2023 00:30:47 GMT-0400 (Eastern Daylight Time)","450684","Untrustworthy,Trustworthy","","","","decisionFB","","","null","","<div class='trialDiv'><img src='trustrating_stim/white_mw071.bmp'><br><font class='baseline'><strong>Michael</strong><p>Choose number of points to send.</font><div class='respPicDiv'><img src='img/responseButtonOffersNo0L3.png' class='respPic'></div></div>","null","1","Michael","8","Shared","0.65,0.2","9","0.65","trustrating_stim/white_mw071.bmp","5","4","2"
"html-keyboard-response","142","158353","0.0-19.0-3.1","610075c1ef04d1f734032f69","bdp_trlrn","Tue Mar 14 2023 00:30:47 GMT-0400 (Eastern Daylight Time)","450684","Untrustworthy,Trustworthy","","","","feedback","","","null","","<div class='trialDiv'><img src='trustrating_stim/white_mw071.bmp'><br><font class='baseline'><strong>Michael</strong><p>Received: <strong>12</strong></font> &nbsp; &nbsp; &nbsp; &nbsp; &nbsp; &nbsp;<font class='posOutcome'>Shared back: <strong>6</strong></font></font><div class='respPicDiv'><img src='img/responseButtonOffersNo0_wht.png' class='respPic'></div></div>","null","1","Michael","8","Shared","0.65,0.2","9","0.65","trustrating_stim/white_mw071.bmp","5","10","2"
"html-keyboard-response","143","159514","0.0-19.0-1.2","610075c1ef04d1f734032f69","bdp_trlrn","Tue Mar 14 2023 00:30:47 GMT-0400 (Eastern Daylight Time)","450684","Untrustworthy,Trustworthy","","","","decision","","","1160","","<div class='trialDiv'><img src='trustrating_stim/white_00761_941201_fb_edt.bmp'><br><font class='baseline'><strong>David</strong><p>Choose number of points to send.</font><div class='respPicDiv'><img src='img/responseButtonOffersNo0L.png' class='respPic'></div></div>","3","1","David","1","Kept","0.35,0.65","14","0.35","trustrating_stim/white_00761_941201_fb_edt.bmp","5","15","3"
"html-keyboard-response","144","159765","0.0-19.0-2.2","610075c1ef04d1f734032f69","bdp_trlrn","Tue Mar 14 2023 00:30:47 GMT-0400 (Eastern Daylight Time)","450684","Untrustworthy,Trustworthy","","","","decisionFB","","","null","","<div class='trialDiv'><img src='trustrating_stim/white_00761_941201_fb_edt.bmp'><br><font class='baseline'><strong>David</strong><p>Choose number of points to send.</font><div class='respPicDiv'><img src='img/responseButtonOffersNo0L3.png' class='respPic'></div></div>","null","1","David","1","Kept","0.35,0.65","14","0.35","trustrating_stim/white_00761_941201_fb_edt.bmp","5","12","3"
"html-keyboard-response","145","160767","0.0-19.0-3.2","610075c1ef04d1f734032f69","bdp_trlrn","Tue Mar 14 2023 00:30:47 GMT-0400 (Eastern Daylight Time)","450684","Untrustworthy,Trustworthy","","","","feedback","","","null","","<div class='trialDiv'><img src='trustrating_stim/white_00761_941201_fb_edt.bmp'><br><font class='baseline'><strong>David</strong><p>Received: <strong>12</strong></font> &nbsp; &nbsp; &nbsp; &nbsp; &nbsp; &nbsp;<font class='negOutcome'>Shared back: <strong>0</strong></font></font><div class='respPicDiv'><img src='img/responseButtonOffersNo0_wht.png' class='respPic'></div></div>","null","1","David","1","Kept","0.35,0.65","14","0.35","trustrating_stim/white_00761_941201_fb_edt.bmp","5","12","3"
"html-keyboard-response","146","162410","0.0-19.0-1.3","610075c1ef04d1f734032f69","bdp_trlrn","Tue Mar 14 2023 00:30:47 GMT-0400 (Eastern Daylight Time)","450684","Untrustworthy,Trustworthy","","","","decision","","","1642","","<div class='trialDiv'><img src='trustrating_stim/white_mw071.bmp'><br><font class='baseline'><strong>Michael</strong><p>Choose number of points to send.</font><div class='respPicDiv'><img src='img/responseButtonOffersNo0L.png' class='respPic'></div></div>","3","2","Michael","8","Kept","0.65,0.2","9","0.65","trustrating_stim/white_mw071.bmp","5","17","4"
"html-keyboard-response","147","162662","0.0-19.0-2.3","610075c1ef04d1f734032f69","bdp_trlrn","Tue Mar 14 2023 00:30:47 GMT-0400 (Eastern Daylight Time)","450684","Untrustworthy,Trustworthy","","","","decisionFB","","","null","","<div class='trialDiv'><img src='trustrating_stim/white_mw071.bmp'><br><font class='baseline'><strong>Michael</strong><p>Choose number of points to send.</font><div class='respPicDiv'><img src='img/responseButtonOffersNo0L3.png' class='respPic'></div></div>","null","2","Michael","8","Kept","0.65,0.2","9","0.65","trustrating_stim/white_mw071.bmp","5","14","4"
"html-keyboard-response","148","163663","0.0-19.0-3.3","610075c1ef04d1f734032f69","bdp_trlrn","Tue Mar 14 2023 00:30:47 GMT-0400 (Eastern Daylight Time)","450684","Untrustworthy,Trustworthy","","","","feedback","","","null","","<div class='trialDiv'><img src='trustrating_stim/white_mw071.bmp'><br><font class='baseline'><strong>Michael</strong><p>Received: <strong>12</strong></font> &nbsp; &nbsp; &nbsp; &nbsp; &nbsp; &nbsp;<font class='negOutcome'>Shared back: <strong>0</strong></font></font><div class='respPicDiv'><img src='img/responseButtonOffersNo0_wht.png' class='respPic'></div></div>","null","2","Michael","8","Kept","0.65,0.2","9","0.65","trustrating_stim/white_mw071.bmp","5","14","4"
"html-keyboard-response","149","173275","0.0-19.0-1.4","610075c1ef04d1f734032f69","bdp_trlrn","Tue Mar 14 2023 00:30:47 GMT-0400 (Eastern Daylight Time)","450684","Untrustworthy,Trustworthy","","","","decision","","","9611","","<div class='trialDiv'><img src='trustrating_stim/white_00761_941201_fb_edt.bmp'><br><font class='baseline'><strong>David</strong><p>Choose number of points to send.</font><div class='respPicDiv'><img src='img/responseButtonOffersNo0L.png' class='respPic'></div></div>","3","2","David","1","Kept","0.35,0.65","14","0.35","trustrating_stim/white_00761_941201_fb_edt.bmp","5","19","5"
"html-keyboard-response","150","173527","0.0-19.0-2.4","610075c1ef04d1f734032f69","bdp_trlrn","Tue Mar 14 2023 00:30:47 GMT-0400 (Eastern Daylight Time)","450684","Untrustworthy,Trustworthy","","","","decisionFB","","","null","","<div class='trialDiv'><img src='trustrating_stim/white_00761_941201_fb_edt.bmp'><br><font class='baseline'><strong>David</strong><p>Choose number of points to send.</font><div class='respPicDiv'><img src='img/responseButtonOffersNo0L3.png' class='respPic'></div></div>","null","2","David","1","Kept","0.35,0.65","14","0.35","trustrating_stim/white_00761_941201_fb_edt.bmp","5","16","5"
"html-keyboard-response","151","174529","0.0-19.0-3.4","610075c1ef04d1f734032f69","bdp_trlrn","Tue Mar 14 2023 00:30:47 GMT-0400 (Eastern Daylight Time)","450684","Untrustworthy,Trustworthy","","","","feedback","","","null","","<div class='trialDiv'><img src='trustrating_stim/white_00761_941201_fb_edt.bmp'><br><font class='baseline'><strong>David</strong><p>Received: <strong>12</strong></font> &nbsp; &nbsp; &nbsp; &nbsp; &nbsp; &nbsp;<font class='negOutcome'>Shared back: <strong>0</strong></font></font><div class='respPicDiv'><img src='img/responseButtonOffersNo0_wht.png' class='respPic'></div></div>","null","2","David","1","Kept","0.35,0.65","14","0.35","trustrating_stim/white_00761_941201_fb_edt.bmp","5","16","5"
"html-keyboard-response","152","175314","0.0-19.0-1.5","610075c1ef04d1f734032f69","bdp_trlrn","Tue Mar 14 2023 00:30:47 GMT-0400 (Eastern Daylight Time)","450684","Untrustworthy,Trustworthy","","","","decision","","","785","","<div class='trialDiv'><img src='trustrating_stim/white_mw046.bmp'><br><font class='baseline'><strong>Nathan</strong><p>Choose number of points to send.</font><div class='respPicDiv'><img src='img/responseButtonOffersNo0L.png' class='respPic'></div></div>","3","2","Nathan","4","Shared","0.35,0.8","13","0.35","trustrating_stim/white_mw046.bmp","5","21","6"
"html-keyboard-response","153","175565","0.0-19.0-2.5","610075c1ef04d1f734032f69","bdp_trlrn","Tue Mar 14 2023 00:30:47 GMT-0400 (Eastern Daylight Time)","450684","Untrustworthy,Trustworthy","","","","decisionFB","","","null","","<div class='trialDiv'><img src='trustrating_stim/white_mw046.bmp'><br><font class='baseline'><strong>Nathan</strong><p>Choose number of points to send.</font><div class='respPicDiv'><img src='img/responseButtonOffersNo0L3.png' class='respPic'></div></div>","null","2","Nathan","4","Shared","0.35,0.8","13","0.35","trustrating_stim/white_mw046.bmp","5","18","6"
"html-keyboard-response","154","176566","0.0-19.0-3.5","610075c1ef04d1f734032f69","bdp_trlrn","Tue Mar 14 2023 00:30:47 GMT-0400 (Eastern Daylight Time)","450684","Untrustworthy,Trustworthy","","","","feedback","","","null","","<div class='trialDiv'><img src='trustrating_stim/white_mw046.bmp'><br><font class='baseline'><strong>Nathan</strong><p>Received: <strong>12</strong></font> &nbsp; &nbsp; &nbsp; &nbsp; &nbsp; &nbsp;<font class='posOutcome'>Shared back: <strong>6</strong></font></font><div class='respPicDiv'><img src='img/responseButtonOffersNo0_wht.png' class='respPic'></div></div>","null","2","Nathan","4","Shared","0.35,0.8","13","0.35","trustrating_stim/white_mw046.bmp","5","24","6"
"html-keyboard-response","155","177496","0.0-19.0-1.6","610075c1ef04d1f734032f69","bdp_trlrn","Tue Mar 14 2023 00:30:47 GMT-0400 (Eastern Daylight Time)","450684","Untrustworthy,Trustworthy","","","","decision","","","929","","<div class='trialDiv'><img src='trustrating_stim/white_mw071.bmp'><br><font class='baseline'><strong>Michael</strong><p>Choose number of points to send.</font><div class='respPicDiv'><img src='img/responseButtonOffersNo0L.png' class='respPic'></div></div>","3","3","Michael","8","Shared","0.65,0.2","9","0.65","trustrating_stim/white_mw071.bmp","5","29","7"
"html-keyboard-response","156","177747","0.0-19.0-2.6","610075c1ef04d1f734032f69","bdp_trlrn","Tue Mar 14 2023 00:30:47 GMT-0400 (Eastern Daylight Time)","450684","Untrustworthy,Trustworthy","","","","decisionFB","","","null","","<div class='trialDiv'><img src='trustrating_stim/white_mw071.bmp'><br><font class='baseline'><strong>Michael</strong><p>Choose number of points to send.</font><div class='respPicDiv'><img src='img/responseButtonOffersNo0L3.png' class='respPic'></div></div>","null","3","Michael","8","Shared","0.65,0.2","9","0.65","trustrating_stim/white_mw071.bmp","5","26","7"
"html-keyboard-response","157","178749","0.0-19.0-3.6","610075c1ef04d1f734032f69","bdp_trlrn","Tue Mar 14 2023 00:30:47 GMT-0400 (Eastern Daylight Time)","450684","Untrustworthy,Trustworthy","","","","feedback","","","null","","<div class='trialDiv'><img src='trustrating_stim/white_mw071.bmp'><br><font class='baseline'><strong>Michael</strong><p>Received: <strong>12</strong></font> &nbsp; &nbsp; &nbsp; &nbsp; &nbsp; &nbsp;<font class='posOutcome'>Shared back: <strong>6</strong></font></font><div class='respPicDiv'><img src='img/responseButtonOffersNo0_wht.png' class='respPic'></div></div>","null","3","Michael","8","Shared","0.65,0.2","9","0.65","trustrating_stim/white_mw071.bmp","5","32","7"
"html-keyboard-response","158","182397","0.0-19.0-1.7","610075c1ef04d1f734032f69","bdp_trlrn","Tue Mar 14 2023 00:30:47 GMT-0400 (Eastern Daylight Time)","450684","Untrustworthy,Trustworthy","","","","decision","","","3647","","<div class='trialDiv'><img src='trustrating_stim/white_mw046.bmp'><br><font class='baseline'><strong>Nathan</strong><p>Choose number of points to send.</font><div class='respPicDiv'><img src='img/responseButtonOffersNo0L.png' class='respPic'></div></div>","5","3","Nathan","4","Kept","0.35,0.8","13","0.35","trustrating_stim/white_mw046.bmp","5","37","8"
"html-keyboard-response","159","182650","0.0-19.0-2.7","610075c1ef04d1f734032f69","bdp_trlrn","Tue Mar 14 2023 00:30:47 GMT-0400 (Eastern Daylight Time)","450684","Untrustworthy,Trustworthy","","","","decisionFB","","","null","","<div class='trialDiv'><img src='trustrating_stim/white_mw046.bmp'><br><font class='baseline'><strong>Nathan</strong><p>Choose number of points to send.</font><div class='respPicDiv'><img src='img/responseButtonOffersNo0L5.png' class='respPic'></div></div>","null","3","Nathan","4","Kept","0.35,0.8","13","0.35","trustrating_stim/white_mw046.bmp","5","32","8"
"html-keyboard-response","160","183652","0.0-19.0-3.7","610075c1ef04d1f734032f69","bdp_trlrn","Tue Mar 14 2023 00:30:47 GMT-0400 (Eastern Daylight Time)","450684","Untrustworthy,Trustworthy","","","","feedback","","","null","","<div class='trialDiv'><img src='trustrating_stim/white_mw046.bmp'><br><font class='baseline'><strong>Nathan</strong><p>Received: <strong>20</strong></font> &nbsp; &nbsp; &nbsp; &nbsp; &nbsp; &nbsp;<font class='negOutcome'>Shared back: <strong>0</strong></font></font><div class='respPicDiv'><img src='img/responseButtonOffersNo0_wht.png' class='respPic'></div></div>","null","3","Nathan","4","Kept","0.35,0.8","13","0.35","trustrating_stim/white_mw046.bmp","5","32","8"
"html-keyboard-response","161","186819","0.0-19.0-1.8","610075c1ef04d1f734032f69","bdp_trlrn","Tue Mar 14 2023 00:30:47 GMT-0400 (Eastern Daylight Time)","450684","Untrustworthy,Trustworthy","","","","decision","","","3164","","<div class='trialDiv'><img src='trustrating_stim/white_00761_941201_fb_edt.bmp'><br><font class='baseline'><strong>David</strong><p>Choose number of points to send.</font><div class='respPicDiv'><img src='img/responseButtonOffersNo0L.png' class='respPic'></div></div>","1","3","David","1","Shared","0.35,0.65","14","0.35","trustrating_stim/white_00761_941201_fb_edt.bmp","5","37","9"
"html-keyboard-response","162","187071","0.0-19.0-2.8","610075c1ef04d1f734032f69","bdp_trlrn","Tue Mar 14 2023 00:30:47 GMT-0400 (Eastern Daylight Time)","450684","Untrustworthy,Trustworthy","","","","decisionFB","","","null","","<div class='trialDiv'><img src='trustrating_stim/white_00761_941201_fb_edt.bmp'><br><font class='baseline'><strong>David</strong><p>Choose number of points to send.</font><div class='respPicDiv'><img src='img/responseButtonOffersNo0L1.png' class='respPic'></div></div>","null","3","David","1","Shared","0.35,0.65","14","0.35","trustrating_stim/white_00761_941201_fb_edt.bmp","5","36","9"
"html-keyboard-response","163","188073","0.0-19.0-3.8","610075c1ef04d1f734032f69","bdp_trlrn","Tue Mar 14 2023 00:30:47 GMT-0400 (Eastern Daylight Time)","450684","Untrustworthy,Trustworthy","","","","feedback","","","null","","<div class='trialDiv'><img src='trustrating_stim/white_00761_941201_fb_edt.bmp'><br><font class='baseline'><strong>David</strong><p>Received: <strong>4</strong></font> &nbsp; &nbsp; &nbsp; &nbsp; &nbsp; &nbsp;<font class='posOutcome'>Shared back: <strong>2</strong></font></font><div class='respPicDiv'><img src='img/responseButtonOffersNo0_wht.png' class='respPic'></div></div>","null","3","David","1","Shared","0.35,0.65","14","0.35","trustrating_stim/white_00761_941201_fb_edt.bmp","5","38","9"
"html-keyboard-response","164","189040","0.0-19.0-1.9","610075c1ef04d1f734032f69","bdp_trlrn","Tue Mar 14 2023 00:30:47 GMT-0400 (Eastern Daylight Time)","450684","Untrustworthy,Trustworthy","","","","decision","","","964","","<div class='trialDiv'><img src='trustrating_stim/white_mw071.bmp'><br><font class='baseline'><strong>Michael</strong><p>Choose number of points to send.</font><div class='respPicDiv'><img src='img/responseButtonOffersNo0L.png' class='respPic'></div></div>","3","4","Michael","8","Shared","0.65,0.2","9","0.65","trustrating_stim/white_mw071.bmp","5","43","10"
"html-keyboard-response","165","189292","0.0-19.0-2.9","610075c1ef04d1f734032f69","bdp_trlrn","Tue Mar 14 2023 00:30:47 GMT-0400 (Eastern Daylight Time)","450684","Untrustworthy,Trustworthy","","","","decisionFB","","","null","","<div class='trialDiv'><img src='trustrating_stim/white_mw071.bmp'><br><font class='baseline'><strong>Michael</strong><p>Choose number of points to send.</font><div class='respPicDiv'><img src='img/responseButtonOffersNo0L3.png' class='respPic'></div></div>","null","4","Michael","8","Shared","0.65,0.2","9","0.65","trustrating_stim/white_mw071.bmp","5","40","10"
"html-keyboard-response","166","190308","0.0-19.0-3.9","610075c1ef04d1f734032f69","bdp_trlrn","Tue Mar 14 2023 00:30:47 GMT-0400 (Eastern Daylight Time)","450684","Untrustworthy,Trustworthy","","","","feedback","","","null","","<div class='trialDiv'><img src='trustrating_stim/white_mw071.bmp'><br><font class='baseline'><strong>Michael</strong><p>Received: <strong>12</strong></font> &nbsp; &nbsp; &nbsp; &nbsp; &nbsp; &nbsp;<font class='posOutcome'>Shared back: <strong>6</strong></font></font><div class='respPicDiv'><img src='img/responseButtonOffersNo0_wht.png' class='respPic'></div></div>","null","4","Michael","8","Shared","0.65,0.2","9","0.65","trustrating_stim/white_mw071.bmp","5","46","10"
"html-keyboard-response","167","193164","0.0-19.0-1.10","610075c1ef04d1f734032f69","bdp_trlrn","Tue Mar 14 2023 00:30:47 GMT-0400 (Eastern Daylight Time)","450684","Untrustworthy,Trustworthy","","","","decision","","","2856","","<div class='trialDiv'><img src='trustrating_stim/white_mw046.bmp'><br><font class='baseline'><strong>Nathan</strong><p>Choose number of points to send.</font><div class='respPicDiv'><img src='img/responseButtonOffersNo0L.png' class='respPic'></div></div>","5","4","Nathan","4","Kept","0.35,0.8","13","0.35","trustrating_stim/white_mw046.bmp","5","51","11"
"html-keyboard-response","168","193416","0.0-19.0-2.10","610075c1ef04d1f734032f69","bdp_trlrn","Tue Mar 14 2023 00:30:47 GMT-0400 (Eastern Daylight Time)","450684","Untrustworthy,Trustworthy","","","","decisionFB","","","null","","<div class='trialDiv'><img src='trustrating_stim/white_mw046.bmp'><br><font class='baseline'><strong>Nathan</strong><p>Choose number of points to send.</font><div class='respPicDiv'><img src='img/responseButtonOffersNo0L5.png' class='respPic'></div></div>","null","4","Nathan","4","Kept","0.35,0.8","13","0.35","trustrating_stim/white_mw046.bmp","5","46","11"
"html-keyboard-response","169","194418","0.0-19.0-3.10","610075c1ef04d1f734032f69","bdp_trlrn","Tue Mar 14 2023 00:30:47 GMT-0400 (Eastern Daylight Time)","450684","Untrustworthy,Trustworthy","","","","feedback","","","null","","<div class='trialDiv'><img src='trustrating_stim/white_mw046.bmp'><br><font class='baseline'><strong>Nathan</strong><p>Received: <strong>20</strong></font> &nbsp; &nbsp; &nbsp; &nbsp; &nbsp; &nbsp;<font class='negOutcome'>Shared back: <strong>0</strong></font></font><div class='respPicDiv'><img src='img/responseButtonOffersNo0_wht.png' class='respPic'></div></div>","null","4","Nathan","4","Kept","0.35,0.8","13","0.35","trustrating_stim/white_mw046.bmp","5","46","11"
"html-keyboard-response","170","195118","0.0-19.0-1.11","610075c1ef04d1f734032f69","bdp_trlrn","Tue Mar 14 2023 00:30:47 GMT-0400 (Eastern Daylight Time)","450684","Untrustworthy,Trustworthy","","","","decision","","","698","","<div class='trialDiv'><img src='trustrating_stim/white_00761_941201_fb_edt.bmp'><br><font class='baseline'><strong>David</strong><p>Choose number of points to send.</font><div class='respPicDiv'><img src='img/responseButtonOffersNo0L.png' class='respPic'></div></div>","5","4","David","1","Kept","0.35,0.65","14","0.35","trustrating_stim/white_00761_941201_fb_edt.bmp","5","51","12"
"html-keyboard-response","171","195370","0.0-19.0-2.11","610075c1ef04d1f734032f69","bdp_trlrn","Tue Mar 14 2023 00:30:47 GMT-0400 (Eastern Daylight Time)","450684","Untrustworthy,Trustworthy","","","","decisionFB","","","null","","<div class='trialDiv'><img src='trustrating_stim/white_00761_941201_fb_edt.bmp'><br><font class='baseline'><strong>David</strong><p>Choose number of points to send.</font><div class='respPicDiv'><img src='img/responseButtonOffersNo0L5.png' class='respPic'></div></div>","null","4","David","1","Kept","0.35,0.65","14","0.35","trustrating_stim/white_00761_941201_fb_edt.bmp","5","46","12"
"html-keyboard-response","172","196373","0.0-19.0-3.11","610075c1ef04d1f734032f69","bdp_trlrn","Tue Mar 14 2023 00:30:47 GMT-0400 (Eastern Daylight Time)","450684","Untrustworthy,Trustworthy","","","","feedback","","","null","","<div class='trialDiv'><img src='trustrating_stim/white_00761_941201_fb_edt.bmp'><br><font class='baseline'><strong>David</strong><p>Received: <strong>20</strong></font> &nbsp; &nbsp; &nbsp; &nbsp; &nbsp; &nbsp;<font class='negOutcome'>Shared back: <strong>0</strong></font></font><div class='respPicDiv'><img src='img/responseButtonOffersNo0_wht.png' class='respPic'></div></div>","null","4","David","1","Kept","0.35,0.65","14","0.35","trustrating_stim/white_00761_941201_fb_edt.bmp","5","46","12"
"html-keyboard-response","173","196714","0.0-19.0-1.12","610075c1ef04d1f734032f69","bdp_trlrn","Tue Mar 14 2023 00:30:47 GMT-0400 (Eastern Daylight Time)","450684","Untrustworthy,Trustworthy","","","","decision","","","340","","<div class='trialDiv'><img src='trustrating_stim/white_mw071.bmp'><br><font class='baseline'><strong>Michael</strong><p>Choose number of points to send.</font><div class='respPicDiv'><img src='img/responseButtonOffersNo0L.png' class='respPic'></div></div>","5","5","Michael","8","Kept","0.65,0.2","9","0.65","trustrating_stim/white_mw071.bmp","5","51","13"
"html-keyboard-response","174","196965","0.0-19.0-2.12","610075c1ef04d1f734032f69","bdp_trlrn","Tue Mar 14 2023 00:30:47 GMT-0400 (Eastern Daylight Time)","450684","Untrustworthy,Trustworthy","","","","decisionFB","","","null","","<div class='trialDiv'><img src='trustrating_stim/white_mw071.bmp'><br><font class='baseline'><strong>Michael</strong><p>Choose number of points to send.</font><div class='respPicDiv'><img src='img/responseButtonOffersNo0L5.png' class='respPic'></div></div>","null","5","Michael","8","Kept","0.65,0.2","9","0.65","trustrating_stim/white_mw071.bmp","5","46","13"
"html-keyboard-response","175","197968","0.0-19.0-3.12","610075c1ef04d1f734032f69","bdp_trlrn","Tue Mar 14 2023 00:30:47 GMT-0400 (Eastern Daylight Time)","450684","Untrustworthy,Trustworthy","","","","feedback","","","null","","<div class='trialDiv'><img src='trustrating_stim/white_mw071.bmp'><br><font class='baseline'><strong>Michael</strong><p>Received: <strong>20</strong></font> &nbsp; &nbsp; &nbsp; &nbsp; &nbsp; &nbsp;<font class='negOutcome'>Shared back: <strong>0</strong></font></font><div class='respPicDiv'><img src='img/responseButtonOffersNo0_wht.png' class='respPic'></div></div>","null","5","Michael","8","Kept","0.65,0.2","9","0.65","trustrating_stim/white_mw071.bmp","5","46","13"
"html-keyboard-response","176","198887","0.0-19.0-1.13","610075c1ef04d1f734032f69","bdp_trlrn","Tue Mar 14 2023 00:30:47 GMT-0400 (Eastern Daylight Time)","450684","Untrustworthy,Trustworthy","","","","decision","","","918","","<div class='trialDiv'><img src='trustrating_stim/white_00761_941201_fb_edt.bmp'><br><font class='baseline'><strong>David</strong><p>Choose number of points to send.</font><div class='respPicDiv'><img src='img/responseButtonOffersNo0L.png' class='respPic'></div></div>","3","5","David","1","Shared","0.35,0.65","14","0.35","trustrating_stim/white_00761_941201_fb_edt.bmp","5","51","14"
"html-keyboard-response","177","199138","0.0-19.0-2.13","610075c1ef04d1f734032f69","bdp_trlrn","Tue Mar 14 2023 00:30:47 GMT-0400 (Eastern Daylight Time)","450684","Untrustworthy,Trustworthy","","","","decisionFB","","","null","","<div class='trialDiv'><img src='trustrating_stim/white_00761_941201_fb_edt.bmp'><br><font class='baseline'><strong>David</strong><p>Choose number of points to send.</font><div class='respPicDiv'><img src='img/responseButtonOffersNo0L3.png' class='respPic'></div></div>","null","5","David","1","Shared","0.35,0.65","14","0.35","trustrating_stim/white_00761_941201_fb_edt.bmp","5","48","14"
"html-keyboard-response","178","200139","0.0-19.0-3.13","610075c1ef04d1f734032f69","bdp_trlrn","Tue Mar 14 2023 00:30:47 GMT-0400 (Eastern Daylight Time)","450684","Untrustworthy,Trustworthy","","","","feedback","","","null","","<div class='trialDiv'><img src='trustrating_stim/white_00761_941201_fb_edt.bmp'><br><font class='baseline'><strong>David</strong><p>Received: <strong>12</strong></font> &nbsp; &nbsp; &nbsp; &nbsp; &nbsp; &nbsp;<font class='posOutcome'>Shared back: <strong>6</strong></font></font><div class='respPicDiv'><img src='img/responseButtonOffersNo0_wht.png' class='respPic'></div></div>","null","5","David","1","Shared","0.35,0.65","14","0.35","trustrating_stim/white_00761_941201_fb_edt.bmp","5","54","14"
"html-keyboard-response","179","200417","0.0-19.0-1.14","610075c1ef04d1f734032f69","bdp_trlrn","Tue Mar 14 2023 00:30:47 GMT-0400 (Eastern Daylight Time)","450684","Untrustworthy,Trustworthy","","","","decision","","","277","","<div class='trialDiv'><img src='trustrating_stim/white_mw046.bmp'><br><font class='baseline'><strong>Nathan</strong><p>Choose number of points to send.</font><div class='respPicDiv'><img src='img/responseButtonOffersNo0L.png' class='respPic'></div></div>","3","5","Nathan","4","Kept","0.35,0.8","13","0.35","trustrating_stim/white_mw046.bmp","5","59","15"
"html-keyboard-response","180","200669","0.0-19.0-2.14","610075c1ef04d1f734032f69","bdp_trlrn","Tue Mar 14 2023 00:30:47 GMT-0400 (Eastern Daylight Time)","450684","Untrustworthy,Trustworthy","","","","decisionFB","","","null","","<div class='trialDiv'><img src='trustrating_stim/white_mw046.bmp'><br><font class='baseline'><strong>Nathan</strong><p>Choose number of points to send.</font><div class='respPicDiv'><img src='img/responseButtonOffersNo0L3.png' class='respPic'></div></div>","null","5","Nathan","4","Kept","0.35,0.8","13","0.35","trustrating_stim/white_mw046.bmp","5","56","15"
"html-keyboard-response","181","201671","0.0-19.0-3.14","610075c1ef04d1f734032f69","bdp_trlrn","Tue Mar 14 2023 00:30:47 GMT-0400 (Eastern Daylight Time)","450684","Untrustworthy,Trustworthy","","","","feedback","","","null","","<div class='trialDiv'><img src='trustrating_stim/white_mw046.bmp'><br><font class='baseline'><strong>Nathan</strong><p>Received: <strong>12</strong></font> &nbsp; &nbsp; &nbsp; &nbsp; &nbsp; &nbsp;<font class='negOutcome'>Shared back: <strong>0</strong></font></font><div class='respPicDiv'><img src='img/responseButtonOffersNo0_wht.png' class='respPic'></div></div>","null","5","Nathan","4","Kept","0.35,0.8","13","0.35","trustrating_stim/white_mw046.bmp","5","56","15"
"html-keyboard-response","182","202011","0.0-19.0-1.15","610075c1ef04d1f734032f69","bdp_trlrn","Tue Mar 14 2023 00:30:47 GMT-0400 (Eastern Daylight Time)","450684","Untrustworthy,Trustworthy","","","","decision","","","339","","<div class='trialDiv'><img src='trustrating_stim/white_00761_941201_fb_edt.bmp'><br><font class='baseline'><strong>David</strong><p>Choose number of points to send.</font><div class='respPicDiv'><img src='img/responseButtonOffersNo0L.png' class='respPic'></div></div>","3","6","David","1","Kept","0.35,0.65","14","0.35","trustrating_stim/white_00761_941201_fb_edt.bmp","5","61","16"
"html-keyboard-response","183","202262","0.0-19.0-2.15","610075c1ef04d1f734032f69","bdp_trlrn","Tue Mar 14 2023 00:30:47 GMT-0400 (Eastern Daylight Time)","450684","Untrustworthy,Trustworthy","","","","decisionFB","","","null","","<div class='trialDiv'><img src='trustrating_stim/white_00761_941201_fb_edt.bmp'><br><font class='baseline'><strong>David</strong><p>Choose number of points to send.</font><div class='respPicDiv'><img src='img/responseButtonOffersNo0L3.png' class='respPic'></div></div>","null","6","David","1","Kept","0.35,0.65","14","0.35","trustrating_stim/white_00761_941201_fb_edt.bmp","5","58","16"
"html-keyboard-response","184","203264","0.0-19.0-3.15","610075c1ef04d1f734032f69","bdp_trlrn","Tue Mar 14 2023 00:30:47 GMT-0400 (Eastern Daylight Time)","450684","Untrustworthy,Trustworthy","","","","feedback","","","null","","<div class='trialDiv'><img src='trustrating_stim/white_00761_941201_fb_edt.bmp'><br><font class='baseline'><strong>David</strong><p>Received: <strong>12</strong></font> &nbsp; &nbsp; &nbsp; &nbsp; &nbsp; &nbsp;<font class='negOutcome'>Shared back: <strong>0</strong></font></font><div class='respPicDiv'><img src='img/responseButtonOffersNo0_wht.png' class='respPic'></div></div>","null","6","David","1","Kept","0.35,0.65","14","0.35","trustrating_stim/white_00761_941201_fb_edt.bmp","5","58","16"
"html-keyboard-response","185","205916","0.0-19.0-1.16","610075c1ef04d1f734032f69","bdp_trlrn","Tue Mar 14 2023 00:30:47 GMT-0400 (Eastern Daylight Time)","450684","Untrustworthy,Trustworthy","","","","decision","","","2649","","<div class='trialDiv'><img src='trustrating_stim/white_mw071.bmp'><br><font class='baseline'><strong>Michael</strong><p>Choose number of points to send.</font><div class='respPicDiv'><img src='img/responseButtonOffersNo0L.png' class='respPic'></div></div>","3","6","Michael","8","Shared","0.65,0.2","9","0.65","trustrating_stim/white_mw071.bmp","5","63","17"
"html-keyboard-response","186","206169","0.0-19.0-2.16","610075c1ef04d1f734032f69","bdp_trlrn","Tue Mar 14 2023 00:30:47 GMT-0400 (Eastern Daylight Time)","450684","Untrustworthy,Trustworthy","","","","decisionFB","","","null","","<div class='trialDiv'><img src='trustrating_stim/white_mw071.bmp'><br><font class='baseline'><strong>Michael</strong><p>Choose number of points to send.</font><div class='respPicDiv'><img src='img/responseButtonOffersNo0L3.png' class='respPic'></div></div>","null","6","Michael","8","Shared","0.65,0.2","9","0.65","trustrating_stim/white_mw071.bmp","5","60","17"
"html-keyboard-response","187","207170","0.0-19.0-3.16","610075c1ef04d1f734032f69","bdp_trlrn","Tue Mar 14 2023 00:30:47 GMT-0400 (Eastern Daylight Time)","450684","Untrustworthy,Trustworthy","","","","feedback","","","null","","<div class='trialDiv'><img src='trustrating_stim/white_mw071.bmp'><br><font class='baseline'><strong>Michael</strong><p>Received: <strong>12</strong></font> &nbsp; &nbsp; &nbsp; &nbsp; &nbsp; &nbsp;<font class='posOutcome'>Shared back: <strong>6</strong></font></font><div class='respPicDiv'><img src='img/responseButtonOffersNo0_wht.png' class='respPic'></div></div>","null","6","Michael","8","Shared","0.65,0.2","9","0.65","trustrating_stim/white_mw071.bmp","5","66","17"
"html-keyboard-response","188","209000","0.0-19.0-1.17","610075c1ef04d1f734032f69","bdp_trlrn","Tue Mar 14 2023 00:30:47 GMT-0400 (Eastern Daylight Time)","450684","Untrustworthy,Trustworthy","","","","decision","","","1829","","<div class='trialDiv'><img src='trustrating_stim/white_mw046.bmp'><br><font class='baseline'><strong>Nathan</strong><p>Choose number of points to send.</font><div class='respPicDiv'><img src='img/responseButtonOffersNo0L.png' class='respPic'></div></div>","3","6","Nathan","4","Kept","0.35,0.8","13","0.35","trustrating_stim/white_mw046.bmp","5","71","18"
"html-keyboard-response","189","209261","0.0-19.0-2.17","610075c1ef04d1f734032f69","bdp_trlrn","Tue Mar 14 2023 00:30:47 GMT-0400 (Eastern Daylight Time)","450684","Untrustworthy,Trustworthy","","","","decisionFB","","","null","","<div class='trialDiv'><img src='trustrating_stim/white_mw046.bmp'><br><font class='baseline'><strong>Nathan</strong><p>Choose number of points to send.</font><div class='respPicDiv'><img src='img/responseButtonOffersNo0L3.png' class='respPic'></div></div>","null","6","Nathan","4","Kept","0.35,0.8","13","0.35","trustrating_stim/white_mw046.bmp","5","68","18"
"html-keyboard-response","190","210261","0.0-19.0-3.17","610075c1ef04d1f734032f69","bdp_trlrn","Tue Mar 14 2023 00:30:47 GMT-0400 (Eastern Daylight Time)","450684","Untrustworthy,Trustworthy","","","","feedback","","","null","","<div class='trialDiv'><img src='trustrating_stim/white_mw046.bmp'><br><font class='baseline'><strong>Nathan</strong><p>Received: <strong>12</strong></font> &nbsp; &nbsp; &nbsp; &nbsp; &nbsp; &nbsp;<font class='negOutcome'>Shared back: <strong>0</strong></font></font><div class='respPicDiv'><img src='img/responseButtonOffersNo0_wht.png' class='respPic'></div></div>","null","6","Nathan","4","Kept","0.35,0.8","13","0.35","trustrating_stim/white_mw046.bmp","5","68","18"
"html-keyboard-response","191","210538","0.0-19.0-1.18","610075c1ef04d1f734032f69","bdp_trlrn","Tue Mar 14 2023 00:30:47 GMT-0400 (Eastern Daylight Time)","450684","Untrustworthy,Trustworthy","","","","decision","","","276","","<div class='trialDiv'><img src='trustrating_stim/white_00761_941201_fb_edt.bmp'><br><font class='baseline'><strong>David</strong><p>Choose number of points to send.</font><div class='respPicDiv'><img src='img/responseButtonOffersNo0L.png' class='respPic'></div></div>","3","7","David","1","Kept","0.35,0.65","14","0.35","trustrating_stim/white_00761_941201_fb_edt.bmp","5","73","19"
"html-keyboard-response","192","210789","0.0-19.0-2.18","610075c1ef04d1f734032f69","bdp_trlrn","Tue Mar 14 2023 00:30:47 GMT-0400 (Eastern Daylight Time)","450684","Untrustworthy,Trustworthy","","","","decisionFB","","","null","","<div class='trialDiv'><img src='trustrating_stim/white_00761_941201_fb_edt.bmp'><br><font class='baseline'><strong>David</strong><p>Choose number of points to send.</font><div class='respPicDiv'><img src='img/responseButtonOffersNo0L3.png' class='respPic'></div></div>","null","7","David","1","Kept","0.35,0.65","14","0.35","trustrating_stim/white_00761_941201_fb_edt.bmp","5","70","19"
"html-keyboard-response","193","211791","0.0-19.0-3.18","610075c1ef04d1f734032f69","bdp_trlrn","Tue Mar 14 2023 00:30:47 GMT-0400 (Eastern Daylight Time)","450684","Untrustworthy,Trustworthy","","","","feedback","","","null","","<div class='trialDiv'><img src='trustrating_stim/white_00761_941201_fb_edt.bmp'><br><font class='baseline'><strong>David</strong><p>Received: <strong>12</strong></font> &nbsp; &nbsp; &nbsp; &nbsp; &nbsp; &nbsp;<font class='negOutcome'>Shared back: <strong>0</strong></font></font><div class='respPicDiv'><img src='img/responseButtonOffersNo0_wht.png' class='respPic'></div></div>","null","7","David","1","Kept","0.35,0.65","14","0.35","trustrating_stim/white_00761_941201_fb_edt.bmp","5","70","19"
"html-keyboard-response","194","213466","0.0-19.0-1.19","610075c1ef04d1f734032f69","bdp_trlrn","Tue Mar 14 2023 00:30:47 GMT-0400 (Eastern Daylight Time)","450684","Untrustworthy,Trustworthy","","","","decision","","","1673","","<div class='trialDiv'><img src='trustrating_stim/white_mw046.bmp'><br><font class='baseline'><strong>Nathan</strong><p>Choose number of points to send.</font><div class='respPicDiv'><img src='img/responseButtonOffersNo0L.png' class='respPic'></div></div>","1","7","Nathan","4","Kept","0.35,0.8","13","0.35","trustrating_stim/white_mw046.bmp","5","75","20"
"html-keyboard-response","195","213717","0.0-19.0-2.19","610075c1ef04d1f734032f69","bdp_trlrn","Tue Mar 14 2023 00:30:47 GMT-0400 (Eastern Daylight Time)","450684","Untrustworthy,Trustworthy","","","","decisionFB","","","null","","<div class='trialDiv'><img src='trustrating_stim/white_mw046.bmp'><br><font class='baseline'><strong>Nathan</strong><p>Choose number of points to send.</font><div class='respPicDiv'><img src='img/responseButtonOffersNo0L1.png' class='respPic'></div></div>","null","7","Nathan","4","Kept","0.35,0.8","13","0.35","trustrating_stim/white_mw046.bmp","5","74","20"
"html-keyboard-response","196","214718","0.0-19.0-3.19","610075c1ef04d1f734032f69","bdp_trlrn","Tue Mar 14 2023 00:30:47 GMT-0400 (Eastern Daylight Time)","450684","Untrustworthy,Trustworthy","","","","feedback","","","null","","<div class='trialDiv'><img src='trustrating_stim/white_mw046.bmp'><br><font class='baseline'><strong>Nathan</strong><p>Received: <strong>4</strong></font> &nbsp; &nbsp; &nbsp; &nbsp; &nbsp; &nbsp;<font class='negOutcome'>Shared back: <strong>0</strong></font></font><div class='respPicDiv'><img src='img/responseButtonOffersNo0_wht.png' class='respPic'></div></div>","null","7","Nathan","4","Kept","0.35,0.8","13","0.35","trustrating_stim/white_mw046.bmp","5","74","20"
"html-keyboard-response","197","215495","0.0-19.0-1.20","610075c1ef04d1f734032f69","bdp_trlrn","Tue Mar 14 2023 00:30:47 GMT-0400 (Eastern Daylight Time)","450684","Untrustworthy,Trustworthy","","","","decision","","","777","","<div class='trialDiv'><img src='trustrating_stim/white_mw071.bmp'><br><font class='baseline'><strong>Michael</strong><p>Choose number of points to send.</font><div class='respPicDiv'><img src='img/responseButtonOffersNo0L.png' class='respPic'></div></div>","3","7","Michael","8","Shared","0.65,0.2","9","0.65","trustrating_stim/white_mw071.bmp","5","79","21"
"html-keyboard-response","198","215748","0.0-19.0-2.20","610075c1ef04d1f734032f69","bdp_trlrn","Tue Mar 14 2023 00:30:47 GMT-0400 (Eastern Daylight Time)","450684","Untrustworthy,Trustworthy","","","","decisionFB","","","null","","<div class='trialDiv'><img src='trustrating_stim/white_mw071.bmp'><br><font class='baseline'><strong>Michael</strong><p>Choose number of points to send.</font><div class='respPicDiv'><img src='img/responseButtonOffersNo0L3.png' class='respPic'></div></div>","null","7","Michael","8","Shared","0.65,0.2","9","0.65","trustrating_stim/white_mw071.bmp","5","76","21"
"html-keyboard-response","199","216749","0.0-19.0-3.20","610075c1ef04d1f734032f69","bdp_trlrn","Tue Mar 14 2023 00:30:47 GMT-0400 (Eastern Daylight Time)","450684","Untrustworthy,Trustworthy","","","","feedback","","","null","","<div class='trialDiv'><img src='trustrating_stim/white_mw071.bmp'><br><font class='baseline'><strong>Michael</strong><p>Received: <strong>12</strong></font> &nbsp; &nbsp; &nbsp; &nbsp; &nbsp; &nbsp;<font class='posOutcome'>Shared back: <strong>6</strong></font></font><div class='respPicDiv'><img src='img/responseButtonOffersNo0_wht.png' class='respPic'></div></div>","null","7","Michael","8","Shared","0.65,0.2","9","0.65","trustrating_stim/white_mw071.bmp","5","82","21"
"html-keyboard-response","200","217284","0.0-19.0-1.21","610075c1ef04d1f734032f69","bdp_trlrn","Tue Mar 14 2023 00:30:47 GMT-0400 (Eastern Daylight Time)","450684","Untrustworthy,Trustworthy","","","","decision","","","534","","<div class='trialDiv'><img src='trustrating_stim/white_00761_941201_fb_edt.bmp'><br><font class='baseline'><strong>David</strong><p>Choose number of points to send.</font><div class='respPicDiv'><img src='img/responseButtonOffersNo0L.png' class='respPic'></div></div>","1","8","David","1","Kept","0.35,0.65","14","0.35","trustrating_stim/white_00761_941201_fb_edt.bmp","5","87","22"
"html-keyboard-response","201","217538","0.0-19.0-2.21","610075c1ef04d1f734032f69","bdp_trlrn","Tue Mar 14 2023 00:30:47 GMT-0400 (Eastern Daylight Time)","450684","Untrustworthy,Trustworthy","","","","decisionFB","","","null","","<div class='trialDiv'><img src='trustrating_stim/white_00761_941201_fb_edt.bmp'><br><font class='baseline'><strong>David</strong><p>Choose number of points to send.</font><div class='respPicDiv'><img src='img/responseButtonOffersNo0L1.png' class='respPic'></div></div>","null","8","David","1","Kept","0.35,0.65","14","0.35","trustrating_stim/white_00761_941201_fb_edt.bmp","5","86","22"
"html-keyboard-response","202","218541","0.0-19.0-3.21","610075c1ef04d1f734032f69","bdp_trlrn","Tue Mar 14 2023 00:30:47 GMT-0400 (Eastern Daylight Time)","450684","Untrustworthy,Trustworthy","","","","feedback","","","null","","<div class='trialDiv'><img src='trustrating_stim/white_00761_941201_fb_edt.bmp'><br><font class='baseline'><strong>David</strong><p>Received: <strong>4</strong></font> &nbsp; &nbsp; &nbsp; &nbsp; &nbsp; &nbsp;<font class='negOutcome'>Shared back: <strong>0</strong></font></font><div class='respPicDiv'><img src='img/responseButtonOffersNo0_wht.png' class='respPic'></div></div>","null","8","David","1","Kept","0.35,0.65","14","0.35","trustrating_stim/white_00761_941201_fb_edt.bmp","5","86","22"
"html-keyboard-response","203","220016","0.0-19.0-1.22","610075c1ef04d1f734032f69","bdp_trlrn","Tue Mar 14 2023 00:30:47 GMT-0400 (Eastern Daylight Time)","450684","Untrustworthy,Trustworthy","","","","decision","","","1474","","<div class='trialDiv'><img src='trustrating_stim/white_mw071.bmp'><br><font class='baseline'><strong>Michael</strong><p>Choose number of points to send.</font><div class='respPicDiv'><img src='img/responseButtonOffersNo0L.png' class='respPic'></div></div>","5","8","Michael","8","Kept","0.65,0.2","9","0.65","trustrating_stim/white_mw071.bmp","5","91","23"
"html-keyboard-response","204","220268","0.0-19.0-2.22","610075c1ef04d1f734032f69","bdp_trlrn","Tue Mar 14 2023 00:30:47 GMT-0400 (Eastern Daylight Time)","450684","Untrustworthy,Trustworthy","","","","decisionFB","","","null","","<div class='trialDiv'><img src='trustrating_stim/white_mw071.bmp'><br><font class='baseline'><strong>Michael</strong><p>Choose number of points to send.</font><div class='respPicDiv'><img src='img/responseButtonOffersNo0L5.png' class='respPic'></div></div>","null","8","Michael","8","Kept","0.65,0.2","9","0.65","trustrating_stim/white_mw071.bmp","5","86","23"
"html-keyboard-response","205","221269","0.0-19.0-3.22","610075c1ef04d1f734032f69","bdp_trlrn","Tue Mar 14 2023 00:30:47 GMT-0400 (Eastern Daylight Time)","450684","Untrustworthy,Trustworthy","","","","feedback","","","null","","<div class='trialDiv'><img src='trustrating_stim/white_mw071.bmp'><br><font class='baseline'><strong>Michael</strong><p>Received: <strong>20</strong></font> &nbsp; &nbsp; &nbsp; &nbsp; &nbsp; &nbsp;<font class='negOutcome'>Shared back: <strong>0</strong></font></font><div class='respPicDiv'><img src='img/responseButtonOffersNo0_wht.png' class='respPic'></div></div>","null","8","Michael","8","Kept","0.65,0.2","9","0.65","trustrating_stim/white_mw071.bmp","5","86","23"
"html-keyboard-response","206","222408","0.0-19.0-1.23","610075c1ef04d1f734032f69","bdp_trlrn","Tue Mar 14 2023 00:30:47 GMT-0400 (Eastern Daylight Time)","450684","Untrustworthy,Trustworthy","","","","decision","","","1138","","<div class='trialDiv'><img src='trustrating_stim/white_mw046.bmp'><br><font class='baseline'><strong>Nathan</strong><p>Choose number of points to send.</font><div class='respPicDiv'><img src='img/responseButtonOffersNo0L.png' class='respPic'></div></div>","3","8","Nathan","4","Shared","0.35,0.8","13","0.35","trustrating_stim/white_mw046.bmp","5","91","24"
"html-keyboard-response","207","222661","0.0-19.0-2.23","610075c1ef04d1f734032f69","bdp_trlrn","Tue Mar 14 2023 00:30:47 GMT-0400 (Eastern Daylight Time)","450684","Untrustworthy,Trustworthy","","","","decisionFB","","","null","","<div class='trialDiv'><img src='trustrating_stim/white_mw046.bmp'><br><font class='baseline'><strong>Nathan</strong><p>Choose number of points to send.</font><div class='respPicDiv'><img src='img/responseButtonOffersNo0L3.png' class='respPic'></div></div>","null","8","Nathan","4","Shared","0.35,0.8","13","0.35","trustrating_stim/white_mw046.bmp","5","88","24"
"html-keyboard-response","208","223661","0.0-19.0-3.23","610075c1ef04d1f734032f69","bdp_trlrn","Tue Mar 14 2023 00:30:47 GMT-0400 (Eastern Daylight Time)","450684","Untrustworthy,Trustworthy","","","","feedback","","","null","","<div class='trialDiv'><img src='trustrating_stim/white_mw046.bmp'><br><font class='baseline'><strong>Nathan</strong><p>Received: <strong>12</strong></font> &nbsp; &nbsp; &nbsp; &nbsp; &nbsp; &nbsp;<font class='posOutcome'>Shared back: <strong>6</strong></font></font><div class='respPicDiv'><img src='img/responseButtonOffersNo0_wht.png' class='respPic'></div></div>","null","8","Nathan","4","Shared","0.35,0.8","13","0.35","trustrating_stim/white_mw046.bmp","5","94","24"
"html-keyboard-response","209","224150","0.0-19.0-1.24","610075c1ef04d1f734032f69","bdp_trlrn","Tue Mar 14 2023 00:30:47 GMT-0400 (Eastern Daylight Time)","450684","Untrustworthy,Trustworthy","","","","decision","","","488","","<div class='trialDiv'><img src='trustrating_stim/white_mw071.bmp'><br><font class='baseline'><strong>Michael</strong><p>Choose number of points to send.</font><div class='respPicDiv'><img src='img/responseButtonOffersNo0L.png' class='respPic'></div></div>","1","9","Michael","8","Kept","0.65,0.2","9","0.65","trustrating_stim/white_mw071.bmp","5","99","25"
"html-keyboard-response","210","224402","0.0-19.0-2.24","610075c1ef04d1f734032f69","bdp_trlrn","Tue Mar 14 2023 00:30:47 GMT-0400 (Eastern Daylight Time)","450684","Untrustworthy,Trustworthy","","","","decisionFB","","","null","","<div class='trialDiv'><img src='trustrating_stim/white_mw071.bmp'><br><font class='baseline'><strong>Michael</strong><p>Choose number of points to send.</font><div class='respPicDiv'><img src='img/responseButtonOffersNo0L1.png' class='respPic'></div></div>","null","9","Michael","8","Kept","0.65,0.2","9","0.65","trustrating_stim/white_mw071.bmp","5","98","25"
"html-keyboard-response","211","225404","0.0-19.0-3.24","610075c1ef04d1f734032f69","bdp_trlrn","Tue Mar 14 2023 00:30:47 GMT-0400 (Eastern Daylight Time)","450684","Untrustworthy,Trustworthy","","","","feedback","","","null","","<div class='trialDiv'><img src='trustrating_stim/white_mw071.bmp'><br><font class='baseline'><strong>Michael</strong><p>Received: <strong>4</strong></font> &nbsp; &nbsp; &nbsp; &nbsp; &nbsp; &nbsp;<font class='negOutcome'>Shared back: <strong>0</strong></font></font><div class='respPicDiv'><img src='img/responseButtonOffersNo0_wht.png' class='respPic'></div></div>","null","9","Michael","8","Kept","0.65,0.2","9","0.65","trustrating_stim/white_mw071.bmp","5","98","25"
"html-keyboard-response","212","226842","0.0-19.0-1.25","610075c1ef04d1f734032f69","bdp_trlrn","Tue Mar 14 2023 00:30:47 GMT-0400 (Eastern Daylight Time)","450684","Untrustworthy,Trustworthy","","","","decision","","","1437","","<div class='trialDiv'><img src='trustrating_stim/white_mw046.bmp'><br><font class='baseline'><strong>Nathan</strong><p>Choose number of points to send.</font><div class='respPicDiv'><img src='img/responseButtonOffersNo0L.png' class='respPic'></div></div>","5","9","Nathan","4","Kept","0.35,0.8","13","0.35","trustrating_stim/white_mw046.bmp","5","103","26"
"html-keyboard-response","213","227095","0.0-19.0-2.25","610075c1ef04d1f734032f69","bdp_trlrn","Tue Mar 14 2023 00:30:47 GMT-0400 (Eastern Daylight Time)","450684","Untrustworthy,Trustworthy","","","","decisionFB","","","null","","<div class='trialDiv'><img src='trustrating_stim/white_mw046.bmp'><br><font class='baseline'><strong>Nathan</strong><p>Choose number of points to send.</font><div class='respPicDiv'><img src='img/responseButtonOffersNo0L5.png' class='respPic'></div></div>","null","9","Nathan","4","Kept","0.35,0.8","13","0.35","trustrating_stim/white_mw046.bmp","5","98","26"
"html-keyboard-response","214","228096","0.0-19.0-3.25","610075c1ef04d1f734032f69","bdp_trlrn","Tue Mar 14 2023 00:30:47 GMT-0400 (Eastern Daylight Time)","450684","Untrustworthy,Trustworthy","","","","feedback","","","null","","<div class='trialDiv'><img src='trustrating_stim/white_mw046.bmp'><br><font class='baseline'><strong>Nathan</strong><p>Received: <strong>20</strong></font> &nbsp; &nbsp; &nbsp; &nbsp; &nbsp; &nbsp;<font class='negOutcome'>Shared back: <strong>0</strong></font></font><div class='respPicDiv'><img src='img/responseButtonOffersNo0_wht.png' class='respPic'></div></div>","null","9","Nathan","4","Kept","0.35,0.8","13","0.35","trustrating_stim/white_mw046.bmp","5","98","26"
"html-keyboard-response","215","229544","0.0-19.0-1.26","610075c1ef04d1f734032f69","bdp_trlrn","Tue Mar 14 2023 00:30:47 GMT-0400 (Eastern Daylight Time)","450684","Untrustworthy,Trustworthy","","","","decision","","","1448","","<div class='trialDiv'><img src='trustrating_stim/white_00761_941201_fb_edt.bmp'><br><font class='baseline'><strong>David</strong><p>Choose number of points to send.</font><div class='respPicDiv'><img src='img/responseButtonOffersNo0L.png' class='respPic'></div></div>","3","9","David","1","Kept","0.35,0.65","14","0.35","trustrating_stim/white_00761_941201_fb_edt.bmp","5","103","27"
"html-keyboard-response","216","229796","0.0-19.0-2.26","610075c1ef04d1f734032f69","bdp_trlrn","Tue Mar 14 2023 00:30:47 GMT-0400 (Eastern Daylight Time)","450684","Untrustworthy,Trustworthy","","","","decisionFB","","","null","","<div class='trialDiv'><img src='trustrating_stim/white_00761_941201_fb_edt.bmp'><br><font class='baseline'><strong>David</strong><p>Choose number of points to send.</font><div class='respPicDiv'><img src='img/responseButtonOffersNo0L3.png' class='respPic'></div></div>","null","9","David","1","Kept","0.35,0.65","14","0.35","trustrating_stim/white_00761_941201_fb_edt.bmp","5","100","27"
"html-keyboard-response","217","230798","0.0-19.0-3.26","610075c1ef04d1f734032f69","bdp_trlrn","Tue Mar 14 2023 00:30:47 GMT-0400 (Eastern Daylight Time)","450684","Untrustworthy,Trustworthy","","","","feedback","","","null","","<div class='trialDiv'><img src='trustrating_stim/white_00761_941201_fb_edt.bmp'><br><font class='baseline'><strong>David</strong><p>Received: <strong>12</strong></font> &nbsp; &nbsp; &nbsp; &nbsp; &nbsp; &nbsp;<font class='negOutcome'>Shared back: <strong>0</strong></font></font><div class='respPicDiv'><img src='img/responseButtonOffersNo0_wht.png' class='respPic'></div></div>","null","9","David","1","Kept","0.35,0.65","14","0.35","trustrating_stim/white_00761_941201_fb_edt.bmp","5","100","27"
"html-keyboard-response","218","231681","0.0-19.0-1.27","610075c1ef04d1f734032f69","bdp_trlrn","Tue Mar 14 2023 00:30:47 GMT-0400 (Eastern Daylight Time)","450684","Untrustworthy,Trustworthy","","","","decision","","","881","","<div class='trialDiv'><img src='trustrating_stim/white_mw046.bmp'><br><font class='baseline'><strong>Nathan</strong><p>Choose number of points to send.</font><div class='respPicDiv'><img src='img/responseButtonOffersNo0L.png' class='respPic'></div></div>","5","10","Nathan","4","Shared","0.35,0.8","13","0.35","trustrating_stim/white_mw046.bmp","5","105","28"
"html-keyboard-response","219","231932","0.0-19.0-2.27","610075c1ef04d1f734032f69","bdp_trlrn","Tue Mar 14 2023 00:30:47 GMT-0400 (Eastern Daylight Time)","450684","Untrustworthy,Trustworthy","","","","decisionFB","","","null","","<div class='trialDiv'><img src='trustrating_stim/white_mw046.bmp'><br><font class='baseline'><strong>Nathan</strong><p>Choose number of points to send.</font><div class='respPicDiv'><img src='img/responseButtonOffersNo0L5.png' class='respPic'></div></div>","null","10","Nathan","4","Shared","0.35,0.8","13","0.35","trustrating_stim/white_mw046.bmp","5","100","28"
