"trial_type","trial_index","time_elapsed","internal_node_id","subject_id","task","startTime","totalTime","labels","view_history","rt","event","trial","time","trialtype","success","stimulus","key_press","aground","name","face","outcome","agenttype","agentswpt","agentcurrpshare","point_total","round"
"pavlovia","0","3","0.0-0.0","https://ccnypsych.az1.qualtrics.com/jfe/form/SV_3mEUjljOKOh42Vg?PID","bdp_trlrn","Tue Mar 01 2022 11:41:08 GMT-0500 (Eastern Standard Time)","802168","Untrustworthy,Trustworthy","","","","","","","","","","","","","","","","","",""
"instructions","1","11024","0.0-1.0","https://ccnypsych.az1.qualtrics.com/jfe/form/SV_3mEUjljOKOh42Vg?PID","bdp_trlrn","Tue Mar 01 2022 11:41:08 GMT-0500 (Eastern Standard Time)","802168","Untrustworthy,Trustworthy","[{""page_index"":0,""viewing_time"":11021}]","11021","","","","","","","","","","","","","","","",""
"","","","","https://ccnypsych.az1.qualtrics.com/jfe/form/SV_3mEUjljOKOh42Vg?PID","bdp_trlrn","Tue Mar 01 2022 11:41:08 GMT-0500 (Eastern Standard Time)","802168","Untrustworthy,Trustworthy","","","fullscreenenter","2","15818","fullscreenenter","","","","","","","","","","","",""
"fullscreen","2","16810","0.0-2.0","https://ccnypsych.az1.qualtrics.com/jfe/form/SV_3mEUjljOKOh42Vg?PID","bdp_trlrn","Tue Mar 01 2022 11:41:08 GMT-0500 (Eastern Standard Time)","802168","Untrustworthy,Trustworthy","","","","","","","true","","","","","","","","","","",""
"instructions","3","43892","0.0-4.0","https://ccnypsych.az1.qualtrics.com/jfe/form/SV_3mEUjljOKOh42Vg?PID","bdp_trlrn","Tue Mar 01 2022 11:41:08 GMT-0500 (Eastern Standard Time)","802168","Untrustworthy,Trustworthy","[{""page_index"":0,""viewing_time"":18004},{""page_index"":1,""viewing_time"":9077}]","27081","","","","","","","","","","","","","","","",""
"instructions","4","46446","0.0-5.0","https://ccnypsych.az1.qualtrics.com/jfe/form/SV_3mEUjljOKOh42Vg?PID","bdp_trlrn","Tue Mar 01 2022 11:41:08 GMT-0500 (Eastern Standard Time)","802168","Untrustworthy,Trustworthy","[{""page_index"":0,""viewing_time"":2553}]","2553","","","","","","","","","","","","","","","",""
"image-keyboard-response","5","49702","0.0-6.0-1.0","https://ccnypsych.az1.qualtrics.com/jfe/form/SV_3mEUjljOKOh42Vg?PID","bdp_trlrn","Tue Mar 01 2022 11:41:08 GMT-0500 (Eastern Standard Time)","802168","Untrustworthy,Trustworthy","","3150","","","","rating","","trustrating_stim/white_mw084.bmp","3","","","","","","","","",""
"image-keyboard-response","6","49904","0.0-6.0-2.0","https://ccnypsych.az1.qualtrics.com/jfe/form/SV_3mEUjljOKOh42Vg?PID","bdp_trlrn","Tue Mar 01 2022 11:41:08 GMT-0500 (Eastern Standard Time)","802168","Untrustworthy,Trustworthy","","null","","","","ratingFB","","trustrating_stim/white_mw084.bmp","null","","","","","","","","",""
"image-keyboard-response","7","52447","0.0-6.0-1.1","https://ccnypsych.az1.qualtrics.com/jfe/form/SV_3mEUjljOKOh42Vg?PID","bdp_trlrn","Tue Mar 01 2022 11:41:08 GMT-0500 (Eastern Standard Time)","802168","Untrustworthy,Trustworthy","","2440","","","","rating","","trustrating_stim/white_mw006.bmp","2","","","","","","","","",""
"image-keyboard-response","8","52650","0.0-6.0-2.1","https://ccnypsych.az1.qualtrics.com/jfe/form/SV_3mEUjljOKOh42Vg?PID","bdp_trlrn","Tue Mar 01 2022 11:41:08 GMT-0500 (Eastern Standard Time)","802168","Untrustworthy,Trustworthy","","null","","","","ratingFB","","trustrating_stim/white_mw006.bmp","null","","","","","","","","",""
"image-keyboard-response","9","55534","0.0-6.0-1.2","https://ccnypsych.az1.qualtrics.com/jfe/form/SV_3mEUjljOKOh42Vg?PID","bdp_trlrn","Tue Mar 01 2022 11:41:08 GMT-0500 (Eastern Standard Time)","802168","Untrustworthy,Trustworthy","","2781","","","","rating","","trustrating_stim/white_mw044.bmp","6","","","","","","","","",""
"image-keyboard-response","10","55739","0.0-6.0-2.2","https://ccnypsych.az1.qualtrics.com/jfe/form/SV_3mEUjljOKOh42Vg?PID","bdp_trlrn","Tue Mar 01 2022 11:41:08 GMT-0500 (Eastern Standard Time)","802168","Untrustworthy,Trustworthy","","null","","","","ratingFB","","trustrating_stim/white_mw044.bmp","null","","","","","","","","",""
"image-keyboard-response","11","57809","0.0-6.0-1.3","https://ccnypsych.az1.qualtrics.com/jfe/form/SV_3mEUjljOKOh42Vg?PID","bdp_trlrn","Tue Mar 01 2022 11:41:08 GMT-0500 (Eastern Standard Time)","802168","Untrustworthy,Trustworthy","","1964","","","","rating","","trustrating_stim/white_mw066.bmp","7","","","","","","","","",""
"image-keyboard-response","12","58015","0.0-6.0-2.3","https://ccnypsych.az1.qualtrics.com/jfe/form/SV_3mEUjljOKOh42Vg?PID","bdp_trlrn","Tue Mar 01 2022 11:41:08 GMT-0500 (Eastern Standard Time)","802168","Untrustworthy,Trustworthy","","null","","","","ratingFB","","trustrating_stim/white_mw066.bmp","null","","","","","","","","",""
"image-keyboard-response","13","61272","0.0-6.0-1.4","https://ccnypsych.az1.qualtrics.com/jfe/form/SV_3mEUjljOKOh42Vg?PID","bdp_trlrn","Tue Mar 01 2022 11:41:08 GMT-0500 (Eastern Standard Time)","802168","Untrustworthy,Trustworthy","","3155","","","","rating","","trustrating_stim/white_00960_960627_fb_edt.bmp","2","","","","","","","","",""
"image-keyboard-response","14","61477","0.0-6.0-2.4","https://ccnypsych.az1.qualtrics.com/jfe/form/SV_3mEUjljOKOh42Vg?PID","bdp_trlrn","Tue Mar 01 2022 11:41:08 GMT-0500 (Eastern Standard Time)","802168","Untrustworthy,Trustworthy","","null","","","","ratingFB","","trustrating_stim/white_00960_960627_fb_edt.bmp","null","","","","","","","","",""
"image-keyboard-response","15","63945","0.0-6.0-1.5","https://ccnypsych.az1.qualtrics.com/jfe/form/SV_3mEUjljOKOh42Vg?PID","bdp_trlrn","Tue Mar 01 2022 11:41:08 GMT-0500 (Eastern Standard Time)","802168","Untrustworthy,Trustworthy","","2362","","","","rating","","trustrating_stim/white_00658_941121_fb_edt.bmp","8","","","","","","","","",""
"image-keyboard-response","16","64151","0.0-6.0-2.5","https://ccnypsych.az1.qualtrics.com/jfe/form/SV_3mEUjljOKOh42Vg?PID","bdp_trlrn","Tue Mar 01 2022 11:41:08 GMT-0500 (Eastern Standard Time)","802168","Untrustworthy,Trustworthy","","null","","","","ratingFB","","trustrating_stim/white_00658_941121_fb_edt.bmp","null","","","","","","","","",""
"image-keyboard-response","17","66632","0.0-6.0-1.6","https://ccnypsych.az1.qualtrics.com/jfe/form/SV_3mEUjljOKOh42Vg?PID","bdp_trlrn","Tue Mar 01 2022 11:41:08 GMT-0500 (Eastern Standard Time)","802168","Untrustworthy,Trustworthy","","2377","","","","rating","","trustrating_stim/white_mw080.bmp","7","","","","","","","","",""
"image-keyboard-response","18","66836","0.0-6.0-2.6","https://ccnypsych.az1.qualtrics.com/jfe/form/SV_3mEUjljOKOh42Vg?PID","bdp_trlrn","Tue Mar 01 2022 11:41:08 GMT-0500 (Eastern Standard Time)","802168","Untrustworthy,Trustworthy","","null","","","","ratingFB","","trustrating_stim/white_mw080.bmp","null","","","","","","","","",""
"image-keyboard-response","19","69049","0.0-6.0-1.7","https://ccnypsych.az1.qualtrics.com/jfe/form/SV_3mEUjljOKOh42Vg?PID","bdp_trlrn","Tue Mar 01 2022 11:41:08 GMT-0500 (Eastern Standard Time)","802168","Untrustworthy,Trustworthy","","2111","","","","rating","","trustrating_stim/white_00757_941201_fa_edt.bmp","2","","","","","","","","",""
"image-keyboard-response","20","69252","0.0-6.0-2.7","https://ccnypsych.az1.qualtrics.com/jfe/form/SV_3mEUjljOKOh42Vg?PID","bdp_trlrn","Tue Mar 01 2022 11:41:08 GMT-0500 (Eastern Standard Time)","802168","Untrustworthy,Trustworthy","","null","","","","ratingFB","","trustrating_stim/white_00757_941201_fa_edt.bmp","null","","","","","","","","",""
"image-keyboard-response","21","71820","0.0-6.0-1.8","https://ccnypsych.az1.qualtrics.com/jfe/form/SV_3mEUjljOKOh42Vg?PID","bdp_trlrn","Tue Mar 01 2022 11:41:08 GMT-0500 (Eastern Standard Time)","802168","Untrustworthy,Trustworthy","","2466","","","","rating","","trustrating_stim/white_00897_960530_fb_edt.bmp","5","","","","","","","","",""
"image-keyboard-response","22","72025","0.0-6.0-2.8","https://ccnypsych.az1.qualtrics.com/jfe/form/SV_3mEUjljOKOh42Vg?PID","bdp_trlrn","Tue Mar 01 2022 11:41:08 GMT-0500 (Eastern Standard Time)","802168","Untrustworthy,Trustworthy","","null","","","","ratingFB","","trustrating_stim/white_00897_960530_fb_edt.bmp","null","","","","","","","","",""
"image-keyboard-response","23","75320","0.0-6.0-1.9","https://ccnypsych.az1.qualtrics.com/jfe/form/SV_3mEUjljOKOh42Vg?PID","bdp_trlrn","Tue Mar 01 2022 11:41:08 GMT-0500 (Eastern Standard Time)","802168","Untrustworthy,Trustworthy","","3192","","","","rating","","trustrating_stim/white_00602_940928_fb_edt.bmp","7","","","","","","","","",""
"image-keyboard-response","24","75526","0.0-6.0-2.9","https://ccnypsych.az1.qualtrics.com/jfe/form/SV_3mEUjljOKOh42Vg?PID","bdp_trlrn","Tue Mar 01 2022 11:41:08 GMT-0500 (Eastern Standard Time)","802168","Untrustworthy,Trustworthy","","null","","","","ratingFB","","trustrating_stim/white_00602_940928_fb_edt.bmp","null","","","","","","","","",""
"image-keyboard-response","25","80111","0.0-6.0-1.10","https://ccnypsych.az1.qualtrics.com/jfe/form/SV_3mEUjljOKOh42Vg?PID","bdp_trlrn","Tue Mar 01 2022 11:41:08 GMT-0500 (Eastern Standard Time)","802168","Untrustworthy,Trustworthy","","4479","","","","rating","","trustrating_stim/white_00120_931230_fa_edt.bmp","8","","","","","","","","",""
"image-keyboard-response","26","80317","0.0-6.0-2.10","https://ccnypsych.az1.qualtrics.com/jfe/form/SV_3mEUjljOKOh42Vg?PID","bdp_trlrn","Tue Mar 01 2022 11:41:08 GMT-0500 (Eastern Standard Time)","802168","Untrustworthy,Trustworthy","","null","","","","ratingFB","","trustrating_stim/white_00120_931230_fa_edt.bmp","null","","","","","","","","",""
"image-keyboard-response","27","82707","0.0-6.0-1.11","https://ccnypsych.az1.qualtrics.com/jfe/form/SV_3mEUjljOKOh42Vg?PID","bdp_trlrn","Tue Mar 01 2022 11:41:08 GMT-0500 (Eastern Standard Time)","802168","Untrustworthy,Trustworthy","","2286","","","","rating","","trustrating_stim/white_mw099.bmp","4","","","","","","","","",""
"image-keyboard-response","28","82913","0.0-6.0-2.11","https://ccnypsych.az1.qualtrics.com/jfe/form/SV_3mEUjljOKOh42Vg?PID","bdp_trlrn","Tue Mar 01 2022 11:41:08 GMT-0500 (Eastern Standard Time)","802168","Untrustworthy,Trustworthy","","null","","","","ratingFB","","trustrating_stim/white_mw099.bmp","null","","","","","","","","",""
"image-keyboard-response","29","87320","0.0-6.0-1.12","https://ccnypsych.az1.qualtrics.com/jfe/form/SV_3mEUjljOKOh42Vg?PID","bdp_trlrn","Tue Mar 01 2022 11:41:08 GMT-0500 (Eastern Standard Time)","802168","Untrustworthy,Trustworthy","","4302","","","","rating","","trustrating_stim/white_mw040.bmp","5","","","","","","","","",""
"image-keyboard-response","30","87526","0.0-6.0-2.12","https://ccnypsych.az1.qualtrics.com/jfe/form/SV_3mEUjljOKOh42Vg?PID","bdp_trlrn","Tue Mar 01 2022 11:41:08 GMT-0500 (Eastern Standard Time)","802168","Untrustworthy,Trustworthy","","null","","","","ratingFB","","trustrating_stim/white_mw040.bmp","null","","","","","","","","",""
"image-keyboard-response","31","89208","0.0-6.0-1.13","https://ccnypsych.az1.qualtrics.com/jfe/form/SV_3mEUjljOKOh42Vg?PID","bdp_trlrn","Tue Mar 01 2022 11:41:08 GMT-0500 (Eastern Standard Time)","802168","Untrustworthy,Trustworthy","","1577","","","","rating","","trustrating_stim/white_00109_931230_fa_edt.bmp","6","","","","","","","","",""
"image-keyboard-response","32","89412","0.0-6.0-2.13","https://ccnypsych.az1.qualtrics.com/jfe/form/SV_3mEUjljOKOh42Vg?PID","bdp_trlrn","Tue Mar 01 2022 11:41:08 GMT-0500 (Eastern Standard Time)","802168","Untrustworthy,Trustworthy","","null","","","","ratingFB","","trustrating_stim/white_00109_931230_fa_edt.bmp","null","","","","","","","","",""
"image-keyboard-response","33","91347","0.0-6.0-1.14","https://ccnypsych.az1.qualtrics.com/jfe/form/SV_3mEUjljOKOh42Vg?PID","bdp_trlrn","Tue Mar 01 2022 11:41:08 GMT-0500 (Eastern Standard Time)","802168","Untrustworthy,Trustworthy","","1830","","","","rating","","trustrating_stim/white_mw025.bmp","4","","","","","","","","",""
"image-keyboard-response","34","91550","0.0-6.0-2.14","https://ccnypsych.az1.qualtrics.com/jfe/form/SV_3mEUjljOKOh42Vg?PID","bdp_trlrn","Tue Mar 01 2022 11:41:08 GMT-0500 (Eastern Standard Time)","802168","Untrustworthy,Trustworthy","","null","","","","ratingFB","","trustrating_stim/white_mw025.bmp","null","","","","","","","","",""
"image-keyboard-response","35","94802","0.0-6.0-1.15","https://ccnypsych.az1.qualtrics.com/jfe/form/SV_3mEUjljOKOh42Vg?PID","bdp_trlrn","Tue Mar 01 2022 11:41:08 GMT-0500 (Eastern Standard Time)","802168","Untrustworthy,Trustworthy","","3148","","","","rating","","trustrating_stim/white_mw004.bmp","5","","","","","","","","",""
"image-keyboard-response","36","95006","0.0-6.0-2.15","https://ccnypsych.az1.qualtrics.com/jfe/form/SV_3mEUjljOKOh42Vg?PID","bdp_trlrn","Tue Mar 01 2022 11:41:08 GMT-0500 (Eastern Standard Time)","802168","Untrustworthy,Trustworthy","","null","","","","ratingFB","","trustrating_stim/white_mw004.bmp","null","","","","","","","","",""
"image-keyboard-response","37","97340","0.0-6.0-1.16","https://ccnypsych.az1.qualtrics.com/jfe/form/SV_3mEUjljOKOh42Vg?PID","bdp_trlrn","Tue Mar 01 2022 11:41:08 GMT-0500 (Eastern Standard Time)","802168","Untrustworthy,Trustworthy","","2231","","","","rating","","trustrating_stim/white_mw089.bmp","6","","","","","","","","",""
"image-keyboard-response","38","97544","0.0-6.0-2.16","https://ccnypsych.az1.qualtrics.com/jfe/form/SV_3mEUjljOKOh42Vg?PID","bdp_trlrn","Tue Mar 01 2022 11:41:08 GMT-0500 (Eastern Standard Time)","802168","Untrustworthy,Trustworthy","","null","","","","ratingFB","","trustrating_stim/white_mw089.bmp","null","","","","","","","","",""
"image-keyboard-response","39","99627","0.0-6.0-1.17","https://ccnypsych.az1.qualtrics.com/jfe/form/SV_3mEUjljOKOh42Vg?PID","bdp_trlrn","Tue Mar 01 2022 11:41:08 GMT-0500 (Eastern Standard Time)","802168","Untrustworthy,Trustworthy","","1980","","","","rating","","trustrating_stim/white_mw013.bmp","2","","","","","","","","",""
"image-keyboard-response","40","99829","0.0-6.0-2.17","https://ccnypsych.az1.qualtrics.com/jfe/form/SV_3mEUjljOKOh42Vg?PID","bdp_trlrn","Tue Mar 01 2022 11:41:08 GMT-0500 (Eastern Standard Time)","802168","Untrustworthy,Trustworthy","","null","","","","ratingFB","","trustrating_stim/white_mw013.bmp","null","","","","","","","","",""
"image-keyboard-response","41","101967","0.0-6.0-1.18","https://ccnypsych.az1.qualtrics.com/jfe/form/SV_3mEUjljOKOh42Vg?PID","bdp_trlrn","Tue Mar 01 2022 11:41:08 GMT-0500 (Eastern Standard Time)","802168","Untrustworthy,Trustworthy","","2036","","","","rating","","trustrating_stim/white_mw071.bmp","7","","","","","","","","",""
"image-keyboard-response","42","102172","0.0-6.0-2.18","https://ccnypsych.az1.qualtrics.com/jfe/form/SV_3mEUjljOKOh42Vg?PID","bdp_trlrn","Tue Mar 01 2022 11:41:08 GMT-0500 (Eastern Standard Time)","802168","Untrustworthy,Trustworthy","","null","","","","ratingFB","","trustrating_stim/white_mw071.bmp","null","","","","","","","","",""
"image-keyboard-response","43","103884","0.0-6.0-1.19","https://ccnypsych.az1.qualtrics.com/jfe/form/SV_3mEUjljOKOh42Vg?PID","bdp_trlrn","Tue Mar 01 2022 11:41:08 GMT-0500 (Eastern Standard Time)","802168","Untrustworthy,Trustworthy","","1606","","","","rating","","trustrating_stim/white_mw051.bmp","5","","","","","","","","",""
"image-keyboard-response","44","104089","0.0-6.0-2.19","https://ccnypsych.az1.qualtrics.com/jfe/form/SV_3mEUjljOKOh42Vg?PID","bdp_trlrn","Tue Mar 01 2022 11:41:08 GMT-0500 (Eastern Standard Time)","802168","Untrustworthy,Trustworthy","","null","","","","ratingFB","","trustrating_stim/white_mw051.bmp","null","","","","","","","","",""
"image-keyboard-response","45","105522","0.0-6.0-1.20","https://ccnypsych.az1.qualtrics.com/jfe/form/SV_3mEUjljOKOh42Vg?PID","bdp_trlrn","Tue Mar 01 2022 11:41:08 GMT-0500 (Eastern Standard Time)","802168","Untrustworthy,Trustworthy","","1331","","","","rating","","trustrating_stim/white_mw085.bmp","4","","","","","","","","",""
"image-keyboard-response","46","105726","0.0-6.0-2.20","https://ccnypsych.az1.qualtrics.com/jfe/form/SV_3mEUjljOKOh42Vg?PID","bdp_trlrn","Tue Mar 01 2022 11:41:08 GMT-0500 (Eastern Standard Time)","802168","Untrustworthy,Trustworthy","","null","","","","ratingFB","","trustrating_stim/white_mw085.bmp","null","","","","","","","","",""
"image-keyboard-response","47","108500","0.0-6.0-1.21","https://ccnypsych.az1.qualtrics.com/jfe/form/SV_3mEUjljOKOh42Vg?PID","bdp_trlrn","Tue Mar 01 2022 11:41:08 GMT-0500 (Eastern Standard Time)","802168","Untrustworthy,Trustworthy","","2671","","","","rating","","trustrating_stim/white_mw012.bmp","6","","","","","","","","",""
"image-keyboard-response","48","108702","0.0-6.0-2.21","https://ccnypsych.az1.qualtrics.com/jfe/form/SV_3mEUjljOKOh42Vg?PID","bdp_trlrn","Tue Mar 01 2022 11:41:08 GMT-0500 (Eastern Standard Time)","802168","Untrustworthy,Trustworthy","","null","","","","ratingFB","","trustrating_stim/white_mw012.bmp","null","","","","","","","","",""
"image-keyboard-response","49","110159","0.0-6.0-1.22","https://ccnypsych.az1.qualtrics.com/jfe/form/SV_3mEUjljOKOh42Vg?PID","bdp_trlrn","Tue Mar 01 2022 11:41:08 GMT-0500 (Eastern Standard Time)","802168","Untrustworthy,Trustworthy","","1351","","","","rating","","trustrating_stim/white_mw054.bmp","4","","","","","","","","",""
"image-keyboard-response","50","110365","0.0-6.0-2.22","https://ccnypsych.az1.qualtrics.com/jfe/form/SV_3mEUjljOKOh42Vg?PID","bdp_trlrn","Tue Mar 01 2022 11:41:08 GMT-0500 (Eastern Standard Time)","802168","Untrustworthy,Trustworthy","","null","","","","ratingFB","","trustrating_stim/white_mw054.bmp","null","","","","","","","","",""
"image-keyboard-response","51","113102","0.0-6.0-1.23","https://ccnypsych.az1.qualtrics.com/jfe/form/SV_3mEUjljOKOh42Vg?PID","bdp_trlrn","Tue Mar 01 2022 11:41:08 GMT-0500 (Eastern Standard Time)","802168","Untrustworthy,Trustworthy","","2634","","","","rating","","trustrating_stim/white_00785_941205_fb_edt.bmp","4","","","","","","","","",""
"image-keyboard-response","52","113305","0.0-6.0-2.23","https://ccnypsych.az1.qualtrics.com/jfe/form/SV_3mEUjljOKOh42Vg?PID","bdp_trlrn","Tue Mar 01 2022 11:41:08 GMT-0500 (Eastern Standard Time)","802168","Untrustworthy,Trustworthy","","null","","","","ratingFB","","trustrating_stim/white_00785_941205_fb_edt.bmp","null","","","","","","","","",""
"image-keyboard-response","53","115214","0.0-6.0-1.24","https://ccnypsych.az1.qualtrics.com/jfe/form/SV_3mEUjljOKOh42Vg?PID","bdp_trlrn","Tue Mar 01 2022 11:41:08 GMT-0500 (Eastern Standard Time)","802168","Untrustworthy,Trustworthy","","1803","","","","rating","","trustrating_stim/white_00253_940128_fa_edt.bmp","4","","","","","","","","",""
"image-keyboard-response","54","115416","0.0-6.0-2.24","https://ccnypsych.az1.qualtrics.com/jfe/form/SV_3mEUjljOKOh42Vg?PID","bdp_trlrn","Tue Mar 01 2022 11:41:08 GMT-0500 (Eastern Standard Time)","802168","Untrustworthy,Trustworthy","","null","","","","ratingFB","","trustrating_stim/white_00253_940128_fa_edt.bmp","null","","","","","","","","",""
"image-keyboard-response","55","118902","0.0-6.0-1.25","https://ccnypsych.az1.qualtrics.com/jfe/form/SV_3mEUjljOKOh42Vg?PID","bdp_trlrn","Tue Mar 01 2022 11:41:08 GMT-0500 (Eastern Standard Time)","802168","Untrustworthy,Trustworthy","","3383","","","","rating","","trustrating_stim/white_mw058.bmp","4","","","","","","","","",""
"image-keyboard-response","56","119107","0.0-6.0-2.25","https://ccnypsych.az1.qualtrics.com/jfe/form/SV_3mEUjljOKOh42Vg?PID","bdp_trlrn","Tue Mar 01 2022 11:41:08 GMT-0500 (Eastern Standard Time)","802168","Untrustworthy,Trustworthy","","null","","","","ratingFB","","trustrating_stim/white_mw058.bmp","null","","","","","","","","",""
"image-keyboard-response","57","121100","0.0-6.0-1.26","https://ccnypsych.az1.qualtrics.com/jfe/form/SV_3mEUjljOKOh42Vg?PID","bdp_trlrn","Tue Mar 01 2022 11:41:08 GMT-0500 (Eastern Standard Time)","802168","Untrustworthy,Trustworthy","","1890","","","","rating","","trustrating_stim/white_mw019.bmp","6","","","","","","","","",""
"image-keyboard-response","58","121304","0.0-6.0-2.26","https://ccnypsych.az1.qualtrics.com/jfe/form/SV_3mEUjljOKOh42Vg?PID","bdp_trlrn","Tue Mar 01 2022 11:41:08 GMT-0500 (Eastern Standard Time)","802168","Untrustworthy,Trustworthy","","null","","","","ratingFB","","trustrating_stim/white_mw019.bmp","null","","","","","","","","",""
"image-keyboard-response","59","122742","0.0-6.0-1.27","https://ccnypsych.az1.qualtrics.com/jfe/form/SV_3mEUjljOKOh42Vg?PID","bdp_trlrn","Tue Mar 01 2022 11:41:08 GMT-0500 (Eastern Standard Time)","802168","Untrustworthy,Trustworthy","","1333","","","","rating","","trustrating_stim/white_mw022.bmp","4","","","","","","","","",""
"image-keyboard-response","60","122947","0.0-6.0-2.27","https://ccnypsych.az1.qualtrics.com/jfe/form/SV_3mEUjljOKOh42Vg?PID","bdp_trlrn","Tue Mar 01 2022 11:41:08 GMT-0500 (Eastern Standard Time)","802168","Untrustworthy,Trustworthy","","null","","","","ratingFB","","trustrating_stim/white_mw022.bmp","null","","","","","","","","",""
"image-keyboard-response","61","126978","0.0-6.0-1.28","https://ccnypsych.az1.qualtrics.com/jfe/form/SV_3mEUjljOKOh42Vg?PID","bdp_trlrn","Tue Mar 01 2022 11:41:08 GMT-0500 (Eastern Standard Time)","802168","Untrustworthy,Trustworthy","","3929","","","","rating","","trustrating_stim/white_00807_941205_fb_edt.bmp","3","","","","","","","","",""
"image-keyboard-response","62","127184","0.0-6.0-2.28","https://ccnypsych.az1.qualtrics.com/jfe/form/SV_3mEUjljOKOh42Vg?PID","bdp_trlrn","Tue Mar 01 2022 11:41:08 GMT-0500 (Eastern Standard Time)","802168","Untrustworthy,Trustworthy","","null","","","","ratingFB","","trustrating_stim/white_00807_941205_fb_edt.bmp","null","","","","","","","","",""
"image-keyboard-response","63","128914","0.0-6.0-1.29","https://ccnypsych.az1.qualtrics.com/jfe/form/SV_3mEUjljOKOh42Vg?PID","bdp_trlrn","Tue Mar 01 2022 11:41:08 GMT-0500 (Eastern Standard Time)","802168","Untrustworthy,Trustworthy","","1624","","","","rating","","trustrating_stim/white_00223_940128_fb_edt.bmp","7","","","","","","","","",""
"image-keyboard-response","64","129118","0.0-6.0-2.29","https://ccnypsych.az1.qualtrics.com/jfe/form/SV_3mEUjljOKOh42Vg?PID","bdp_trlrn","Tue Mar 01 2022 11:41:08 GMT-0500 (Eastern Standard Time)","802168","Untrustworthy,Trustworthy","","null","","","","ratingFB","","trustrating_stim/white_00223_940128_fb_edt.bmp","null","","","","","","","","",""
"image-keyboard-response","65","130435","0.0-6.0-1.30","https://ccnypsych.az1.qualtrics.com/jfe/form/SV_3mEUjljOKOh42Vg?PID","bdp_trlrn","Tue Mar 01 2022 11:41:08 GMT-0500 (Eastern Standard Time)","802168","Untrustworthy,Trustworthy","","1213","","","","rating","","trustrating_stim/white_mw057.bmp","3","","","","","","","","",""
"image-keyboard-response","66","130639","0.0-6.0-2.30","https://ccnypsych.az1.qualtrics.com/jfe/form/SV_3mEUjljOKOh42Vg?PID","bdp_trlrn","Tue Mar 01 2022 11:41:08 GMT-0500 (Eastern Standard Time)","802168","Untrustworthy,Trustworthy","","null","","","","ratingFB","","trustrating_stim/white_mw057.bmp","null","","","","","","","","",""
"image-keyboard-response","67","131865","0.0-6.0-1.31","https://ccnypsych.az1.qualtrics.com/jfe/form/SV_3mEUjljOKOh42Vg?PID","bdp_trlrn","Tue Mar 01 2022 11:41:08 GMT-0500 (Eastern Standard Time)","802168","Untrustworthy,Trustworthy","","1119","","","","rating","","trustrating_stim/white_mw097.bmp","3","","","","","","","","",""
"image-keyboard-response","68","132068","0.0-6.0-2.31","https://ccnypsych.az1.qualtrics.com/jfe/form/SV_3mEUjljOKOh42Vg?PID","bdp_trlrn","Tue Mar 01 2022 11:41:08 GMT-0500 (Eastern Standard Time)","802168","Untrustworthy,Trustworthy","","null","","","","ratingFB","","trustrating_stim/white_mw097.bmp","null","","","","","","","","",""
"image-keyboard-response","69","134224","0.0-6.0-1.32","https://ccnypsych.az1.qualtrics.com/jfe/form/SV_3mEUjljOKOh42Vg?PID","bdp_trlrn","Tue Mar 01 2022 11:41:08 GMT-0500 (Eastern Standard Time)","802168","Untrustworthy,Trustworthy","","2049","","","","rating","","trustrating_stim/white_00657_941121_fa_edt.bmp","8","","","","","","","","",""
"image-keyboard-response","70","134430","0.0-6.0-2.32","https://ccnypsych.az1.qualtrics.com/jfe/form/SV_3mEUjljOKOh42Vg?PID","bdp_trlrn","Tue Mar 01 2022 11:41:08 GMT-0500 (Eastern Standard Time)","802168","Untrustworthy,Trustworthy","","null","","","","ratingFB","","trustrating_stim/white_00657_941121_fa_edt.bmp","null","","","","","","","","",""
"image-keyboard-response","71","136543","0.0-6.0-1.33","https://ccnypsych.az1.qualtrics.com/jfe/form/SV_3mEUjljOKOh42Vg?PID","bdp_trlrn","Tue Mar 01 2022 11:41:08 GMT-0500 (Eastern Standard Time)","802168","Untrustworthy,Trustworthy","","2008","","","","rating","","trustrating_stim/white_mw035.bmp","4","","","","","","","","",""
"image-keyboard-response","72","136745","0.0-6.0-2.33","https://ccnypsych.az1.qualtrics.com/jfe/form/SV_3mEUjljOKOh42Vg?PID","bdp_trlrn","Tue Mar 01 2022 11:41:08 GMT-0500 (Eastern Standard Time)","802168","Untrustworthy,Trustworthy","","null","","","","ratingFB","","trustrating_stim/white_mw035.bmp","null","","","","","","","","",""
"image-keyboard-response","73","138388","0.0-6.0-1.34","https://ccnypsych.az1.qualtrics.com/jfe/form/SV_3mEUjljOKOh42Vg?PID","bdp_trlrn","Tue Mar 01 2022 11:41:08 GMT-0500 (Eastern Standard Time)","802168","Untrustworthy,Trustworthy","","1541","","","","rating","","trustrating_stim/white_mw043.bmp","7","","","","","","","","",""
"image-keyboard-response","74","138591","0.0-6.0-2.34","https://ccnypsych.az1.qualtrics.com/jfe/form/SV_3mEUjljOKOh42Vg?PID","bdp_trlrn","Tue Mar 01 2022 11:41:08 GMT-0500 (Eastern Standard Time)","802168","Untrustworthy,Trustworthy","","null","","","","ratingFB","","trustrating_stim/white_mw043.bmp","null","","","","","","","","",""
"image-keyboard-response","75","141565","0.0-6.0-1.35","https://ccnypsych.az1.qualtrics.com/jfe/form/SV_3mEUjljOKOh42Vg?PID","bdp_trlrn","Tue Mar 01 2022 11:41:08 GMT-0500 (Eastern Standard Time)","802168","Untrustworthy,Trustworthy","","2869","","","","rating","","trustrating_stim/white_mw072.bmp","4","","","","","","","","",""
"image-keyboard-response","76","141768","0.0-6.0-2.35","https://ccnypsych.az1.qualtrics.com/jfe/form/SV_3mEUjljOKOh42Vg?PID","bdp_trlrn","Tue Mar 01 2022 11:41:08 GMT-0500 (Eastern Standard Time)","802168","Untrustworthy,Trustworthy","","null","","","","ratingFB","","trustrating_stim/white_mw072.bmp","null","","","","","","","","",""
"image-keyboard-response","77","143297","0.0-6.0-1.36","https://ccnypsych.az1.qualtrics.com/jfe/form/SV_3mEUjljOKOh42Vg?PID","bdp_trlrn","Tue Mar 01 2022 11:41:08 GMT-0500 (Eastern Standard Time)","802168","Untrustworthy,Trustworthy","","1426","","","","rating","","trustrating_stim/white_mw082.bmp","6","","","","","","","","",""
"image-keyboard-response","78","143502","0.0-6.0-2.36","https://ccnypsych.az1.qualtrics.com/jfe/form/SV_3mEUjljOKOh42Vg?PID","bdp_trlrn","Tue Mar 01 2022 11:41:08 GMT-0500 (Eastern Standard Time)","802168","Untrustworthy,Trustworthy","","null","","","","ratingFB","","trustrating_stim/white_mw082.bmp","null","","","","","","","","",""
"image-keyboard-response","79","145124","0.0-6.0-1.37","https://ccnypsych.az1.qualtrics.com/jfe/form/SV_3mEUjljOKOh42Vg?PID","bdp_trlrn","Tue Mar 01 2022 11:41:08 GMT-0500 (Eastern Standard Time)","802168","Untrustworthy,Trustworthy","","1521","","","","rating","","trustrating_stim/white_00761_941201_fb_edt.bmp","4","","","","","","","","",""
"image-keyboard-response","80","145325","0.0-6.0-2.37","https://ccnypsych.az1.qualtrics.com/jfe/form/SV_3mEUjljOKOh42Vg?PID","bdp_trlrn","Tue Mar 01 2022 11:41:08 GMT-0500 (Eastern Standard Time)","802168","Untrustworthy,Trustworthy","","null","","","","ratingFB","","trustrating_stim/white_00761_941201_fb_edt.bmp","null","","","","","","","","",""
"image-keyboard-response","81","147904","0.0-6.0-1.38","https://ccnypsych.az1.qualtrics.com/jfe/form/SV_3mEUjljOKOh42Vg?PID","bdp_trlrn","Tue Mar 01 2022 11:41:08 GMT-0500 (Eastern Standard Time)","802168","Untrustworthy,Trustworthy","","2477","","","","rating","","trustrating_stim/white_mw016.bmp","4","","","","","","","","",""
"image-keyboard-response","82","148110","0.0-6.0-2.38","https://ccnypsych.az1.qualtrics.com/jfe/form/SV_3mEUjljOKOh42Vg?PID","bdp_trlrn","Tue Mar 01 2022 11:41:08 GMT-0500 (Eastern Standard Time)","802168","Untrustworthy,Trustworthy","","null","","","","ratingFB","","trustrating_stim/white_mw016.bmp","null","","","","","","","","",""
"image-keyboard-response","83","150039","0.0-6.0-1.39","https://ccnypsych.az1.qualtrics.com/jfe/form/SV_3mEUjljOKOh42Vg?PID","bdp_trlrn","Tue Mar 01 2022 11:41:08 GMT-0500 (Eastern Standard Time)","802168","Untrustworthy,Trustworthy","","1823","","","","rating","","trustrating_stim/white_mw046.bmp","7","","","","","","","","",""
"image-keyboard-response","84","150243","0.0-6.0-2.39","https://ccnypsych.az1.qualtrics.com/jfe/form/SV_3mEUjljOKOh42Vg?PID","bdp_trlrn","Tue Mar 01 2022 11:41:08 GMT-0500 (Eastern Standard Time)","802168","Untrustworthy,Trustworthy","","null","","","","ratingFB","","trustrating_stim/white_mw046.bmp","null","","","","","","","","",""
"instructions","85","153643","0.0-7.0","https://ccnypsych.az1.qualtrics.com/jfe/form/SV_3mEUjljOKOh42Vg?PID","bdp_trlrn","Tue Mar 01 2022 11:41:08 GMT-0500 (Eastern Standard Time)","802168","Untrustworthy,Trustworthy","[{""page_index"":0,""viewing_time"":3299}]","3299","","","","","","","","","","","","","","","",""
"instructions","86","328144","0.0-8.0","https://ccnypsych.az1.qualtrics.com/jfe/form/SV_3mEUjljOKOh42Vg?PID","bdp_trlrn","Tue Mar 01 2022 11:41:08 GMT-0500 (Eastern Standard Time)","802168","Untrustworthy,Trustworthy","[{""page_index"":0,""viewing_time"":53215},{""page_index"":1,""viewing_time"":30143},{""page_index"":2,""viewing_time"":12037},{""page_index"":3,""viewing_time"":21216},{""page_index"":4,""viewing_time"":14488},{""page_index"":5,""viewing_time"":23887},{""page_index"":6,""viewing_time"":19410}]","174396","","","","","","","","","","","","","","","",""
"html-keyboard-response","87","340430","0.0-9.0","https://ccnypsych.az1.qualtrics.com/jfe/form/SV_3mEUjljOKOh42Vg?PID","bdp_trlrn","Tue Mar 01 2022 11:41:08 GMT-0500 (Eastern Standard Time)","802168","Untrustworthy,Trustworthy","","12285","","","","","","<div class='header' style='text-align:left; position: absolute; top: 5%; left: 5%;'><small>Task 3 of 4</small></div><div style='text-align:left; position: absolute; top: 10%; left: 20%; width: 60%'><p><strong>1) What is the minimum number of points you can choose to send to your partner?</strong></p><p>a) 0</p><p>b) 1</p><p>c) 5</p>","C","","","","","","","","",""
"html-keyboard-response","88","358829","0.0-10.0","https://ccnypsych.az1.qualtrics.com/jfe/form/SV_3mEUjljOKOh42Vg?PID","bdp_trlrn","Tue Mar 01 2022 11:41:08 GMT-0500 (Eastern Standard Time)","802168","Untrustworthy,Trustworthy","","18293","","","","","","<div class='header' style='text-align:left; position: absolute; top: 5%; left: 5%;'><small>Task 3 of 4</small></div><div style='text-align:left; position: absolute; top: 10%; left: 20%; width: 60%'><p><strong>1) What is the minimum number of points you can choose to send to your partner?</strong></p><p>a) 1</p><p>b) 1</p><p style='color:#FF0000'>c) 5</p><h3 style='color:#FF0000'>Incorrect!</h3><h3 class='center-content'>The correct response is b).</h3><h3 class='center-content'>The minimum number of points you can choose to send to your partner is 1 point.</h3><p><em>Press SPACEBAR to continue</em></p></div>"," ","","","","","","","","",""
"html-keyboard-response","89","364322","0.0-11.0","https://ccnypsych.az1.qualtrics.com/jfe/form/SV_3mEUjljOKOh42Vg?PID","bdp_trlrn","Tue Mar 01 2022 11:41:08 GMT-0500 (Eastern Standard Time)","802168","Untrustworthy,Trustworthy","","5388","","","","","","<div class='header' style='text-align:left; position: absolute; top: 5%; left: 5%;'><small>Task 3 of 4</small></div><div style='text-align:left; position: absolute; top: 10%; left: 20%; width: 60%'><p><strong>2) What is the maximum number of points you can choose to send to your partner?</strong></p><p>a) 8</p><p>b) 5</p><p>c) 3</p>","B","","","","","","","","",""
"html-keyboard-response","90","368136","0.0-12.0","https://ccnypsych.az1.qualtrics.com/jfe/form/SV_3mEUjljOKOh42Vg?PID","bdp_trlrn","Tue Mar 01 2022 11:41:08 GMT-0500 (Eastern Standard Time)","802168","Untrustworthy,Trustworthy","","3708","","","","","","<div class='header' style='text-align:left; position: absolute; top: 5%; left: 5%;'><small>Task 3 of 4</small></div><div style='text-align:left; position: absolute; top: 10%; left: 20%; width: 60%'><p><strong>2) What is the maximum number of points you can choose to send to your partner?</strong></p><p>a) 8</p><p style='color:#00FF00'>b) 5</p><p>c) 3</p><h3 style='color:#00FF00'>Correct!</h3><h3 class='center-content'>The correct response is b).</h3><h3 class='center-content'>The maximum number of points you can choose to send to your partner is 5 points.</h3><p><em>Press SPACEBAR to continue</em></p></div>"," ","","","","","","","","",""
"html-keyboard-response","91","374853","0.0-13.0","https://ccnypsych.az1.qualtrics.com/jfe/form/SV_3mEUjljOKOh42Vg?PID","bdp_trlrn","Tue Mar 01 2022 11:41:08 GMT-0500 (Eastern Standard Time)","802168","Untrustworthy,Trustworthy","","6612","","","","","","<div class='header' style='text-align:left; position: absolute; top: 5%; left: 5%;'><small>Task 3 of 4</small></div><div style='text-align:left; position: absolute; top: 10%; left: 20%; width: 60%'><p><strong>3) What happens to the amount of points you send to your partner?</strong></p><p>a) Nothing</p><p>b) It doubles</p><p>c) It quadruples</p>","C","","","","","","","","",""
"html-keyboard-response","92","376555","0.0-14.0","https://ccnypsych.az1.qualtrics.com/jfe/form/SV_3mEUjljOKOh42Vg?PID","bdp_trlrn","Tue Mar 01 2022 11:41:08 GMT-0500 (Eastern Standard Time)","802168","Untrustworthy,Trustworthy","","1598","","","","","","<div class='header' style='text-align:left; position: absolute; top: 5%; left: 5%;'><small>Task 3 of 4</small></div><div style='text-align:left; position: absolute; top: 10%; left: 20%; width: 60%'><p><strong>3) What happens to the amount of points you send to your partner?</strong></p><p>a) Nothing</p><p>b) It doubles</p><p style='color:#00FF00'>c) It quadruples</p><h3 style='color:#00FF00'>Correct!</h3><h3 class='center-content'>The correct response is c).</h3><h3 class='center-content'>The amount of points you send to your partner quadruples.</h3><p><em>Press SPACEBAR to continue</em></p></div>"," ","","","","","","","","",""
"html-keyboard-response","93","437198","0.0-15.0","https://ccnypsych.az1.qualtrics.com/jfe/form/SV_3mEUjljOKOh42Vg?PID","bdp_trlrn","Tue Mar 01 2022 11:41:08 GMT-0500 (Eastern Standard Time)","802168","Untrustworthy,Trustworthy","","60541","","","","","","<div class='header' style='text-align:left; position: absolute; top: 5%; left: 5%;'><small>Task 3 of 4</small></div><div style='text-align:left; position: absolute; top: 10%; left: 20%; width: 60%'><p><strong>4) If you decide to share 4 out of 5 points with your partner, and he decided to share half of what he received, how many points would you end up with in this round?</strong></p><p>a) 16</p><p>b) 0</p><p>c) 9</p>","C","","","","","","","","",""
"html-keyboard-response","94","447377","0.0-16.0","https://ccnypsych.az1.qualtrics.com/jfe/form/SV_3mEUjljOKOh42Vg?PID","bdp_trlrn","Tue Mar 01 2022 11:41:08 GMT-0500 (Eastern Standard Time)","802168","Untrustworthy,Trustworthy","","10076","","","","","","<div class='header' style='text-align:left; position: absolute; top: 5%; left: 5%;'><small>Task 3 of 4</small></div><div style='text-align:left; position: absolute; top: 10%; left: 20%; width: 60%'><p><strong>4) If you decide to share 4 points with your partner, and he decided to share half of what he received, how many points would you end up with in this round?</strong></p><p>a) 16</p><p>b) 0</p><p style='color:#00FF00'>c) 9</p><h3 style='color:#00FF00'>Correct!</h3><h3 class='center-content'>The correct response is c).</h3><h3 class='center-content'>If you share 4 out of 5 points with your partner and he decided to share half with you, you would receive 8 points back (i.e. (4 x 4)/2 = 8), totaling to 9 points altogether.</h3><p><em>Press SPACEBAR to continue</em></p></div>"," ","","","","","","","","",""
"instructions","95","451130","0.0-17.0","https://ccnypsych.az1.qualtrics.com/jfe/form/SV_3mEUjljOKOh42Vg?PID","bdp_trlrn","Tue Mar 01 2022 11:41:08 GMT-0500 (Eastern Standard Time)","802168","Untrustworthy,Trustworthy","[{""page_index"":0,""viewing_time"":3648}]","3648","","","","","","","","","","","","","","","",""
"html-keyboard-response","96","456363","0.0-18.0-1.0","https://ccnypsych.az1.qualtrics.com/jfe/form/SV_3mEUjljOKOh42Vg?PID","bdp_trlrn","Tue Mar 01 2022 11:41:08 GMT-0500 (Eastern Standard Time)","802168","Untrustworthy,Trustworthy","","5128","","","","decision","","<div class='trialDiv'><img src='trustrating_stim/white_mw089.bmp'><br><font class='baseline'><strong>Sean</strong><p>Choose number of points to send.</font><div class='respPicDiv'><img src='img/responseButtonOffersNo0L.png' class='respPic'></div></div>","5","1","Sean","trustrating_stim/white_mw089.bmp","Shared","0.8,0.4","14","0.8","5","1"
"html-keyboard-response","97","456618","0.0-18.0-2.0","https://ccnypsych.az1.qualtrics.com/jfe/form/SV_3mEUjljOKOh42Vg?PID","bdp_trlrn","Tue Mar 01 2022 11:41:08 GMT-0500 (Eastern Standard Time)","802168","Untrustworthy,Trustworthy","","null","","","","decisionFB","","<div class='trialDiv'><img src='trustrating_stim/white_mw089.bmp'><br><font class='baseline'><strong>Sean</strong><p>Choose number of points to send.</font><div class='respPicDiv'><img src='img/responseButtonOffersNo0L5.png' class='respPic'></div></div>","null","1","Sean","trustrating_stim/white_mw089.bmp","Shared","0.8,0.4","14","0.8","0","1"
"html-keyboard-response","98","457625","0.0-18.0-3.0","https://ccnypsych.az1.qualtrics.com/jfe/form/SV_3mEUjljOKOh42Vg?PID","bdp_trlrn","Tue Mar 01 2022 11:41:08 GMT-0500 (Eastern Standard Time)","802168","Untrustworthy,Trustworthy","","null","","","","feedback","","<div class='trialDiv'><img src='trustrating_stim/white_mw089.bmp'><br><font class='baseline'><strong>Sean</strong><p>Received: <strong>20</strong></font> &nbsp; &nbsp; &nbsp; &nbsp; &nbsp; &nbsp;<font class='posOutcome'>Shared back: <strong>10</strong></font></font><div class='respPicDiv'><img src='img/responseButtonOffersNo0_wht.png' class='respPic'></div></div>","null","1","Sean","trustrating_stim/white_mw089.bmp","Shared","0.8,0.4","14","0.8","10","1"
"html-keyboard-response","99","463975","0.0-18.0-1.1","https://ccnypsych.az1.qualtrics.com/jfe/form/SV_3mEUjljOKOh42Vg?PID","bdp_trlrn","Tue Mar 01 2022 11:41:08 GMT-0500 (Eastern Standard Time)","802168","Untrustworthy,Trustworthy","","6347","","","","decision","","<div class='trialDiv'><img src='trustrating_stim/white_00785_941205_fb_edt.bmp'><br><font class='baseline'><strong>Gavin</strong><p>Choose number of points to send.</font><div class='respPicDiv'><img src='img/responseButtonOffersNo0L.png' class='respPic'></div></div>","3","1","Gavin","trustrating_stim/white_00785_941205_fb_edt.bmp","Kept","0.2,0.6","14","0.2","15","2"
"html-keyboard-response","100","464231","0.0-18.0-2.1","https://ccnypsych.az1.qualtrics.com/jfe/form/SV_3mEUjljOKOh42Vg?PID","bdp_trlrn","Tue Mar 01 2022 11:41:08 GMT-0500 (Eastern Standard Time)","802168","Untrustworthy,Trustworthy","","null","","","","decisionFB","","<div class='trialDiv'><img src='trustrating_stim/white_00785_941205_fb_edt.bmp'><br><font class='baseline'><strong>Gavin</strong><p>Choose number of points to send.</font><div class='respPicDiv'><img src='img/responseButtonOffersNo0L3.png' class='respPic'></div></div>","null","1","Gavin","trustrating_stim/white_00785_941205_fb_edt.bmp","Kept","0.2,0.6","14","0.2","12","2"
"html-keyboard-response","101","465236","0.0-18.0-3.1","https://ccnypsych.az1.qualtrics.com/jfe/form/SV_3mEUjljOKOh42Vg?PID","bdp_trlrn","Tue Mar 01 2022 11:41:08 GMT-0500 (Eastern Standard Time)","802168","Untrustworthy,Trustworthy","","null","","","","feedback","","<div class='trialDiv'><img src='trustrating_stim/white_00785_941205_fb_edt.bmp'><br><font class='baseline'><strong>Gavin</strong><p>Received: <strong>12</strong></font> &nbsp; &nbsp; &nbsp; &nbsp; &nbsp; &nbsp;<font class='negOutcome'>Shared back: <strong>0</strong></font></font><div class='respPicDiv'><img src='img/responseButtonOffersNo0_wht.png' class='respPic'></div></div>","null","1","Gavin","trustrating_stim/white_00785_941205_fb_edt.bmp","Kept","0.2,0.6","14","0.2","12","2"
"html-keyboard-response","102","469087","0.0-18.0-1.2","https://ccnypsych.az1.qualtrics.com/jfe/form/SV_3mEUjljOKOh42Vg?PID","bdp_trlrn","Tue Mar 01 2022 11:41:08 GMT-0500 (Eastern Standard Time)","802168","Untrustworthy,Trustworthy","","3849","","","","decision","","<div class='trialDiv'><img src='trustrating_stim/white_mw071.bmp'><br><font class='baseline'><strong>Tyler</strong><p>Choose number of points to send.</font><div class='respPicDiv'><img src='img/responseButtonOffersNo0L.png' class='respPic'></div></div>","5","1","Tyler","trustrating_stim/white_mw071.bmp","Shared","0.4,0.8","10","0.4","17","3"
"html-keyboard-response","103","469343","0.0-18.0-2.2","https://ccnypsych.az1.qualtrics.com/jfe/form/SV_3mEUjljOKOh42Vg?PID","bdp_trlrn","Tue Mar 01 2022 11:41:08 GMT-0500 (Eastern Standard Time)","802168","Untrustworthy,Trustworthy","","null","","","","decisionFB","","<div class='trialDiv'><img src='trustrating_stim/white_mw071.bmp'><br><font class='baseline'><strong>Tyler</strong><p>Choose number of points to send.</font><div class='respPicDiv'><img src='img/responseButtonOffersNo0L5.png' class='respPic'></div></div>","null","1","Tyler","trustrating_stim/white_mw071.bmp","Shared","0.4,0.8","10","0.4","12","3"
"html-keyboard-response","104","470348","0.0-18.0-3.2","https://ccnypsych.az1.qualtrics.com/jfe/form/SV_3mEUjljOKOh42Vg?PID","bdp_trlrn","Tue Mar 01 2022 11:41:08 GMT-0500 (Eastern Standard Time)","802168","Untrustworthy,Trustworthy","","null","","","","feedback","","<div class='trialDiv'><img src='trustrating_stim/white_mw071.bmp'><br><font class='baseline'><strong>Tyler</strong><p>Received: <strong>20</strong></font> &nbsp; &nbsp; &nbsp; &nbsp; &nbsp; &nbsp;<font class='posOutcome'>Shared back: <strong>10</strong></font></font><div class='respPicDiv'><img src='img/responseButtonOffersNo0_wht.png' class='respPic'></div></div>","null","1","Tyler","trustrating_stim/white_mw071.bmp","Shared","0.4,0.8","10","0.4","22","3"
"html-keyboard-response","105","473723","0.0-18.0-1.3","https://ccnypsych.az1.qualtrics.com/jfe/form/SV_3mEUjljOKOh42Vg?PID","bdp_trlrn","Tue Mar 01 2022 11:41:08 GMT-0500 (Eastern Standard Time)","802168","Untrustworthy,Trustworthy","","3374","","","","decision","","<div class='trialDiv'><img src='trustrating_stim/white_mw099.bmp'><br><font class='baseline'><strong>Ethan</strong><p>Choose number of points to send.</font><div class='respPicDiv'><img src='img/responseButtonOffersNo0L.png' class='respPic'></div></div>","2","1","Ethan","trustrating_stim/white_mw099.bmp","Kept","0.6,0.2","15","0.6","27","4"
"html-keyboard-response","106","473980","0.0-18.0-2.3","https://ccnypsych.az1.qualtrics.com/jfe/form/SV_3mEUjljOKOh42Vg?PID","bdp_trlrn","Tue Mar 01 2022 11:41:08 GMT-0500 (Eastern Standard Time)","802168","Untrustworthy,Trustworthy","","null","","","","decisionFB","","<div class='trialDiv'><img src='trustrating_stim/white_mw099.bmp'><br><font class='baseline'><strong>Ethan</strong><p>Choose number of points to send.</font><div class='respPicDiv'><img src='img/responseButtonOffersNo0L2.png' class='respPic'></div></div>","null","1","Ethan","trustrating_stim/white_mw099.bmp","Kept","0.6,0.2","15","0.6","25","4"
"html-keyboard-response","107","474985","0.0-18.0-3.3","https://ccnypsych.az1.qualtrics.com/jfe/form/SV_3mEUjljOKOh42Vg?PID","bdp_trlrn","Tue Mar 01 2022 11:41:08 GMT-0500 (Eastern Standard Time)","802168","Untrustworthy,Trustworthy","","null","","","","feedback","","<div class='trialDiv'><img src='trustrating_stim/white_mw099.bmp'><br><font class='baseline'><strong>Ethan</strong><p>Received: <strong>8</strong></font> &nbsp; &nbsp; &nbsp; &nbsp; &nbsp; &nbsp;<font class='negOutcome'>Shared back: <strong>0</strong></font></font><div class='respPicDiv'><img src='img/responseButtonOffersNo0_wht.png' class='respPic'></div></div>","null","1","Ethan","trustrating_stim/white_mw099.bmp","Kept","0.6,0.2","15","0.6","25","4"
"html-keyboard-response","108","479492","0.0-18.0-1.4","https://ccnypsych.az1.qualtrics.com/jfe/form/SV_3mEUjljOKOh42Vg?PID","bdp_trlrn","Tue Mar 01 2022 11:41:08 GMT-0500 (Eastern Standard Time)","802168","Untrustworthy,Trustworthy","","4505","","","","decision","","<div class='trialDiv'><img src='trustrating_stim/white_mw071.bmp'><br><font class='baseline'><strong>Tyler</strong><p>Choose number of points to send.</font><div class='respPicDiv'><img src='img/responseButtonOffersNo0L.png' class='respPic'></div></div>","5","2","Tyler","trustrating_stim/white_mw071.bmp","Kept","0.4,0.8","10","0.4","30","5"
"html-keyboard-response","109","479747","0.0-18.0-2.4","https://ccnypsych.az1.qualtrics.com/jfe/form/SV_3mEUjljOKOh42Vg?PID","bdp_trlrn","Tue Mar 01 2022 11:41:08 GMT-0500 (Eastern Standard Time)","802168","Untrustworthy,Trustworthy","","null","","","","decisionFB","","<div class='trialDiv'><img src='trustrating_stim/white_mw071.bmp'><br><font class='baseline'><strong>Tyler</strong><p>Choose number of points to send.</font><div class='respPicDiv'><img src='img/responseButtonOffersNo0L5.png' class='respPic'></div></div>","null","2","Tyler","trustrating_stim/white_mw071.bmp","Kept","0.4,0.8","10","0.4","25","5"
"html-keyboard-response","110","480750","0.0-18.0-3.4","https://ccnypsych.az1.qualtrics.com/jfe/form/SV_3mEUjljOKOh42Vg?PID","bdp_trlrn","Tue Mar 01 2022 11:41:08 GMT-0500 (Eastern Standard Time)","802168","Untrustworthy,Trustworthy","","null","","","","feedback","","<div class='trialDiv'><img src='trustrating_stim/white_mw071.bmp'><br><font class='baseline'><strong>Tyler</strong><p>Received: <strong>20</strong></font> &nbsp; &nbsp; &nbsp; &nbsp; &nbsp; &nbsp;<font class='negOutcome'>Shared back: <strong>0</strong></font></font><div class='respPicDiv'><img src='img/responseButtonOffersNo0_wht.png' class='respPic'></div></div>","null","2","Tyler","trustrating_stim/white_mw071.bmp","Kept","0.4,0.8","10","0.4","25","5"
"html-keyboard-response","111","482591","0.0-18.0-1.5","https://ccnypsych.az1.qualtrics.com/jfe/form/SV_3mEUjljOKOh42Vg?PID","bdp_trlrn","Tue Mar 01 2022 11:41:08 GMT-0500 (Eastern Standard Time)","802168","Untrustworthy,Trustworthy","","1839","","","","decision","","<div class='trialDiv'><img src='trustrating_stim/white_00785_941205_fb_edt.bmp'><br><font class='baseline'><strong>Gavin</strong><p>Choose number of points to send.</font><div class='respPicDiv'><img src='img/responseButtonOffersNo0L.png' class='respPic'></div></div>","2","2","Gavin","trustrating_stim/white_00785_941205_fb_edt.bmp","Kept","0.2,0.6","14","0.2","30","6"
"html-keyboard-response","112","482845","0.0-18.0-2.5","https://ccnypsych.az1.qualtrics.com/jfe/form/SV_3mEUjljOKOh42Vg?PID","bdp_trlrn","Tue Mar 01 2022 11:41:08 GMT-0500 (Eastern Standard Time)","802168","Untrustworthy,Trustworthy","","null","","","","decisionFB","","<div class='trialDiv'><img src='trustrating_stim/white_00785_941205_fb_edt.bmp'><br><font class='baseline'><strong>Gavin</strong><p>Choose number of points to send.</font><div class='respPicDiv'><img src='img/responseButtonOffersNo0L2.png' class='respPic'></div></div>","null","2","Gavin","trustrating_stim/white_00785_941205_fb_edt.bmp","Kept","0.2,0.6","14","0.2","28","6"
"html-keyboard-response","113","483848","0.0-18.0-3.5","https://ccnypsych.az1.qualtrics.com/jfe/form/SV_3mEUjljOKOh42Vg?PID","bdp_trlrn","Tue Mar 01 2022 11:41:08 GMT-0500 (Eastern Standard Time)","802168","Untrustworthy,Trustworthy","","null","","","","feedback","","<div class='trialDiv'><img src='trustrating_stim/white_00785_941205_fb_edt.bmp'><br><font class='baseline'><strong>Gavin</strong><p>Received: <strong>8</strong></font> &nbsp; &nbsp; &nbsp; &nbsp; &nbsp; &nbsp;<font class='negOutcome'>Shared back: <strong>0</strong></font></font><div class='respPicDiv'><img src='img/responseButtonOffersNo0_wht.png' class='respPic'></div></div>","null","2","Gavin","trustrating_stim/white_00785_941205_fb_edt.bmp","Kept","0.2,0.6","14","0.2","28","6"
"html-keyboard-response","114","487149","0.0-18.0-1.6","https://ccnypsych.az1.qualtrics.com/jfe/form/SV_3mEUjljOKOh42Vg?PID","bdp_trlrn","Tue Mar 01 2022 11:41:08 GMT-0500 (Eastern Standard Time)","802168","Untrustworthy,Trustworthy","","3300","","","","decision","","<div class='trialDiv'><img src='trustrating_stim/white_mw089.bmp'><br><font class='baseline'><strong>Sean</strong><p>Choose number of points to send.</font><div class='respPicDiv'><img src='img/responseButtonOffersNo0L.png' class='respPic'></div></div>","4","2","Sean","trustrating_stim/white_mw089.bmp","Shared","0.8,0.4","14","0.8","33","7"
"html-keyboard-response","115","487403","0.0-18.0-2.6","https://ccnypsych.az1.qualtrics.com/jfe/form/SV_3mEUjljOKOh42Vg?PID","bdp_trlrn","Tue Mar 01 2022 11:41:08 GMT-0500 (Eastern Standard Time)","802168","Untrustworthy,Trustworthy","","null","","","","decisionFB","","<div class='trialDiv'><img src='trustrating_stim/white_mw089.bmp'><br><font class='baseline'><strong>Sean</strong><p>Choose number of points to send.</font><div class='respPicDiv'><img src='img/responseButtonOffersNo0L4.png' class='respPic'></div></div>","null","2","Sean","trustrating_stim/white_mw089.bmp","Shared","0.8,0.4","14","0.8","29","7"
"html-keyboard-response","116","488409","0.0-18.0-3.6","https://ccnypsych.az1.qualtrics.com/jfe/form/SV_3mEUjljOKOh42Vg?PID","bdp_trlrn","Tue Mar 01 2022 11:41:08 GMT-0500 (Eastern Standard Time)","802168","Untrustworthy,Trustworthy","","null","","","","feedback","","<div class='trialDiv'><img src='trustrating_stim/white_mw089.bmp'><br><font class='baseline'><strong>Sean</strong><p>Received: <strong>16</strong></font> &nbsp; &nbsp; &nbsp; &nbsp; &nbsp; &nbsp;<font class='posOutcome'>Shared back: <strong>8</strong></font></font><div class='respPicDiv'><img src='img/responseButtonOffersNo0_wht.png' class='respPic'></div></div>","null","2","Sean","trustrating_stim/white_mw089.bmp","Shared","0.8,0.4","14","0.8","37","7"
"html-keyboard-response","117","491855","0.0-18.0-1.7","https://ccnypsych.az1.qualtrics.com/jfe/form/SV_3mEUjljOKOh42Vg?PID","bdp_trlrn","Tue Mar 01 2022 11:41:08 GMT-0500 (Eastern Standard Time)","802168","Untrustworthy,Trustworthy","","3444","","","","decision","","<div class='trialDiv'><img src='trustrating_stim/white_mw099.bmp'><br><font class='baseline'><strong>Ethan</strong><p>Choose number of points to send.</font><div class='respPicDiv'><img src='img/responseButtonOffersNo0L.png' class='respPic'></div></div>","2","2","Ethan","trustrating_stim/white_mw099.bmp","Kept","0.6,0.2","15","0.6","42","8"
"html-keyboard-response","118","492110","0.0-18.0-2.7","https://ccnypsych.az1.qualtrics.com/jfe/form/SV_3mEUjljOKOh42Vg?PID","bdp_trlrn","Tue Mar 01 2022 11:41:08 GMT-0500 (Eastern Standard Time)","802168","Untrustworthy,Trustworthy","","null","","","","decisionFB","","<div class='trialDiv'><img src='trustrating_stim/white_mw099.bmp'><br><font class='baseline'><strong>Ethan</strong><p>Choose number of points to send.</font><div class='respPicDiv'><img src='img/responseButtonOffersNo0L2.png' class='respPic'></div></div>","null","2","Ethan","trustrating_stim/white_mw099.bmp","Kept","0.6,0.2","15","0.6","40","8"
"html-keyboard-response","119","493113","0.0-18.0-3.7","https://ccnypsych.az1.qualtrics.com/jfe/form/SV_3mEUjljOKOh42Vg?PID","bdp_trlrn","Tue Mar 01 2022 11:41:08 GMT-0500 (Eastern Standard Time)","802168","Untrustworthy,Trustworthy","","null","","","","feedback","","<div class='trialDiv'><img src='trustrating_stim/white_mw099.bmp'><br><font class='baseline'><strong>Ethan</strong><p>Received: <strong>8</strong></font> &nbsp; &nbsp; &nbsp; &nbsp; &nbsp; &nbsp;<font class='negOutcome'>Shared back: <strong>0</strong></font></font><div class='respPicDiv'><img src='img/responseButtonOffersNo0_wht.png' class='respPic'></div></div>","null","2","Ethan","trustrating_stim/white_mw099.bmp","Kept","0.6,0.2","15","0.6","40","8"
"html-keyboard-response","120","494596","0.0-18.0-1.8","https://ccnypsych.az1.qualtrics.com/jfe/form/SV_3mEUjljOKOh42Vg?PID","bdp_trlrn","Tue Mar 01 2022 11:41:08 GMT-0500 (Eastern Standard Time)","802168","Untrustworthy,Trustworthy","","1481","","","","decision","","<div class='trialDiv'><img src='trustrating_stim/white_mw071.bmp'><br><font class='baseline'><strong>Tyler</strong><p>Choose number of points to send.</font><div class='respPicDiv'><img src='img/responseButtonOffersNo0L.png' class='respPic'></div></div>","5","3","Tyler","trustrating_stim/white_mw071.bmp","Shared","0.4,0.8","10","0.4","45","9"
"html-keyboard-response","121","494851","0.0-18.0-2.8","https://ccnypsych.az1.qualtrics.com/jfe/form/SV_3mEUjljOKOh42Vg?PID","bdp_trlrn","Tue Mar 01 2022 11:41:08 GMT-0500 (Eastern Standard Time)","802168","Untrustworthy,Trustworthy","","null","","","","decisionFB","","<div class='trialDiv'><img src='trustrating_stim/white_mw071.bmp'><br><font class='baseline'><strong>Tyler</strong><p>Choose number of points to send.</font><div class='respPicDiv'><img src='img/responseButtonOffersNo0L5.png' class='respPic'></div></div>","null","3","Tyler","trustrating_stim/white_mw071.bmp","Shared","0.4,0.8","10","0.4","40","9"
"html-keyboard-response","122","495854","0.0-18.0-3.8","https://ccnypsych.az1.qualtrics.com/jfe/form/SV_3mEUjljOKOh42Vg?PID","bdp_trlrn","Tue Mar 01 2022 11:41:08 GMT-0500 (Eastern Standard Time)","802168","Untrustworthy,Trustworthy","","null","","","","feedback","","<div class='trialDiv'><img src='trustrating_stim/white_mw071.bmp'><br><font class='baseline'><strong>Tyler</strong><p>Received: <strong>20</strong></font> &nbsp; &nbsp; &nbsp; &nbsp; &nbsp; &nbsp;<font class='posOutcome'>Shared back: <strong>10</strong></font></font><div class='respPicDiv'><img src='img/responseButtonOffersNo0_wht.png' class='respPic'></div></div>","null","3","Tyler","trustrating_stim/white_mw071.bmp","Shared","0.4,0.8","10","0.4","50","9"
"html-keyboard-response","123","496981","0.0-18.0-1.9","https://ccnypsych.az1.qualtrics.com/jfe/form/SV_3mEUjljOKOh42Vg?PID","bdp_trlrn","Tue Mar 01 2022 11:41:08 GMT-0500 (Eastern Standard Time)","802168","Untrustworthy,Trustworthy","","1125","","","","decision","","<div class='trialDiv'><img src='trustrating_stim/white_mw089.bmp'><br><font class='baseline'><strong>Sean</strong><p>Choose number of points to send.</font><div class='respPicDiv'><img src='img/responseButtonOffersNo0L.png' class='respPic'></div></div>","4","3","Sean","trustrating_stim/white_mw089.bmp","Shared","0.8,0.4","14","0.8","55","10"
"html-keyboard-response","124","497234","0.0-18.0-2.9","https://ccnypsych.az1.qualtrics.com/jfe/form/SV_3mEUjljOKOh42Vg?PID","bdp_trlrn","Tue Mar 01 2022 11:41:08 GMT-0500 (Eastern Standard Time)","802168","Untrustworthy,Trustworthy","","null","","","","decisionFB","","<div class='trialDiv'><img src='trustrating_stim/white_mw089.bmp'><br><font class='baseline'><strong>Sean</strong><p>Choose number of points to send.</font><div class='respPicDiv'><img src='img/responseButtonOffersNo0L4.png' class='respPic'></div></div>","null","3","Sean","trustrating_stim/white_mw089.bmp","Shared","0.8,0.4","14","0.8","51","10"
"html-keyboard-response","125","498238","0.0-18.0-3.9","https://ccnypsych.az1.qualtrics.com/jfe/form/SV_3mEUjljOKOh42Vg?PID","bdp_trlrn","Tue Mar 01 2022 11:41:08 GMT-0500 (Eastern Standard Time)","802168","Untrustworthy,Trustworthy","","null","","","","feedback","","<div class='trialDiv'><img src='trustrating_stim/white_mw089.bmp'><br><font class='baseline'><strong>Sean</strong><p>Received: <strong>16</strong></font> &nbsp; &nbsp; &nbsp; &nbsp; &nbsp; &nbsp;<font class='posOutcome'>Shared back: <strong>8</strong></font></font><div class='respPicDiv'><img src='img/responseButtonOffersNo0_wht.png' class='respPic'></div></div>","null","3","Sean","trustrating_stim/white_mw089.bmp","Shared","0.8,0.4","14","0.8","59","10"
"html-keyboard-response","126","499748","0.0-18.0-1.10","https://ccnypsych.az1.qualtrics.com/jfe/form/SV_3mEUjljOKOh42Vg?PID","bdp_trlrn","Tue Mar 01 2022 11:41:08 GMT-0500 (Eastern Standard Time)","802168","Untrustworthy,Trustworthy","","1508","","","","decision","","<div class='trialDiv'><img src='trustrating_stim/white_00785_941205_fb_edt.bmp'><br><font class='baseline'><strong>Gavin</strong><p>Choose number of points to send.</font><div class='respPicDiv'><img src='img/responseButtonOffersNo0L.png' class='respPic'></div></div>","1","3","Gavin","trustrating_stim/white_00785_941205_fb_edt.bmp","Kept","0.2,0.6","14","0.2","64","11"
"html-keyboard-response","127","500000","0.0-18.0-2.10","https://ccnypsych.az1.qualtrics.com/jfe/form/SV_3mEUjljOKOh42Vg?PID","bdp_trlrn","Tue Mar 01 2022 11:41:08 GMT-0500 (Eastern Standard Time)","802168","Untrustworthy,Trustworthy","","null","","","","decisionFB","","<div class='trialDiv'><img src='trustrating_stim/white_00785_941205_fb_edt.bmp'><br><font class='baseline'><strong>Gavin</strong><p>Choose number of points to send.</font><div class='respPicDiv'><img src='img/responseButtonOffersNo0L1.png' class='respPic'></div></div>","null","3","Gavin","trustrating_stim/white_00785_941205_fb_edt.bmp","Kept","0.2,0.6","14","0.2","63","11"
"html-keyboard-response","128","501004","0.0-18.0-3.10","https://ccnypsych.az1.qualtrics.com/jfe/form/SV_3mEUjljOKOh42Vg?PID","bdp_trlrn","Tue Mar 01 2022 11:41:08 GMT-0500 (Eastern Standard Time)","802168","Untrustworthy,Trustworthy","","null","","","","feedback","","<div class='trialDiv'><img src='trustrating_stim/white_00785_941205_fb_edt.bmp'><br><font class='baseline'><strong>Gavin</strong><p>Received: <strong>4</strong></font> &nbsp; &nbsp; &nbsp; &nbsp; &nbsp; &nbsp;<font class='negOutcome'>Shared back: <strong>0</strong></font></font><div class='respPicDiv'><img src='img/responseButtonOffersNo0_wht.png' class='respPic'></div></div>","null","3","Gavin","trustrating_stim/white_00785_941205_fb_edt.bmp","Kept","0.2,0.6","14","0.2","63","11"
"html-keyboard-response","129","507988","0.0-18.0-1.11","https://ccnypsych.az1.qualtrics.com/jfe/form/SV_3mEUjljOKOh42Vg?PID","bdp_trlrn","Tue Mar 01 2022 11:41:08 GMT-0500 (Eastern Standard Time)","802168","Untrustworthy,Trustworthy","","6982","","","","decision","","<div class='trialDiv'><img src='trustrating_stim/white_mw099.bmp'><br><font class='baseline'><strong>Ethan</strong><p>Choose number of points to send.</font><div class='respPicDiv'><img src='img/responseButtonOffersNo0L.png' class='respPic'></div></div>","3","3","Ethan","trustrating_stim/white_mw099.bmp","Kept","0.6,0.2","15","0.6","68","12"
"html-keyboard-response","130","508243","0.0-18.0-2.11","https://ccnypsych.az1.qualtrics.com/jfe/form/SV_3mEUjljOKOh42Vg?PID","bdp_trlrn","Tue Mar 01 2022 11:41:08 GMT-0500 (Eastern Standard Time)","802168","Untrustworthy,Trustworthy","","null","","","","decisionFB","","<div class='trialDiv'><img src='trustrating_stim/white_mw099.bmp'><br><font class='baseline'><strong>Ethan</strong><p>Choose number of points to send.</font><div class='respPicDiv'><img src='img/responseButtonOffersNo0L3.png' class='respPic'></div></div>","null","3","Ethan","trustrating_stim/white_mw099.bmp","Kept","0.6,0.2","15","0.6","65","12"
"html-keyboard-response","131","509245","0.0-18.0-3.11","https://ccnypsych.az1.qualtrics.com/jfe/form/SV_3mEUjljOKOh42Vg?PID","bdp_trlrn","Tue Mar 01 2022 11:41:08 GMT-0500 (Eastern Standard Time)","802168","Untrustworthy,Trustworthy","","null","","","","feedback","","<div class='trialDiv'><img src='trustrating_stim/white_mw099.bmp'><br><font class='baseline'><strong>Ethan</strong><p>Received: <strong>12</strong></font> &nbsp; &nbsp; &nbsp; &nbsp; &nbsp; &nbsp;<font class='negOutcome'>Shared back: <strong>0</strong></font></font><div class='respPicDiv'><img src='img/responseButtonOffersNo0_wht.png' class='respPic'></div></div>","null","3","Ethan","trustrating_stim/white_mw099.bmp","Kept","0.6,0.2","15","0.6","65","12"
"html-keyboard-response","132","514090","0.0-18.0-1.12","https://ccnypsych.az1.qualtrics.com/jfe/form/SV_3mEUjljOKOh42Vg?PID","bdp_trlrn","Tue Mar 01 2022 11:41:08 GMT-0500 (Eastern Standard Time)","802168","Untrustworthy,Trustworthy","","4844","","","","decision","","<div class='trialDiv'><img src='trustrating_stim/white_00785_941205_fb_edt.bmp'><br><font class='baseline'><strong>Gavin</strong><p>Choose number of points to send.</font><div class='respPicDiv'><img src='img/responseButtonOffersNo0L.png' class='respPic'></div></div>","1","4","Gavin","trustrating_stim/white_00785_941205_fb_edt.bmp","Kept","0.2,0.6","14","0.2","70","13"
"html-keyboard-response","133","514347","0.0-18.0-2.12","https://ccnypsych.az1.qualtrics.com/jfe/form/SV_3mEUjljOKOh42Vg?PID","bdp_trlrn","Tue Mar 01 2022 11:41:08 GMT-0500 (Eastern Standard Time)","802168","Untrustworthy,Trustworthy","","null","","","","decisionFB","","<div class='trialDiv'><img src='trustrating_stim/white_00785_941205_fb_edt.bmp'><br><font class='baseline'><strong>Gavin</strong><p>Choose number of points to send.</font><div class='respPicDiv'><img src='img/responseButtonOffersNo0L1.png' class='respPic'></div></div>","null","4","Gavin","trustrating_stim/white_00785_941205_fb_edt.bmp","Kept","0.2,0.6","14","0.2","69","13"
"html-keyboard-response","134","515352","0.0-18.0-3.12","https://ccnypsych.az1.qualtrics.com/jfe/form/SV_3mEUjljOKOh42Vg?PID","bdp_trlrn","Tue Mar 01 2022 11:41:08 GMT-0500 (Eastern Standard Time)","802168","Untrustworthy,Trustworthy","","null","","","","feedback","","<div class='trialDiv'><img src='trustrating_stim/white_00785_941205_fb_edt.bmp'><br><font class='baseline'><strong>Gavin</strong><p>Received: <strong>4</strong></font> &nbsp; &nbsp; &nbsp; &nbsp; &nbsp; &nbsp;<font class='negOutcome'>Shared back: <strong>0</strong></font></font><div class='respPicDiv'><img src='img/responseButtonOffersNo0_wht.png' class='respPic'></div></div>","null","4","Gavin","trustrating_stim/white_00785_941205_fb_edt.bmp","Kept","0.2,0.6","14","0.2","69","13"
"html-keyboard-response","135","520721","0.0-18.0-1.13","https://ccnypsych.az1.qualtrics.com/jfe/form/SV_3mEUjljOKOh42Vg?PID","bdp_trlrn","Tue Mar 01 2022 11:41:08 GMT-0500 (Eastern Standard Time)","802168","Untrustworthy,Trustworthy","","5367","","","","decision","","<div class='trialDiv'><img src='trustrating_stim/white_mw071.bmp'><br><font class='baseline'><strong>Tyler</strong><p>Choose number of points to send.</font><div class='respPicDiv'><img src='img/responseButtonOffersNo0L.png' class='respPic'></div></div>","5","4","Tyler","trustrating_stim/white_mw071.bmp","Shared","0.4,0.8","10","0.4","74","14"
"html-keyboard-response","136","520975","0.0-18.0-2.13","https://ccnypsych.az1.qualtrics.com/jfe/form/SV_3mEUjljOKOh42Vg?PID","bdp_trlrn","Tue Mar 01 2022 11:41:08 GMT-0500 (Eastern Standard Time)","802168","Untrustworthy,Trustworthy","","null","","","","decisionFB","","<div class='trialDiv'><img src='trustrating_stim/white_mw071.bmp'><br><font class='baseline'><strong>Tyler</strong><p>Choose number of points to send.</font><div class='respPicDiv'><img src='img/responseButtonOffersNo0L5.png' class='respPic'></div></div>","null","4","Tyler","trustrating_stim/white_mw071.bmp","Shared","0.4,0.8","10","0.4","69","14"
"html-keyboard-response","137","521982","0.0-18.0-3.13","https://ccnypsych.az1.qualtrics.com/jfe/form/SV_3mEUjljOKOh42Vg?PID","bdp_trlrn","Tue Mar 01 2022 11:41:08 GMT-0500 (Eastern Standard Time)","802168","Untrustworthy,Trustworthy","","null","","","","feedback","","<div class='trialDiv'><img src='trustrating_stim/white_mw071.bmp'><br><font class='baseline'><strong>Tyler</strong><p>Received: <strong>20</strong></font> &nbsp; &nbsp; &nbsp; &nbsp; &nbsp; &nbsp;<font class='posOutcome'>Shared back: <strong>10</strong></font></font><div class='respPicDiv'><img src='img/responseButtonOffersNo0_wht.png' class='respPic'></div></div>","null","4","Tyler","trustrating_stim/white_mw071.bmp","Shared","0.4,0.8","10","0.4","79","14"
"html-keyboard-response","138","526552","0.0-18.0-1.14","https://ccnypsych.az1.qualtrics.com/jfe/form/SV_3mEUjljOKOh42Vg?PID","bdp_trlrn","Tue Mar 01 2022 11:41:08 GMT-0500 (Eastern Standard Time)","802168","Untrustworthy,Trustworthy","","4568","","","","decision","","<div class='trialDiv'><img src='trustrating_stim/white_mw099.bmp'><br><font class='baseline'><strong>Ethan</strong><p>Choose number of points to send.</font><div class='respPicDiv'><img src='img/responseButtonOffersNo0L.png' class='respPic'></div></div>","2","4","Ethan","trustrating_stim/white_mw099.bmp","Shared","0.6,0.2","15","0.6","84","15"
"html-keyboard-response","139","526808","0.0-18.0-2.14","https://ccnypsych.az1.qualtrics.com/jfe/form/SV_3mEUjljOKOh42Vg?PID","bdp_trlrn","Tue Mar 01 2022 11:41:08 GMT-0500 (Eastern Standard Time)","802168","Untrustworthy,Trustworthy","","null","","","","decisionFB","","<div class='trialDiv'><img src='trustrating_stim/white_mw099.bmp'><br><font class='baseline'><strong>Ethan</strong><p>Choose number of points to send.</font><div class='respPicDiv'><img src='img/responseButtonOffersNo0L2.png' class='respPic'></div></div>","null","4","Ethan","trustrating_stim/white_mw099.bmp","Shared","0.6,0.2","15","0.6","82","15"
"html-keyboard-response","140","527811","0.0-18.0-3.14","https://ccnypsych.az1.qualtrics.com/jfe/form/SV_3mEUjljOKOh42Vg?PID","bdp_trlrn","Tue Mar 01 2022 11:41:08 GMT-0500 (Eastern Standard Time)","802168","Untrustworthy,Trustworthy","","null","","","","feedback","","<div class='trialDiv'><img src='trustrating_stim/white_mw099.bmp'><br><font class='baseline'><strong>Ethan</strong><p>Received: <strong>8</strong></font> &nbsp; &nbsp; &nbsp; &nbsp; &nbsp; &nbsp;<font class='posOutcome'>Shared back: <strong>4</strong></font></font><div class='respPicDiv'><img src='img/responseButtonOffersNo0_wht.png' class='respPic'></div></div>","null","4","Ethan","trustrating_stim/white_mw099.bmp","Shared","0.6,0.2","15","0.6","86","15"
"html-keyboard-response","141","529562","0.0-18.0-1.15","https://ccnypsych.az1.qualtrics.com/jfe/form/SV_3mEUjljOKOh42Vg?PID","bdp_trlrn","Tue Mar 01 2022 11:41:08 GMT-0500 (Eastern Standard Time)","802168","Untrustworthy,Trustworthy","","1749","","","","decision","","<div class='trialDiv'><img src='trustrating_stim/white_mw089.bmp'><br><font class='baseline'><strong>Sean</strong><p>Choose number of points to send.</font><div class='respPicDiv'><img src='img/responseButtonOffersNo0L.png' class='respPic'></div></div>","4","4","Sean","trustrating_stim/white_mw089.bmp","Shared","0.8,0.4","14","0.8","91","16"
"html-keyboard-response","142","529814","0.0-18.0-2.15","https://ccnypsych.az1.qualtrics.com/jfe/form/SV_3mEUjljOKOh42Vg?PID","bdp_trlrn","Tue Mar 01 2022 11:41:08 GMT-0500 (Eastern Standard Time)","802168","Untrustworthy,Trustworthy","","null","","","","decisionFB","","<div class='trialDiv'><img src='trustrating_stim/white_mw089.bmp'><br><font class='baseline'><strong>Sean</strong><p>Choose number of points to send.</font><div class='respPicDiv'><img src='img/responseButtonOffersNo0L4.png' class='respPic'></div></div>","null","4","Sean","trustrating_stim/white_mw089.bmp","Shared","0.8,0.4","14","0.8","87","16"
"html-keyboard-response","143","530818","0.0-18.0-3.15","https://ccnypsych.az1.qualtrics.com/jfe/form/SV_3mEUjljOKOh42Vg?PID","bdp_trlrn","Tue Mar 01 2022 11:41:08 GMT-0500 (Eastern Standard Time)","802168","Untrustworthy,Trustworthy","","null","","","","feedback","","<div class='trialDiv'><img src='trustrating_stim/white_mw089.bmp'><br><font class='baseline'><strong>Sean</strong><p>Received: <strong>16</strong></font> &nbsp; &nbsp; &nbsp; &nbsp; &nbsp; &nbsp;<font class='posOutcome'>Shared back: <strong>8</strong></font></font><div class='respPicDiv'><img src='img/responseButtonOffersNo0_wht.png' class='respPic'></div></div>","null","4","Sean","trustrating_stim/white_mw089.bmp","Shared","0.8,0.4","14","0.8","95","16"
"html-keyboard-response","144","531768","0.0-18.0-1.16","https://ccnypsych.az1.qualtrics.com/jfe/form/SV_3mEUjljOKOh42Vg?PID","bdp_trlrn","Tue Mar 01 2022 11:41:08 GMT-0500 (Eastern Standard Time)","802168","Untrustworthy,Trustworthy","","949","","","","decision","","<div class='trialDiv'><img src='trustrating_stim/white_mw099.bmp'><br><font class='baseline'><strong>Ethan</strong><p>Choose number of points to send.</font><div class='respPicDiv'><img src='img/responseButtonOffersNo0L.png' class='respPic'></div></div>","2","5","Ethan","trustrating_stim/white_mw099.bmp","Shared","0.6,0.2","15","0.6","100","17"
"html-keyboard-response","145","532024","0.0-18.0-2.16","https://ccnypsych.az1.qualtrics.com/jfe/form/SV_3mEUjljOKOh42Vg?PID","bdp_trlrn","Tue Mar 01 2022 11:41:08 GMT-0500 (Eastern Standard Time)","802168","Untrustworthy,Trustworthy","","null","","","","decisionFB","","<div class='trialDiv'><img src='trustrating_stim/white_mw099.bmp'><br><font class='baseline'><strong>Ethan</strong><p>Choose number of points to send.</font><div class='respPicDiv'><img src='img/responseButtonOffersNo0L2.png' class='respPic'></div></div>","null","5","Ethan","trustrating_stim/white_mw099.bmp","Shared","0.6,0.2","15","0.6","98","17"
"html-keyboard-response","146","533027","0.0-18.0-3.16","https://ccnypsych.az1.qualtrics.com/jfe/form/SV_3mEUjljOKOh42Vg?PID","bdp_trlrn","Tue Mar 01 2022 11:41:08 GMT-0500 (Eastern Standard Time)","802168","Untrustworthy,Trustworthy","","null","","","","feedback","","<div class='trialDiv'><img src='trustrating_stim/white_mw099.bmp'><br><font class='baseline'><strong>Ethan</strong><p>Received: <strong>8</strong></font> &nbsp; &nbsp; &nbsp; &nbsp; &nbsp; &nbsp;<font class='posOutcome'>Shared back: <strong>4</strong></font></font><div class='respPicDiv'><img src='img/responseButtonOffersNo0_wht.png' class='respPic'></div></div>","null","5","Ethan","trustrating_stim/white_mw099.bmp","Shared","0.6,0.2","15","0.6","102","17"
"html-keyboard-response","147","533932","0.0-18.0-1.17","https://ccnypsych.az1.qualtrics.com/jfe/form/SV_3mEUjljOKOh42Vg?PID","bdp_trlrn","Tue Mar 01 2022 11:41:08 GMT-0500 (Eastern Standard Time)","802168","Untrustworthy,Trustworthy","","902","","","","decision","","<div class='trialDiv'><img src='trustrating_stim/white_mw071.bmp'><br><font class='baseline'><strong>Tyler</strong><p>Choose number of points to send.</font><div class='respPicDiv'><img src='img/responseButtonOffersNo0L.png' class='respPic'></div></div>","5","5","Tyler","trustrating_stim/white_mw071.bmp","Kept","0.4,0.8","10","0.4","107","18"
"html-keyboard-response","148","534184","0.0-18.0-2.17","https://ccnypsych.az1.qualtrics.com/jfe/form/SV_3mEUjljOKOh42Vg?PID","bdp_trlrn","Tue Mar 01 2022 11:41:08 GMT-0500 (Eastern Standard Time)","802168","Untrustworthy,Trustworthy","","null","","","","decisionFB","","<div class='trialDiv'><img src='trustrating_stim/white_mw071.bmp'><br><font class='baseline'><strong>Tyler</strong><p>Choose number of points to send.</font><div class='respPicDiv'><img src='img/responseButtonOffersNo0L5.png' class='respPic'></div></div>","null","5","Tyler","trustrating_stim/white_mw071.bmp","Kept","0.4,0.8","10","0.4","102","18"
"html-keyboard-response","149","535188","0.0-18.0-3.17","https://ccnypsych.az1.qualtrics.com/jfe/form/SV_3mEUjljOKOh42Vg?PID","bdp_trlrn","Tue Mar 01 2022 11:41:08 GMT-0500 (Eastern Standard Time)","802168","Untrustworthy,Trustworthy","","null","","","","feedback","","<div class='trialDiv'><img src='trustrating_stim/white_mw071.bmp'><br><font class='baseline'><strong>Tyler</strong><p>Received: <strong>20</strong></font> &nbsp; &nbsp; &nbsp; &nbsp; &nbsp; &nbsp;<font class='negOutcome'>Shared back: <strong>0</strong></font></font><div class='respPicDiv'><img src='img/responseButtonOffersNo0_wht.png' class='respPic'></div></div>","null","5","Tyler","trustrating_stim/white_mw071.bmp","Kept","0.4,0.8","10","0.4","102","18"
"html-keyboard-response","150","537746","0.0-18.0-1.18","https://ccnypsych.az1.qualtrics.com/jfe/form/SV_3mEUjljOKOh42Vg?PID","bdp_trlrn","Tue Mar 01 2022 11:41:08 GMT-0500 (Eastern Standard Time)","802168","Untrustworthy,Trustworthy","","2556","","","","decision","","<div class='trialDiv'><img src='trustrating_stim/white_mw089.bmp'><br><font class='baseline'><strong>Sean</strong><p>Choose number of points to send.</font><div class='respPicDiv'><img src='img/responseButtonOffersNo0L.png' class='respPic'></div></div>","4","5","Sean","trustrating_stim/white_mw089.bmp","Shared","0.8,0.4","14","0.8","107","19"
"html-keyboard-response","151","538000","0.0-18.0-2.18","https://ccnypsych.az1.qualtrics.com/jfe/form/SV_3mEUjljOKOh42Vg?PID","bdp_trlrn","Tue Mar 01 2022 11:41:08 GMT-0500 (Eastern Standard Time)","802168","Untrustworthy,Trustworthy","","null","","","","decisionFB","","<div class='trialDiv'><img src='trustrating_stim/white_mw089.bmp'><br><font class='baseline'><strong>Sean</strong><p>Choose number of points to send.</font><div class='respPicDiv'><img src='img/responseButtonOffersNo0L4.png' class='respPic'></div></div>","null","5","Sean","trustrating_stim/white_mw089.bmp","Shared","0.8,0.4","14","0.8","103","19"
"html-keyboard-response","152","539006","0.0-18.0-3.18","https://ccnypsych.az1.qualtrics.com/jfe/form/SV_3mEUjljOKOh42Vg?PID","bdp_trlrn","Tue Mar 01 2022 11:41:08 GMT-0500 (Eastern Standard Time)","802168","Untrustworthy,Trustworthy","","null","","","","feedback","","<div class='trialDiv'><img src='trustrating_stim/white_mw089.bmp'><br><font class='baseline'><strong>Sean</strong><p>Received: <strong>16</strong></font> &nbsp; &nbsp; &nbsp; &nbsp; &nbsp; &nbsp;<font class='posOutcome'>Shared back: <strong>8</strong></font></font><div class='respPicDiv'><img src='img/responseButtonOffersNo0_wht.png' class='respPic'></div></div>","null","5","Sean","trustrating_stim/white_mw089.bmp","Shared","0.8,0.4","14","0.8","111","19"
"html-keyboard-response","153","541056","0.0-18.0-1.19","https://ccnypsych.az1.qualtrics.com/jfe/form/SV_3mEUjljOKOh42Vg?PID","bdp_trlrn","Tue Mar 01 2022 11:41:08 GMT-0500 (Eastern Standard Time)","802168","Untrustworthy,Trustworthy","","2049","","","","decision","","<div class='trialDiv'><img src='trustrating_stim/white_00785_941205_fb_edt.bmp'><br><font class='baseline'><strong>Gavin</strong><p>Choose number of points to send.</font><div class='respPicDiv'><img src='img/responseButtonOffersNo0L.png' class='respPic'></div></div>","1","5","Gavin","trustrating_stim/white_00785_941205_fb_edt.bmp","Kept","0.2,0.6","14","0.2","116","20"
"html-keyboard-response","154","541310","0.0-18.0-2.19","https://ccnypsych.az1.qualtrics.com/jfe/form/SV_3mEUjljOKOh42Vg?PID","bdp_trlrn","Tue Mar 01 2022 11:41:08 GMT-0500 (Eastern Standard Time)","802168","Untrustworthy,Trustworthy","","null","","","","decisionFB","","<div class='trialDiv'><img src='trustrating_stim/white_00785_941205_fb_edt.bmp'><br><font class='baseline'><strong>Gavin</strong><p>Choose number of points to send.</font><div class='respPicDiv'><img src='img/responseButtonOffersNo0L1.png' class='respPic'></div></div>","null","5","Gavin","trustrating_stim/white_00785_941205_fb_edt.bmp","Kept","0.2,0.6","14","0.2","115","20"
"html-keyboard-response","155","542312","0.0-18.0-3.19","https://ccnypsych.az1.qualtrics.com/jfe/form/SV_3mEUjljOKOh42Vg?PID","bdp_trlrn","Tue Mar 01 2022 11:41:08 GMT-0500 (Eastern Standard Time)","802168","Untrustworthy,Trustworthy","","null","","","","feedback","","<div class='trialDiv'><img src='trustrating_stim/white_00785_941205_fb_edt.bmp'><br><font class='baseline'><strong>Gavin</strong><p>Received: <strong>4</strong></font> &nbsp; &nbsp; &nbsp; &nbsp; &nbsp; &nbsp;<font class='negOutcome'>Shared back: <strong>0</strong></font></font><div class='respPicDiv'><img src='img/responseButtonOffersNo0_wht.png' class='respPic'></div></div>","null","5","Gavin","trustrating_stim/white_00785_941205_fb_edt.bmp","Kept","0.2,0.6","14","0.2","115","20"
"html-keyboard-response","156","546517","0.0-18.0-1.20","https://ccnypsych.az1.qualtrics.com/jfe/form/SV_3mEUjljOKOh42Vg?PID","bdp_trlrn","Tue Mar 01 2022 11:41:08 GMT-0500 (Eastern Standard Time)","802168","Untrustworthy,Trustworthy","","4203","","","","decision","","<div class='trialDiv'><img src='trustrating_stim/white_mw089.bmp'><br><font class='baseline'><strong>Sean</strong><p>Choose number of points to send.</font><div class='respPicDiv'><img src='img/responseButtonOffersNo0L.png' class='respPic'></div></div>","5","6","Sean","trustrating_stim/white_mw089.bmp","Shared","0.8,0.4","14","0.8","120","21"
"html-keyboard-response","157","546771","0.0-18.0-2.20","https://ccnypsych.az1.qualtrics.com/jfe/form/SV_3mEUjljOKOh42Vg?PID","bdp_trlrn","Tue Mar 01 2022 11:41:08 GMT-0500 (Eastern Standard Time)","802168","Untrustworthy,Trustworthy","","null","","","","decisionFB","","<div class='trialDiv'><img src='trustrating_stim/white_mw089.bmp'><br><font class='baseline'><strong>Sean</strong><p>Choose number of points to send.</font><div class='respPicDiv'><img src='img/responseButtonOffersNo0L5.png' class='respPic'></div></div>","null","6","Sean","trustrating_stim/white_mw089.bmp","Shared","0.8,0.4","14","0.8","115","21"
"html-keyboard-response","158","547776","0.0-18.0-3.20","https://ccnypsych.az1.qualtrics.com/jfe/form/SV_3mEUjljOKOh42Vg?PID","bdp_trlrn","Tue Mar 01 2022 11:41:08 GMT-0500 (Eastern Standard Time)","802168","Untrustworthy,Trustworthy","","null","","","","feedback","","<div class='trialDiv'><img src='trustrating_stim/white_mw089.bmp'><br><font class='baseline'><strong>Sean</strong><p>Received: <strong>20</strong></font> &nbsp; &nbsp; &nbsp; &nbsp; &nbsp; &nbsp;<font class='posOutcome'>Shared back: <strong>10</strong></font></font><div class='respPicDiv'><img src='img/responseButtonOffersNo0_wht.png' class='respPic'></div></div>","null","6","Sean","trustrating_stim/white_mw089.bmp","Shared","0.8,0.4","14","0.8","125","21"
"html-keyboard-response","159","548774","0.0-18.0-1.21","https://ccnypsych.az1.qualtrics.com/jfe/form/SV_3mEUjljOKOh42Vg?PID","bdp_trlrn","Tue Mar 01 2022 11:41:08 GMT-0500 (Eastern Standard Time)","802168","Untrustworthy,Trustworthy","","996","","","","decision","","<div class='trialDiv'><img src='trustrating_stim/white_mw071.bmp'><br><font class='baseline'><strong>Tyler</strong><p>Choose number of points to send.</font><div class='respPicDiv'><img src='img/responseButtonOffersNo0L.png' class='respPic'></div></div>","5","6","Tyler","trustrating_stim/white_mw071.bmp","Kept","0.4,0.8","10","0.4","130","22"
"html-keyboard-response","160","549031","0.0-18.0-2.21","https://ccnypsych.az1.qualtrics.com/jfe/form/SV_3mEUjljOKOh42Vg?PID","bdp_trlrn","Tue Mar 01 2022 11:41:08 GMT-0500 (Eastern Standard Time)","802168","Untrustworthy,Trustworthy","","null","","","","decisionFB","","<div class='trialDiv'><img src='trustrating_stim/white_mw071.bmp'><br><font class='baseline'><strong>Tyler</strong><p>Choose number of points to send.</font><div class='respPicDiv'><img src='img/responseButtonOffersNo0L5.png' class='respPic'></div></div>","null","6","Tyler","trustrating_stim/white_mw071.bmp","Kept","0.4,0.8","10","0.4","125","22"
"html-keyboard-response","161","550037","0.0-18.0-3.21","https://ccnypsych.az1.qualtrics.com/jfe/form/SV_3mEUjljOKOh42Vg?PID","bdp_trlrn","Tue Mar 01 2022 11:41:08 GMT-0500 (Eastern Standard Time)","802168","Untrustworthy,Trustworthy","","null","","","","feedback","","<div class='trialDiv'><img src='trustrating_stim/white_mw071.bmp'><br><font class='baseline'><strong>Tyler</strong><p>Received: <strong>20</strong></font> &nbsp; &nbsp; &nbsp; &nbsp; &nbsp; &nbsp;<font class='negOutcome'>Shared back: <strong>0</strong></font></font><div class='respPicDiv'><img src='img/responseButtonOffersNo0_wht.png' class='respPic'></div></div>","null","6","Tyler","trustrating_stim/white_mw071.bmp","Kept","0.4,0.8","10","0.4","125","22"
"html-keyboard-response","162","551340","0.0-18.0-1.22","https://ccnypsych.az1.qualtrics.com/jfe/form/SV_3mEUjljOKOh42Vg?PID","bdp_trlrn","Tue Mar 01 2022 11:41:08 GMT-0500 (Eastern Standard Time)","802168","Untrustworthy,Trustworthy","","1300","","","","decision","","<div class='trialDiv'><img src='trustrating_stim/white_mw099.bmp'><br><font class='baseline'><strong>Ethan</strong><p>Choose number of points to send.</font><div class='respPicDiv'><img src='img/responseButtonOffersNo0L.png' class='respPic'></div></div>","2","6","Ethan","trustrating_stim/white_mw099.bmp","Shared","0.6,0.2","15","0.6","130","23"
"html-keyboard-response","163","551592","0.0-18.0-2.22","https://ccnypsych.az1.qualtrics.com/jfe/form/SV_3mEUjljOKOh42Vg?PID","bdp_trlrn","Tue Mar 01 2022 11:41:08 GMT-0500 (Eastern Standard Time)","802168","Untrustworthy,Trustworthy","","null","","","","decisionFB","","<div class='trialDiv'><img src='trustrating_stim/white_mw099.bmp'><br><font class='baseline'><strong>Ethan</strong><p>Choose number of points to send.</font><div class='respPicDiv'><img src='img/responseButtonOffersNo0L2.png' class='respPic'></div></div>","null","6","Ethan","trustrating_stim/white_mw099.bmp","Shared","0.6,0.2","15","0.6","128","23"
"html-keyboard-response","164","552597","0.0-18.0-3.22","https://ccnypsych.az1.qualtrics.com/jfe/form/SV_3mEUjljOKOh42Vg?PID","bdp_trlrn","Tue Mar 01 2022 11:41:08 GMT-0500 (Eastern Standard Time)","802168","Untrustworthy,Trustworthy","","null","","","","feedback","","<div class='trialDiv'><img src='trustrating_stim/white_mw099.bmp'><br><font class='baseline'><strong>Ethan</strong><p>Received: <strong>8</strong></font> &nbsp; &nbsp; &nbsp; &nbsp; &nbsp; &nbsp;<font class='posOutcome'>Shared back: <strong>4</strong></font></font><div class='respPicDiv'><img src='img/responseButtonOffersNo0_wht.png' class='respPic'></div></div>","null","6","Ethan","trustrating_stim/white_mw099.bmp","Shared","0.6,0.2","15","0.6","132","23"
"html-keyboard-response","165","556523","0.0-18.0-1.23","https://ccnypsych.az1.qualtrics.com/jfe/form/SV_3mEUjljOKOh42Vg?PID","bdp_trlrn","Tue Mar 01 2022 11:41:08 GMT-0500 (Eastern Standard Time)","802168","Untrustworthy,Trustworthy","","3924","","","","decision","","<div class='trialDiv'><img src='trustrating_stim/white_00785_941205_fb_edt.bmp'><br><font class='baseline'><strong>Gavin</strong><p>Choose number of points to send.</font><div class='respPicDiv'><img src='img/responseButtonOffersNo0L.png' class='respPic'></div></div>","1","6","Gavin","trustrating_stim/white_00785_941205_fb_edt.bmp","Kept","0.2,0.6","14","0.2","137","24"
"html-keyboard-response","166","556776","0.0-18.0-2.23","https://ccnypsych.az1.qualtrics.com/jfe/form/SV_3mEUjljOKOh42Vg?PID","bdp_trlrn","Tue Mar 01 2022 11:41:08 GMT-0500 (Eastern Standard Time)","802168","Untrustworthy,Trustworthy","","null","","","","decisionFB","","<div class='trialDiv'><img src='trustrating_stim/white_00785_941205_fb_edt.bmp'><br><font class='baseline'><strong>Gavin</strong><p>Choose number of points to send.</font><div class='respPicDiv'><img src='img/responseButtonOffersNo0L1.png' class='respPic'></div></div>","null","6","Gavin","trustrating_stim/white_00785_941205_fb_edt.bmp","Kept","0.2,0.6","14","0.2","136","24"
"html-keyboard-response","167","557779","0.0-18.0-3.23","https://ccnypsych.az1.qualtrics.com/jfe/form/SV_3mEUjljOKOh42Vg?PID","bdp_trlrn","Tue Mar 01 2022 11:41:08 GMT-0500 (Eastern Standard Time)","802168","Untrustworthy,Trustworthy","","null","","","","feedback","","<div class='trialDiv'><img src='trustrating_stim/white_00785_941205_fb_edt.bmp'><br><font class='baseline'><strong>Gavin</strong><p>Received: <strong>4</strong></font> &nbsp; &nbsp; &nbsp; &nbsp; &nbsp; &nbsp;<font class='negOutcome'>Shared back: <strong>0</strong></font></font><div class='respPicDiv'><img src='img/responseButtonOffersNo0_wht.png' class='respPic'></div></div>","null","6","Gavin","trustrating_stim/white_00785_941205_fb_edt.bmp","Kept","0.2,0.6","14","0.2","136","24"
"html-keyboard-response","168","559885","0.0-18.0-1.24","https://ccnypsych.az1.qualtrics.com/jfe/form/SV_3mEUjljOKOh42Vg?PID","bdp_trlrn","Tue Mar 01 2022 11:41:08 GMT-0500 (Eastern Standard Time)","802168","Untrustworthy,Trustworthy","","2105","","","","decision","","<div class='trialDiv'><img src='trustrating_stim/white_mw089.bmp'><br><font class='baseline'><strong>Sean</strong><p>Choose number of points to send.</font><div class='respPicDiv'><img src='img/responseButtonOffersNo0L.png' class='respPic'></div></div>","4","7","Sean","trustrating_stim/white_mw089.bmp","Shared","0.8,0.4","14","0.8","141","25"
"html-keyboard-response","169","560141","0.0-18.0-2.24","https://ccnypsych.az1.qualtrics.com/jfe/form/SV_3mEUjljOKOh42Vg?PID","bdp_trlrn","Tue Mar 01 2022 11:41:08 GMT-0500 (Eastern Standard Time)","802168","Untrustworthy,Trustworthy","","null","","","","decisionFB","","<div class='trialDiv'><img src='trustrating_stim/white_mw089.bmp'><br><font class='baseline'><strong>Sean</strong><p>Choose number of points to send.</font><div class='respPicDiv'><img src='img/responseButtonOffersNo0L4.png' class='respPic'></div></div>","null","7","Sean","trustrating_stim/white_mw089.bmp","Shared","0.8,0.4","14","0.8","137","25"
"html-keyboard-response","170","561147","0.0-18.0-3.24","https://ccnypsych.az1.qualtrics.com/jfe/form/SV_3mEUjljOKOh42Vg?PID","bdp_trlrn","Tue Mar 01 2022 11:41:08 GMT-0500 (Eastern Standard Time)","802168","Untrustworthy,Trustworthy","","null","","","","feedback","","<div class='trialDiv'><img src='trustrating_stim/white_mw089.bmp'><br><font class='baseline'><strong>Sean</strong><p>Received: <strong>16</strong></font> &nbsp; &nbsp; &nbsp; &nbsp; &nbsp; &nbsp;<font class='posOutcome'>Shared back: <strong>8</strong></font></font><div class='respPicDiv'><img src='img/responseButtonOffersNo0_wht.png' class='respPic'></div></div>","null","7","Sean","trustrating_stim/white_mw089.bmp","Shared","0.8,0.4","14","0.8","145","25"
"html-keyboard-response","171","561896","0.0-18.0-1.25","https://ccnypsych.az1.qualtrics.com/jfe/form/SV_3mEUjljOKOh42Vg?PID","bdp_trlrn","Tue Mar 01 2022 11:41:08 GMT-0500 (Eastern Standard Time)","802168","Untrustworthy,Trustworthy","","747","","","","decision","","<div class='trialDiv'><img src='trustrating_stim/white_mw099.bmp'><br><font class='baseline'><strong>Ethan</strong><p>Choose number of points to send.</font><div class='respPicDiv'><img src='img/responseButtonOffersNo0L.png' class='respPic'></div></div>","2","7","Ethan","trustrating_stim/white_mw099.bmp","Shared","0.6,0.2","15","0.6","150","26"
"html-keyboard-response","172","562152","0.0-18.0-2.25","https://ccnypsych.az1.qualtrics.com/jfe/form/SV_3mEUjljOKOh42Vg?PID","bdp_trlrn","Tue Mar 01 2022 11:41:08 GMT-0500 (Eastern Standard Time)","802168","Untrustworthy,Trustworthy","","null","","","","decisionFB","","<div class='trialDiv'><img src='trustrating_stim/white_mw099.bmp'><br><font class='baseline'><strong>Ethan</strong><p>Choose number of points to send.</font><div class='respPicDiv'><img src='img/responseButtonOffersNo0L2.png' class='respPic'></div></div>","null","7","Ethan","trustrating_stim/white_mw099.bmp","Shared","0.6,0.2","15","0.6","148","26"
"html-keyboard-response","173","563154","0.0-18.0-3.25","https://ccnypsych.az1.qualtrics.com/jfe/form/SV_3mEUjljOKOh42Vg?PID","bdp_trlrn","Tue Mar 01 2022 11:41:08 GMT-0500 (Eastern Standard Time)","802168","Untrustworthy,Trustworthy","","null","","","","feedback","","<div class='trialDiv'><img src='trustrating_stim/white_mw099.bmp'><br><font class='baseline'><strong>Ethan</strong><p>Received: <strong>8</strong></font> &nbsp; &nbsp; &nbsp; &nbsp; &nbsp; &nbsp;<font class='posOutcome'>Shared back: <strong>4</strong></font></font><div class='respPicDiv'><img src='img/responseButtonOffersNo0_wht.png' class='respPic'></div></div>","null","7","Ethan","trustrating_stim/white_mw099.bmp","Shared","0.6,0.2","15","0.6","152","26"
"html-keyboard-response","174","564041","0.0-18.0-1.26","https://ccnypsych.az1.qualtrics.com/jfe/form/SV_3mEUjljOKOh42Vg?PID","bdp_trlrn","Tue Mar 01 2022 11:41:08 GMT-0500 (Eastern Standard Time)","802168","Untrustworthy,Trustworthy","","885","","","","decision","","<div class='trialDiv'><img src='trustrating_stim/white_mw071.bmp'><br><font class='baseline'><strong>Tyler</strong><p>Choose number of points to send.</font><div class='respPicDiv'><img src='img/responseButtonOffersNo0L.png' class='respPic'></div></div>","5","7","Tyler","trustrating_stim/white_mw071.bmp","Kept","0.4,0.8","10","0.4","157","27"
"html-keyboard-response","175","564297","0.0-18.0-2.26","https://ccnypsych.az1.qualtrics.com/jfe/form/SV_3mEUjljOKOh42Vg?PID","bdp_trlrn","Tue Mar 01 2022 11:41:08 GMT-0500 (Eastern Standard Time)","802168","Untrustworthy,Trustworthy","","null","","","","decisionFB","","<div class='trialDiv'><img src='trustrating_stim/white_mw071.bmp'><br><font class='baseline'><strong>Tyler</strong><p>Choose number of points to send.</font><div class='respPicDiv'><img src='img/responseButtonOffersNo0L5.png' class='respPic'></div></div>","null","7","Tyler","trustrating_stim/white_mw071.bmp","Kept","0.4,0.8","10","0.4","152","27"
"html-keyboard-response","176","565304","0.0-18.0-3.26","https://ccnypsych.az1.qualtrics.com/jfe/form/SV_3mEUjljOKOh42Vg?PID","bdp_trlrn","Tue Mar 01 2022 11:41:08 GMT-0500 (Eastern Standard Time)","802168","Untrustworthy,Trustworthy","","null","","","","feedback","","<div class='trialDiv'><img src='trustrating_stim/white_mw071.bmp'><br><font class='baseline'><strong>Tyler</strong><p>Received: <strong>20</strong></font> &nbsp; &nbsp; &nbsp; &nbsp; &nbsp; &nbsp;<font class='negOutcome'>Shared back: <strong>0</strong></font></font><div class='respPicDiv'><img src='img/responseButtonOffersNo0_wht.png' class='respPic'></div></div>","null","7","Tyler","trustrating_stim/white_mw071.bmp","Kept","0.4,0.8","10","0.4","152","27"
"html-keyboard-response","177","567258","0.0-18.0-1.27","https://ccnypsych.az1.qualtrics.com/jfe/form/SV_3mEUjljOKOh42Vg?PID","bdp_trlrn","Tue Mar 01 2022 11:41:08 GMT-0500 (Eastern Standard Time)","802168","Untrustworthy,Trustworthy","","1952","","","","decision","","<div class='trialDiv'><img src='trustrating_stim/white_00785_941205_fb_edt.bmp'><br><font class='baseline'><strong>Gavin</strong><p>Choose number of points to send.</font><div class='respPicDiv'><img src='img/responseButtonOffersNo0L.png' class='respPic'></div></div>","4","7","Gavin","trustrating_stim/white_00785_941205_fb_edt.bmp","Kept","0.2,0.6","14","0.2","157","28"
"html-keyboard-response","178","567512","0.0-18.0-2.27","https://ccnypsych.az1.qualtrics.com/jfe/form/SV_3mEUjljOKOh42Vg?PID","bdp_trlrn","Tue Mar 01 2022 11:41:08 GMT-0500 (Eastern Standard Time)","802168","Untrustworthy,Trustworthy","","null","","","","decisionFB","","<div class='trialDiv'><img src='trustrating_stim/white_00785_941205_fb_edt.bmp'><br><font class='baseline'><strong>Gavin</strong><p>Choose number of points to send.</font><div class='respPicDiv'><img src='img/responseButtonOffersNo0L4.png' class='respPic'></div></div>","null","7","Gavin","trustrating_stim/white_00785_941205_fb_edt.bmp","Kept","0.2,0.6","14","0.2","153","28"
"html-keyboard-response","179","568519","0.0-18.0-3.27","https://ccnypsych.az1.qualtrics.com/jfe/form/SV_3mEUjljOKOh42Vg?PID","bdp_trlrn","Tue Mar 01 2022 11:41:08 GMT-0500 (Eastern Standard Time)","802168","Untrustworthy,Trustworthy","","null","","","","feedback","","<div class='trialDiv'><img src='trustrating_stim/white_00785_941205_fb_edt.bmp'><br><font class='baseline'><strong>Gavin</strong><p>Received: <strong>16</strong></font> &nbsp; &nbsp; &nbsp; &nbsp; &nbsp; &nbsp;<font class='negOutcome'>Shared back: <strong>0</strong></font></font><div class='respPicDiv'><img src='img/responseButtonOffersNo0_wht.png' class='respPic'></div></div>","null","7","Gavin","trustrating_stim/white_00785_941205_fb_edt.bmp","Kept","0.2,0.6","14","0.2","153","28"
"html-keyboard-response","180","569454","0.0-18.0-1.28","https://ccnypsych.az1.qualtrics.com/jfe/form/SV_3mEUjljOKOh42Vg?PID","bdp_trlrn","Tue Mar 01 2022 11:41:08 GMT-0500 (Eastern Standard Time)","802168","Untrustworthy,Trustworthy","","934","","","","decision","","<div class='trialDiv'><img src='trustrating_stim/white_mw071.bmp'><br><font class='baseline'><strong>Tyler</strong><p>Choose number of points to send.</font><div class='respPicDiv'><img src='img/responseButtonOffersNo0L.png' class='respPic'></div></div>","5","8","Tyler","trustrating_stim/white_mw071.bmp","Shared","0.4,0.8","10","0.4","158","29"
"html-keyboard-response","181","569709","0.0-18.0-2.28","https://ccnypsych.az1.qualtrics.com/jfe/form/SV_3mEUjljOKOh42Vg?PID","bdp_trlrn","Tue Mar 01 2022 11:41:08 GMT-0500 (Eastern Standard Time)","802168","Untrustworthy,Trustworthy","","null","","","","decisionFB","","<div class='trialDiv'><img src='trustrating_stim/white_mw071.bmp'><br><font class='baseline'><strong>Tyler</strong><p>Choose number of points to send.</font><div class='respPicDiv'><img src='img/responseButtonOffersNo0L5.png' class='respPic'></div></div>","null","8","Tyler","trustrating_stim/white_mw071.bmp","Shared","0.4,0.8","10","0.4","153","29"
"html-keyboard-response","182","570712","0.0-18.0-3.28","https://ccnypsych.az1.qualtrics.com/jfe/form/SV_3mEUjljOKOh42Vg?PID","bdp_trlrn","Tue Mar 01 2022 11:41:08 GMT-0500 (Eastern Standard Time)","802168","Untrustworthy,Trustworthy","","null","","","","feedback","","<div class='trialDiv'><img src='trustrating_stim/white_mw071.bmp'><br><font class='baseline'><strong>Tyler</strong><p>Received: <strong>20</strong></font> &nbsp; &nbsp; &nbsp; &nbsp; &nbsp; &nbsp;<font class='posOutcome'>Shared back: <strong>10</strong></font></font><div class='respPicDiv'><img src='img/responseButtonOffersNo0_wht.png' class='respPic'></div></div>","null","8","Tyler","trustrating_stim/white_mw071.bmp","Shared","0.4,0.8","10","0.4","163","29"
"html-keyboard-response","183","572192","0.0-18.0-1.29","https://ccnypsych.az1.qualtrics.com/jfe/form/SV_3mEUjljOKOh42Vg?PID","bdp_trlrn","Tue Mar 01 2022 11:41:08 GMT-0500 (Eastern Standard Time)","802168","Untrustworthy,Trustworthy","","1478","","","","decision","","<div class='trialDiv'><img src='trustrating_stim/white_00785_941205_fb_edt.bmp'><br><font class='baseline'><strong>Gavin</strong><p>Choose number of points to send.</font><div class='respPicDiv'><img src='img/responseButtonOffersNo0L.png' class='respPic'></div></div>","1","8","Gavin","trustrating_stim/white_00785_941205_fb_edt.bmp","Shared","0.2,0.6","14","0.2","168","30"
"html-keyboard-response","184","572445","0.0-18.0-2.29","https://ccnypsych.az1.qualtrics.com/jfe/form/SV_3mEUjljOKOh42Vg?PID","bdp_trlrn","Tue Mar 01 2022 11:41:08 GMT-0500 (Eastern Standard Time)","802168","Untrustworthy,Trustworthy","","null","","","","decisionFB","","<div class='trialDiv'><img src='trustrating_stim/white_00785_941205_fb_edt.bmp'><br><font class='baseline'><strong>Gavin</strong><p>Choose number of points to send.</font><div class='respPicDiv'><img src='img/responseButtonOffersNo0L1.png' class='respPic'></div></div>","null","8","Gavin","trustrating_stim/white_00785_941205_fb_edt.bmp","Shared","0.2,0.6","14","0.2","167","30"
"html-keyboard-response","185","573448","0.0-18.0-3.29","https://ccnypsych.az1.qualtrics.com/jfe/form/SV_3mEUjljOKOh42Vg?PID","bdp_trlrn","Tue Mar 01 2022 11:41:08 GMT-0500 (Eastern Standard Time)","802168","Untrustworthy,Trustworthy","","null","","","","feedback","","<div class='trialDiv'><img src='trustrating_stim/white_00785_941205_fb_edt.bmp'><br><font class='baseline'><strong>Gavin</strong><p>Received: <strong>4</strong></font> &nbsp; &nbsp; &nbsp; &nbsp; &nbsp; &nbsp;<font class='posOutcome'>Shared back: <strong>2</strong></font></font><div class='respPicDiv'><img src='img/responseButtonOffersNo0_wht.png' class='respPic'></div></div>","null","8","Gavin","trustrating_stim/white_00785_941205_fb_edt.bmp","Shared","0.2,0.6","14","0.2","169","30"
"html-keyboard-response","186","576538","0.0-18.0-1.30","https://ccnypsych.az1.qualtrics.com/jfe/form/SV_3mEUjljOKOh42Vg?PID","bdp_trlrn","Tue Mar 01 2022 11:41:08 GMT-0500 (Eastern Standard Time)","802168","Untrustworthy,Trustworthy","","3088","","","","decision","","<div class='trialDiv'><img src='trustrating_stim/white_mw089.bmp'><br><font class='baseline'><strong>Sean</strong><p>Choose number of points to send.</font><div class='respPicDiv'><img src='img/responseButtonOffersNo0L.png' class='respPic'></div></div>","4","8","Sean","trustrating_stim/white_mw089.bmp","Shared","0.8,0.4","14","0.8","174","31"
"html-keyboard-response","187","576792","0.0-18.0-2.30","https://ccnypsych.az1.qualtrics.com/jfe/form/SV_3mEUjljOKOh42Vg?PID","bdp_trlrn","Tue Mar 01 2022 11:41:08 GMT-0500 (Eastern Standard Time)","802168","Untrustworthy,Trustworthy","","null","","","","decisionFB","","<div class='trialDiv'><img src='trustrating_stim/white_mw089.bmp'><br><font class='baseline'><strong>Sean</strong><p>Choose number of points to send.</font><div class='respPicDiv'><img src='img/responseButtonOffersNo0L4.png' class='respPic'></div></div>","null","8","Sean","trustrating_stim/white_mw089.bmp","Shared","0.8,0.4","14","0.8","170","31"
"html-keyboard-response","188","577794","0.0-18.0-3.30","https://ccnypsych.az1.qualtrics.com/jfe/form/SV_3mEUjljOKOh42Vg?PID","bdp_trlrn","Tue Mar 01 2022 11:41:08 GMT-0500 (Eastern Standard Time)","802168","Untrustworthy,Trustworthy","","null","","","","feedback","","<div class='trialDiv'><img src='trustrating_stim/white_mw089.bmp'><br><font class='baseline'><strong>Sean</strong><p>Received: <strong>16</strong></font> &nbsp; &nbsp; &nbsp; &nbsp; &nbsp; &nbsp;<font class='posOutcome'>Shared back: <strong>8</strong></font></font><div class='respPicDiv'><img src='img/responseButtonOffersNo0_wht.png' class='respPic'></div></div>","null","8","Sean","trustrating_stim/white_mw089.bmp","Shared","0.8,0.4","14","0.8","178","31"
"html-keyboard-response","189","578790","0.0-18.0-1.31","https://ccnypsych.az1.qualtrics.com/jfe/form/SV_3mEUjljOKOh42Vg?PID","bdp_trlrn","Tue Mar 01 2022 11:41:08 GMT-0500 (Eastern Standard Time)","802168","Untrustworthy,Trustworthy","","995","","","","decision","","<div class='trialDiv'><img src='trustrating_stim/white_mw099.bmp'><br><font class='baseline'><strong>Ethan</strong><p>Choose number of points to send.</font><div class='respPicDiv'><img src='img/responseButtonOffersNo0L.png' class='respPic'></div></div>","2","8","Ethan","trustrating_stim/white_mw099.bmp","Shared","0.6,0.2","15","0.6","183","32"
"html-keyboard-response","190","579042","0.0-18.0-2.31","https://ccnypsych.az1.qualtrics.com/jfe/form/SV_3mEUjljOKOh42Vg?PID","bdp_trlrn","Tue Mar 01 2022 11:41:08 GMT-0500 (Eastern Standard Time)","802168","Untrustworthy,Trustworthy","","null","","","","decisionFB","","<div class='trialDiv'><img src='trustrating_stim/white_mw099.bmp'><br><font class='baseline'><strong>Ethan</strong><p>Choose number of points to send.</font><div class='respPicDiv'><img src='img/responseButtonOffersNo0L2.png' class='respPic'></div></div>","null","8","Ethan","trustrating_stim/white_mw099.bmp","Shared","0.6,0.2","15","0.6","181","32"
