"event","trial","time","trialtype","subject_id","task","startTime","totalTime","labels","trial_type","trial_index","time_elapsed","internal_node_id","numBlurs","view_history","rt","success","stimulus","key_press","aground","name","faceID","outcome","agenttype","agentswpt","agentcurrpshare","face","avgRating","point_total","round"
"focus","0","0","focusevent","629fa760fe340707d1dfd548","bdp_trlrn","Wed Jul 27 2022 12:19:16 GMT-0500 (Central Daylight Time)","786520","Untrustworthy,Trustworthy","","","","","","","","","","","","","","","","","","","","",""
"","","","","629fa760fe340707d1dfd548","bdp_trlrn","Wed Jul 27 2022 12:19:16 GMT-0500 (Central Daylight Time)","786520","Untrustworthy,Trustworthy","pavlovia","0","18","0.0-0.0","","","","","","","","","","","","","","","","",""
"blur","1","8602","blurevent","629fa760fe340707d1dfd548","bdp_trlrn","Wed Jul 27 2022 12:19:16 GMT-0500 (Central Daylight Time)","786520","Untrustworthy,Trustworthy","","","","","1","","","","","","","","","","","","","","","",""
"focus","1","12872","focusevent","629fa760fe340707d1dfd548","bdp_trlrn","Wed Jul 27 2022 12:19:16 GMT-0500 (Central Daylight Time)","786520","Untrustworthy,Trustworthy","","","","","","","","","","","","","","","","","","","","",""
"","","","","629fa760fe340707d1dfd548","bdp_trlrn","Wed Jul 27 2022 12:19:16 GMT-0500 (Central Daylight Time)","786520","Untrustworthy,Trustworthy","instructions","1","15507","0.0-1.0","","[{""page_index"":0,""viewing_time"":15487}]","15488","","","","","","","","","","","","","",""
"fullscreenexit","2","17922","fullscreenexit","629fa760fe340707d1dfd548","bdp_trlrn","Wed Jul 27 2022 12:19:16 GMT-0500 (Central Daylight Time)","786520","Untrustworthy,Trustworthy","","","","","","","","","","","","","","","","","","","","",""
"","","","","629fa760fe340707d1dfd548","bdp_trlrn","Wed Jul 27 2022 12:19:16 GMT-0500 (Central Daylight Time)","786520","Untrustworthy,Trustworthy","fullscreen","2","18690","0.0-2.0","","","","true","","","","","","","","","","","","",""
"","","","fullscreenfail","629fa760fe340707d1dfd548","bdp_trlrn","Wed Jul 27 2022 12:19:16 GMT-0500 (Central Daylight Time)","786520","Untrustworthy,Trustworthy","image-keyboard-response","3","21546","0.0-3.0-0.0","","","2851","","","32","","","","","","","","","","",""
"","","","","629fa760fe340707d1dfd548","bdp_trlrn","Wed Jul 27 2022 12:19:16 GMT-0500 (Central Daylight Time)","786520","Untrustworthy,Trustworthy","instructions","4","65078","0.0-4.0","","[{""page_index"":0,""viewing_time"":8285},{""page_index"":1,""viewing_time"":34980}]","43266","","","","","","","","","","","","","",""
"","","","","629fa760fe340707d1dfd548","bdp_trlrn","Wed Jul 27 2022 12:19:16 GMT-0500 (Central Daylight Time)","786520","Untrustworthy,Trustworthy","instructions","5","67902","0.0-5.0","","[{""page_index"":0,""viewing_time"":2820}]","2821","","","","","","","","","","","","","",""
"","","","rating","629fa760fe340707d1dfd548","bdp_trlrn","Wed Jul 27 2022 12:19:16 GMT-0500 (Central Daylight Time)","786520","Untrustworthy,Trustworthy","image-keyboard-response","6","70915","0.0-6.0-1.0","","","2894","","trustrating_stim/white_mw046.bmp","4","","","","","","","","","","",""
"","","","ratingFB","629fa760fe340707d1dfd548","bdp_trlrn","Wed Jul 27 2022 12:19:16 GMT-0500 (Central Daylight Time)","786520","Untrustworthy,Trustworthy","image-keyboard-response","7","71129","0.0-6.0-2.0","","","null","","trustrating_stim/white_mw046.bmp","null","","","","","","","","","","",""
"","","","rating","629fa760fe340707d1dfd548","bdp_trlrn","Wed Jul 27 2022 12:19:16 GMT-0500 (Central Daylight Time)","786520","Untrustworthy,Trustworthy","image-keyboard-response","8","72927","0.0-6.0-1.1","","","1687","","trustrating_stim/white_mw066.bmp","7","","","","","","","","","","",""
"","","","ratingFB","629fa760fe340707d1dfd548","bdp_trlrn","Wed Jul 27 2022 12:19:16 GMT-0500 (Central Daylight Time)","786520","Untrustworthy,Trustworthy","image-keyboard-response","9","73143","0.0-6.0-2.1","","","null","","trustrating_stim/white_mw066.bmp","null","","","","","","","","","","",""
"","","","rating","629fa760fe340707d1dfd548","bdp_trlrn","Wed Jul 27 2022 12:19:16 GMT-0500 (Central Daylight Time)","786520","Untrustworthy,Trustworthy","image-keyboard-response","10","76299","0.0-6.0-1.2","","","3045","","trustrating_stim/white_mw060.bmp","3","","","","","","","","","","",""
"","","","ratingFB","629fa760fe340707d1dfd548","bdp_trlrn","Wed Jul 27 2022 12:19:16 GMT-0500 (Central Daylight Time)","786520","Untrustworthy,Trustworthy","image-keyboard-response","11","76504","0.0-6.0-2.2","","","null","","trustrating_stim/white_mw060.bmp","null","","","","","","","","","","",""
"","","","rating","629fa760fe340707d1dfd548","bdp_trlrn","Wed Jul 27 2022 12:19:16 GMT-0500 (Central Daylight Time)","786520","Untrustworthy,Trustworthy","image-keyboard-response","12","78748","0.0-6.0-1.3","","","2131","","trustrating_stim/white_mw048.bmp","2","","","","","","","","","","",""
"","","","ratingFB","629fa760fe340707d1dfd548","bdp_trlrn","Wed Jul 27 2022 12:19:16 GMT-0500 (Central Daylight Time)","786520","Untrustworthy,Trustworthy","image-keyboard-response","13","78962","0.0-6.0-2.3","","","null","","trustrating_stim/white_mw048.bmp","null","","","","","","","","","","",""
"","","","rating","629fa760fe340707d1dfd548","bdp_trlrn","Wed Jul 27 2022 12:19:16 GMT-0500 (Central Daylight Time)","786520","Untrustworthy,Trustworthy","image-keyboard-response","14","80267","0.0-6.0-1.4","","","1193","","trustrating_stim/white_00785_941205_fb_edt.bmp","1","","","","","","","","","","",""
"","","","ratingFB","629fa760fe340707d1dfd548","bdp_trlrn","Wed Jul 27 2022 12:19:16 GMT-0500 (Central Daylight Time)","786520","Untrustworthy,Trustworthy","image-keyboard-response","15","80474","0.0-6.0-2.4","","","null","","trustrating_stim/white_00785_941205_fb_edt.bmp","null","","","","","","","","","","",""
"","","","rating","629fa760fe340707d1dfd548","bdp_trlrn","Wed Jul 27 2022 12:19:16 GMT-0500 (Central Daylight Time)","786520","Untrustworthy,Trustworthy","image-keyboard-response","16","81905","0.0-6.0-1.5","","","1325","","trustrating_stim/white_00757_941201_fa_edt.bmp","2","","","","","","","","","","",""
"","","","ratingFB","629fa760fe340707d1dfd548","bdp_trlrn","Wed Jul 27 2022 12:19:16 GMT-0500 (Central Daylight Time)","786520","Untrustworthy,Trustworthy","image-keyboard-response","17","82117","0.0-6.0-2.5","","","null","","trustrating_stim/white_00757_941201_fa_edt.bmp","null","","","","","","","","","","",""
"","","","rating","629fa760fe340707d1dfd548","bdp_trlrn","Wed Jul 27 2022 12:19:16 GMT-0500 (Central Daylight Time)","786520","Untrustworthy,Trustworthy","image-keyboard-response","18","83605","0.0-6.0-1.6","","","1377","","trustrating_stim/white_00807_941205_fb_edt.bmp","3","","","","","","","","","","",""
"","","","ratingFB","629fa760fe340707d1dfd548","bdp_trlrn","Wed Jul 27 2022 12:19:16 GMT-0500 (Central Daylight Time)","786520","Untrustworthy,Trustworthy","image-keyboard-response","19","83821","0.0-6.0-2.6","","","null","","trustrating_stim/white_00807_941205_fb_edt.bmp","null","","","","","","","","","","",""
"","","","rating","629fa760fe340707d1dfd548","bdp_trlrn","Wed Jul 27 2022 12:19:16 GMT-0500 (Central Daylight Time)","786520","Untrustworthy,Trustworthy","image-keyboard-response","20","85436","0.0-6.0-1.7","","","1506","","trustrating_stim/white_00120_931230_fa_edt.bmp","8","","","","","","","","","","",""
"","","","ratingFB","629fa760fe340707d1dfd548","bdp_trlrn","Wed Jul 27 2022 12:19:16 GMT-0500 (Central Daylight Time)","786520","Untrustworthy,Trustworthy","image-keyboard-response","21","85653","0.0-6.0-2.7","","","null","","trustrating_stim/white_00120_931230_fa_edt.bmp","null","","","","","","","","","","",""
"","","","rating","629fa760fe340707d1dfd548","bdp_trlrn","Wed Jul 27 2022 12:19:16 GMT-0500 (Central Daylight Time)","786520","Untrustworthy,Trustworthy","image-keyboard-response","22","87294","0.0-6.0-1.8","","","1529","","trustrating_stim/white_00519_940519_fb_edt.bmp","3","","","","","","","","","","",""
"","","","ratingFB","629fa760fe340707d1dfd548","bdp_trlrn","Wed Jul 27 2022 12:19:16 GMT-0500 (Central Daylight Time)","786520","Untrustworthy,Trustworthy","image-keyboard-response","23","87510","0.0-6.0-2.8","","","null","","trustrating_stim/white_00519_940519_fb_edt.bmp","null","","","","","","","","","","",""
"","","","rating","629fa760fe340707d1dfd548","bdp_trlrn","Wed Jul 27 2022 12:19:16 GMT-0500 (Central Daylight Time)","786520","Untrustworthy,Trustworthy","image-keyboard-response","24","89831","0.0-6.0-1.9","","","2210","","trustrating_stim/white_mw084.bmp","6","","","","","","","","","","",""
"","","","ratingFB","629fa760fe340707d1dfd548","bdp_trlrn","Wed Jul 27 2022 12:19:16 GMT-0500 (Central Daylight Time)","786520","Untrustworthy,Trustworthy","image-keyboard-response","25","90041","0.0-6.0-2.9","","","null","","trustrating_stim/white_mw084.bmp","null","","","","","","","","","","",""
"","","","rating","629fa760fe340707d1dfd548","bdp_trlrn","Wed Jul 27 2022 12:19:16 GMT-0500 (Central Daylight Time)","786520","Untrustworthy,Trustworthy","image-keyboard-response","26","93118","0.0-6.0-1.10","","","2966","","trustrating_stim/white_mw049.bmp","6","","","","","","","","","","",""
"","","","ratingFB","629fa760fe340707d1dfd548","bdp_trlrn","Wed Jul 27 2022 12:19:16 GMT-0500 (Central Daylight Time)","786520","Untrustworthy,Trustworthy","image-keyboard-response","27","93331","0.0-6.0-2.10","","","null","","trustrating_stim/white_mw049.bmp","null","","","","","","","","","","",""
"","","","rating","629fa760fe340707d1dfd548","bdp_trlrn","Wed Jul 27 2022 12:19:16 GMT-0500 (Central Daylight Time)","786520","Untrustworthy,Trustworthy","image-keyboard-response","28","95282","0.0-6.0-1.11","","","1841","","trustrating_stim/white_mw089.bmp","3","","","","","","","","","","",""
"","","","ratingFB","629fa760fe340707d1dfd548","bdp_trlrn","Wed Jul 27 2022 12:19:16 GMT-0500 (Central Daylight Time)","786520","Untrustworthy,Trustworthy","image-keyboard-response","29","95498","0.0-6.0-2.11","","","null","","trustrating_stim/white_mw089.bmp","null","","","","","","","","","","",""
"","","","rating","629fa760fe340707d1dfd548","bdp_trlrn","Wed Jul 27 2022 12:19:16 GMT-0500 (Central Daylight Time)","786520","Untrustworthy,Trustworthy","image-keyboard-response","30","98425","0.0-6.0-1.12","","","2817","","trustrating_stim/white_00299_940422_fa_edt.bmp","4","","","","","","","","","","",""
"","","","ratingFB","629fa760fe340707d1dfd548","bdp_trlrn","Wed Jul 27 2022 12:19:16 GMT-0500 (Central Daylight Time)","786520","Untrustworthy,Trustworthy","image-keyboard-response","31","98641","0.0-6.0-2.12","","","null","","trustrating_stim/white_00299_940422_fa_edt.bmp","null","","","","","","","","","","",""
"","","","rating","629fa760fe340707d1dfd548","bdp_trlrn","Wed Jul 27 2022 12:19:16 GMT-0500 (Central Daylight Time)","786520","Untrustworthy,Trustworthy","image-keyboard-response","32","100314","0.0-6.0-1.13","","","1563","","trustrating_stim/white_00659_941121_fa_edt.bmp","2","","","","","","","","","","",""
"","","","ratingFB","629fa760fe340707d1dfd548","bdp_trlrn","Wed Jul 27 2022 12:19:16 GMT-0500 (Central Daylight Time)","786520","Untrustworthy,Trustworthy","image-keyboard-response","33","100521","0.0-6.0-2.13","","","null","","trustrating_stim/white_00659_941121_fa_edt.bmp","null","","","","","","","","","","",""
"","","","rating","629fa760fe340707d1dfd548","bdp_trlrn","Wed Jul 27 2022 12:19:16 GMT-0500 (Central Daylight Time)","786520","Untrustworthy,Trustworthy","image-keyboard-response","34","106338","0.0-6.0-1.14","","","5707","","trustrating_stim/white_00761_941201_fb_edt.bmp","6","","","","","","","","","","",""
"","","","ratingFB","629fa760fe340707d1dfd548","bdp_trlrn","Wed Jul 27 2022 12:19:16 GMT-0500 (Central Daylight Time)","786520","Untrustworthy,Trustworthy","image-keyboard-response","35","106542","0.0-6.0-2.14","","","null","","trustrating_stim/white_00761_941201_fb_edt.bmp","null","","","","","","","","","","",""
"","","","rating","629fa760fe340707d1dfd548","bdp_trlrn","Wed Jul 27 2022 12:19:16 GMT-0500 (Central Daylight Time)","786520","Untrustworthy,Trustworthy","image-keyboard-response","36","108994","0.0-6.0-1.15","","","2341","","trustrating_stim/white_00602_940928_fb_edt.bmp","8","","","","","","","","","","",""
"","","","ratingFB","629fa760fe340707d1dfd548","bdp_trlrn","Wed Jul 27 2022 12:19:16 GMT-0500 (Central Daylight Time)","786520","Untrustworthy,Trustworthy","image-keyboard-response","37","109202","0.0-6.0-2.15","","","null","","trustrating_stim/white_00602_940928_fb_edt.bmp","null","","","","","","","","","","",""
"","","","rating","629fa760fe340707d1dfd548","bdp_trlrn","Wed Jul 27 2022 12:19:16 GMT-0500 (Central Daylight Time)","786520","Untrustworthy,Trustworthy","image-keyboard-response","38","111423","0.0-6.0-1.16","","","2111","","trustrating_stim/white_00129_931230_fb_edt.bmp","6","","","","","","","","","","",""
"","","","ratingFB","629fa760fe340707d1dfd548","bdp_trlrn","Wed Jul 27 2022 12:19:16 GMT-0500 (Central Daylight Time)","786520","Untrustworthy,Trustworthy","image-keyboard-response","39","111638","0.0-6.0-2.16","","","null","","trustrating_stim/white_00129_931230_fb_edt.bmp","null","","","","","","","","","","",""
"","","","rating","629fa760fe340707d1dfd548","bdp_trlrn","Wed Jul 27 2022 12:19:16 GMT-0500 (Central Daylight Time)","786520","Untrustworthy,Trustworthy","image-keyboard-response","40","115552","0.0-6.0-1.17","","","3803","","trustrating_stim/white_mw056.bmp","5","","","","","","","","","","",""
"","","","ratingFB","629fa760fe340707d1dfd548","bdp_trlrn","Wed Jul 27 2022 12:19:16 GMT-0500 (Central Daylight Time)","786520","Untrustworthy,Trustworthy","image-keyboard-response","41","115760","0.0-6.0-2.17","","","null","","trustrating_stim/white_mw056.bmp","null","","","","","","","","","","",""
"","","","rating","629fa760fe340707d1dfd548","bdp_trlrn","Wed Jul 27 2022 12:19:16 GMT-0500 (Central Daylight Time)","786520","Untrustworthy,Trustworthy","image-keyboard-response","42","118626","0.0-6.0-1.18","","","2757","","trustrating_stim/white_mw035.bmp","4","","","","","","","","","","",""
"","","","ratingFB","629fa760fe340707d1dfd548","bdp_trlrn","Wed Jul 27 2022 12:19:16 GMT-0500 (Central Daylight Time)","786520","Untrustworthy,Trustworthy","image-keyboard-response","43","118836","0.0-6.0-2.18","","","null","","trustrating_stim/white_mw035.bmp","null","","","","","","","","","","",""
"","","","rating","629fa760fe340707d1dfd548","bdp_trlrn","Wed Jul 27 2022 12:19:16 GMT-0500 (Central Daylight Time)","786520","Untrustworthy,Trustworthy","image-keyboard-response","44","121505","0.0-6.0-1.19","","","2558","","trustrating_stim/white_00340_940422_fa_edt.bmp","3","","","","","","","","","","",""
"","","","ratingFB","629fa760fe340707d1dfd548","bdp_trlrn","Wed Jul 27 2022 12:19:16 GMT-0500 (Central Daylight Time)","786520","Untrustworthy,Trustworthy","image-keyboard-response","45","121710","0.0-6.0-2.19","","","null","","trustrating_stim/white_00340_940422_fa_edt.bmp","null","","","","","","","","","","",""
"","","","rating","629fa760fe340707d1dfd548","bdp_trlrn","Wed Jul 27 2022 12:19:16 GMT-0500 (Central Daylight Time)","786520","Untrustworthy,Trustworthy","image-keyboard-response","46","126130","0.0-6.0-1.20","","","4310","","trustrating_stim/white_mw063.bmp","3","","","","","","","","","","",""
"","","","ratingFB","629fa760fe340707d1dfd548","bdp_trlrn","Wed Jul 27 2022 12:19:16 GMT-0500 (Central Daylight Time)","786520","Untrustworthy,Trustworthy","image-keyboard-response","47","126336","0.0-6.0-2.20","","","null","","trustrating_stim/white_mw063.bmp","null","","","","","","","","","","",""
"","","","rating","629fa760fe340707d1dfd548","bdp_trlrn","Wed Jul 27 2022 12:19:16 GMT-0500 (Central Daylight Time)","786520","Untrustworthy,Trustworthy","image-keyboard-response","48","128281","0.0-6.0-1.21","","","1835","","trustrating_stim/white_mw071.bmp","2","","","","","","","","","","",""
"","","","ratingFB","629fa760fe340707d1dfd548","bdp_trlrn","Wed Jul 27 2022 12:19:16 GMT-0500 (Central Daylight Time)","786520","Untrustworthy,Trustworthy","image-keyboard-response","49","128484","0.0-6.0-2.21","","","null","","trustrating_stim/white_mw071.bmp","null","","","","","","","","","","",""
"","","","rating","629fa760fe340707d1dfd548","bdp_trlrn","Wed Jul 27 2022 12:19:16 GMT-0500 (Central Daylight Time)","786520","Untrustworthy,Trustworthy","image-keyboard-response","50","130307","0.0-6.0-1.22","","","1714","","trustrating_stim/white_00223_940128_fb_edt.bmp","2","","","","","","","","","","",""
"","","","ratingFB","629fa760fe340707d1dfd548","bdp_trlrn","Wed Jul 27 2022 12:19:16 GMT-0500 (Central Daylight Time)","786520","Untrustworthy,Trustworthy","image-keyboard-response","51","130511","0.0-6.0-2.22","","","null","","trustrating_stim/white_00223_940128_fb_edt.bmp","null","","","","","","","","","","",""
"","","","rating","629fa760fe340707d1dfd548","bdp_trlrn","Wed Jul 27 2022 12:19:16 GMT-0500 (Central Daylight Time)","786520","Untrustworthy,Trustworthy","image-keyboard-response","52","133236","0.0-6.0-1.23","","","2615","","trustrating_stim/white_00109_931230_fa_edt.bmp","3","","","","","","","","","","",""
"","","","ratingFB","629fa760fe340707d1dfd548","bdp_trlrn","Wed Jul 27 2022 12:19:16 GMT-0500 (Central Daylight Time)","786520","Untrustworthy,Trustworthy","image-keyboard-response","53","133451","0.0-6.0-2.23","","","null","","trustrating_stim/white_00109_931230_fa_edt.bmp","null","","","","","","","","","","",""
"","","","rating","629fa760fe340707d1dfd548","bdp_trlrn","Wed Jul 27 2022 12:19:16 GMT-0500 (Central Daylight Time)","786520","Untrustworthy,Trustworthy","image-keyboard-response","54","136740","0.0-6.0-1.24","","","3179","","trustrating_stim/white_00577_940928_fa_edt.bmp","4","","","","","","","","","","",""
"","","","ratingFB","629fa760fe340707d1dfd548","bdp_trlrn","Wed Jul 27 2022 12:19:16 GMT-0500 (Central Daylight Time)","786520","Untrustworthy,Trustworthy","image-keyboard-response","55","136947","0.0-6.0-2.24","","","null","","trustrating_stim/white_00577_940928_fa_edt.bmp","null","","","","","","","","","","",""
"","","","rating","629fa760fe340707d1dfd548","bdp_trlrn","Wed Jul 27 2022 12:19:16 GMT-0500 (Central Daylight Time)","786520","Untrustworthy,Trustworthy","image-keyboard-response","56","139034","0.0-6.0-1.25","","","1977","","trustrating_stim/white_mw099.bmp","3","","","","","","","","","","",""
"","","","ratingFB","629fa760fe340707d1dfd548","bdp_trlrn","Wed Jul 27 2022 12:19:16 GMT-0500 (Central Daylight Time)","786520","Untrustworthy,Trustworthy","image-keyboard-response","57","139242","0.0-6.0-2.25","","","null","","trustrating_stim/white_mw099.bmp","null","","","","","","","","","","",""
"","","","rating","629fa760fe340707d1dfd548","bdp_trlrn","Wed Jul 27 2022 12:19:16 GMT-0500 (Central Daylight Time)","786520","Untrustworthy,Trustworthy","image-keyboard-response","58","140999","0.0-6.0-1.26","","","1647","","trustrating_stim/white_mw097.bmp","2","","","","","","","","","","",""
"","","","ratingFB","629fa760fe340707d1dfd548","bdp_trlrn","Wed Jul 27 2022 12:19:16 GMT-0500 (Central Daylight Time)","786520","Untrustworthy,Trustworthy","image-keyboard-response","59","141211","0.0-6.0-2.26","","","null","","trustrating_stim/white_mw097.bmp","null","","","","","","","","","","",""
"","","","rating","629fa760fe340707d1dfd548","bdp_trlrn","Wed Jul 27 2022 12:19:16 GMT-0500 (Central Daylight Time)","786520","Untrustworthy,Trustworthy","image-keyboard-response","60","144024","0.0-6.0-1.27","","","2703","","trustrating_stim/white_mw053.bmp","6","","","","","","","","","","",""
"","","","ratingFB","629fa760fe340707d1dfd548","bdp_trlrn","Wed Jul 27 2022 12:19:16 GMT-0500 (Central Daylight Time)","786520","Untrustworthy,Trustworthy","image-keyboard-response","61","144241","0.0-6.0-2.27","","","null","","trustrating_stim/white_mw053.bmp","null","","","","","","","","","","",""
"","","","rating","629fa760fe340707d1dfd548","bdp_trlrn","Wed Jul 27 2022 12:19:16 GMT-0500 (Central Daylight Time)","786520","Untrustworthy,Trustworthy","image-keyboard-response","62","147071","0.0-6.0-1.28","","","2721","","trustrating_stim/white_mw033.bmp","5","","","","","","","","","","",""
"","","","ratingFB","629fa760fe340707d1dfd548","bdp_trlrn","Wed Jul 27 2022 12:19:16 GMT-0500 (Central Daylight Time)","786520","Untrustworthy,Trustworthy","image-keyboard-response","63","147272","0.0-6.0-2.28","","","null","","trustrating_stim/white_mw033.bmp","null","","","","","","","","","","",""
"","","","rating","629fa760fe340707d1dfd548","bdp_trlrn","Wed Jul 27 2022 12:19:16 GMT-0500 (Central Daylight Time)","786520","Untrustworthy,Trustworthy","image-keyboard-response","64","149903","0.0-6.0-1.29","","","2519","","trustrating_stim/white_00898_960530_fa_edt.bmp","7","","","","","","","","","","",""
"","","","ratingFB","629fa760fe340707d1dfd548","bdp_trlrn","Wed Jul 27 2022 12:19:16 GMT-0500 (Central Daylight Time)","786520","Untrustworthy,Trustworthy","image-keyboard-response","65","150116","0.0-6.0-2.29","","","null","","trustrating_stim/white_00898_960530_fa_edt.bmp","null","","","","","","","","","","",""
"","","","rating","629fa760fe340707d1dfd548","bdp_trlrn","Wed Jul 27 2022 12:19:16 GMT-0500 (Central Daylight Time)","786520","Untrustworthy,Trustworthy","image-keyboard-response","66","155219","0.0-6.0-1.30","","","4993","","trustrating_stim/white_00761_941201_fb_edt.bmp","6","","","","","","","","","","",""
"","","","ratingFB","629fa760fe340707d1dfd548","bdp_trlrn","Wed Jul 27 2022 12:19:16 GMT-0500 (Central Daylight Time)","786520","Untrustworthy,Trustworthy","image-keyboard-response","67","155428","0.0-6.0-2.30","","","null","","trustrating_stim/white_00761_941201_fb_edt.bmp","null","","","","","","","","","","",""
"","","","rating","629fa760fe340707d1dfd548","bdp_trlrn","Wed Jul 27 2022 12:19:16 GMT-0500 (Central Daylight Time)","786520","Untrustworthy,Trustworthy","image-keyboard-response","68","157254","0.0-6.0-1.31","","","1717","","trustrating_stim/white_00519_940519_fb_edt.bmp","3","","","","","","","","","","",""
"","","","ratingFB","629fa760fe340707d1dfd548","bdp_trlrn","Wed Jul 27 2022 12:19:16 GMT-0500 (Central Daylight Time)","786520","Untrustworthy,Trustworthy","image-keyboard-response","69","157471","0.0-6.0-2.31","","","null","","trustrating_stim/white_00519_940519_fb_edt.bmp","null","","","","","","","","","","",""
"","","","rating","629fa760fe340707d1dfd548","bdp_trlrn","Wed Jul 27 2022 12:19:16 GMT-0500 (Central Daylight Time)","786520","Untrustworthy,Trustworthy","image-keyboard-response","70","160938","0.0-6.0-1.32","","","3356","","trustrating_stim/white_00898_960530_fa_edt.bmp","7","","","","","","","","","","",""
"","","","ratingFB","629fa760fe340707d1dfd548","bdp_trlrn","Wed Jul 27 2022 12:19:16 GMT-0500 (Central Daylight Time)","786520","Untrustworthy,Trustworthy","image-keyboard-response","71","161140","0.0-6.0-2.32","","","null","","trustrating_stim/white_00898_960530_fa_edt.bmp","null","","","","","","","","","","",""
"","","","rating","629fa760fe340707d1dfd548","bdp_trlrn","Wed Jul 27 2022 12:19:16 GMT-0500 (Central Daylight Time)","786520","Untrustworthy,Trustworthy","image-keyboard-response","72","166838","0.0-6.0-1.33","","","5588","","trustrating_stim/white_mw066.bmp","7","","","","","","","","","","",""
"","","","ratingFB","629fa760fe340707d1dfd548","bdp_trlrn","Wed Jul 27 2022 12:19:16 GMT-0500 (Central Daylight Time)","786520","Untrustworthy,Trustworthy","image-keyboard-response","73","167039","0.0-6.0-2.33","","","null","","trustrating_stim/white_mw066.bmp","null","","","","","","","","","","",""
"","","","rating","629fa760fe340707d1dfd548","bdp_trlrn","Wed Jul 27 2022 12:19:16 GMT-0500 (Central Daylight Time)","786520","Untrustworthy,Trustworthy","image-keyboard-response","74","168316","0.0-6.0-1.34","","","1166","","trustrating_stim/white_00659_941121_fa_edt.bmp","3","","","","","","","","","","",""
"","","","ratingFB","629fa760fe340707d1dfd548","bdp_trlrn","Wed Jul 27 2022 12:19:16 GMT-0500 (Central Daylight Time)","786520","Untrustworthy,Trustworthy","image-keyboard-response","75","168522","0.0-6.0-2.34","","","null","","trustrating_stim/white_00659_941121_fa_edt.bmp","null","","","","","","","","","","",""
"","","","rating","629fa760fe340707d1dfd548","bdp_trlrn","Wed Jul 27 2022 12:19:16 GMT-0500 (Central Daylight Time)","786520","Untrustworthy,Trustworthy","image-keyboard-response","76","169989","0.0-6.0-1.35","","","1356","","trustrating_stim/white_mw089.bmp","3","","","","","","","","","","",""
"","","","ratingFB","629fa760fe340707d1dfd548","bdp_trlrn","Wed Jul 27 2022 12:19:16 GMT-0500 (Central Daylight Time)","786520","Untrustworthy,Trustworthy","image-keyboard-response","77","170191","0.0-6.0-2.35","","","null","","trustrating_stim/white_mw089.bmp","null","","","","","","","","","","",""
"","","","rating","629fa760fe340707d1dfd548","bdp_trlrn","Wed Jul 27 2022 12:19:16 GMT-0500 (Central Daylight Time)","786520","Untrustworthy,Trustworthy","image-keyboard-response","78","171239","0.0-6.0-1.36","","","933","","trustrating_stim/white_mw071.bmp","2","","","","","","","","","","",""
"","","","ratingFB","629fa760fe340707d1dfd548","bdp_trlrn","Wed Jul 27 2022 12:19:16 GMT-0500 (Central Daylight Time)","786520","Untrustworthy,Trustworthy","image-keyboard-response","79","171445","0.0-6.0-2.36","","","null","","trustrating_stim/white_mw071.bmp","null","","","","","","","","","","",""
"","","","rating","629fa760fe340707d1dfd548","bdp_trlrn","Wed Jul 27 2022 12:19:16 GMT-0500 (Central Daylight Time)","786520","Untrustworthy,Trustworthy","image-keyboard-response","80","173397","0.0-6.0-1.37","","","1841","","trustrating_stim/white_mw053.bmp","6","","","","","","","","","","",""
"","","","ratingFB","629fa760fe340707d1dfd548","bdp_trlrn","Wed Jul 27 2022 12:19:16 GMT-0500 (Central Daylight Time)","786520","Untrustworthy,Trustworthy","image-keyboard-response","81","173604","0.0-6.0-2.37","","","null","","trustrating_stim/white_mw053.bmp","null","","","","","","","","","","",""
"","","","rating","629fa760fe340707d1dfd548","bdp_trlrn","Wed Jul 27 2022 12:19:16 GMT-0500 (Central Daylight Time)","786520","Untrustworthy,Trustworthy","image-keyboard-response","82","176683","0.0-6.0-1.38","","","2968","","trustrating_stim/white_mw049.bmp","7","","","","","","","","","","",""
"","","","ratingFB","629fa760fe340707d1dfd548","bdp_trlrn","Wed Jul 27 2022 12:19:16 GMT-0500 (Central Daylight Time)","786520","Untrustworthy,Trustworthy","image-keyboard-response","83","176886","0.0-6.0-2.38","","","null","","trustrating_stim/white_mw049.bmp","null","","","","","","","","","","",""
"","","","rating","629fa760fe340707d1dfd548","bdp_trlrn","Wed Jul 27 2022 12:19:16 GMT-0500 (Central Daylight Time)","786520","Untrustworthy,Trustworthy","image-keyboard-response","84","180763","0.0-6.0-1.39","","","3765","","trustrating_stim/white_00120_931230_fa_edt.bmp","5","","","","","","","","","","",""
"","","","ratingFB","629fa760fe340707d1dfd548","bdp_trlrn","Wed Jul 27 2022 12:19:16 GMT-0500 (Central Daylight Time)","786520","Untrustworthy,Trustworthy","image-keyboard-response","85","180964","0.0-6.0-2.39","","","null","","trustrating_stim/white_00120_931230_fa_edt.bmp","null","","","","","","","","","","",""
"","","","rating","629fa760fe340707d1dfd548","bdp_trlrn","Wed Jul 27 2022 12:19:16 GMT-0500 (Central Daylight Time)","786520","Untrustworthy,Trustworthy","image-keyboard-response","86","184019","0.0-6.0-1.40","","","2946","","trustrating_stim/white_mw060.bmp","4","","","","","","","","","","",""
"","","","ratingFB","629fa760fe340707d1dfd548","bdp_trlrn","Wed Jul 27 2022 12:19:16 GMT-0500 (Central Daylight Time)","786520","Untrustworthy,Trustworthy","image-keyboard-response","87","184228","0.0-6.0-2.40","","","null","","trustrating_stim/white_mw060.bmp","null","","","","","","","","","","",""
"","","","rating","629fa760fe340707d1dfd548","bdp_trlrn","Wed Jul 27 2022 12:19:16 GMT-0500 (Central Daylight Time)","786520","Untrustworthy,Trustworthy","image-keyboard-response","88","188649","0.0-6.0-1.41","","","4311","","trustrating_stim/white_mw084.bmp","5","","","","","","","","","","",""
"","","","ratingFB","629fa760fe340707d1dfd548","bdp_trlrn","Wed Jul 27 2022 12:19:16 GMT-0500 (Central Daylight Time)","786520","Untrustworthy,Trustworthy","image-keyboard-response","89","188860","0.0-6.0-2.41","","","null","","trustrating_stim/white_mw084.bmp","null","","","","","","","","","","",""
"","","","rating","629fa760fe340707d1dfd548","bdp_trlrn","Wed Jul 27 2022 12:19:16 GMT-0500 (Central Daylight Time)","786520","Untrustworthy,Trustworthy","image-keyboard-response","90","190237","0.0-6.0-1.42","","","1268","","trustrating_stim/white_00340_940422_fa_edt.bmp","3","","","","","","","","","","",""
"","","","ratingFB","629fa760fe340707d1dfd548","bdp_trlrn","Wed Jul 27 2022 12:19:16 GMT-0500 (Central Daylight Time)","786520","Untrustworthy,Trustworthy","image-keyboard-response","91","190449","0.0-6.0-2.42","","","null","","trustrating_stim/white_00340_940422_fa_edt.bmp","null","","","","","","","","","","",""
"","","","rating","629fa760fe340707d1dfd548","bdp_trlrn","Wed Jul 27 2022 12:19:16 GMT-0500 (Central Daylight Time)","786520","Untrustworthy,Trustworthy","image-keyboard-response","92","193099","0.0-6.0-1.43","","","2534","","trustrating_stim/white_00299_940422_fa_edt.bmp","4","","","","","","","","","","",""
"","","","ratingFB","629fa760fe340707d1dfd548","bdp_trlrn","Wed Jul 27 2022 12:19:16 GMT-0500 (Central Daylight Time)","786520","Untrustworthy,Trustworthy","image-keyboard-response","93","193310","0.0-6.0-2.43","","","null","","trustrating_stim/white_00299_940422_fa_edt.bmp","null","","","","","","","","","","",""
"","","","rating","629fa760fe340707d1dfd548","bdp_trlrn","Wed Jul 27 2022 12:19:16 GMT-0500 (Central Daylight Time)","786520","Untrustworthy,Trustworthy","image-keyboard-response","94","195874","0.0-6.0-1.44","","","2458","","trustrating_stim/white_00602_940928_fb_edt.bmp","6","","","","","","","","","","",""
"","","","ratingFB","629fa760fe340707d1dfd548","bdp_trlrn","Wed Jul 27 2022 12:19:16 GMT-0500 (Central Daylight Time)","786520","Untrustworthy,Trustworthy","image-keyboard-response","95","196087","0.0-6.0-2.44","","","null","","trustrating_stim/white_00602_940928_fb_edt.bmp","null","","","","","","","","","","",""
"","","","rating","629fa760fe340707d1dfd548","bdp_trlrn","Wed Jul 27 2022 12:19:16 GMT-0500 (Central Daylight Time)","786520","Untrustworthy,Trustworthy","image-keyboard-response","96","197253","0.0-6.0-1.45","","","1055","","trustrating_stim/white_00785_941205_fb_edt.bmp","1","","","","","","","","","","",""
"","","","ratingFB","629fa760fe340707d1dfd548","bdp_trlrn","Wed Jul 27 2022 12:19:16 GMT-0500 (Central Daylight Time)","786520","Untrustworthy,Trustworthy","image-keyboard-response","97","197455","0.0-6.0-2.45","","","null","","trustrating_stim/white_00785_941205_fb_edt.bmp","null","","","","","","","","","","",""
"","","","rating","629fa760fe340707d1dfd548","bdp_trlrn","Wed Jul 27 2022 12:19:16 GMT-0500 (Central Daylight Time)","786520","Untrustworthy,Trustworthy","image-keyboard-response","98","200504","0.0-6.0-1.46","","","2937","","trustrating_stim/white_mw056.bmp","3","","","","","","","","","","",""
"","","","ratingFB","629fa760fe340707d1dfd548","bdp_trlrn","Wed Jul 27 2022 12:19:16 GMT-0500 (Central Daylight Time)","786520","Untrustworthy,Trustworthy","image-keyboard-response","99","200712","0.0-6.0-2.46","","","null","","trustrating_stim/white_mw056.bmp","null","","","","","","","","","","",""
"","","","rating","629fa760fe340707d1dfd548","bdp_trlrn","Wed Jul 27 2022 12:19:16 GMT-0500 (Central Daylight Time)","786520","Untrustworthy,Trustworthy","image-keyboard-response","100","201957","0.0-6.0-1.47","","","1135","","trustrating_stim/white_mw046.bmp","2","","","","","","","","","","",""
"","","","ratingFB","629fa760fe340707d1dfd548","bdp_trlrn","Wed Jul 27 2022 12:19:16 GMT-0500 (Central Daylight Time)","786520","Untrustworthy,Trustworthy","image-keyboard-response","101","202168","0.0-6.0-2.47","","","null","","trustrating_stim/white_mw046.bmp","null","","","","","","","","","","",""
"","","","rating","629fa760fe340707d1dfd548","bdp_trlrn","Wed Jul 27 2022 12:19:16 GMT-0500 (Central Daylight Time)","786520","Untrustworthy,Trustworthy","image-keyboard-response","102","203950","0.0-6.0-1.48","","","1672","","trustrating_stim/white_00807_941205_fb_edt.bmp","2","","","","","","","","","","",""
"","","","ratingFB","629fa760fe340707d1dfd548","bdp_trlrn","Wed Jul 27 2022 12:19:16 GMT-0500 (Central Daylight Time)","786520","Untrustworthy,Trustworthy","image-keyboard-response","103","204166","0.0-6.0-2.48","","","null","","trustrating_stim/white_00807_941205_fb_edt.bmp","null","","","","","","","","","","",""
"","","","rating","629fa760fe340707d1dfd548","bdp_trlrn","Wed Jul 27 2022 12:19:16 GMT-0500 (Central Daylight Time)","786520","Untrustworthy,Trustworthy","image-keyboard-response","104","205336","0.0-6.0-1.49","","","1059","","trustrating_stim/white_mw033.bmp","3","","","","","","","","","","",""
"","","","ratingFB","629fa760fe340707d1dfd548","bdp_trlrn","Wed Jul 27 2022 12:19:16 GMT-0500 (Central Daylight Time)","786520","Untrustworthy,Trustworthy","image-keyboard-response","105","205547","0.0-6.0-2.49","","","null","","trustrating_stim/white_mw033.bmp","null","","","","","","","","","","",""
"","","","rating","629fa760fe340707d1dfd548","bdp_trlrn","Wed Jul 27 2022 12:19:16 GMT-0500 (Central Daylight Time)","786520","Untrustworthy,Trustworthy","image-keyboard-response","106","206969","0.0-6.0-1.50","","","1318","","trustrating_stim/white_mw048.bmp","3","","","","","","","","","","",""
"","","","ratingFB","629fa760fe340707d1dfd548","bdp_trlrn","Wed Jul 27 2022 12:19:16 GMT-0500 (Central Daylight Time)","786520","Untrustworthy,Trustworthy","image-keyboard-response","107","207176","0.0-6.0-2.50","","","null","","trustrating_stim/white_mw048.bmp","null","","","","","","","","","","",""
"","","","rating","629fa760fe340707d1dfd548","bdp_trlrn","Wed Jul 27 2022 12:19:16 GMT-0500 (Central Daylight Time)","786520","Untrustworthy,Trustworthy","image-keyboard-response","108","208478","0.0-6.0-1.51","","","1192","","trustrating_stim/white_mw099.bmp","3","","","","","","","","","","",""
"","","","ratingFB","629fa760fe340707d1dfd548","bdp_trlrn","Wed Jul 27 2022 12:19:16 GMT-0500 (Central Daylight Time)","786520","Untrustworthy,Trustworthy","image-keyboard-response","109","208683","0.0-6.0-2.51","","","null","","trustrating_stim/white_mw099.bmp","null","","","","","","","","","","",""
"","","","rating","629fa760fe340707d1dfd548","bdp_trlrn","Wed Jul 27 2022 12:19:16 GMT-0500 (Central Daylight Time)","786520","Untrustworthy,Trustworthy","image-keyboard-response","110","210902","0.0-6.0-1.52","","","2108","","trustrating_stim/white_00577_940928_fa_edt.bmp","3","","","","","","","","","","",""
"","","","ratingFB","629fa760fe340707d1dfd548","bdp_trlrn","Wed Jul 27 2022 12:19:16 GMT-0500 (Central Daylight Time)","786520","Untrustworthy,Trustworthy","image-keyboard-response","111","211111","0.0-6.0-2.52","","","null","","trustrating_stim/white_00577_940928_fa_edt.bmp","null","","","","","","","","","","",""
"","","","rating","629fa760fe340707d1dfd548","bdp_trlrn","Wed Jul 27 2022 12:19:16 GMT-0500 (Central Daylight Time)","786520","Untrustworthy,Trustworthy","image-keyboard-response","112","214926","0.0-6.0-1.53","","","3704","","trustrating_stim/white_00223_940128_fb_edt.bmp","4","","","","","","","","","","",""
"","","","ratingFB","629fa760fe340707d1dfd548","bdp_trlrn","Wed Jul 27 2022 12:19:16 GMT-0500 (Central Daylight Time)","786520","Untrustworthy,Trustworthy","image-keyboard-response","113","215138","0.0-6.0-2.53","","","null","","trustrating_stim/white_00223_940128_fb_edt.bmp","null","","","","","","","","","","",""
"","","","rating","629fa760fe340707d1dfd548","bdp_trlrn","Wed Jul 27 2022 12:19:16 GMT-0500 (Central Daylight Time)","786520","Untrustworthy,Trustworthy","image-keyboard-response","114","218572","0.0-6.0-1.54","","","3323","","trustrating_stim/white_mw035.bmp","6","","","","","","","","","","",""
"","","","ratingFB","629fa760fe340707d1dfd548","bdp_trlrn","Wed Jul 27 2022 12:19:16 GMT-0500 (Central Daylight Time)","786520","Untrustworthy,Trustworthy","image-keyboard-response","115","218781","0.0-6.0-2.54","","","null","","trustrating_stim/white_mw035.bmp","null","","","","","","","","","","",""
"","","","rating","629fa760fe340707d1dfd548","bdp_trlrn","Wed Jul 27 2022 12:19:16 GMT-0500 (Central Daylight Time)","786520","Untrustworthy,Trustworthy","image-keyboard-response","116","222274","0.0-6.0-1.55","","","3383","","trustrating_stim/white_00129_931230_fb_edt.bmp","5","","","","","","","","","","",""
"","","","ratingFB","629fa760fe340707d1dfd548","bdp_trlrn","Wed Jul 27 2022 12:19:16 GMT-0500 (Central Daylight Time)","786520","Untrustworthy,Trustworthy","image-keyboard-response","117","222487","0.0-6.0-2.55","","","null","","trustrating_stim/white_00129_931230_fb_edt.bmp","null","","","","","","","","","","",""
"","","","rating","629fa760fe340707d1dfd548","bdp_trlrn","Wed Jul 27 2022 12:19:16 GMT-0500 (Central Daylight Time)","786520","Untrustworthy,Trustworthy","image-keyboard-response","118","225495","0.0-6.0-1.56","","","2898","","trustrating_stim/white_00109_931230_fa_edt.bmp","5","","","","","","","","","","",""
"","","","ratingFB","629fa760fe340707d1dfd548","bdp_trlrn","Wed Jul 27 2022 12:19:16 GMT-0500 (Central Daylight Time)","786520","Untrustworthy,Trustworthy","image-keyboard-response","119","225702","0.0-6.0-2.56","","","null","","trustrating_stim/white_00109_931230_fa_edt.bmp","null","","","","","","","","","","",""
"","","","rating","629fa760fe340707d1dfd548","bdp_trlrn","Wed Jul 27 2022 12:19:16 GMT-0500 (Central Daylight Time)","786520","Untrustworthy,Trustworthy","image-keyboard-response","120","227260","0.0-6.0-1.57","","","1448","","trustrating_stim/white_00757_941201_fa_edt.bmp","4","","","","","","","","","","",""
"","","","ratingFB","629fa760fe340707d1dfd548","bdp_trlrn","Wed Jul 27 2022 12:19:16 GMT-0500 (Central Daylight Time)","786520","Untrustworthy,Trustworthy","image-keyboard-response","121","227475","0.0-6.0-2.57","","","null","","trustrating_stim/white_00757_941201_fa_edt.bmp","null","","","","","","","","","","",""
"","","","rating","629fa760fe340707d1dfd548","bdp_trlrn","Wed Jul 27 2022 12:19:16 GMT-0500 (Central Daylight Time)","786520","Untrustworthy,Trustworthy","image-keyboard-response","122","229477","0.0-6.0-1.58","","","1891","","trustrating_stim/white_mw063.bmp","4","","","","","","","","","","",""
"","","","ratingFB","629fa760fe340707d1dfd548","bdp_trlrn","Wed Jul 27 2022 12:19:16 GMT-0500 (Central Daylight Time)","786520","Untrustworthy,Trustworthy","image-keyboard-response","123","229693","0.0-6.0-2.58","","","null","","trustrating_stim/white_mw063.bmp","null","","","","","","","","","","",""
"","","","rating","629fa760fe340707d1dfd548","bdp_trlrn","Wed Jul 27 2022 12:19:16 GMT-0500 (Central Daylight Time)","786520","Untrustworthy,Trustworthy","image-keyboard-response","124","231008","0.0-6.0-1.59","","","1205","","trustrating_stim/white_mw097.bmp","3","","","","","","","","","","",""
"","","","ratingFB","629fa760fe340707d1dfd548","bdp_trlrn","Wed Jul 27 2022 12:19:16 GMT-0500 (Central Daylight Time)","786520","Untrustworthy,Trustworthy","image-keyboard-response","125","231225","0.0-6.0-2.59","","","null","","trustrating_stim/white_mw097.bmp","null","","","","","","","","","","",""
"","","","","629fa760fe340707d1dfd548","bdp_trlrn","Wed Jul 27 2022 12:19:16 GMT-0500 (Central Daylight Time)","786520","Untrustworthy,Trustworthy","instructions","126","235706","0.0-7.0","","[{""page_index"":0,""viewing_time"":4372}]","4372","","","","","","","","","","","","","",""
"","","","","629fa760fe340707d1dfd548","bdp_trlrn","Wed Jul 27 2022 12:19:16 GMT-0500 (Central Daylight Time)","786520","Untrustworthy,Trustworthy","instructions","127","365812","0.0-8.0","","[{""page_index"":0,""viewing_time"":29897},{""page_index"":1,""viewing_time"":16588},{""page_index"":2,""viewing_time"":9381},{""page_index"":3,""viewing_time"":12325},{""page_index"":4,""viewing_time"":9675},{""page_index"":5,""viewing_time"":12018},{""page_index"":6,""viewing_time"":27050},{""page_index"":7,""viewing_time"":13065}]","130000","","","","","","","","","","","","","",""
"","","","","629fa760fe340707d1dfd548","bdp_trlrn","Wed Jul 27 2022 12:19:16 GMT-0500 (Central Daylight Time)","786520","Untrustworthy,Trustworthy","instructions","128","387921","0.0-9.0","","[{""page_index"":0,""viewing_time"":17677},{""page_index"":1,""viewing_time"":4431}]","22108","","","","","","","","","","","","","",""
"","","","decision","629fa760fe340707d1dfd548","bdp_trlrn","Wed Jul 27 2022 12:19:16 GMT-0500 (Central Daylight Time)","786520","Untrustworthy,Trustworthy","html-keyboard-response","129","394462","0.0-10.0-1.0","","","6429","","<div class='trialDiv'><img src='trustrating_stim/white_mw063.bmp'><br><font class='baseline'><strong>Jonathan</strong><p>Choose number of points to send.</font><div class='respPicDiv'><img src='img/responseButtonOffersNo0L.png' class='respPic'></div></div>","5","1","Jonathan","4","Shared","0.8,0.2","12","0.8","trustrating_stim/white_mw063.bmp","3.5","5","1"
"","","","decisionFB","629fa760fe340707d1dfd548","bdp_trlrn","Wed Jul 27 2022 12:19:16 GMT-0500 (Central Daylight Time)","786520","Untrustworthy,Trustworthy","html-keyboard-response","130","394729","0.0-10.0-2.0","","","null","","<div class='trialDiv'><img src='trustrating_stim/white_mw063.bmp'><br><font class='baseline'><strong>Jonathan</strong><p>Choose number of points to send.</font><div class='respPicDiv'><img src='img/responseButtonOffersNo0L5.png' class='respPic'></div></div>","null","1","Jonathan","4","Shared","0.8,0.2","12","0.8","trustrating_stim/white_mw063.bmp","3.5","0","1"
"","","","feedback","629fa760fe340707d1dfd548","bdp_trlrn","Wed Jul 27 2022 12:19:16 GMT-0500 (Central Daylight Time)","786520","Untrustworthy,Trustworthy","html-keyboard-response","131","395743","0.0-10.0-3.0","","","null","","<div class='trialDiv'><img src='trustrating_stim/white_mw063.bmp'><br><font class='baseline'><strong>Jonathan</strong><p>Received: <strong>20</strong></font> &nbsp; &nbsp; &nbsp; &nbsp; &nbsp; &nbsp;<font class='posOutcome'>Shared back: <strong>10</strong></font></font><div class='respPicDiv'><img src='img/responseButtonOffersNo0_wht.png' class='respPic'></div></div>","null","1","Jonathan","4","Shared","0.8,0.2","12","0.8","trustrating_stim/white_mw063.bmp","3.5","10","1"
"","","","decision","629fa760fe340707d1dfd548","bdp_trlrn","Wed Jul 27 2022 12:19:16 GMT-0500 (Central Daylight Time)","786520","Untrustworthy,Trustworthy","html-keyboard-response","132","397912","0.0-10.0-1.1","","","2167","","<div class='trialDiv'><img src='trustrating_stim/white_00807_941205_fb_edt.bmp'><br><font class='baseline'><strong>Anthony</strong><p>Choose number of points to send.</font><div class='respPicDiv'><img src='img/responseButtonOffersNo0L.png' class='respPic'></div></div>","5","1","Anthony","3","Shared","0.8,0.35","12","0.8","trustrating_stim/white_00807_941205_fb_edt.bmp","2.5","15","2"
"","","","decisionFB","629fa760fe340707d1dfd548","bdp_trlrn","Wed Jul 27 2022 12:19:16 GMT-0500 (Central Daylight Time)","786520","Untrustworthy,Trustworthy","html-keyboard-response","133","398165","0.0-10.0-2.1","","","null","","<div class='trialDiv'><img src='trustrating_stim/white_00807_941205_fb_edt.bmp'><br><font class='baseline'><strong>Anthony</strong><p>Choose number of points to send.</font><div class='respPicDiv'><img src='img/responseButtonOffersNo0L5.png' class='respPic'></div></div>","null","1","Anthony","3","Shared","0.8,0.35","12","0.8","trustrating_stim/white_00807_941205_fb_edt.bmp","2.5","10","2"
"","","","feedback","629fa760fe340707d1dfd548","bdp_trlrn","Wed Jul 27 2022 12:19:16 GMT-0500 (Central Daylight Time)","786520","Untrustworthy,Trustworthy","html-keyboard-response","134","399178","0.0-10.0-3.1","","","null","","<div class='trialDiv'><img src='trustrating_stim/white_00807_941205_fb_edt.bmp'><br><font class='baseline'><strong>Anthony</strong><p>Received: <strong>20</strong></font> &nbsp; &nbsp; &nbsp; &nbsp; &nbsp; &nbsp;<font class='posOutcome'>Shared back: <strong>10</strong></font></font><div class='respPicDiv'><img src='img/responseButtonOffersNo0_wht.png' class='respPic'></div></div>","null","1","Anthony","3","Shared","0.8,0.35","12","0.8","trustrating_stim/white_00807_941205_fb_edt.bmp","2.5","20","2"
"","","","decision","629fa760fe340707d1dfd548","bdp_trlrn","Wed Jul 27 2022 12:19:16 GMT-0500 (Central Daylight Time)","786520","Untrustworthy,Trustworthy","html-keyboard-response","135","401399","0.0-10.0-1.2","","","2219","","<div class='trialDiv'><img src='trustrating_stim/white_00898_960530_fa_edt.bmp'><br><font class='baseline'><strong>Richard</strong><p>Choose number of points to send.</font><div class='respPicDiv'><img src='img/responseButtonOffersNo0L.png' class='respPic'></div></div>","5","1","Richard","10","Kept","0.35,0.8","14","0.35","trustrating_stim/white_00898_960530_fa_edt.bmp","7","25","3"
"","","","decisionFB","629fa760fe340707d1dfd548","bdp_trlrn","Wed Jul 27 2022 12:19:16 GMT-0500 (Central Daylight Time)","786520","Untrustworthy,Trustworthy","html-keyboard-response","136","401664","0.0-10.0-2.2","","","null","","<div class='trialDiv'><img src='trustrating_stim/white_00898_960530_fa_edt.bmp'><br><font class='baseline'><strong>Richard</strong><p>Choose number of points to send.</font><div class='respPicDiv'><img src='img/responseButtonOffersNo0L5.png' class='respPic'></div></div>","null","1","Richard","10","Kept","0.35,0.8","14","0.35","trustrating_stim/white_00898_960530_fa_edt.bmp","7","20","3"
"","","","feedback","629fa760fe340707d1dfd548","bdp_trlrn","Wed Jul 27 2022 12:19:16 GMT-0500 (Central Daylight Time)","786520","Untrustworthy,Trustworthy","html-keyboard-response","137","402679","0.0-10.0-3.2","","","null","","<div class='trialDiv'><img src='trustrating_stim/white_00898_960530_fa_edt.bmp'><br><font class='baseline'><strong>Richard</strong><p>Received: <strong>20</strong></font> &nbsp; &nbsp; &nbsp; &nbsp; &nbsp; &nbsp;<font class='negOutcome'>Shared back: <strong>0</strong></font></font><div class='respPicDiv'><img src='img/responseButtonOffersNo0_wht.png' class='respPic'></div></div>","null","1","Richard","10","Kept","0.35,0.8","14","0.35","trustrating_stim/white_00898_960530_fa_edt.bmp","7","20","3"
"","","","decision","629fa760fe340707d1dfd548","bdp_trlrn","Wed Jul 27 2022 12:19:16 GMT-0500 (Central Daylight Time)","786520","Untrustworthy,Trustworthy","html-keyboard-response","138","405783","0.0-10.0-1.3","","","3102","","<div class='trialDiv'><img src='trustrating_stim/white_mw063.bmp'><br><font class='baseline'><strong>Jonathan</strong><p>Choose number of points to send.</font><div class='respPicDiv'><img src='img/responseButtonOffersNo0L.png' class='respPic'></div></div>","5","2","Jonathan","4","Kept","0.8,0.2","12","0.8","trustrating_stim/white_mw063.bmp","3.5","25","4"
"","","","decisionFB","629fa760fe340707d1dfd548","bdp_trlrn","Wed Jul 27 2022 12:19:16 GMT-0500 (Central Daylight Time)","786520","Untrustworthy,Trustworthy","html-keyboard-response","139","406046","0.0-10.0-2.3","","","null","","<div class='trialDiv'><img src='trustrating_stim/white_mw063.bmp'><br><font class='baseline'><strong>Jonathan</strong><p>Choose number of points to send.</font><div class='respPicDiv'><img src='img/responseButtonOffersNo0L5.png' class='respPic'></div></div>","null","2","Jonathan","4","Kept","0.8,0.2","12","0.8","trustrating_stim/white_mw063.bmp","3.5","20","4"
"","","","feedback","629fa760fe340707d1dfd548","bdp_trlrn","Wed Jul 27 2022 12:19:16 GMT-0500 (Central Daylight Time)","786520","Untrustworthy,Trustworthy","html-keyboard-response","140","407055","0.0-10.0-3.3","","","null","","<div class='trialDiv'><img src='trustrating_stim/white_mw063.bmp'><br><font class='baseline'><strong>Jonathan</strong><p>Received: <strong>20</strong></font> &nbsp; &nbsp; &nbsp; &nbsp; &nbsp; &nbsp;<font class='negOutcome'>Shared back: <strong>0</strong></font></font><div class='respPicDiv'><img src='img/responseButtonOffersNo0_wht.png' class='respPic'></div></div>","null","2","Jonathan","4","Kept","0.8,0.2","12","0.8","trustrating_stim/white_mw063.bmp","3.5","20","4"
"","","","decision","629fa760fe340707d1dfd548","bdp_trlrn","Wed Jul 27 2022 12:19:16 GMT-0500 (Central Daylight Time)","786520","Untrustworthy,Trustworthy","html-keyboard-response","141","410838","0.0-10.0-1.4","","","3781","","<div class='trialDiv'><img src='trustrating_stim/white_00898_960530_fa_edt.bmp'><br><font class='baseline'><strong>Richard</strong><p>Choose number of points to send.</font><div class='respPicDiv'><img src='img/responseButtonOffersNo0L.png' class='respPic'></div></div>","3","2","Richard","10","Kept","0.35,0.8","14","0.35","trustrating_stim/white_00898_960530_fa_edt.bmp","7","25","5"
"","","","decisionFB","629fa760fe340707d1dfd548","bdp_trlrn","Wed Jul 27 2022 12:19:16 GMT-0500 (Central Daylight Time)","786520","Untrustworthy,Trustworthy","html-keyboard-response","142","411092","0.0-10.0-2.4","","","null","","<div class='trialDiv'><img src='trustrating_stim/white_00898_960530_fa_edt.bmp'><br><font class='baseline'><strong>Richard</strong><p>Choose number of points to send.</font><div class='respPicDiv'><img src='img/responseButtonOffersNo0L3.png' class='respPic'></div></div>","null","2","Richard","10","Kept","0.35,0.8","14","0.35","trustrating_stim/white_00898_960530_fa_edt.bmp","7","22","5"
"","","","feedback","629fa760fe340707d1dfd548","bdp_trlrn","Wed Jul 27 2022 12:19:16 GMT-0500 (Central Daylight Time)","786520","Untrustworthy,Trustworthy","html-keyboard-response","143","412097","0.0-10.0-3.4","","","null","","<div class='trialDiv'><img src='trustrating_stim/white_00898_960530_fa_edt.bmp'><br><font class='baseline'><strong>Richard</strong><p>Received: <strong>12</strong></font> &nbsp; &nbsp; &nbsp; &nbsp; &nbsp; &nbsp;<font class='negOutcome'>Shared back: <strong>0</strong></font></font><div class='respPicDiv'><img src='img/responseButtonOffersNo0_wht.png' class='respPic'></div></div>","null","2","Richard","10","Kept","0.35,0.8","14","0.35","trustrating_stim/white_00898_960530_fa_edt.bmp","7","22","5"
"","","","decision","629fa760fe340707d1dfd548","bdp_trlrn","Wed Jul 27 2022 12:19:16 GMT-0500 (Central Daylight Time)","786520","Untrustworthy,Trustworthy","html-keyboard-response","144","413796","0.0-10.0-1.5","","","1698","","<div class='trialDiv'><img src='trustrating_stim/white_00807_941205_fb_edt.bmp'><br><font class='baseline'><strong>Anthony</strong><p>Choose number of points to send.</font><div class='respPicDiv'><img src='img/responseButtonOffersNo0L.png' class='respPic'></div></div>","5","2","Anthony","3","Shared","0.8,0.35","12","0.8","trustrating_stim/white_00807_941205_fb_edt.bmp","2.5","27","6"
"","","","decisionFB","629fa760fe340707d1dfd548","bdp_trlrn","Wed Jul 27 2022 12:19:16 GMT-0500 (Central Daylight Time)","786520","Untrustworthy,Trustworthy","html-keyboard-response","145","414050","0.0-10.0-2.5","","","null","","<div class='trialDiv'><img src='trustrating_stim/white_00807_941205_fb_edt.bmp'><br><font class='baseline'><strong>Anthony</strong><p>Choose number of points to send.</font><div class='respPicDiv'><img src='img/responseButtonOffersNo0L5.png' class='respPic'></div></div>","null","2","Anthony","3","Shared","0.8,0.35","12","0.8","trustrating_stim/white_00807_941205_fb_edt.bmp","2.5","22","6"
"","","","feedback","629fa760fe340707d1dfd548","bdp_trlrn","Wed Jul 27 2022 12:19:16 GMT-0500 (Central Daylight Time)","786520","Untrustworthy,Trustworthy","html-keyboard-response","146","415061","0.0-10.0-3.5","","","null","","<div class='trialDiv'><img src='trustrating_stim/white_00807_941205_fb_edt.bmp'><br><font class='baseline'><strong>Anthony</strong><p>Received: <strong>20</strong></font> &nbsp; &nbsp; &nbsp; &nbsp; &nbsp; &nbsp;<font class='posOutcome'>Shared back: <strong>10</strong></font></font><div class='respPicDiv'><img src='img/responseButtonOffersNo0_wht.png' class='respPic'></div></div>","null","2","Anthony","3","Shared","0.8,0.35","12","0.8","trustrating_stim/white_00807_941205_fb_edt.bmp","2.5","32","6"
"","","","decision","629fa760fe340707d1dfd548","bdp_trlrn","Wed Jul 27 2022 12:19:16 GMT-0500 (Central Daylight Time)","786520","Untrustworthy,Trustworthy","html-keyboard-response","147","416925","0.0-10.0-1.6","","","1863","","<div class='trialDiv'><img src='trustrating_stim/white_00898_960530_fa_edt.bmp'><br><font class='baseline'><strong>Richard</strong><p>Choose number of points to send.</font><div class='respPicDiv'><img src='img/responseButtonOffersNo0L.png' class='respPic'></div></div>","1","3","Richard","10","Kept","0.35,0.8","14","0.35","trustrating_stim/white_00898_960530_fa_edt.bmp","7","37","7"
"","","","decisionFB","629fa760fe340707d1dfd548","bdp_trlrn","Wed Jul 27 2022 12:19:16 GMT-0500 (Central Daylight Time)","786520","Untrustworthy,Trustworthy","html-keyboard-response","148","417191","0.0-10.0-2.6","","","null","","<div class='trialDiv'><img src='trustrating_stim/white_00898_960530_fa_edt.bmp'><br><font class='baseline'><strong>Richard</strong><p>Choose number of points to send.</font><div class='respPicDiv'><img src='img/responseButtonOffersNo0L1.png' class='respPic'></div></div>","null","3","Richard","10","Kept","0.35,0.8","14","0.35","trustrating_stim/white_00898_960530_fa_edt.bmp","7","36","7"
"","","","feedback","629fa760fe340707d1dfd548","bdp_trlrn","Wed Jul 27 2022 12:19:16 GMT-0500 (Central Daylight Time)","786520","Untrustworthy,Trustworthy","html-keyboard-response","149","418199","0.0-10.0-3.6","","","null","","<div class='trialDiv'><img src='trustrating_stim/white_00898_960530_fa_edt.bmp'><br><font class='baseline'><strong>Richard</strong><p>Received: <strong>4</strong></font> &nbsp; &nbsp; &nbsp; &nbsp; &nbsp; &nbsp;<font class='negOutcome'>Shared back: <strong>0</strong></font></font><div class='respPicDiv'><img src='img/responseButtonOffersNo0_wht.png' class='respPic'></div></div>","null","3","Richard","10","Kept","0.35,0.8","14","0.35","trustrating_stim/white_00898_960530_fa_edt.bmp","7","36","7"
"","","","decision","629fa760fe340707d1dfd548","bdp_trlrn","Wed Jul 27 2022 12:19:16 GMT-0500 (Central Daylight Time)","786520","Untrustworthy,Trustworthy","html-keyboard-response","150","419843","0.0-10.0-1.7","","","1642","","<div class='trialDiv'><img src='trustrating_stim/white_00807_941205_fb_edt.bmp'><br><font class='baseline'><strong>Anthony</strong><p>Choose number of points to send.</font><div class='respPicDiv'><img src='img/responseButtonOffersNo0L.png' class='respPic'></div></div>","5","3","Anthony","3","Shared","0.8,0.35","12","0.8","trustrating_stim/white_00807_941205_fb_edt.bmp","2.5","41","8"
"","","","decisionFB","629fa760fe340707d1dfd548","bdp_trlrn","Wed Jul 27 2022 12:19:16 GMT-0500 (Central Daylight Time)","786520","Untrustworthy,Trustworthy","html-keyboard-response","151","420096","0.0-10.0-2.7","","","null","","<div class='trialDiv'><img src='trustrating_stim/white_00807_941205_fb_edt.bmp'><br><font class='baseline'><strong>Anthony</strong><p>Choose number of points to send.</font><div class='respPicDiv'><img src='img/responseButtonOffersNo0L5.png' class='respPic'></div></div>","null","3","Anthony","3","Shared","0.8,0.35","12","0.8","trustrating_stim/white_00807_941205_fb_edt.bmp","2.5","36","8"
"","","","feedback","629fa760fe340707d1dfd548","bdp_trlrn","Wed Jul 27 2022 12:19:16 GMT-0500 (Central Daylight Time)","786520","Untrustworthy,Trustworthy","html-keyboard-response","152","421111","0.0-10.0-3.7","","","null","","<div class='trialDiv'><img src='trustrating_stim/white_00807_941205_fb_edt.bmp'><br><font class='baseline'><strong>Anthony</strong><p>Received: <strong>20</strong></font> &nbsp; &nbsp; &nbsp; &nbsp; &nbsp; &nbsp;<font class='posOutcome'>Shared back: <strong>10</strong></font></font><div class='respPicDiv'><img src='img/responseButtonOffersNo0_wht.png' class='respPic'></div></div>","null","3","Anthony","3","Shared","0.8,0.35","12","0.8","trustrating_stim/white_00807_941205_fb_edt.bmp","2.5","46","8"
"","","","decision","629fa760fe340707d1dfd548","bdp_trlrn","Wed Jul 27 2022 12:19:16 GMT-0500 (Central Daylight Time)","786520","Untrustworthy,Trustworthy","html-keyboard-response","153","422526","0.0-10.0-1.8","","","1411","","<div class='trialDiv'><img src='trustrating_stim/white_mw063.bmp'><br><font class='baseline'><strong>Jonathan</strong><p>Choose number of points to send.</font><div class='respPicDiv'><img src='img/responseButtonOffersNo0L.png' class='respPic'></div></div>","3","3","Jonathan","4","Shared","0.8,0.2","12","0.8","trustrating_stim/white_mw063.bmp","3.5","51","9"
"","","","decisionFB","629fa760fe340707d1dfd548","bdp_trlrn","Wed Jul 27 2022 12:19:16 GMT-0500 (Central Daylight Time)","786520","Untrustworthy,Trustworthy","html-keyboard-response","154","422784","0.0-10.0-2.8","","","null","","<div class='trialDiv'><img src='trustrating_stim/white_mw063.bmp'><br><font class='baseline'><strong>Jonathan</strong><p>Choose number of points to send.</font><div class='respPicDiv'><img src='img/responseButtonOffersNo0L3.png' class='respPic'></div></div>","null","3","Jonathan","4","Shared","0.8,0.2","12","0.8","trustrating_stim/white_mw063.bmp","3.5","48","9"
"","","","feedback","629fa760fe340707d1dfd548","bdp_trlrn","Wed Jul 27 2022 12:19:16 GMT-0500 (Central Daylight Time)","786520","Untrustworthy,Trustworthy","html-keyboard-response","155","423799","0.0-10.0-3.8","","","null","","<div class='trialDiv'><img src='trustrating_stim/white_mw063.bmp'><br><font class='baseline'><strong>Jonathan</strong><p>Received: <strong>12</strong></font> &nbsp; &nbsp; &nbsp; &nbsp; &nbsp; &nbsp;<font class='posOutcome'>Shared back: <strong>6</strong></font></font><div class='respPicDiv'><img src='img/responseButtonOffersNo0_wht.png' class='respPic'></div></div>","null","3","Jonathan","4","Shared","0.8,0.2","12","0.8","trustrating_stim/white_mw063.bmp","3.5","54","9"
"","","","decision","629fa760fe340707d1dfd548","bdp_trlrn","Wed Jul 27 2022 12:19:16 GMT-0500 (Central Daylight Time)","786520","Untrustworthy,Trustworthy","html-keyboard-response","156","425834","0.0-10.0-1.9","","","2033","","<div class='trialDiv'><img src='trustrating_stim/white_00898_960530_fa_edt.bmp'><br><font class='baseline'><strong>Richard</strong><p>Choose number of points to send.</font><div class='respPicDiv'><img src='img/responseButtonOffersNo0L.png' class='respPic'></div></div>","1","4","Richard","10","Kept","0.35,0.8","14","0.35","trustrating_stim/white_00898_960530_fa_edt.bmp","7","59","10"
"","","","decisionFB","629fa760fe340707d1dfd548","bdp_trlrn","Wed Jul 27 2022 12:19:16 GMT-0500 (Central Daylight Time)","786520","Untrustworthy,Trustworthy","html-keyboard-response","157","426099","0.0-10.0-2.9","","","null","","<div class='trialDiv'><img src='trustrating_stim/white_00898_960530_fa_edt.bmp'><br><font class='baseline'><strong>Richard</strong><p>Choose number of points to send.</font><div class='respPicDiv'><img src='img/responseButtonOffersNo0L1.png' class='respPic'></div></div>","null","4","Richard","10","Kept","0.35,0.8","14","0.35","trustrating_stim/white_00898_960530_fa_edt.bmp","7","58","10"
"","","","feedback","629fa760fe340707d1dfd548","bdp_trlrn","Wed Jul 27 2022 12:19:16 GMT-0500 (Central Daylight Time)","786520","Untrustworthy,Trustworthy","html-keyboard-response","158","427106","0.0-10.0-3.9","","","null","","<div class='trialDiv'><img src='trustrating_stim/white_00898_960530_fa_edt.bmp'><br><font class='baseline'><strong>Richard</strong><p>Received: <strong>4</strong></font> &nbsp; &nbsp; &nbsp; &nbsp; &nbsp; &nbsp;<font class='negOutcome'>Shared back: <strong>0</strong></font></font><div class='respPicDiv'><img src='img/responseButtonOffersNo0_wht.png' class='respPic'></div></div>","null","4","Richard","10","Kept","0.35,0.8","14","0.35","trustrating_stim/white_00898_960530_fa_edt.bmp","7","58","10"
"","","","decision","629fa760fe340707d1dfd548","bdp_trlrn","Wed Jul 27 2022 12:19:16 GMT-0500 (Central Daylight Time)","786520","Untrustworthy,Trustworthy","html-keyboard-response","159","428287","0.0-10.0-1.10","","","1180","","<div class='trialDiv'><img src='trustrating_stim/white_00807_941205_fb_edt.bmp'><br><font class='baseline'><strong>Anthony</strong><p>Choose number of points to send.</font><div class='respPicDiv'><img src='img/responseButtonOffersNo0L.png' class='respPic'></div></div>","5","4","Anthony","3","Shared","0.8,0.35","12","0.8","trustrating_stim/white_00807_941205_fb_edt.bmp","2.5","63","11"
"","","","decisionFB","629fa760fe340707d1dfd548","bdp_trlrn","Wed Jul 27 2022 12:19:16 GMT-0500 (Central Daylight Time)","786520","Untrustworthy,Trustworthy","html-keyboard-response","160","428545","0.0-10.0-2.10","","","null","","<div class='trialDiv'><img src='trustrating_stim/white_00807_941205_fb_edt.bmp'><br><font class='baseline'><strong>Anthony</strong><p>Choose number of points to send.</font><div class='respPicDiv'><img src='img/responseButtonOffersNo0L5.png' class='respPic'></div></div>","null","4","Anthony","3","Shared","0.8,0.35","12","0.8","trustrating_stim/white_00807_941205_fb_edt.bmp","2.5","58","11"
"","","","feedback","629fa760fe340707d1dfd548","bdp_trlrn","Wed Jul 27 2022 12:19:16 GMT-0500 (Central Daylight Time)","786520","Untrustworthy,Trustworthy","html-keyboard-response","161","429561","0.0-10.0-3.10","","","null","","<div class='trialDiv'><img src='trustrating_stim/white_00807_941205_fb_edt.bmp'><br><font class='baseline'><strong>Anthony</strong><p>Received: <strong>20</strong></font> &nbsp; &nbsp; &nbsp; &nbsp; &nbsp; &nbsp;<font class='posOutcome'>Shared back: <strong>10</strong></font></font><div class='respPicDiv'><img src='img/responseButtonOffersNo0_wht.png' class='respPic'></div></div>","null","4","Anthony","3","Shared","0.8,0.35","12","0.8","trustrating_stim/white_00807_941205_fb_edt.bmp","2.5","68","11"
"","","","decision","629fa760fe340707d1dfd548","bdp_trlrn","Wed Jul 27 2022 12:19:16 GMT-0500 (Central Daylight Time)","786520","Untrustworthy,Trustworthy","html-keyboard-response","162","431458","0.0-10.0-1.11","","","1895","","<div class='trialDiv'><img src='trustrating_stim/white_mw063.bmp'><br><font class='baseline'><strong>Jonathan</strong><p>Choose number of points to send.</font><div class='respPicDiv'><img src='img/responseButtonOffersNo0L.png' class='respPic'></div></div>","3","4","Jonathan","4","Kept","0.8,0.2","12","0.8","trustrating_stim/white_mw063.bmp","3.5","73","12"
"","","","decisionFB","629fa760fe340707d1dfd548","bdp_trlrn","Wed Jul 27 2022 12:19:16 GMT-0500 (Central Daylight Time)","786520","Untrustworthy,Trustworthy","html-keyboard-response","163","431724","0.0-10.0-2.11","","","null","","<div class='trialDiv'><img src='trustrating_stim/white_mw063.bmp'><br><font class='baseline'><strong>Jonathan</strong><p>Choose number of points to send.</font><div class='respPicDiv'><img src='img/responseButtonOffersNo0L3.png' class='respPic'></div></div>","null","4","Jonathan","4","Kept","0.8,0.2","12","0.8","trustrating_stim/white_mw063.bmp","3.5","70","12"
"","","","feedback","629fa760fe340707d1dfd548","bdp_trlrn","Wed Jul 27 2022 12:19:16 GMT-0500 (Central Daylight Time)","786520","Untrustworthy,Trustworthy","html-keyboard-response","164","432730","0.0-10.0-3.11","","","null","","<div class='trialDiv'><img src='trustrating_stim/white_mw063.bmp'><br><font class='baseline'><strong>Jonathan</strong><p>Received: <strong>12</strong></font> &nbsp; &nbsp; &nbsp; &nbsp; &nbsp; &nbsp;<font class='negOutcome'>Shared back: <strong>0</strong></font></font><div class='respPicDiv'><img src='img/responseButtonOffersNo0_wht.png' class='respPic'></div></div>","null","4","Jonathan","4","Kept","0.8,0.2","12","0.8","trustrating_stim/white_mw063.bmp","3.5","70","12"
"","","","decision","629fa760fe340707d1dfd548","bdp_trlrn","Wed Jul 27 2022 12:19:16 GMT-0500 (Central Daylight Time)","786520","Untrustworthy,Trustworthy","html-keyboard-response","165","433508","0.0-10.0-1.12","","","777","","<div class='trialDiv'><img src='trustrating_stim/white_00807_941205_fb_edt.bmp'><br><font class='baseline'><strong>Anthony</strong><p>Choose number of points to send.</font><div class='respPicDiv'><img src='img/responseButtonOffersNo0L.png' class='respPic'></div></div>","5","5","Anthony","3","Kept","0.8,0.35","12","0.8","trustrating_stim/white_00807_941205_fb_edt.bmp","2.5","75","13"
"","","","decisionFB","629fa760fe340707d1dfd548","bdp_trlrn","Wed Jul 27 2022 12:19:16 GMT-0500 (Central Daylight Time)","786520","Untrustworthy,Trustworthy","html-keyboard-response","166","433765","0.0-10.0-2.12","","","null","","<div class='trialDiv'><img src='trustrating_stim/white_00807_941205_fb_edt.bmp'><br><font class='baseline'><strong>Anthony</strong><p>Choose number of points to send.</font><div class='respPicDiv'><img src='img/responseButtonOffersNo0L5.png' class='respPic'></div></div>","null","5","Anthony","3","Kept","0.8,0.35","12","0.8","trustrating_stim/white_00807_941205_fb_edt.bmp","2.5","70","13"
"","","","feedback","629fa760fe340707d1dfd548","bdp_trlrn","Wed Jul 27 2022 12:19:16 GMT-0500 (Central Daylight Time)","786520","Untrustworthy,Trustworthy","html-keyboard-response","167","434780","0.0-10.0-3.12","","","null","","<div class='trialDiv'><img src='trustrating_stim/white_00807_941205_fb_edt.bmp'><br><font class='baseline'><strong>Anthony</strong><p>Received: <strong>20</strong></font> &nbsp; &nbsp; &nbsp; &nbsp; &nbsp; &nbsp;<font class='negOutcome'>Shared back: <strong>0</strong></font></font><div class='respPicDiv'><img src='img/responseButtonOffersNo0_wht.png' class='respPic'></div></div>","null","5","Anthony","3","Kept","0.8,0.35","12","0.8","trustrating_stim/white_00807_941205_fb_edt.bmp","2.5","70","13"
"","","","decision","629fa760fe340707d1dfd548","bdp_trlrn","Wed Jul 27 2022 12:19:16 GMT-0500 (Central Daylight Time)","786520","Untrustworthy,Trustworthy","html-keyboard-response","168","435801","0.0-10.0-1.13","","","1020","","<div class='trialDiv'><img src='trustrating_stim/white_00898_960530_fa_edt.bmp'><br><font class='baseline'><strong>Richard</strong><p>Choose number of points to send.</font><div class='respPicDiv'><img src='img/responseButtonOffersNo0L.png' class='respPic'></div></div>","1","5","Richard","10","Shared","0.35,0.8","14","0.35","trustrating_stim/white_00898_960530_fa_edt.bmp","7","75","14"
"","","","decisionFB","629fa760fe340707d1dfd548","bdp_trlrn","Wed Jul 27 2022 12:19:16 GMT-0500 (Central Daylight Time)","786520","Untrustworthy,Trustworthy","html-keyboard-response","169","436068","0.0-10.0-2.13","","","null","","<div class='trialDiv'><img src='trustrating_stim/white_00898_960530_fa_edt.bmp'><br><font class='baseline'><strong>Richard</strong><p>Choose number of points to send.</font><div class='respPicDiv'><img src='img/responseButtonOffersNo0L1.png' class='respPic'></div></div>","null","5","Richard","10","Shared","0.35,0.8","14","0.35","trustrating_stim/white_00898_960530_fa_edt.bmp","7","74","14"
"","","","feedback","629fa760fe340707d1dfd548","bdp_trlrn","Wed Jul 27 2022 12:19:16 GMT-0500 (Central Daylight Time)","786520","Untrustworthy,Trustworthy","html-keyboard-response","170","437069","0.0-10.0-3.13","","","null","","<div class='trialDiv'><img src='trustrating_stim/white_00898_960530_fa_edt.bmp'><br><font class='baseline'><strong>Richard</strong><p>Received: <strong>4</strong></font> &nbsp; &nbsp; &nbsp; &nbsp; &nbsp; &nbsp;<font class='posOutcome'>Shared back: <strong>2</strong></font></font><div class='respPicDiv'><img src='img/responseButtonOffersNo0_wht.png' class='respPic'></div></div>","null","5","Richard","10","Shared","0.35,0.8","14","0.35","trustrating_stim/white_00898_960530_fa_edt.bmp","7","76","14"
"","","","decision","629fa760fe340707d1dfd548","bdp_trlrn","Wed Jul 27 2022 12:19:16 GMT-0500 (Central Daylight Time)","786520","Untrustworthy,Trustworthy","html-keyboard-response","171","441614","0.0-10.0-1.14","","","4543","","<div class='trialDiv'><img src='trustrating_stim/white_mw063.bmp'><br><font class='baseline'><strong>Jonathan</strong><p>Choose number of points to send.</font><div class='respPicDiv'><img src='img/responseButtonOffersNo0L.png' class='respPic'></div></div>","1","5","Jonathan","4","Shared","0.8,0.2","12","0.8","trustrating_stim/white_mw063.bmp","3.5","81","15"
"","","","decisionFB","629fa760fe340707d1dfd548","bdp_trlrn","Wed Jul 27 2022 12:19:16 GMT-0500 (Central Daylight Time)","786520","Untrustworthy,Trustworthy","html-keyboard-response","172","441871","0.0-10.0-2.14","","","null","","<div class='trialDiv'><img src='trustrating_stim/white_mw063.bmp'><br><font class='baseline'><strong>Jonathan</strong><p>Choose number of points to send.</font><div class='respPicDiv'><img src='img/responseButtonOffersNo0L1.png' class='respPic'></div></div>","null","5","Jonathan","4","Shared","0.8,0.2","12","0.8","trustrating_stim/white_mw063.bmp","3.5","80","15"
"","","","feedback","629fa760fe340707d1dfd548","bdp_trlrn","Wed Jul 27 2022 12:19:16 GMT-0500 (Central Daylight Time)","786520","Untrustworthy,Trustworthy","html-keyboard-response","173","442886","0.0-10.0-3.14","","","null","","<div class='trialDiv'><img src='trustrating_stim/white_mw063.bmp'><br><font class='baseline'><strong>Jonathan</strong><p>Received: <strong>4</strong></font> &nbsp; &nbsp; &nbsp; &nbsp; &nbsp; &nbsp;<font class='posOutcome'>Shared back: <strong>2</strong></font></font><div class='respPicDiv'><img src='img/responseButtonOffersNo0_wht.png' class='respPic'></div></div>","null","5","Jonathan","4","Shared","0.8,0.2","12","0.8","trustrating_stim/white_mw063.bmp","3.5","82","15"
"","","","decision","629fa760fe340707d1dfd548","bdp_trlrn","Wed Jul 27 2022 12:19:16 GMT-0500 (Central Daylight Time)","786520","Untrustworthy,Trustworthy","html-keyboard-response","174","444350","0.0-10.0-1.15","","","1463","","<div class='trialDiv'><img src='trustrating_stim/white_00898_960530_fa_edt.bmp'><br><font class='baseline'><strong>Richard</strong><p>Choose number of points to send.</font><div class='respPicDiv'><img src='img/responseButtonOffersNo0L.png' class='respPic'></div></div>","1","6","Richard","10","Shared","0.35,0.8","14","0.35","trustrating_stim/white_00898_960530_fa_edt.bmp","7","87","16"
"","","","decisionFB","629fa760fe340707d1dfd548","bdp_trlrn","Wed Jul 27 2022 12:19:16 GMT-0500 (Central Daylight Time)","786520","Untrustworthy,Trustworthy","html-keyboard-response","175","444606","0.0-10.0-2.15","","","null","","<div class='trialDiv'><img src='trustrating_stim/white_00898_960530_fa_edt.bmp'><br><font class='baseline'><strong>Richard</strong><p>Choose number of points to send.</font><div class='respPicDiv'><img src='img/responseButtonOffersNo0L1.png' class='respPic'></div></div>","null","6","Richard","10","Shared","0.35,0.8","14","0.35","trustrating_stim/white_00898_960530_fa_edt.bmp","7","86","16"
"","","","feedback","629fa760fe340707d1dfd548","bdp_trlrn","Wed Jul 27 2022 12:19:16 GMT-0500 (Central Daylight Time)","786520","Untrustworthy,Trustworthy","html-keyboard-response","176","445618","0.0-10.0-3.15","","","null","","<div class='trialDiv'><img src='trustrating_stim/white_00898_960530_fa_edt.bmp'><br><font class='baseline'><strong>Richard</strong><p>Received: <strong>4</strong></font> &nbsp; &nbsp; &nbsp; &nbsp; &nbsp; &nbsp;<font class='posOutcome'>Shared back: <strong>2</strong></font></font><div class='respPicDiv'><img src='img/responseButtonOffersNo0_wht.png' class='respPic'></div></div>","null","6","Richard","10","Shared","0.35,0.8","14","0.35","trustrating_stim/white_00898_960530_fa_edt.bmp","7","88","16"
"","","","decision","629fa760fe340707d1dfd548","bdp_trlrn","Wed Jul 27 2022 12:19:16 GMT-0500 (Central Daylight Time)","786520","Untrustworthy,Trustworthy","html-keyboard-response","177","447160","0.0-10.0-1.16","","","1541","","<div class='trialDiv'><img src='trustrating_stim/white_00807_941205_fb_edt.bmp'><br><font class='baseline'><strong>Anthony</strong><p>Choose number of points to send.</font><div class='respPicDiv'><img src='img/responseButtonOffersNo0L.png' class='respPic'></div></div>","5","6","Anthony","3","Shared","0.8,0.35","12","0.8","trustrating_stim/white_00807_941205_fb_edt.bmp","2.5","93","17"
"","","","decisionFB","629fa760fe340707d1dfd548","bdp_trlrn","Wed Jul 27 2022 12:19:16 GMT-0500 (Central Daylight Time)","786520","Untrustworthy,Trustworthy","html-keyboard-response","178","447415","0.0-10.0-2.16","","","null","","<div class='trialDiv'><img src='trustrating_stim/white_00807_941205_fb_edt.bmp'><br><font class='baseline'><strong>Anthony</strong><p>Choose number of points to send.</font><div class='respPicDiv'><img src='img/responseButtonOffersNo0L5.png' class='respPic'></div></div>","null","6","Anthony","3","Shared","0.8,0.35","12","0.8","trustrating_stim/white_00807_941205_fb_edt.bmp","2.5","88","17"
"","","","feedback","629fa760fe340707d1dfd548","bdp_trlrn","Wed Jul 27 2022 12:19:16 GMT-0500 (Central Daylight Time)","786520","Untrustworthy,Trustworthy","html-keyboard-response","179","448424","0.0-10.0-3.16","","","null","","<div class='trialDiv'><img src='trustrating_stim/white_00807_941205_fb_edt.bmp'><br><font class='baseline'><strong>Anthony</strong><p>Received: <strong>20</strong></font> &nbsp; &nbsp; &nbsp; &nbsp; &nbsp; &nbsp;<font class='posOutcome'>Shared back: <strong>10</strong></font></font><div class='respPicDiv'><img src='img/responseButtonOffersNo0_wht.png' class='respPic'></div></div>","null","6","Anthony","3","Shared","0.8,0.35","12","0.8","trustrating_stim/white_00807_941205_fb_edt.bmp","2.5","98","17"
"","","","decision","629fa760fe340707d1dfd548","bdp_trlrn","Wed Jul 27 2022 12:19:16 GMT-0500 (Central Daylight Time)","786520","Untrustworthy,Trustworthy","html-keyboard-response","180","449957","0.0-10.0-1.17","","","1532","","<div class='trialDiv'><img src='trustrating_stim/white_mw063.bmp'><br><font class='baseline'><strong>Jonathan</strong><p>Choose number of points to send.</font><div class='respPicDiv'><img src='img/responseButtonOffersNo0L.png' class='respPic'></div></div>","3","6","Jonathan","4","Shared","0.8,0.2","12","0.8","trustrating_stim/white_mw063.bmp","3.5","103","18"
"","","","decisionFB","629fa760fe340707d1dfd548","bdp_trlrn","Wed Jul 27 2022 12:19:16 GMT-0500 (Central Daylight Time)","786520","Untrustworthy,Trustworthy","html-keyboard-response","181","450214","0.0-10.0-2.17","","","null","","<div class='trialDiv'><img src='trustrating_stim/white_mw063.bmp'><br><font class='baseline'><strong>Jonathan</strong><p>Choose number of points to send.</font><div class='respPicDiv'><img src='img/responseButtonOffersNo0L3.png' class='respPic'></div></div>","null","6","Jonathan","4","Shared","0.8,0.2","12","0.8","trustrating_stim/white_mw063.bmp","3.5","100","18"
"","","","feedback","629fa760fe340707d1dfd548","bdp_trlrn","Wed Jul 27 2022 12:19:16 GMT-0500 (Central Daylight Time)","786520","Untrustworthy,Trustworthy","html-keyboard-response","182","451223","0.0-10.0-3.17","","","null","","<div class='trialDiv'><img src='trustrating_stim/white_mw063.bmp'><br><font class='baseline'><strong>Jonathan</strong><p>Received: <strong>12</strong></font> &nbsp; &nbsp; &nbsp; &nbsp; &nbsp; &nbsp;<font class='posOutcome'>Shared back: <strong>6</strong></font></font><div class='respPicDiv'><img src='img/responseButtonOffersNo0_wht.png' class='respPic'></div></div>","null","6","Jonathan","4","Shared","0.8,0.2","12","0.8","trustrating_stim/white_mw063.bmp","3.5","106","18"
"","","","decision","629fa760fe340707d1dfd548","bdp_trlrn","Wed Jul 27 2022 12:19:16 GMT-0500 (Central Daylight Time)","786520","Untrustworthy,Trustworthy","html-keyboard-response","183","452064","0.0-10.0-1.18","","","839","","<div class='trialDiv'><img src='trustrating_stim/white_00807_941205_fb_edt.bmp'><br><font class='baseline'><strong>Anthony</strong><p>Choose number of points to send.</font><div class='respPicDiv'><img src='img/responseButtonOffersNo0L.png' class='respPic'></div></div>","5","7","Anthony","3","Shared","0.8,0.35","12","0.8","trustrating_stim/white_00807_941205_fb_edt.bmp","2.5","111","19"
"","","","decisionFB","629fa760fe340707d1dfd548","bdp_trlrn","Wed Jul 27 2022 12:19:16 GMT-0500 (Central Daylight Time)","786520","Untrustworthy,Trustworthy","html-keyboard-response","184","452318","0.0-10.0-2.18","","","null","","<div class='trialDiv'><img src='trustrating_stim/white_00807_941205_fb_edt.bmp'><br><font class='baseline'><strong>Anthony</strong><p>Choose number of points to send.</font><div class='respPicDiv'><img src='img/responseButtonOffersNo0L5.png' class='respPic'></div></div>","null","7","Anthony","3","Shared","0.8,0.35","12","0.8","trustrating_stim/white_00807_941205_fb_edt.bmp","2.5","106","19"
"","","","feedback","629fa760fe340707d1dfd548","bdp_trlrn","Wed Jul 27 2022 12:19:16 GMT-0500 (Central Daylight Time)","786520","Untrustworthy,Trustworthy","html-keyboard-response","185","453333","0.0-10.0-3.18","","","null","","<div class='trialDiv'><img src='trustrating_stim/white_00807_941205_fb_edt.bmp'><br><font class='baseline'><strong>Anthony</strong><p>Received: <strong>20</strong></font> &nbsp; &nbsp; &nbsp; &nbsp; &nbsp; &nbsp;<font class='posOutcome'>Shared back: <strong>10</strong></font></font><div class='respPicDiv'><img src='img/responseButtonOffersNo0_wht.png' class='respPic'></div></div>","null","7","Anthony","3","Shared","0.8,0.35","12","0.8","trustrating_stim/white_00807_941205_fb_edt.bmp","2.5","116","19"
"","","","decision","629fa760fe340707d1dfd548","bdp_trlrn","Wed Jul 27 2022 12:19:16 GMT-0500 (Central Daylight Time)","786520","Untrustworthy,Trustworthy","html-keyboard-response","186","455319","0.0-10.0-1.19","","","1984","","<div class='trialDiv'><img src='trustrating_stim/white_00898_960530_fa_edt.bmp'><br><font class='baseline'><strong>Richard</strong><p>Choose number of points to send.</font><div class='respPicDiv'><img src='img/responseButtonOffersNo0L.png' class='respPic'></div></div>","1","7","Richard","10","Kept","0.35,0.8","14","0.35","trustrating_stim/white_00898_960530_fa_edt.bmp","7","121","20"
"","","","decisionFB","629fa760fe340707d1dfd548","bdp_trlrn","Wed Jul 27 2022 12:19:16 GMT-0500 (Central Daylight Time)","786520","Untrustworthy,Trustworthy","html-keyboard-response","187","455579","0.0-10.0-2.19","","","null","","<div class='trialDiv'><img src='trustrating_stim/white_00898_960530_fa_edt.bmp'><br><font class='baseline'><strong>Richard</strong><p>Choose number of points to send.</font><div class='respPicDiv'><img src='img/responseButtonOffersNo0L1.png' class='respPic'></div></div>","null","7","Richard","10","Kept","0.35,0.8","14","0.35","trustrating_stim/white_00898_960530_fa_edt.bmp","7","120","20"
"","","","feedback","629fa760fe340707d1dfd548","bdp_trlrn","Wed Jul 27 2022 12:19:16 GMT-0500 (Central Daylight Time)","786520","Untrustworthy,Trustworthy","html-keyboard-response","188","456595","0.0-10.0-3.19","","","null","","<div class='trialDiv'><img src='trustrating_stim/white_00898_960530_fa_edt.bmp'><br><font class='baseline'><strong>Richard</strong><p>Received: <strong>4</strong></font> &nbsp; &nbsp; &nbsp; &nbsp; &nbsp; &nbsp;<font class='negOutcome'>Shared back: <strong>0</strong></font></font><div class='respPicDiv'><img src='img/responseButtonOffersNo0_wht.png' class='respPic'></div></div>","null","7","Richard","10","Kept","0.35,0.8","14","0.35","trustrating_stim/white_00898_960530_fa_edt.bmp","7","120","20"
"","","","decision","629fa760fe340707d1dfd548","bdp_trlrn","Wed Jul 27 2022 12:19:16 GMT-0500 (Central Daylight Time)","786520","Untrustworthy,Trustworthy","html-keyboard-response","189","457653","0.0-10.0-1.20","","","1057","","<div class='trialDiv'><img src='trustrating_stim/white_mw063.bmp'><br><font class='baseline'><strong>Jonathan</strong><p>Choose number of points to send.</font><div class='respPicDiv'><img src='img/responseButtonOffersNo0L.png' class='respPic'></div></div>","3","7","Jonathan","4","Shared","0.8,0.2","12","0.8","trustrating_stim/white_mw063.bmp","3.5","125","21"
"","","","decisionFB","629fa760fe340707d1dfd548","bdp_trlrn","Wed Jul 27 2022 12:19:16 GMT-0500 (Central Daylight Time)","786520","Untrustworthy,Trustworthy","html-keyboard-response","190","457907","0.0-10.0-2.20","","","null","","<div class='trialDiv'><img src='trustrating_stim/white_mw063.bmp'><br><font class='baseline'><strong>Jonathan</strong><p>Choose number of points to send.</font><div class='respPicDiv'><img src='img/responseButtonOffersNo0L3.png' class='respPic'></div></div>","null","7","Jonathan","4","Shared","0.8,0.2","12","0.8","trustrating_stim/white_mw063.bmp","3.5","122","21"
"","","","feedback","629fa760fe340707d1dfd548","bdp_trlrn","Wed Jul 27 2022 12:19:16 GMT-0500 (Central Daylight Time)","786520","Untrustworthy,Trustworthy","html-keyboard-response","191","458923","0.0-10.0-3.20","","","null","","<div class='trialDiv'><img src='trustrating_stim/white_mw063.bmp'><br><font class='baseline'><strong>Jonathan</strong><p>Received: <strong>12</strong></font> &nbsp; &nbsp; &nbsp; &nbsp; &nbsp; &nbsp;<font class='posOutcome'>Shared back: <strong>6</strong></font></font><div class='respPicDiv'><img src='img/responseButtonOffersNo0_wht.png' class='respPic'></div></div>","null","7","Jonathan","4","Shared","0.8,0.2","12","0.8","trustrating_stim/white_mw063.bmp","3.5","128","21"
"","","","decision","629fa760fe340707d1dfd548","bdp_trlrn","Wed Jul 27 2022 12:19:16 GMT-0500 (Central Daylight Time)","786520","Untrustworthy,Trustworthy","html-keyboard-response","192","459463","0.0-10.0-1.21","","","539","","<div class='trialDiv'><img src='trustrating_stim/white_00807_941205_fb_edt.bmp'><br><font class='baseline'><strong>Anthony</strong><p>Choose number of points to send.</font><div class='respPicDiv'><img src='img/responseButtonOffersNo0L.png' class='respPic'></div></div>","5","8","Anthony","3","Kept","0.8,0.35","12","0.8","trustrating_stim/white_00807_941205_fb_edt.bmp","2.5","133","22"
"","","","decisionFB","629fa760fe340707d1dfd548","bdp_trlrn","Wed Jul 27 2022 12:19:16 GMT-0500 (Central Daylight Time)","786520","Untrustworthy,Trustworthy","html-keyboard-response","193","459720","0.0-10.0-2.21","","","null","","<div class='trialDiv'><img src='trustrating_stim/white_00807_941205_fb_edt.bmp'><br><font class='baseline'><strong>Anthony</strong><p>Choose number of points to send.</font><div class='respPicDiv'><img src='img/responseButtonOffersNo0L5.png' class='respPic'></div></div>","null","8","Anthony","3","Kept","0.8,0.35","12","0.8","trustrating_stim/white_00807_941205_fb_edt.bmp","2.5","128","22"
"","","","feedback","629fa760fe340707d1dfd548","bdp_trlrn","Wed Jul 27 2022 12:19:16 GMT-0500 (Central Daylight Time)","786520","Untrustworthy,Trustworthy","html-keyboard-response","194","460736","0.0-10.0-3.21","","","null","","<div class='trialDiv'><img src='trustrating_stim/white_00807_941205_fb_edt.bmp'><br><font class='baseline'><strong>Anthony</strong><p>Received: <strong>20</strong></font> &nbsp; &nbsp; &nbsp; &nbsp; &nbsp; &nbsp;<font class='negOutcome'>Shared back: <strong>0</strong></font></font><div class='respPicDiv'><img src='img/responseButtonOffersNo0_wht.png' class='respPic'></div></div>","null","8","Anthony","3","Kept","0.8,0.35","12","0.8","trustrating_stim/white_00807_941205_fb_edt.bmp","2.5","128","22"
"","","","decision","629fa760fe340707d1dfd548","bdp_trlrn","Wed Jul 27 2022 12:19:16 GMT-0500 (Central Daylight Time)","786520","Untrustworthy,Trustworthy","html-keyboard-response","195","462280","0.0-10.0-1.22","","","1543","","<div class='trialDiv'><img src='trustrating_stim/white_mw063.bmp'><br><font class='baseline'><strong>Jonathan</strong><p>Choose number of points to send.</font><div class='respPicDiv'><img src='img/responseButtonOffersNo0L.png' class='respPic'></div></div>","5","8","Jonathan","4","Shared","0.8,0.2","12","0.8","trustrating_stim/white_mw063.bmp","3.5","133","23"
"","","","decisionFB","629fa760fe340707d1dfd548","bdp_trlrn","Wed Jul 27 2022 12:19:16 GMT-0500 (Central Daylight Time)","786520","Untrustworthy,Trustworthy","html-keyboard-response","196","462536","0.0-10.0-2.22","","","null","","<div class='trialDiv'><img src='trustrating_stim/white_mw063.bmp'><br><font class='baseline'><strong>Jonathan</strong><p>Choose number of points to send.</font><div class='respPicDiv'><img src='img/responseButtonOffersNo0L5.png' class='respPic'></div></div>","null","8","Jonathan","4","Shared","0.8,0.2","12","0.8","trustrating_stim/white_mw063.bmp","3.5","128","23"
"","","","feedback","629fa760fe340707d1dfd548","bdp_trlrn","Wed Jul 27 2022 12:19:16 GMT-0500 (Central Daylight Time)","786520","Untrustworthy,Trustworthy","html-keyboard-response","197","463552","0.0-10.0-3.22","","","null","","<div class='trialDiv'><img src='trustrating_stim/white_mw063.bmp'><br><font class='baseline'><strong>Jonathan</strong><p>Received: <strong>20</strong></font> &nbsp; &nbsp; &nbsp; &nbsp; &nbsp; &nbsp;<font class='posOutcome'>Shared back: <strong>10</strong></font></font><div class='respPicDiv'><img src='img/responseButtonOffersNo0_wht.png' class='respPic'></div></div>","null","8","Jonathan","4","Shared","0.8,0.2","12","0.8","trustrating_stim/white_mw063.bmp","3.5","138","23"
"","","","decision","629fa760fe340707d1dfd548","bdp_trlrn","Wed Jul 27 2022 12:19:16 GMT-0500 (Central Daylight Time)","786520","Untrustworthy,Trustworthy","html-keyboard-response","198","465292","0.0-10.0-1.23","","","1739","","<div class='trialDiv'><img src='trustrating_stim/white_00898_960530_fa_edt.bmp'><br><font class='baseline'><strong>Richard</strong><p>Choose number of points to send.</font><div class='respPicDiv'><img src='img/responseButtonOffersNo0L.png' class='respPic'></div></div>","1","8","Richard","10","Kept","0.35,0.8","14","0.35","trustrating_stim/white_00898_960530_fa_edt.bmp","7","143","24"
"","","","decisionFB","629fa760fe340707d1dfd548","bdp_trlrn","Wed Jul 27 2022 12:19:16 GMT-0500 (Central Daylight Time)","786520","Untrustworthy,Trustworthy","html-keyboard-response","199","465544","0.0-10.0-2.23","","","null","","<div class='trialDiv'><img src='trustrating_stim/white_00898_960530_fa_edt.bmp'><br><font class='baseline'><strong>Richard</strong><p>Choose number of points to send.</font><div class='respPicDiv'><img src='img/responseButtonOffersNo0L1.png' class='respPic'></div></div>","null","8","Richard","10","Kept","0.35,0.8","14","0.35","trustrating_stim/white_00898_960530_fa_edt.bmp","7","142","24"
"","","","feedback","629fa760fe340707d1dfd548","bdp_trlrn","Wed Jul 27 2022 12:19:16 GMT-0500 (Central Daylight Time)","786520","Untrustworthy,Trustworthy","html-keyboard-response","200","466555","0.0-10.0-3.23","","","null","","<div class='trialDiv'><img src='trustrating_stim/white_00898_960530_fa_edt.bmp'><br><font class='baseline'><strong>Richard</strong><p>Received: <strong>4</strong></font> &nbsp; &nbsp; &nbsp; &nbsp; &nbsp; &nbsp;<font class='negOutcome'>Shared back: <strong>0</strong></font></font><div class='respPicDiv'><img src='img/responseButtonOffersNo0_wht.png' class='respPic'></div></div>","null","8","Richard","10","Kept","0.35,0.8","14","0.35","trustrating_stim/white_00898_960530_fa_edt.bmp","7","142","24"
"","","","decision","629fa760fe340707d1dfd548","bdp_trlrn","Wed Jul 27 2022 12:19:16 GMT-0500 (Central Daylight Time)","786520","Untrustworthy,Trustworthy","html-keyboard-response","201","467471","0.0-10.0-1.24","","","915","","<div class='trialDiv'><img src='trustrating_stim/white_00807_941205_fb_edt.bmp'><br><font class='baseline'><strong>Anthony</strong><p>Choose number of points to send.</font><div class='respPicDiv'><img src='img/responseButtonOffersNo0L.png' class='respPic'></div></div>","5","9","Anthony","3","Kept","0.8,0.35","12","0.8","trustrating_stim/white_00807_941205_fb_edt.bmp","2.5","147","25"
"","","","decisionFB","629fa760fe340707d1dfd548","bdp_trlrn","Wed Jul 27 2022 12:19:16 GMT-0500 (Central Daylight Time)","786520","Untrustworthy,Trustworthy","html-keyboard-response","202","467727","0.0-10.0-2.24","","","null","","<div class='trialDiv'><img src='trustrating_stim/white_00807_941205_fb_edt.bmp'><br><font class='baseline'><strong>Anthony</strong><p>Choose number of points to send.</font><div class='respPicDiv'><img src='img/responseButtonOffersNo0L5.png' class='respPic'></div></div>","null","9","Anthony","3","Kept","0.8,0.35","12","0.8","trustrating_stim/white_00807_941205_fb_edt.bmp","2.5","142","25"
"","","","feedback","629fa760fe340707d1dfd548","bdp_trlrn","Wed Jul 27 2022 12:19:16 GMT-0500 (Central Daylight Time)","786520","Untrustworthy,Trustworthy","html-keyboard-response","203","468743","0.0-10.0-3.24","","","null","","<div class='trialDiv'><img src='trustrating_stim/white_00807_941205_fb_edt.bmp'><br><font class='baseline'><strong>Anthony</strong><p>Received: <strong>20</strong></font> &nbsp; &nbsp; &nbsp; &nbsp; &nbsp; &nbsp;<font class='negOutcome'>Shared back: <strong>0</strong></font></font><div class='respPicDiv'><img src='img/responseButtonOffersNo0_wht.png' class='respPic'></div></div>","null","9","Anthony","3","Kept","0.8,0.35","12","0.8","trustrating_stim/white_00807_941205_fb_edt.bmp","2.5","142","25"
"","","","decision","629fa760fe340707d1dfd548","bdp_trlrn","Wed Jul 27 2022 12:19:16 GMT-0500 (Central Daylight Time)","786520","Untrustworthy,Trustworthy","html-keyboard-response","204","470991","0.0-10.0-1.25","","","2247","","<div class='trialDiv'><img src='trustrating_stim/white_mw063.bmp'><br><font class='baseline'><strong>Jonathan</strong><p>Choose number of points to send.</font><div class='respPicDiv'><img src='img/responseButtonOffersNo0L.png' class='respPic'></div></div>","5","9","Jonathan","4","Shared","0.8,0.2","12","0.8","trustrating_stim/white_mw063.bmp","3.5","147","26"
"","","","decisionFB","629fa760fe340707d1dfd548","bdp_trlrn","Wed Jul 27 2022 12:19:16 GMT-0500 (Central Daylight Time)","786520","Untrustworthy,Trustworthy","html-keyboard-response","205","471251","0.0-10.0-2.25","","","null","","<div class='trialDiv'><img src='trustrating_stim/white_mw063.bmp'><br><font class='baseline'><strong>Jonathan</strong><p>Choose number of points to send.</font><div class='respPicDiv'><img src='img/responseButtonOffersNo0L5.png' class='respPic'></div></div>","null","9","Jonathan","4","Shared","0.8,0.2","12","0.8","trustrating_stim/white_mw063.bmp","3.5","142","26"
"","","","feedback","629fa760fe340707d1dfd548","bdp_trlrn","Wed Jul 27 2022 12:19:16 GMT-0500 (Central Daylight Time)","786520","Untrustworthy,Trustworthy","html-keyboard-response","206","472259","0.0-10.0-3.25","","","null","","<div class='trialDiv'><img src='trustrating_stim/white_mw063.bmp'><br><font class='baseline'><strong>Jonathan</strong><p>Received: <strong>20</strong></font> &nbsp; &nbsp; &nbsp; &nbsp; &nbsp; &nbsp;<font class='posOutcome'>Shared back: <strong>10</strong></font></font><div class='respPicDiv'><img src='img/responseButtonOffersNo0_wht.png' class='respPic'></div></div>","null","9","Jonathan","4","Shared","0.8,0.2","12","0.8","trustrating_stim/white_mw063.bmp","3.5","152","26"
"","","","decision","629fa760fe340707d1dfd548","bdp_trlrn","Wed Jul 27 2022 12:19:16 GMT-0500 (Central Daylight Time)","786520","Untrustworthy,Trustworthy","html-keyboard-response","207","473876","0.0-10.0-1.26","","","1616","","<div class='trialDiv'><img src='trustrating_stim/white_00898_960530_fa_edt.bmp'><br><font class='baseline'><strong>Richard</strong><p>Choose number of points to send.</font><div class='respPicDiv'><img src='img/responseButtonOffersNo0L.png' class='respPic'></div></div>","1","9","Richard","10","Shared","0.35,0.8","14","0.35","trustrating_stim/white_00898_960530_fa_edt.bmp","7","157","27"
"","","","decisionFB","629fa760fe340707d1dfd548","bdp_trlrn","Wed Jul 27 2022 12:19:16 GMT-0500 (Central Daylight Time)","786520","Untrustworthy,Trustworthy","html-keyboard-response","208","474140","0.0-10.0-2.26","","","null","","<div class='trialDiv'><img src='trustrating_stim/white_00898_960530_fa_edt.bmp'><br><font class='baseline'><strong>Richard</strong><p>Choose number of points to send.</font><div class='respPicDiv'><img src='img/responseButtonOffersNo0L1.png' class='respPic'></div></div>","null","9","Richard","10","Shared","0.35,0.8","14","0.35","trustrating_stim/white_00898_960530_fa_edt.bmp","7","156","27"
"","","","feedback","629fa760fe340707d1dfd548","bdp_trlrn","Wed Jul 27 2022 12:19:16 GMT-0500 (Central Daylight Time)","786520","Untrustworthy,Trustworthy","html-keyboard-response","209","475156","0.0-10.0-3.26","","","null","","<div class='trialDiv'><img src='trustrating_stim/white_00898_960530_fa_edt.bmp'><br><font class='baseline'><strong>Richard</strong><p>Received: <strong>4</strong></font> &nbsp; &nbsp; &nbsp; &nbsp; &nbsp; &nbsp;<font class='posOutcome'>Shared back: <strong>2</strong></font></font><div class='respPicDiv'><img src='img/responseButtonOffersNo0_wht.png' class='respPic'></div></div>","null","9","Richard","10","Shared","0.35,0.8","14","0.35","trustrating_stim/white_00898_960530_fa_edt.bmp","7","158","27"
"","","","decision","629fa760fe340707d1dfd548","bdp_trlrn","Wed Jul 27 2022 12:19:16 GMT-0500 (Central Daylight Time)","786520","Untrustworthy,Trustworthy","html-keyboard-response","210","476457","0.0-10.0-1.27","","","1300","","<div class='trialDiv'><img src='trustrating_stim/white_mw063.bmp'><br><font class='baseline'><strong>Jonathan</strong><p>Choose number of points to send.</font><div class='respPicDiv'><img src='img/responseButtonOffersNo0L.png' class='respPic'></div></div>","5","10","Jonathan","4","Shared","0.8,0.2","12","0.8","trustrating_stim/white_mw063.bmp","3.5","163","28"
"","","","decisionFB","629fa760fe340707d1dfd548","bdp_trlrn","Wed Jul 27 2022 12:19:16 GMT-0500 (Central Daylight Time)","786520","Untrustworthy,Trustworthy","html-keyboard-response","211","476714","0.0-10.0-2.27","","","null","","<div class='trialDiv'><img src='trustrating_stim/white_mw063.bmp'><br><font class='baseline'><strong>Jonathan</strong><p>Choose number of points to send.</font><div class='respPicDiv'><img src='img/responseButtonOffersNo0L5.png' class='respPic'></div></div>","null","10","Jonathan","4","Shared","0.8,0.2","12","0.8","trustrating_stim/white_mw063.bmp","3.5","158","28"
"","","","feedback","629fa760fe340707d1dfd548","bdp_trlrn","Wed Jul 27 2022 12:19:16 GMT-0500 (Central Daylight Time)","786520","Untrustworthy,Trustworthy","html-keyboard-response","212","477730","0.0-10.0-3.27","","","null","","<div class='trialDiv'><img src='trustrating_stim/white_mw063.bmp'><br><font class='baseline'><strong>Jonathan</strong><p>Received: <strong>20</strong></font> &nbsp; &nbsp; &nbsp; &nbsp; &nbsp; &nbsp;<font class='posOutcome'>Shared back: <strong>10</strong></font></font><div class='respPicDiv'><img src='img/responseButtonOffersNo0_wht.png' class='respPic'></div></div>","null","10","Jonathan","4","Shared","0.8,0.2","12","0.8","trustrating_stim/white_mw063.bmp","3.5","168","28"
"","","","decision","629fa760fe340707d1dfd548","bdp_trlrn","Wed Jul 27 2022 12:19:16 GMT-0500 (Central Daylight Time)","786520","Untrustworthy,Trustworthy","html-keyboard-response","213","479106","0.0-10.0-1.28","","","1375","","<div class='trialDiv'><img src='trustrating_stim/white_00898_960530_fa_edt.bmp'><br><font class='baseline'><strong>Richard</strong><p>Choose number of points to send.</font><div class='respPicDiv'><img src='img/responseButtonOffersNo0L.png' class='respPic'></div></div>","1","10","Richard","10","Kept","0.35,0.8","14","0.35","trustrating_stim/white_00898_960530_fa_edt.bmp","7","173","29"
"","","","decisionFB","629fa760fe340707d1dfd548","bdp_trlrn","Wed Jul 27 2022 12:19:16 GMT-0500 (Central Daylight Time)","786520","Untrustworthy,Trustworthy","html-keyboard-response","214","479370","0.0-10.0-2.28","","","null","","<div class='trialDiv'><img src='trustrating_stim/white_00898_960530_fa_edt.bmp'><br><font class='baseline'><strong>Richard</strong><p>Choose number of points to send.</font><div class='respPicDiv'><img src='img/responseButtonOffersNo0L1.png' class='respPic'></div></div>","null","10","Richard","10","Kept","0.35,0.8","14","0.35","trustrating_stim/white_00898_960530_fa_edt.bmp","7","172","29"
"","","","feedback","629fa760fe340707d1dfd548","bdp_trlrn","Wed Jul 27 2022 12:19:16 GMT-0500 (Central Daylight Time)","786520","Untrustworthy,Trustworthy","html-keyboard-response","215","480376","0.0-10.0-3.28","","","null","","<div class='trialDiv'><img src='trustrating_stim/white_00898_960530_fa_edt.bmp'><br><font class='baseline'><strong>Richard</strong><p>Received: <strong>4</strong></font> &nbsp; &nbsp; &nbsp; &nbsp; &nbsp; &nbsp;<font class='negOutcome'>Shared back: <strong>0</strong></font></font><div class='respPicDiv'><img src='img/responseButtonOffersNo0_wht.png' class='respPic'></div></div>","null","10","Richard","10","Kept","0.35,0.8","14","0.35","trustrating_stim/white_00898_960530_fa_edt.bmp","7","172","29"
"","","","decision","629fa760fe340707d1dfd548","bdp_trlrn","Wed Jul 27 2022 12:19:16 GMT-0500 (Central Daylight Time)","786520","Untrustworthy,Trustworthy","html-keyboard-response","216","481384","0.0-10.0-1.29","","","1007","","<div class='trialDiv'><img src='trustrating_stim/white_00807_941205_fb_edt.bmp'><br><font class='baseline'><strong>Anthony</strong><p>Choose number of points to send.</font><div class='respPicDiv'><img src='img/responseButtonOffersNo0L.png' class='respPic'></div></div>","1","10","Anthony","3","Shared","0.8,0.35","12","0.8","trustrating_stim/white_00807_941205_fb_edt.bmp","2.5","177","30"
"","","","decisionFB","629fa760fe340707d1dfd548","bdp_trlrn","Wed Jul 27 2022 12:19:16 GMT-0500 (Central Daylight Time)","786520","Untrustworthy,Trustworthy","html-keyboard-response","217","481647","0.0-10.0-2.29","","","null","","<div class='trialDiv'><img src='trustrating_stim/white_00807_941205_fb_edt.bmp'><br><font class='baseline'><strong>Anthony</strong><p>Choose number of points to send.</font><div class='respPicDiv'><img src='img/responseButtonOffersNo0L1.png' class='respPic'></div></div>","null","10","Anthony","3","Shared","0.8,0.35","12","0.8","trustrating_stim/white_00807_941205_fb_edt.bmp","2.5","176","30"
"","","","feedback","629fa760fe340707d1dfd548","bdp_trlrn","Wed Jul 27 2022 12:19:16 GMT-0500 (Central Daylight Time)","786520","Untrustworthy,Trustworthy","html-keyboard-response","218","482663","0.0-10.0-3.29","","","null","","<div class='trialDiv'><img src='trustrating_stim/white_00807_941205_fb_edt.bmp'><br><font class='baseline'><strong>Anthony</strong><p>Received: <strong>4</strong></font> &nbsp; &nbsp; &nbsp; &nbsp; &nbsp; &nbsp;<font class='posOutcome'>Shared back: <strong>2</strong></font></font><div class='respPicDiv'><img src='img/responseButtonOffersNo0_wht.png' class='respPic'></div></div>","null","10","Anthony","3","Shared","0.8,0.35","12","0.8","trustrating_stim/white_00807_941205_fb_edt.bmp","2.5","178","30"
"","","","decision","629fa760fe340707d1dfd548","bdp_trlrn","Wed Jul 27 2022 12:19:16 GMT-0500 (Central Daylight Time)","786520","Untrustworthy,Trustworthy","html-keyboard-response","219","485614","0.0-10.0-1.30","","","2948","","<div class='trialDiv'><img src='trustrating_stim/white_00898_960530_fa_edt.bmp'><br><font class='baseline'><strong>Richard</strong><p>Choose number of points to send.</font><div class='respPicDiv'><img src='img/responseButtonOffersNo0L.png' class='respPic'></div></div>","3","11","Richard","10","Shared","0.35,0.8","14","0.35","trustrating_stim/white_00898_960530_fa_edt.bmp","7","183","31"
