"trial_type","trial_index","time_elapsed","internal_node_id","subject_id","task","startTime","totalTime","labels","view_history","rt","event","trial","time","trialtype","success","stimulus","key_press","aground","name","faceID","outcome","agenttype","agentswpt","agentcurrpshare","face","avgRating","point_total","round"
"pavlovia","0","10","0.0-0.0","5e7abb2c6c89e4000a180b4a","bdp_trlrn","Fri Mar 10 2023 14:04:32 GMT-0600 (Central Standard Time)","830858","Trustworthy,Untrustworthy","","","","","","","","","","","","","","","","","","","",""
"instructions","1","7960","0.0-1.0","5e7abb2c6c89e4000a180b4a","bdp_trlrn","Fri Mar 10 2023 14:04:32 GMT-0600 (Central Standard Time)","830858","Trustworthy,Untrustworthy","[{""page_index"":0,""viewing_time"":7948}]","7948","","","","","","","","","","","","","","","","","",""
"","","","","5e7abb2c6c89e4000a180b4a","bdp_trlrn","Fri Mar 10 2023 14:04:32 GMT-0600 (Central Standard Time)","830858","Trustworthy,Untrustworthy","","","fullscreenenter","2","11269","fullscreenenter","","","","","","","","","","","","","",""
"fullscreen","2","12209","0.0-2.0","5e7abb2c6c89e4000a180b4a","bdp_trlrn","Fri Mar 10 2023 14:04:32 GMT-0600 (Central Standard Time)","830858","Trustworthy,Untrustworthy","","","","","","","true","","","","","","","","","","","","",""
"instructions","3","37340","0.0-4.0","5e7abb2c6c89e4000a180b4a","bdp_trlrn","Fri Mar 10 2023 14:04:32 GMT-0600 (Central Standard Time)","830858","Trustworthy,Untrustworthy","[{""page_index"":0,""viewing_time"":14572},{""page_index"":1,""viewing_time"":10556}]","25129","","","","","","","","","","","","","","","","","",""
"instructions","4","39940","0.0-5.0","5e7abb2c6c89e4000a180b4a","bdp_trlrn","Fri Mar 10 2023 14:04:32 GMT-0600 (Central Standard Time)","830858","Trustworthy,Untrustworthy","[{""page_index"":0,""viewing_time"":2599}]","2599","","","","","","","","","","","","","","","","","",""
"image-keyboard-response","5","43065","0.0-6.0-1.0","5e7abb2c6c89e4000a180b4a","bdp_trlrn","Fri Mar 10 2023 14:04:32 GMT-0600 (Central Standard Time)","830858","Trustworthy,Untrustworthy","","3007","","","","rating","","trustrating_stim/white_mw048.bmp","7","","","","","","","","","","",""
"image-keyboard-response","6","43278","0.0-6.0-2.0","5e7abb2c6c89e4000a180b4a","bdp_trlrn","Fri Mar 10 2023 14:04:32 GMT-0600 (Central Standard Time)","830858","Trustworthy,Untrustworthy","","null","","","","ratingFB","","trustrating_stim/white_mw048.bmp","null","","","","","","","","","","",""
"image-keyboard-response","7","47093","0.0-6.0-1.1","5e7abb2c6c89e4000a180b4a","bdp_trlrn","Fri Mar 10 2023 14:04:32 GMT-0600 (Central Standard Time)","830858","Trustworthy,Untrustworthy","","3705","","","","rating","","trustrating_stim/white_00757_941201_fa_edt.bmp","6","","","","","","","","","","",""
"image-keyboard-response","8","47306","0.0-6.0-2.1","5e7abb2c6c89e4000a180b4a","bdp_trlrn","Fri Mar 10 2023 14:04:32 GMT-0600 (Central Standard Time)","830858","Trustworthy,Untrustworthy","","null","","","","ratingFB","","trustrating_stim/white_00757_941201_fa_edt.bmp","null","","","","","","","","","","",""
"image-keyboard-response","9","50200","0.0-6.0-1.2","5e7abb2c6c89e4000a180b4a","bdp_trlrn","Fri Mar 10 2023 14:04:32 GMT-0600 (Central Standard Time)","830858","Trustworthy,Untrustworthy","","2785","","","","rating","","trustrating_stim/white_mw066.bmp","3","","","","","","","","","","",""
"image-keyboard-response","10","50405","0.0-6.0-2.2","5e7abb2c6c89e4000a180b4a","bdp_trlrn","Fri Mar 10 2023 14:04:32 GMT-0600 (Central Standard Time)","830858","Trustworthy,Untrustworthy","","null","","","","ratingFB","","trustrating_stim/white_mw066.bmp","null","","","","","","","","","","",""
"image-keyboard-response","11","52612","0.0-6.0-1.3","5e7abb2c6c89e4000a180b4a","bdp_trlrn","Fri Mar 10 2023 14:04:32 GMT-0600 (Central Standard Time)","830858","Trustworthy,Untrustworthy","","2099","","","","rating","","trustrating_stim/white_mw063.bmp","5","","","","","","","","","","",""
"image-keyboard-response","12","52819","0.0-6.0-2.3","5e7abb2c6c89e4000a180b4a","bdp_trlrn","Fri Mar 10 2023 14:04:32 GMT-0600 (Central Standard Time)","830858","Trustworthy,Untrustworthy","","null","","","","ratingFB","","trustrating_stim/white_mw063.bmp","null","","","","","","","","","","",""
"image-keyboard-response","13","55072","0.0-6.0-1.4","5e7abb2c6c89e4000a180b4a","bdp_trlrn","Fri Mar 10 2023 14:04:32 GMT-0600 (Central Standard Time)","830858","Trustworthy,Untrustworthy","","2149","","","","rating","","trustrating_stim/white_mw071.bmp","4","","","","","","","","","","",""
"image-keyboard-response","14","55286","0.0-6.0-2.4","5e7abb2c6c89e4000a180b4a","bdp_trlrn","Fri Mar 10 2023 14:04:32 GMT-0600 (Central Standard Time)","830858","Trustworthy,Untrustworthy","","null","","","","ratingFB","","trustrating_stim/white_mw071.bmp","null","","","","","","","","","","",""
"image-keyboard-response","15","57870","0.0-6.0-1.5","5e7abb2c6c89e4000a180b4a","bdp_trlrn","Fri Mar 10 2023 14:04:32 GMT-0600 (Central Standard Time)","830858","Trustworthy,Untrustworthy","","2473","","","","rating","","trustrating_stim/white_00898_960530_fa_edt.bmp","6","","","","","","","","","","",""
"image-keyboard-response","16","58075","0.0-6.0-2.5","5e7abb2c6c89e4000a180b4a","bdp_trlrn","Fri Mar 10 2023 14:04:32 GMT-0600 (Central Standard Time)","830858","Trustworthy,Untrustworthy","","null","","","","ratingFB","","trustrating_stim/white_00898_960530_fa_edt.bmp","null","","","","","","","","","","",""
"image-keyboard-response","17","61270","0.0-6.0-1.6","5e7abb2c6c89e4000a180b4a","bdp_trlrn","Fri Mar 10 2023 14:04:32 GMT-0600 (Central Standard Time)","830858","Trustworthy,Untrustworthy","","3084","","","","rating","","trustrating_stim/white_mw033.bmp","3","","","","","","","","","","",""
"image-keyboard-response","18","61472","0.0-6.0-2.6","5e7abb2c6c89e4000a180b4a","bdp_trlrn","Fri Mar 10 2023 14:04:32 GMT-0600 (Central Standard Time)","830858","Trustworthy,Untrustworthy","","null","","","","ratingFB","","trustrating_stim/white_mw033.bmp","null","","","","","","","","","","",""
"image-keyboard-response","19","64018","0.0-6.0-1.7","5e7abb2c6c89e4000a180b4a","bdp_trlrn","Fri Mar 10 2023 14:04:32 GMT-0600 (Central Standard Time)","830858","Trustworthy,Untrustworthy","","2435","","","","rating","","trustrating_stim/white_mw099.bmp","5","","","","","","","","","","",""
"image-keyboard-response","20","64234","0.0-6.0-2.7","5e7abb2c6c89e4000a180b4a","bdp_trlrn","Fri Mar 10 2023 14:04:32 GMT-0600 (Central Standard Time)","830858","Trustworthy,Untrustworthy","","null","","","","ratingFB","","trustrating_stim/white_mw099.bmp","null","","","","","","","","","","",""
"image-keyboard-response","21","67045","0.0-6.0-1.8","5e7abb2c6c89e4000a180b4a","bdp_trlrn","Fri Mar 10 2023 14:04:32 GMT-0600 (Central Standard Time)","830858","Trustworthy,Untrustworthy","","2702","","","","rating","","trustrating_stim/white_00129_931230_fb_edt.bmp","4","","","","","","","","","","",""
"image-keyboard-response","22","67259","0.0-6.0-2.8","5e7abb2c6c89e4000a180b4a","bdp_trlrn","Fri Mar 10 2023 14:04:32 GMT-0600 (Central Standard Time)","830858","Trustworthy,Untrustworthy","","null","","","","ratingFB","","trustrating_stim/white_00129_931230_fb_edt.bmp","null","","","","","","","","","","",""
"image-keyboard-response","23","69784","0.0-6.0-1.9","5e7abb2c6c89e4000a180b4a","bdp_trlrn","Fri Mar 10 2023 14:04:32 GMT-0600 (Central Standard Time)","830858","Trustworthy,Untrustworthy","","2414","","","","rating","","trustrating_stim/white_00761_941201_fb_edt.bmp","3","","","","","","","","","","",""
"image-keyboard-response","24","69988","0.0-6.0-2.9","5e7abb2c6c89e4000a180b4a","bdp_trlrn","Fri Mar 10 2023 14:04:32 GMT-0600 (Central Standard Time)","830858","Trustworthy,Untrustworthy","","null","","","","ratingFB","","trustrating_stim/white_00761_941201_fb_edt.bmp","null","","","","","","","","","","",""
"image-keyboard-response","25","73644","0.0-6.0-1.10","5e7abb2c6c89e4000a180b4a","bdp_trlrn","Fri Mar 10 2023 14:04:32 GMT-0600 (Central Standard Time)","830858","Trustworthy,Untrustworthy","","3548","","","","rating","","trustrating_stim/white_00659_941121_fa_edt.bmp","6","","","","","","","","","","",""
"image-keyboard-response","26","73850","0.0-6.0-2.10","5e7abb2c6c89e4000a180b4a","bdp_trlrn","Fri Mar 10 2023 14:04:32 GMT-0600 (Central Standard Time)","830858","Trustworthy,Untrustworthy","","null","","","","ratingFB","","trustrating_stim/white_00659_941121_fa_edt.bmp","null","","","","","","","","","","",""
"image-keyboard-response","27","76258","0.0-6.0-1.11","5e7abb2c6c89e4000a180b4a","bdp_trlrn","Fri Mar 10 2023 14:04:32 GMT-0600 (Central Standard Time)","830858","Trustworthy,Untrustworthy","","2306","","","","rating","","trustrating_stim/white_mw035.bmp","4","","","","","","","","","","",""
"image-keyboard-response","28","76468","0.0-6.0-2.11","5e7abb2c6c89e4000a180b4a","bdp_trlrn","Fri Mar 10 2023 14:04:32 GMT-0600 (Central Standard Time)","830858","Trustworthy,Untrustworthy","","null","","","","ratingFB","","trustrating_stim/white_mw035.bmp","null","","","","","","","","","","",""
"image-keyboard-response","29","78636","0.0-6.0-1.12","5e7abb2c6c89e4000a180b4a","bdp_trlrn","Fri Mar 10 2023 14:04:32 GMT-0600 (Central Standard Time)","830858","Trustworthy,Untrustworthy","","2060","","","","rating","","trustrating_stim/white_00785_941205_fb_edt.bmp","7","","","","","","","","","","",""
"image-keyboard-response","30","78849","0.0-6.0-2.12","5e7abb2c6c89e4000a180b4a","bdp_trlrn","Fri Mar 10 2023 14:04:32 GMT-0600 (Central Standard Time)","830858","Trustworthy,Untrustworthy","","null","","","","ratingFB","","trustrating_stim/white_00785_941205_fb_edt.bmp","null","","","","","","","","","","",""
"image-keyboard-response","31","81387","0.0-6.0-1.13","5e7abb2c6c89e4000a180b4a","bdp_trlrn","Fri Mar 10 2023 14:04:32 GMT-0600 (Central Standard Time)","830858","Trustworthy,Untrustworthy","","2436","","","","rating","","trustrating_stim/white_mw049.bmp","2","","","","","","","","","","",""
"image-keyboard-response","32","81604","0.0-6.0-2.13","5e7abb2c6c89e4000a180b4a","bdp_trlrn","Fri Mar 10 2023 14:04:32 GMT-0600 (Central Standard Time)","830858","Trustworthy,Untrustworthy","","null","","","","ratingFB","","trustrating_stim/white_mw049.bmp","null","","","","","","","","","","",""
"image-keyboard-response","33","84891","0.0-6.0-1.14","5e7abb2c6c89e4000a180b4a","bdp_trlrn","Fri Mar 10 2023 14:04:32 GMT-0600 (Central Standard Time)","830858","Trustworthy,Untrustworthy","","3177","","","","rating","","trustrating_stim/white_00807_941205_fb_edt.bmp","5","","","","","","","","","","",""
"image-keyboard-response","34","85108","0.0-6.0-2.14","5e7abb2c6c89e4000a180b4a","bdp_trlrn","Fri Mar 10 2023 14:04:32 GMT-0600 (Central Standard Time)","830858","Trustworthy,Untrustworthy","","null","","","","ratingFB","","trustrating_stim/white_00807_941205_fb_edt.bmp","null","","","","","","","","","","",""
"image-keyboard-response","35","87141","0.0-6.0-1.15","5e7abb2c6c89e4000a180b4a","bdp_trlrn","Fri Mar 10 2023 14:04:32 GMT-0600 (Central Standard Time)","830858","Trustworthy,Untrustworthy","","1924","","","","rating","","trustrating_stim/white_mw046.bmp","6","","","","","","","","","","",""
"image-keyboard-response","36","87354","0.0-6.0-2.15","5e7abb2c6c89e4000a180b4a","bdp_trlrn","Fri Mar 10 2023 14:04:32 GMT-0600 (Central Standard Time)","830858","Trustworthy,Untrustworthy","","null","","","","ratingFB","","trustrating_stim/white_mw046.bmp","null","","","","","","","","","","",""
"image-keyboard-response","37","89495","0.0-6.0-1.16","5e7abb2c6c89e4000a180b4a","bdp_trlrn","Fri Mar 10 2023 14:04:32 GMT-0600 (Central Standard Time)","830858","Trustworthy,Untrustworthy","","2032","","","","rating","","trustrating_stim/white_mw056.bmp","4","","","","","","","","","","",""
"image-keyboard-response","38","89707","0.0-6.0-2.16","5e7abb2c6c89e4000a180b4a","bdp_trlrn","Fri Mar 10 2023 14:04:32 GMT-0600 (Central Standard Time)","830858","Trustworthy,Untrustworthy","","null","","","","ratingFB","","trustrating_stim/white_mw056.bmp","null","","","","","","","","","","",""
"image-keyboard-response","39","92686","0.0-6.0-1.17","5e7abb2c6c89e4000a180b4a","bdp_trlrn","Fri Mar 10 2023 14:04:32 GMT-0600 (Central Standard Time)","830858","Trustworthy,Untrustworthy","","2870","","","","rating","","trustrating_stim/white_00120_931230_fa_edt.bmp","3","","","","","","","","","","",""
"image-keyboard-response","40","92891","0.0-6.0-2.17","5e7abb2c6c89e4000a180b4a","bdp_trlrn","Fri Mar 10 2023 14:04:32 GMT-0600 (Central Standard Time)","830858","Trustworthy,Untrustworthy","","null","","","","ratingFB","","trustrating_stim/white_00120_931230_fa_edt.bmp","null","","","","","","","","","","",""
"image-keyboard-response","41","95382","0.0-6.0-1.18","5e7abb2c6c89e4000a180b4a","bdp_trlrn","Fri Mar 10 2023 14:04:32 GMT-0600 (Central Standard Time)","830858","Trustworthy,Untrustworthy","","2382","","","","rating","","trustrating_stim/white_00109_931230_fa_edt.bmp","3","","","","","","","","","","",""
"image-keyboard-response","42","95587","0.0-6.0-2.18","5e7abb2c6c89e4000a180b4a","bdp_trlrn","Fri Mar 10 2023 14:04:32 GMT-0600 (Central Standard Time)","830858","Trustworthy,Untrustworthy","","null","","","","ratingFB","","trustrating_stim/white_00109_931230_fa_edt.bmp","null","","","","","","","","","","",""
"image-keyboard-response","43","98050","0.0-6.0-1.19","5e7abb2c6c89e4000a180b4a","bdp_trlrn","Fri Mar 10 2023 14:04:32 GMT-0600 (Central Standard Time)","830858","Trustworthy,Untrustworthy","","2352","","","","rating","","trustrating_stim/white_mw084.bmp","5","","","","","","","","","","",""
"image-keyboard-response","44","98266","0.0-6.0-2.19","5e7abb2c6c89e4000a180b4a","bdp_trlrn","Fri Mar 10 2023 14:04:32 GMT-0600 (Central Standard Time)","830858","Trustworthy,Untrustworthy","","null","","","","ratingFB","","trustrating_stim/white_mw084.bmp","null","","","","","","","","","","",""
"image-keyboard-response","45","101357","0.0-6.0-1.20","5e7abb2c6c89e4000a180b4a","bdp_trlrn","Fri Mar 10 2023 14:04:32 GMT-0600 (Central Standard Time)","830858","Trustworthy,Untrustworthy","","2982","","","","rating","","trustrating_stim/white_mw097.bmp","5","","","","","","","","","","",""
"image-keyboard-response","46","101569","0.0-6.0-2.20","5e7abb2c6c89e4000a180b4a","bdp_trlrn","Fri Mar 10 2023 14:04:32 GMT-0600 (Central Standard Time)","830858","Trustworthy,Untrustworthy","","null","","","","ratingFB","","trustrating_stim/white_mw097.bmp","null","","","","","","","","","","",""
"image-keyboard-response","47","104463","0.0-6.0-1.21","5e7abb2c6c89e4000a180b4a","bdp_trlrn","Fri Mar 10 2023 14:04:32 GMT-0600 (Central Standard Time)","830858","Trustworthy,Untrustworthy","","2784","","","","rating","","trustrating_stim/white_00519_940519_fb_edt.bmp","6","","","","","","","","","","",""
"image-keyboard-response","48","104669","0.0-6.0-2.21","5e7abb2c6c89e4000a180b4a","bdp_trlrn","Fri Mar 10 2023 14:04:32 GMT-0600 (Central Standard Time)","830858","Trustworthy,Untrustworthy","","null","","","","ratingFB","","trustrating_stim/white_00519_940519_fb_edt.bmp","null","","","","","","","","","","",""
"image-keyboard-response","49","107118","0.0-6.0-1.22","5e7abb2c6c89e4000a180b4a","bdp_trlrn","Fri Mar 10 2023 14:04:32 GMT-0600 (Central Standard Time)","830858","Trustworthy,Untrustworthy","","2338","","","","rating","","trustrating_stim/white_00299_940422_fa_edt.bmp","3","","","","","","","","","","",""
"image-keyboard-response","50","107332","0.0-6.0-2.22","5e7abb2c6c89e4000a180b4a","bdp_trlrn","Fri Mar 10 2023 14:04:32 GMT-0600 (Central Standard Time)","830858","Trustworthy,Untrustworthy","","null","","","","ratingFB","","trustrating_stim/white_00299_940422_fa_edt.bmp","null","","","","","","","","","","",""
"image-keyboard-response","51","110321","0.0-6.0-1.23","5e7abb2c6c89e4000a180b4a","bdp_trlrn","Fri Mar 10 2023 14:04:32 GMT-0600 (Central Standard Time)","830858","Trustworthy,Untrustworthy","","2879","","","","rating","","trustrating_stim/white_00223_940128_fb_edt.bmp","7","","","","","","","","","","",""
"image-keyboard-response","52","110527","0.0-6.0-2.23","5e7abb2c6c89e4000a180b4a","bdp_trlrn","Fri Mar 10 2023 14:04:32 GMT-0600 (Central Standard Time)","830858","Trustworthy,Untrustworthy","","null","","","","ratingFB","","trustrating_stim/white_00223_940128_fb_edt.bmp","null","","","","","","","","","","",""
"image-keyboard-response","53","112929","0.0-6.0-1.24","5e7abb2c6c89e4000a180b4a","bdp_trlrn","Fri Mar 10 2023 14:04:32 GMT-0600 (Central Standard Time)","830858","Trustworthy,Untrustworthy","","2299","","","","rating","","trustrating_stim/white_mw060.bmp","8","","","","","","","","","","",""
"image-keyboard-response","54","113144","0.0-6.0-2.24","5e7abb2c6c89e4000a180b4a","bdp_trlrn","Fri Mar 10 2023 14:04:32 GMT-0600 (Central Standard Time)","830858","Trustworthy,Untrustworthy","","null","","","","ratingFB","","trustrating_stim/white_mw060.bmp","null","","","","","","","","","","",""
"image-keyboard-response","55","117481","0.0-6.0-1.25","5e7abb2c6c89e4000a180b4a","bdp_trlrn","Fri Mar 10 2023 14:04:32 GMT-0600 (Central Standard Time)","830858","Trustworthy,Untrustworthy","","4228","","","","rating","","trustrating_stim/white_00602_940928_fb_edt.bmp","1","","","","","","","","","","",""
"image-keyboard-response","56","117693","0.0-6.0-2.25","5e7abb2c6c89e4000a180b4a","bdp_trlrn","Fri Mar 10 2023 14:04:32 GMT-0600 (Central Standard Time)","830858","Trustworthy,Untrustworthy","","null","","","","ratingFB","","trustrating_stim/white_00602_940928_fb_edt.bmp","null","","","","","","","","","","",""
"image-keyboard-response","57","120188","0.0-6.0-1.26","5e7abb2c6c89e4000a180b4a","bdp_trlrn","Fri Mar 10 2023 14:04:32 GMT-0600 (Central Standard Time)","830858","Trustworthy,Untrustworthy","","2386","","","","rating","","trustrating_stim/white_mw053.bmp","3","","","","","","","","","","",""
"image-keyboard-response","58","120391","0.0-6.0-2.26","5e7abb2c6c89e4000a180b4a","bdp_trlrn","Fri Mar 10 2023 14:04:32 GMT-0600 (Central Standard Time)","830858","Trustworthy,Untrustworthy","","null","","","","ratingFB","","trustrating_stim/white_mw053.bmp","null","","","","","","","","","","",""
"image-keyboard-response","59","122395","0.0-6.0-1.27","5e7abb2c6c89e4000a180b4a","bdp_trlrn","Fri Mar 10 2023 14:04:32 GMT-0600 (Central Standard Time)","830858","Trustworthy,Untrustworthy","","1895","","","","rating","","trustrating_stim/white_00340_940422_fa_edt.bmp","7","","","","","","","","","","",""
"image-keyboard-response","60","122604","0.0-6.0-2.27","5e7abb2c6c89e4000a180b4a","bdp_trlrn","Fri Mar 10 2023 14:04:32 GMT-0600 (Central Standard Time)","830858","Trustworthy,Untrustworthy","","null","","","","ratingFB","","trustrating_stim/white_00340_940422_fa_edt.bmp","null","","","","","","","","","","",""
"image-keyboard-response","61","124658","0.0-6.0-1.28","5e7abb2c6c89e4000a180b4a","bdp_trlrn","Fri Mar 10 2023 14:04:32 GMT-0600 (Central Standard Time)","830858","Trustworthy,Untrustworthy","","1944","","","","rating","","trustrating_stim/white_00577_940928_fa_edt.bmp","6","","","","","","","","","","",""
"image-keyboard-response","62","124863","0.0-6.0-2.28","5e7abb2c6c89e4000a180b4a","bdp_trlrn","Fri Mar 10 2023 14:04:32 GMT-0600 (Central Standard Time)","830858","Trustworthy,Untrustworthy","","null","","","","ratingFB","","trustrating_stim/white_00577_940928_fa_edt.bmp","null","","","","","","","","","","",""
"image-keyboard-response","63","126714","0.0-6.0-1.29","5e7abb2c6c89e4000a180b4a","bdp_trlrn","Fri Mar 10 2023 14:04:32 GMT-0600 (Central Standard Time)","830858","Trustworthy,Untrustworthy","","1742","","","","rating","","trustrating_stim/white_mw089.bmp","6","","","","","","","","","","",""
"image-keyboard-response","64","126919","0.0-6.0-2.29","5e7abb2c6c89e4000a180b4a","bdp_trlrn","Fri Mar 10 2023 14:04:32 GMT-0600 (Central Standard Time)","830858","Trustworthy,Untrustworthy","","null","","","","ratingFB","","trustrating_stim/white_mw089.bmp","null","","","","","","","","","","",""
"image-keyboard-response","65","129390","0.0-6.0-1.30","5e7abb2c6c89e4000a180b4a","bdp_trlrn","Fri Mar 10 2023 14:04:32 GMT-0600 (Central Standard Time)","830858","Trustworthy,Untrustworthy","","2368","","","","rating","","trustrating_stim/white_00761_941201_fb_edt.bmp","3","","","","","","","","","","",""
"image-keyboard-response","66","129603","0.0-6.0-2.30","5e7abb2c6c89e4000a180b4a","bdp_trlrn","Fri Mar 10 2023 14:04:32 GMT-0600 (Central Standard Time)","830858","Trustworthy,Untrustworthy","","null","","","","ratingFB","","trustrating_stim/white_00761_941201_fb_edt.bmp","null","","","","","","","","","","",""
"image-keyboard-response","67","131593","0.0-6.0-1.31","5e7abb2c6c89e4000a180b4a","bdp_trlrn","Fri Mar 10 2023 14:04:32 GMT-0600 (Central Standard Time)","830858","Trustworthy,Untrustworthy","","1879","","","","rating","","trustrating_stim/white_00223_940128_fb_edt.bmp","7","","","","","","","","","","",""
"image-keyboard-response","68","131805","0.0-6.0-2.31","5e7abb2c6c89e4000a180b4a","bdp_trlrn","Fri Mar 10 2023 14:04:32 GMT-0600 (Central Standard Time)","830858","Trustworthy,Untrustworthy","","null","","","","ratingFB","","trustrating_stim/white_00223_940128_fb_edt.bmp","null","","","","","","","","","","",""
"image-keyboard-response","69","133826","0.0-6.0-1.32","5e7abb2c6c89e4000a180b4a","bdp_trlrn","Fri Mar 10 2023 14:04:32 GMT-0600 (Central Standard Time)","830858","Trustworthy,Untrustworthy","","1918","","","","rating","","trustrating_stim/white_mw066.bmp","3","","","","","","","","","","",""
"image-keyboard-response","70","134035","0.0-6.0-2.32","5e7abb2c6c89e4000a180b4a","bdp_trlrn","Fri Mar 10 2023 14:04:32 GMT-0600 (Central Standard Time)","830858","Trustworthy,Untrustworthy","","null","","","","ratingFB","","trustrating_stim/white_mw066.bmp","null","","","","","","","","","","",""
"image-keyboard-response","71","136970","0.0-6.0-1.33","5e7abb2c6c89e4000a180b4a","bdp_trlrn","Fri Mar 10 2023 14:04:32 GMT-0600 (Central Standard Time)","830858","Trustworthy,Untrustworthy","","2826","","","","rating","","trustrating_stim/white_00129_931230_fb_edt.bmp","3","","","","","","","","","","",""
"image-keyboard-response","72","137181","0.0-6.0-2.33","5e7abb2c6c89e4000a180b4a","bdp_trlrn","Fri Mar 10 2023 14:04:32 GMT-0600 (Central Standard Time)","830858","Trustworthy,Untrustworthy","","null","","","","ratingFB","","trustrating_stim/white_00129_931230_fb_edt.bmp","null","","","","","","","","","","",""
"image-keyboard-response","73","139376","0.0-6.0-1.34","5e7abb2c6c89e4000a180b4a","bdp_trlrn","Fri Mar 10 2023 14:04:32 GMT-0600 (Central Standard Time)","830858","Trustworthy,Untrustworthy","","2084","","","","rating","","trustrating_stim/white_00785_941205_fb_edt.bmp","5","","","","","","","","","","",""
"image-keyboard-response","74","139582","0.0-6.0-2.34","5e7abb2c6c89e4000a180b4a","bdp_trlrn","Fri Mar 10 2023 14:04:32 GMT-0600 (Central Standard Time)","830858","Trustworthy,Untrustworthy","","null","","","","ratingFB","","trustrating_stim/white_00785_941205_fb_edt.bmp","null","","","","","","","","","","",""
"image-keyboard-response","75","141298","0.0-6.0-1.35","5e7abb2c6c89e4000a180b4a","bdp_trlrn","Fri Mar 10 2023 14:04:32 GMT-0600 (Central Standard Time)","830858","Trustworthy,Untrustworthy","","1607","","","","rating","","trustrating_stim/white_mw060.bmp","7","","","","","","","","","","",""
"image-keyboard-response","76","141513","0.0-6.0-2.35","5e7abb2c6c89e4000a180b4a","bdp_trlrn","Fri Mar 10 2023 14:04:32 GMT-0600 (Central Standard Time)","830858","Trustworthy,Untrustworthy","","null","","","","ratingFB","","trustrating_stim/white_mw060.bmp","null","","","","","","","","","","",""
"image-keyboard-response","77","144186","0.0-6.0-1.36","5e7abb2c6c89e4000a180b4a","bdp_trlrn","Fri Mar 10 2023 14:04:32 GMT-0600 (Central Standard Time)","830858","Trustworthy,Untrustworthy","","2568","","","","rating","","trustrating_stim/white_mw071.bmp","2","","","","","","","","","","",""
"image-keyboard-response","78","144390","0.0-6.0-2.36","5e7abb2c6c89e4000a180b4a","bdp_trlrn","Fri Mar 10 2023 14:04:32 GMT-0600 (Central Standard Time)","830858","Trustworthy,Untrustworthy","","null","","","","ratingFB","","trustrating_stim/white_mw071.bmp","null","","","","","","","","","","",""
"image-keyboard-response","79","152145","0.0-6.0-1.37","5e7abb2c6c89e4000a180b4a","bdp_trlrn","Fri Mar 10 2023 14:04:32 GMT-0600 (Central Standard Time)","830858","Trustworthy,Untrustworthy","","7646","","","","rating","","trustrating_stim/white_mw048.bmp","7","","","","","","","","","","",""
"image-keyboard-response","80","152351","0.0-6.0-2.37","5e7abb2c6c89e4000a180b4a","bdp_trlrn","Fri Mar 10 2023 14:04:32 GMT-0600 (Central Standard Time)","830858","Trustworthy,Untrustworthy","","null","","","","ratingFB","","trustrating_stim/white_mw048.bmp","null","","","","","","","","","","",""
"image-keyboard-response","81","155886","0.0-6.0-1.38","5e7abb2c6c89e4000a180b4a","bdp_trlrn","Fri Mar 10 2023 14:04:32 GMT-0600 (Central Standard Time)","830858","Trustworthy,Untrustworthy","","3425","","","","rating","","trustrating_stim/white_00807_941205_fb_edt.bmp","5","","","","","","","","","","",""
"image-keyboard-response","82","156090","0.0-6.0-2.38","5e7abb2c6c89e4000a180b4a","bdp_trlrn","Fri Mar 10 2023 14:04:32 GMT-0600 (Central Standard Time)","830858","Trustworthy,Untrustworthy","","null","","","","ratingFB","","trustrating_stim/white_00807_941205_fb_edt.bmp","null","","","","","","","","","","",""
"image-keyboard-response","83","162463","0.0-6.0-1.39","5e7abb2c6c89e4000a180b4a","bdp_trlrn","Fri Mar 10 2023 14:04:32 GMT-0600 (Central Standard Time)","830858","Trustworthy,Untrustworthy","","6264","","","","rating","","trustrating_stim/white_00577_940928_fa_edt.bmp","6","","","","","","","","","","",""
"image-keyboard-response","84","162668","0.0-6.0-2.39","5e7abb2c6c89e4000a180b4a","bdp_trlrn","Fri Mar 10 2023 14:04:32 GMT-0600 (Central Standard Time)","830858","Trustworthy,Untrustworthy","","null","","","","ratingFB","","trustrating_stim/white_00577_940928_fa_edt.bmp","null","","","","","","","","","","",""
"image-keyboard-response","85","164391","0.0-6.0-1.40","5e7abb2c6c89e4000a180b4a","bdp_trlrn","Fri Mar 10 2023 14:04:32 GMT-0600 (Central Standard Time)","830858","Trustworthy,Untrustworthy","","1613","","","","rating","","trustrating_stim/white_mw046.bmp","5","","","","","","","","","","",""
"image-keyboard-response","86","164596","0.0-6.0-2.40","5e7abb2c6c89e4000a180b4a","bdp_trlrn","Fri Mar 10 2023 14:04:32 GMT-0600 (Central Standard Time)","830858","Trustworthy,Untrustworthy","","null","","","","ratingFB","","trustrating_stim/white_mw046.bmp","null","","","","","","","","","","",""
"image-keyboard-response","87","166083","0.0-6.0-1.41","5e7abb2c6c89e4000a180b4a","bdp_trlrn","Fri Mar 10 2023 14:04:32 GMT-0600 (Central Standard Time)","830858","Trustworthy,Untrustworthy","","1378","","","","rating","","trustrating_stim/white_mw035.bmp","3","","","","","","","","","","",""
"image-keyboard-response","88","166292","0.0-6.0-2.41","5e7abb2c6c89e4000a180b4a","bdp_trlrn","Fri Mar 10 2023 14:04:32 GMT-0600 (Central Standard Time)","830858","Trustworthy,Untrustworthy","","null","","","","ratingFB","","trustrating_stim/white_mw035.bmp","null","","","","","","","","","","",""
"image-keyboard-response","89","168038","0.0-6.0-1.42","5e7abb2c6c89e4000a180b4a","bdp_trlrn","Fri Mar 10 2023 14:04:32 GMT-0600 (Central Standard Time)","830858","Trustworthy,Untrustworthy","","1637","","","","rating","","trustrating_stim/white_mw089.bmp","6","","","","","","","","","","",""
"image-keyboard-response","90","168242","0.0-6.0-2.42","5e7abb2c6c89e4000a180b4a","bdp_trlrn","Fri Mar 10 2023 14:04:32 GMT-0600 (Central Standard Time)","830858","Trustworthy,Untrustworthy","","null","","","","ratingFB","","trustrating_stim/white_mw089.bmp","null","","","","","","","","","","",""
"image-keyboard-response","91","172766","0.0-6.0-1.43","5e7abb2c6c89e4000a180b4a","bdp_trlrn","Fri Mar 10 2023 14:04:32 GMT-0600 (Central Standard Time)","830858","Trustworthy,Untrustworthy","","4422","","","","rating","","trustrating_stim/white_00340_940422_fa_edt.bmp","4","","","","","","","","","","",""
"image-keyboard-response","92","172978","0.0-6.0-2.43","5e7abb2c6c89e4000a180b4a","bdp_trlrn","Fri Mar 10 2023 14:04:32 GMT-0600 (Central Standard Time)","830858","Trustworthy,Untrustworthy","","null","","","","ratingFB","","trustrating_stim/white_00340_940422_fa_edt.bmp","null","","","","","","","","","","",""
"image-keyboard-response","93","175288","0.0-6.0-1.44","5e7abb2c6c89e4000a180b4a","bdp_trlrn","Fri Mar 10 2023 14:04:32 GMT-0600 (Central Standard Time)","830858","Trustworthy,Untrustworthy","","2199","","","","rating","","trustrating_stim/white_mw056.bmp","4","","","","","","","","","","",""
"image-keyboard-response","94","175490","0.0-6.0-2.44","5e7abb2c6c89e4000a180b4a","bdp_trlrn","Fri Mar 10 2023 14:04:32 GMT-0600 (Central Standard Time)","830858","Trustworthy,Untrustworthy","","null","","","","ratingFB","","trustrating_stim/white_mw056.bmp","null","","","","","","","","","","",""
"image-keyboard-response","95","177412","0.0-6.0-1.45","5e7abb2c6c89e4000a180b4a","bdp_trlrn","Fri Mar 10 2023 14:04:32 GMT-0600 (Central Standard Time)","830858","Trustworthy,Untrustworthy","","1813","","","","rating","","trustrating_stim/white_00757_941201_fa_edt.bmp","7","","","","","","","","","","",""
"image-keyboard-response","96","177621","0.0-6.0-2.45","5e7abb2c6c89e4000a180b4a","bdp_trlrn","Fri Mar 10 2023 14:04:32 GMT-0600 (Central Standard Time)","830858","Trustworthy,Untrustworthy","","null","","","","ratingFB","","trustrating_stim/white_00757_941201_fa_edt.bmp","null","","","","","","","","","","",""
"image-keyboard-response","97","179396","0.0-6.0-1.46","5e7abb2c6c89e4000a180b4a","bdp_trlrn","Fri Mar 10 2023 14:04:32 GMT-0600 (Central Standard Time)","830858","Trustworthy,Untrustworthy","","1666","","","","rating","","trustrating_stim/white_00120_931230_fa_edt.bmp","3","","","","","","","","","","",""
"image-keyboard-response","98","179598","0.0-6.0-2.46","5e7abb2c6c89e4000a180b4a","bdp_trlrn","Fri Mar 10 2023 14:04:32 GMT-0600 (Central Standard Time)","830858","Trustworthy,Untrustworthy","","null","","","","ratingFB","","trustrating_stim/white_00120_931230_fa_edt.bmp","null","","","","","","","","","","",""
"image-keyboard-response","99","186104","0.0-6.0-1.47","5e7abb2c6c89e4000a180b4a","bdp_trlrn","Fri Mar 10 2023 14:04:32 GMT-0600 (Central Standard Time)","830858","Trustworthy,Untrustworthy","","6396","","","","rating","","trustrating_stim/white_mw097.bmp","5","","","","","","","","","","",""
"image-keyboard-response","100","186311","0.0-6.0-2.47","5e7abb2c6c89e4000a180b4a","bdp_trlrn","Fri Mar 10 2023 14:04:32 GMT-0600 (Central Standard Time)","830858","Trustworthy,Untrustworthy","","null","","","","ratingFB","","trustrating_stim/white_mw097.bmp","null","","","","","","","","","","",""
"image-keyboard-response","101","188053","0.0-6.0-1.48","5e7abb2c6c89e4000a180b4a","bdp_trlrn","Fri Mar 10 2023 14:04:32 GMT-0600 (Central Standard Time)","830858","Trustworthy,Untrustworthy","","1632","","","","rating","","trustrating_stim/white_00602_940928_fb_edt.bmp","1","","","","","","","","","","",""
"image-keyboard-response","102","188258","0.0-6.0-2.48","5e7abb2c6c89e4000a180b4a","bdp_trlrn","Fri Mar 10 2023 14:04:32 GMT-0600 (Central Standard Time)","830858","Trustworthy,Untrustworthy","","null","","","","ratingFB","","trustrating_stim/white_00602_940928_fb_edt.bmp","null","","","","","","","","","","",""
"image-keyboard-response","103","189902","0.0-6.0-1.49","5e7abb2c6c89e4000a180b4a","bdp_trlrn","Fri Mar 10 2023 14:04:32 GMT-0600 (Central Standard Time)","830858","Trustworthy,Untrustworthy","","1534","","","","rating","","trustrating_stim/white_00299_940422_fa_edt.bmp","3","","","","","","","","","","",""
"image-keyboard-response","104","190112","0.0-6.0-2.49","5e7abb2c6c89e4000a180b4a","bdp_trlrn","Fri Mar 10 2023 14:04:32 GMT-0600 (Central Standard Time)","830858","Trustworthy,Untrustworthy","","null","","","","ratingFB","","trustrating_stim/white_00299_940422_fa_edt.bmp","null","","","","","","","","","","",""
"image-keyboard-response","105","191884","0.0-6.0-1.50","5e7abb2c6c89e4000a180b4a","bdp_trlrn","Fri Mar 10 2023 14:04:32 GMT-0600 (Central Standard Time)","830858","Trustworthy,Untrustworthy","","1668","","","","rating","","trustrating_stim/white_mw033.bmp","4","","","","","","","","","","",""
"image-keyboard-response","106","192094","0.0-6.0-2.50","5e7abb2c6c89e4000a180b4a","bdp_trlrn","Fri Mar 10 2023 14:04:32 GMT-0600 (Central Standard Time)","830858","Trustworthy,Untrustworthy","","null","","","","ratingFB","","trustrating_stim/white_mw033.bmp","null","","","","","","","","","","",""
"image-keyboard-response","107","193504","0.0-6.0-1.51","5e7abb2c6c89e4000a180b4a","bdp_trlrn","Fri Mar 10 2023 14:04:32 GMT-0600 (Central Standard Time)","830858","Trustworthy,Untrustworthy","","1300","","","","rating","","trustrating_stim/white_00898_960530_fa_edt.bmp","6","","","","","","","","","","",""
"image-keyboard-response","108","193715","0.0-6.0-2.51","5e7abb2c6c89e4000a180b4a","bdp_trlrn","Fri Mar 10 2023 14:04:32 GMT-0600 (Central Standard Time)","830858","Trustworthy,Untrustworthy","","null","","","","ratingFB","","trustrating_stim/white_00898_960530_fa_edt.bmp","null","","","","","","","","","","",""
"image-keyboard-response","109","195374","0.0-6.0-1.52","5e7abb2c6c89e4000a180b4a","bdp_trlrn","Fri Mar 10 2023 14:04:32 GMT-0600 (Central Standard Time)","830858","Trustworthy,Untrustworthy","","1550","","","","rating","","trustrating_stim/white_mw099.bmp","6","","","","","","","","","","",""
"image-keyboard-response","110","195590","0.0-6.0-2.52","5e7abb2c6c89e4000a180b4a","bdp_trlrn","Fri Mar 10 2023 14:04:32 GMT-0600 (Central Standard Time)","830858","Trustworthy,Untrustworthy","","null","","","","ratingFB","","trustrating_stim/white_mw099.bmp","null","","","","","","","","","","",""
"image-keyboard-response","111","199777","0.0-6.0-1.53","5e7abb2c6c89e4000a180b4a","bdp_trlrn","Fri Mar 10 2023 14:04:32 GMT-0600 (Central Standard Time)","830858","Trustworthy,Untrustworthy","","4077","","","","rating","","trustrating_stim/white_mw049.bmp","4","","","","","","","","","","",""
"image-keyboard-response","112","199994","0.0-6.0-2.53","5e7abb2c6c89e4000a180b4a","bdp_trlrn","Fri Mar 10 2023 14:04:32 GMT-0600 (Central Standard Time)","830858","Trustworthy,Untrustworthy","","null","","","","ratingFB","","trustrating_stim/white_mw049.bmp","null","","","","","","","","","","",""
"image-keyboard-response","113","201462","0.0-6.0-1.54","5e7abb2c6c89e4000a180b4a","bdp_trlrn","Fri Mar 10 2023 14:04:32 GMT-0600 (Central Standard Time)","830858","Trustworthy,Untrustworthy","","1357","","","","rating","","trustrating_stim/white_mw063.bmp","7","","","","","","","","","","",""
"image-keyboard-response","114","201677","0.0-6.0-2.54","5e7abb2c6c89e4000a180b4a","bdp_trlrn","Fri Mar 10 2023 14:04:32 GMT-0600 (Central Standard Time)","830858","Trustworthy,Untrustworthy","","null","","","","ratingFB","","trustrating_stim/white_mw063.bmp","null","","","","","","","","","","",""
"image-keyboard-response","115","203308","0.0-6.0-1.55","5e7abb2c6c89e4000a180b4a","bdp_trlrn","Fri Mar 10 2023 14:04:32 GMT-0600 (Central Standard Time)","830858","Trustworthy,Untrustworthy","","1521","","","","rating","","trustrating_stim/white_00659_941121_fa_edt.bmp","6","","","","","","","","","","",""
"image-keyboard-response","116","203517","0.0-6.0-2.55","5e7abb2c6c89e4000a180b4a","bdp_trlrn","Fri Mar 10 2023 14:04:32 GMT-0600 (Central Standard Time)","830858","Trustworthy,Untrustworthy","","null","","","","ratingFB","","trustrating_stim/white_00659_941121_fa_edt.bmp","null","","","","","","","","","","",""
"image-keyboard-response","117","205146","0.0-6.0-1.56","5e7abb2c6c89e4000a180b4a","bdp_trlrn","Fri Mar 10 2023 14:04:32 GMT-0600 (Central Standard Time)","830858","Trustworthy,Untrustworthy","","1524","","","","rating","","trustrating_stim/white_mw084.bmp","6","","","","","","","","","","",""
"image-keyboard-response","118","205358","0.0-6.0-2.56","5e7abb2c6c89e4000a180b4a","bdp_trlrn","Fri Mar 10 2023 14:04:32 GMT-0600 (Central Standard Time)","830858","Trustworthy,Untrustworthy","","null","","","","ratingFB","","trustrating_stim/white_mw084.bmp","null","","","","","","","","","","",""
"image-keyboard-response","119","210392","0.0-6.0-1.57","5e7abb2c6c89e4000a180b4a","bdp_trlrn","Fri Mar 10 2023 14:04:32 GMT-0600 (Central Standard Time)","830858","Trustworthy,Untrustworthy","","4924","","","","rating","","trustrating_stim/white_mw053.bmp","4","","","","","","","","","","",""
"image-keyboard-response","120","210605","0.0-6.0-2.57","5e7abb2c6c89e4000a180b4a","bdp_trlrn","Fri Mar 10 2023 14:04:32 GMT-0600 (Central Standard Time)","830858","Trustworthy,Untrustworthy","","null","","","","ratingFB","","trustrating_stim/white_mw053.bmp","null","","","","","","","","","","",""
"image-keyboard-response","121","212000","0.0-6.0-1.58","5e7abb2c6c89e4000a180b4a","bdp_trlrn","Fri Mar 10 2023 14:04:32 GMT-0600 (Central Standard Time)","830858","Trustworthy,Untrustworthy","","1283","","","","rating","","trustrating_stim/white_00519_940519_fb_edt.bmp","5","","","","","","","","","","",""
"image-keyboard-response","122","212214","0.0-6.0-2.58","5e7abb2c6c89e4000a180b4a","bdp_trlrn","Fri Mar 10 2023 14:04:32 GMT-0600 (Central Standard Time)","830858","Trustworthy,Untrustworthy","","null","","","","ratingFB","","trustrating_stim/white_00519_940519_fb_edt.bmp","null","","","","","","","","","","",""
"image-keyboard-response","123","214160","0.0-6.0-1.59","5e7abb2c6c89e4000a180b4a","bdp_trlrn","Fri Mar 10 2023 14:04:32 GMT-0600 (Central Standard Time)","830858","Trustworthy,Untrustworthy","","1841","","","","rating","","trustrating_stim/white_00109_931230_fa_edt.bmp","3","","","","","","","","","","",""
"image-keyboard-response","124","214362","0.0-6.0-2.59","5e7abb2c6c89e4000a180b4a","bdp_trlrn","Fri Mar 10 2023 14:04:32 GMT-0600 (Central Standard Time)","830858","Trustworthy,Untrustworthy","","null","","","","ratingFB","","trustrating_stim/white_00109_931230_fa_edt.bmp","null","","","","","","","","","","",""
"instructions","125","218198","0.0-7.0","5e7abb2c6c89e4000a180b4a","bdp_trlrn","Fri Mar 10 2023 14:04:32 GMT-0600 (Central Standard Time)","830858","Trustworthy,Untrustworthy","[{""page_index"":0,""viewing_time"":3727}]","3727","","","","","","","","","","","","","","","","","",""
"instructions","126","328017","0.0-8.0","5e7abb2c6c89e4000a180b4a","bdp_trlrn","Fri Mar 10 2023 14:04:32 GMT-0600 (Central Standard Time)","830858","Trustworthy,Untrustworthy","[{""page_index"":0,""viewing_time"":19408},{""page_index"":1,""viewing_time"":14891},{""page_index"":2,""viewing_time"":9082},{""page_index"":3,""viewing_time"":8224},{""page_index"":4,""viewing_time"":10065},{""page_index"":5,""viewing_time"":9920},{""page_index"":6,""viewing_time"":33611},{""page_index"":7,""viewing_time"":4503}]","109704","","","","","","","","","","","","","","","","","",""
"html-keyboard-response","127","331030","0.0-9.0","5e7abb2c6c89e4000a180b4a","bdp_trlrn","Fri Mar 10 2023 14:04:32 GMT-0600 (Central Standard Time)","830858","Trustworthy,Untrustworthy","","3010","","","","","","<div class='header' style='text-align:left; position: absolute; top: 5%; left: 5%;'><small>Task 2 of 5</small></div><div class='instruxDiv'><p><strong>1) What is the minimum number of points you can choose to send to your partner?</strong></p><p>a) 0</p><p>b) 1</p><p>c) 5</p>","B","","","","","","","","","","",""
"html-keyboard-response","128","334050","0.0-10.0","5e7abb2c6c89e4000a180b4a","bdp_trlrn","Fri Mar 10 2023 14:04:32 GMT-0600 (Central Standard Time)","830858","Trustworthy,Untrustworthy","","2905","","","","","","<div class='header' style='text-align:left; position: absolute; top: 5%; left: 5%;'><small>Task 2 of 5</small></div><div class='instruxDiv'><p><strong>1) What is the minimum number of points you can choose to send to your partner?</strong></p><p>a) 0</p><p style='color:#00FF00'>b) 1</p><p>c) 5</p><h3 style='color:#00FF00'>Correct!</h3><h3 class='center-content'>The correct response is b).</h3><h3 class='center-content'>The minimum number of points you can choose to send to your partner is 1 point.</h3><p><em>Press SPACEBAR to continue</em></p></div>"," ","","","","","","","","","","",""
"html-keyboard-response","129","339665","0.0-11.0","5e7abb2c6c89e4000a180b4a","bdp_trlrn","Fri Mar 10 2023 14:04:32 GMT-0600 (Central Standard Time)","830858","Trustworthy,Untrustworthy","","5505","","","","","","<div class='header' style='text-align:left; position: absolute; top: 5%; left: 5%;'><small>Task 2 of 5</small></div><div class='instruxDiv'><p><strong>2) What is the maximum number of points you can choose to send to your partner?</strong></p><p>a) 8</p><p>b) 5</p><p>c) 3</p>","B","","","","","","","","","","",""
"html-keyboard-response","130","343344","0.0-12.0","5e7abb2c6c89e4000a180b4a","bdp_trlrn","Fri Mar 10 2023 14:04:32 GMT-0600 (Central Standard Time)","830858","Trustworthy,Untrustworthy","","3565","","","","","","<div class='header' style='text-align:left; position: absolute; top: 5%; left: 5%;'><small>Task 2 of 5</small></div><div class='instruxDiv'><p><strong>2) What is the maximum number of points you can choose to send to your partner?</strong></p><p>a) 8</p><p style='color:#00FF00'>b) 5</p><p>c) 3</p><h3 style='color:#00FF00'>Correct!</h3><h3 class='center-content'>The correct response is b).</h3><h3 class='center-content'>The maximum number of points you can choose to send to your partner is 5 points.</h3><p><em>Press SPACEBAR to continue</em></p></div>"," ","","","","","","","","","","",""
"html-keyboard-response","131","345881","0.0-13.0","5e7abb2c6c89e4000a180b4a","bdp_trlrn","Fri Mar 10 2023 14:04:32 GMT-0600 (Central Standard Time)","830858","Trustworthy,Untrustworthy","","2425","","","","","","<div class='header' style='text-align:left; position: absolute; top: 5%; left: 5%;'><small>Task 2 of 5</small></div><div class='instruxDiv'><p><strong>3) What happens to the amount of points you send to your partner?</strong></p><p>a) Nothing</p><p>b) It doubles</p><p>c) It quadruples</p>","C","","","","","","","","","","",""
"html-keyboard-response","132","349989","0.0-14.0","5e7abb2c6c89e4000a180b4a","bdp_trlrn","Fri Mar 10 2023 14:04:32 GMT-0600 (Central Standard Time)","830858","Trustworthy,Untrustworthy","","4002","","","","","","<div class='header' style='text-align:left; position: absolute; top: 5%; left: 5%;'><small>Task 2 of 5</small></div><div class='instruxDiv'><p><strong>3) What happens to the amount of points you send to your partner?</strong></p><p>a) Nothing</p><p>b) It doubles</p><p style='color:#00FF00'>c) It quadruples</p><h3 style='color:#00FF00'>Correct!</h3><h3 class='center-content'>The correct response is c).</h3><h3 class='center-content'>The amount of points you send to your partner quadruples.</h3><p><em>Press SPACEBAR to continue</em></p></div>"," ","","","","","","","","","","",""
"html-keyboard-response","133","359451","0.0-15.0","5e7abb2c6c89e4000a180b4a","bdp_trlrn","Fri Mar 10 2023 14:04:32 GMT-0600 (Central Standard Time)","830858","Trustworthy,Untrustworthy","","9354","","","","","","<div class='header' style='text-align:left; position: absolute; top: 5%; left: 5%;'><small>Task 2 of 5</small></div><div class='instruxDiv'><p><strong>4) If you decided to share 4 out of 5 points with your partner, and they decided to share half of the amount they received with you, how many points would you receive back from them on this round?</strong></p><p>a) 16</p><p>b) 0</p><p>c) 8</p>","C","","","","","","","","","","",""
"html-keyboard-response","134","381409","0.0-16.0","5e7abb2c6c89e4000a180b4a","bdp_trlrn","Fri Mar 10 2023 14:04:32 GMT-0600 (Central Standard Time)","830858","Trustworthy,Untrustworthy","","21849","","","","","","<div class='header' style='text-align:left; position: absolute; top: 5%; left: 5%;'><small>Task 2 of 5</small></div><div class='instruxDiv'><p><strong>4) If you decided to share 4 out of 5 points with your partner, and they decided to share half of the amount they received with you, how many points would you receive back from them on this round?</strong></p><p>a) 16</p><p>b) 0</p><p style='color:#00FF00'>c) 8</p><h3 style='color:#00FF00'>Correct!</h3><h3 class='center-content'>The correct response is c).</h3><h3 class='center-content'>If you shared 4 out of 5 points with your partner and they decided to share half of the amount they received with you, you would receive 8 points back (i.e. (4 x 4)/2 = 8).</h3><p><em>Press SPACEBAR to continue</em></p></div>"," ","","","","","","","","","","",""
"html-keyboard-response","135","386528","0.0-17.0","5e7abb2c6c89e4000a180b4a","bdp_trlrn","Fri Mar 10 2023 14:04:32 GMT-0600 (Central Standard Time)","830858","Trustworthy,Untrustworthy","","null","","","","","","<div class='header' style='text-align:left; position: absolute; top: 5%; left: 5%;'><small>Task 2 of 5</small></div><div class='instruxDiv'><p>Thank you for completing the quiz<p>These are the actual partners you will be interacting with in the next block:<p><div class='tc' align='center'><img class='introPic' src='trustrating_stim/white_mw066.bmp'><br><strong>Jordan</strong></div><div class='bl' align='center'><img class='introPic' src='trustrating_stim/white_mw046.bmp'><br><strong>Sean</strong></div><div class='br' align='center'><img class='introPic' src='trustrating_stim/white_mw048.bmp'><br><strong>Sebastian</strong></div></div><p>Across <strong>66 rounds</strong> you will interact with each partner <strong>22 times</strong> (in random order).<p style='align:center; color:white'><font <em>Press SPACEBAR to continue</em></p>","null","","","","","","","","","","",""
"instructions","136","391251","0.0-18.0","5e7abb2c6c89e4000a180b4a","bdp_trlrn","Fri Mar 10 2023 14:04:32 GMT-0600 (Central Standard Time)","830858","Trustworthy,Untrustworthy","[{""page_index"":0,""viewing_time"":1628},{""page_index"":1,""viewing_time"":3094}]","4722","","","","","","","","","","","","","","","","","",""
"html-keyboard-response","137","396830","0.0-19.0-1.0","5e7abb2c6c89e4000a180b4a","bdp_trlrn","Fri Mar 10 2023 14:04:32 GMT-0600 (Central Standard Time)","830858","Trustworthy,Untrustworthy","","5471","","","","decision","","<div class='trialDiv'><img src='trustrating_stim/white_mw046.bmp'><br><font class='baseline'><strong>Sean</strong><p>Choose number of points to send.</font><div class='respPicDiv'><img src='img/responseButtonOffersNo0L.png' class='respPic'></div></div>","3","1","Sean","6","Kept","0.2,0.8","14","0.2","trustrating_stim/white_mw046.bmp","5.5","5","1"
"html-keyboard-response","138","397095","0.0-19.0-2.0","5e7abb2c6c89e4000a180b4a","bdp_trlrn","Fri Mar 10 2023 14:04:32 GMT-0600 (Central Standard Time)","830858","Trustworthy,Untrustworthy","","null","","","","decisionFB","","<div class='trialDiv'><img src='trustrating_stim/white_mw046.bmp'><br><font class='baseline'><strong>Sean</strong><p>Choose number of points to send.</font><div class='respPicDiv'><img src='img/responseButtonOffersNo0L3.png' class='respPic'></div></div>","null","1","Sean","6","Kept","0.2,0.8","14","0.2","trustrating_stim/white_mw046.bmp","5.5","2","1"
"html-keyboard-response","139","398105","0.0-19.0-3.0","5e7abb2c6c89e4000a180b4a","bdp_trlrn","Fri Mar 10 2023 14:04:32 GMT-0600 (Central Standard Time)","830858","Trustworthy,Untrustworthy","","null","","","","feedback","","<div class='trialDiv'><img src='trustrating_stim/white_mw046.bmp'><br><font class='baseline'><strong>Sean</strong><p>Received: <strong>12</strong></font> &nbsp; &nbsp; &nbsp; &nbsp; &nbsp; &nbsp;<font class='negOutcome'>Shared back: <strong>0</strong></font></font><div class='respPicDiv'><img src='img/responseButtonOffersNo0_wht.png' class='respPic'></div></div>","null","1","Sean","6","Kept","0.2,0.8","14","0.2","trustrating_stim/white_mw046.bmp","5.5","2","1"
"html-keyboard-response","140","401794","0.0-19.0-1.1","5e7abb2c6c89e4000a180b4a","bdp_trlrn","Fri Mar 10 2023 14:04:32 GMT-0600 (Central Standard Time)","830858","Trustworthy,Untrustworthy","","3687","","","","decision","","<div class='trialDiv'><img src='trustrating_stim/white_mw066.bmp'><br><font class='baseline'><strong>Jordan</strong><p>Choose number of points to send.</font><div class='respPicDiv'><img src='img/responseButtonOffersNo0L.png' class='respPic'></div></div>","4","1","Jordan","3","Kept","0.2,0.65","10","0.2","trustrating_stim/white_mw066.bmp","3","7","2"
"html-keyboard-response","141","402053","0.0-19.0-2.1","5e7abb2c6c89e4000a180b4a","bdp_trlrn","Fri Mar 10 2023 14:04:32 GMT-0600 (Central Standard Time)","830858","Trustworthy,Untrustworthy","","null","","","","decisionFB","","<div class='trialDiv'><img src='trustrating_stim/white_mw066.bmp'><br><font class='baseline'><strong>Jordan</strong><p>Choose number of points to send.</font><div class='respPicDiv'><img src='img/responseButtonOffersNo0L4.png' class='respPic'></div></div>","null","1","Jordan","3","Kept","0.2,0.65","10","0.2","trustrating_stim/white_mw066.bmp","3","3","2"
"html-keyboard-response","142","403063","0.0-19.0-3.1","5e7abb2c6c89e4000a180b4a","bdp_trlrn","Fri Mar 10 2023 14:04:32 GMT-0600 (Central Standard Time)","830858","Trustworthy,Untrustworthy","","null","","","","feedback","","<div class='trialDiv'><img src='trustrating_stim/white_mw066.bmp'><br><font class='baseline'><strong>Jordan</strong><p>Received: <strong>16</strong></font> &nbsp; &nbsp; &nbsp; &nbsp; &nbsp; &nbsp;<font class='negOutcome'>Shared back: <strong>0</strong></font></font><div class='respPicDiv'><img src='img/responseButtonOffersNo0_wht.png' class='respPic'></div></div>","null","1","Jordan","3","Kept","0.2,0.65","10","0.2","trustrating_stim/white_mw066.bmp","3","3","2"
"html-keyboard-response","143","407324","0.0-19.0-1.2","5e7abb2c6c89e4000a180b4a","bdp_trlrn","Fri Mar 10 2023 14:04:32 GMT-0600 (Central Standard Time)","830858","Trustworthy,Untrustworthy","","4258","","","","decision","","<div class='trialDiv'><img src='trustrating_stim/white_mw048.bmp'><br><font class='baseline'><strong>Sebastian</strong><p>Choose number of points to send.</font><div class='respPicDiv'><img src='img/responseButtonOffersNo0L.png' class='respPic'></div></div>","2","1","Sebastian","10","Shared","0.8,0.35","8","0.8","trustrating_stim/white_mw048.bmp","7","8","3"
"html-keyboard-response","144","407579","0.0-19.0-2.2","5e7abb2c6c89e4000a180b4a","bdp_trlrn","Fri Mar 10 2023 14:04:32 GMT-0600 (Central Standard Time)","830858","Trustworthy,Untrustworthy","","null","","","","decisionFB","","<div class='trialDiv'><img src='trustrating_stim/white_mw048.bmp'><br><font class='baseline'><strong>Sebastian</strong><p>Choose number of points to send.</font><div class='respPicDiv'><img src='img/responseButtonOffersNo0L2.png' class='respPic'></div></div>","null","1","Sebastian","10","Shared","0.8,0.35","8","0.8","trustrating_stim/white_mw048.bmp","7","6","3"
"html-keyboard-response","145","408592","0.0-19.0-3.2","5e7abb2c6c89e4000a180b4a","bdp_trlrn","Fri Mar 10 2023 14:04:32 GMT-0600 (Central Standard Time)","830858","Trustworthy,Untrustworthy","","null","","","","feedback","","<div class='trialDiv'><img src='trustrating_stim/white_mw048.bmp'><br><font class='baseline'><strong>Sebastian</strong><p>Received: <strong>8</strong></font> &nbsp; &nbsp; &nbsp; &nbsp; &nbsp; &nbsp;<font class='posOutcome'>Shared back: <strong>4</strong></font></font><div class='respPicDiv'><img src='img/responseButtonOffersNo0_wht.png' class='respPic'></div></div>","null","1","Sebastian","10","Shared","0.8,0.35","8","0.8","trustrating_stim/white_mw048.bmp","7","10","3"
"html-keyboard-response","146","412316","0.0-19.0-1.3","5e7abb2c6c89e4000a180b4a","bdp_trlrn","Fri Mar 10 2023 14:04:32 GMT-0600 (Central Standard Time)","830858","Trustworthy,Untrustworthy","","3723","","","","decision","","<div class='trialDiv'><img src='trustrating_stim/white_mw066.bmp'><br><font class='baseline'><strong>Jordan</strong><p>Choose number of points to send.</font><div class='respPicDiv'><img src='img/responseButtonOffersNo0L.png' class='respPic'></div></div>","1","2","Jordan","3","Shared","0.2,0.65","10","0.2","trustrating_stim/white_mw066.bmp","3","15","4"
"html-keyboard-response","147","412577","0.0-19.0-2.3","5e7abb2c6c89e4000a180b4a","bdp_trlrn","Fri Mar 10 2023 14:04:32 GMT-0600 (Central Standard Time)","830858","Trustworthy,Untrustworthy","","null","","","","decisionFB","","<div class='trialDiv'><img src='trustrating_stim/white_mw066.bmp'><br><font class='baseline'><strong>Jordan</strong><p>Choose number of points to send.</font><div class='respPicDiv'><img src='img/responseButtonOffersNo0L1.png' class='respPic'></div></div>","null","2","Jordan","3","Shared","0.2,0.65","10","0.2","trustrating_stim/white_mw066.bmp","3","14","4"
"html-keyboard-response","148","413593","0.0-19.0-3.3","5e7abb2c6c89e4000a180b4a","bdp_trlrn","Fri Mar 10 2023 14:04:32 GMT-0600 (Central Standard Time)","830858","Trustworthy,Untrustworthy","","null","","","","feedback","","<div class='trialDiv'><img src='trustrating_stim/white_mw066.bmp'><br><font class='baseline'><strong>Jordan</strong><p>Received: <strong>4</strong></font> &nbsp; &nbsp; &nbsp; &nbsp; &nbsp; &nbsp;<font class='posOutcome'>Shared back: <strong>2</strong></font></font><div class='respPicDiv'><img src='img/responseButtonOffersNo0_wht.png' class='respPic'></div></div>","null","2","Jordan","3","Shared","0.2,0.65","10","0.2","trustrating_stim/white_mw066.bmp","3","16","4"
"html-keyboard-response","149","415157","0.0-19.0-1.4","5e7abb2c6c89e4000a180b4a","bdp_trlrn","Fri Mar 10 2023 14:04:32 GMT-0600 (Central Standard Time)","830858","Trustworthy,Untrustworthy","","1562","","","","decision","","<div class='trialDiv'><img src='trustrating_stim/white_mw046.bmp'><br><font class='baseline'><strong>Sean</strong><p>Choose number of points to send.</font><div class='respPicDiv'><img src='img/responseButtonOffersNo0L.png' class='respPic'></div></div>","1","2","Sean","6","Kept","0.2,0.8","14","0.2","trustrating_stim/white_mw046.bmp","5.5","21","5"
"html-keyboard-response","150","415417","0.0-19.0-2.4","5e7abb2c6c89e4000a180b4a","bdp_trlrn","Fri Mar 10 2023 14:04:32 GMT-0600 (Central Standard Time)","830858","Trustworthy,Untrustworthy","","null","","","","decisionFB","","<div class='trialDiv'><img src='trustrating_stim/white_mw046.bmp'><br><font class='baseline'><strong>Sean</strong><p>Choose number of points to send.</font><div class='respPicDiv'><img src='img/responseButtonOffersNo0L1.png' class='respPic'></div></div>","null","2","Sean","6","Kept","0.2,0.8","14","0.2","trustrating_stim/white_mw046.bmp","5.5","20","5"
"html-keyboard-response","151","416432","0.0-19.0-3.4","5e7abb2c6c89e4000a180b4a","bdp_trlrn","Fri Mar 10 2023 14:04:32 GMT-0600 (Central Standard Time)","830858","Trustworthy,Untrustworthy","","null","","","","feedback","","<div class='trialDiv'><img src='trustrating_stim/white_mw046.bmp'><br><font class='baseline'><strong>Sean</strong><p>Received: <strong>4</strong></font> &nbsp; &nbsp; &nbsp; &nbsp; &nbsp; &nbsp;<font class='negOutcome'>Shared back: <strong>0</strong></font></font><div class='respPicDiv'><img src='img/responseButtonOffersNo0_wht.png' class='respPic'></div></div>","null","2","Sean","6","Kept","0.2,0.8","14","0.2","trustrating_stim/white_mw046.bmp","5.5","20","5"
"html-keyboard-response","152","421148","0.0-19.0-1.5","5e7abb2c6c89e4000a180b4a","bdp_trlrn","Fri Mar 10 2023 14:04:32 GMT-0600 (Central Standard Time)","830858","Trustworthy,Untrustworthy","","4713","","","","decision","","<div class='trialDiv'><img src='trustrating_stim/white_mw048.bmp'><br><font class='baseline'><strong>Sebastian</strong><p>Choose number of points to send.</font><div class='respPicDiv'><img src='img/responseButtonOffersNo0L.png' class='respPic'></div></div>","5","2","Sebastian","10","Shared","0.8,0.35","8","0.8","trustrating_stim/white_mw048.bmp","7","25","6"
"html-keyboard-response","153","421405","0.0-19.0-2.5","5e7abb2c6c89e4000a180b4a","bdp_trlrn","Fri Mar 10 2023 14:04:32 GMT-0600 (Central Standard Time)","830858","Trustworthy,Untrustworthy","","null","","","","decisionFB","","<div class='trialDiv'><img src='trustrating_stim/white_mw048.bmp'><br><font class='baseline'><strong>Sebastian</strong><p>Choose number of points to send.</font><div class='respPicDiv'><img src='img/responseButtonOffersNo0L5.png' class='respPic'></div></div>","null","2","Sebastian","10","Shared","0.8,0.35","8","0.8","trustrating_stim/white_mw048.bmp","7","20","6"
"html-keyboard-response","154","422417","0.0-19.0-3.5","5e7abb2c6c89e4000a180b4a","bdp_trlrn","Fri Mar 10 2023 14:04:32 GMT-0600 (Central Standard Time)","830858","Trustworthy,Untrustworthy","","null","","","","feedback","","<div class='trialDiv'><img src='trustrating_stim/white_mw048.bmp'><br><font class='baseline'><strong>Sebastian</strong><p>Received: <strong>20</strong></font> &nbsp; &nbsp; &nbsp; &nbsp; &nbsp; &nbsp;<font class='posOutcome'>Shared back: <strong>10</strong></font></font><div class='respPicDiv'><img src='img/responseButtonOffersNo0_wht.png' class='respPic'></div></div>","null","2","Sebastian","10","Shared","0.8,0.35","8","0.8","trustrating_stim/white_mw048.bmp","7","30","6"
"html-keyboard-response","155","429063","0.0-19.0-1.6","5e7abb2c6c89e4000a180b4a","bdp_trlrn","Fri Mar 10 2023 14:04:32 GMT-0600 (Central Standard Time)","830858","Trustworthy,Untrustworthy","","6643","","","","decision","","<div class='trialDiv'><img src='trustrating_stim/white_mw066.bmp'><br><font class='baseline'><strong>Jordan</strong><p>Choose number of points to send.</font><div class='respPicDiv'><img src='img/responseButtonOffersNo0L.png' class='respPic'></div></div>","1","3","Jordan","3","Kept","0.2,0.65","10","0.2","trustrating_stim/white_mw066.bmp","3","35","7"
"html-keyboard-response","156","429325","0.0-19.0-2.6","5e7abb2c6c89e4000a180b4a","bdp_trlrn","Fri Mar 10 2023 14:04:32 GMT-0600 (Central Standard Time)","830858","Trustworthy,Untrustworthy","","null","","","","decisionFB","","<div class='trialDiv'><img src='trustrating_stim/white_mw066.bmp'><br><font class='baseline'><strong>Jordan</strong><p>Choose number of points to send.</font><div class='respPicDiv'><img src='img/responseButtonOffersNo0L1.png' class='respPic'></div></div>","null","3","Jordan","3","Kept","0.2,0.65","10","0.2","trustrating_stim/white_mw066.bmp","3","34","7"
"html-keyboard-response","157","430339","0.0-19.0-3.6","5e7abb2c6c89e4000a180b4a","bdp_trlrn","Fri Mar 10 2023 14:04:32 GMT-0600 (Central Standard Time)","830858","Trustworthy,Untrustworthy","","null","","","","feedback","","<div class='trialDiv'><img src='trustrating_stim/white_mw066.bmp'><br><font class='baseline'><strong>Jordan</strong><p>Received: <strong>4</strong></font> &nbsp; &nbsp; &nbsp; &nbsp; &nbsp; &nbsp;<font class='negOutcome'>Shared back: <strong>0</strong></font></font><div class='respPicDiv'><img src='img/responseButtonOffersNo0_wht.png' class='respPic'></div></div>","null","3","Jordan","3","Kept","0.2,0.65","10","0.2","trustrating_stim/white_mw066.bmp","3","34","7"
"html-keyboard-response","158","434240","0.0-19.0-1.7","5e7abb2c6c89e4000a180b4a","bdp_trlrn","Fri Mar 10 2023 14:04:32 GMT-0600 (Central Standard Time)","830858","Trustworthy,Untrustworthy","","3900","","","","decision","","<div class='trialDiv'><img src='trustrating_stim/white_mw048.bmp'><br><font class='baseline'><strong>Sebastian</strong><p>Choose number of points to send.</font><div class='respPicDiv'><img src='img/responseButtonOffersNo0L.png' class='respPic'></div></div>","1","3","Sebastian","10","Shared","0.8,0.35","8","0.8","trustrating_stim/white_mw048.bmp","7","39","8"
"html-keyboard-response","159","434505","0.0-19.0-2.7","5e7abb2c6c89e4000a180b4a","bdp_trlrn","Fri Mar 10 2023 14:04:32 GMT-0600 (Central Standard Time)","830858","Trustworthy,Untrustworthy","","null","","","","decisionFB","","<div class='trialDiv'><img src='trustrating_stim/white_mw048.bmp'><br><font class='baseline'><strong>Sebastian</strong><p>Choose number of points to send.</font><div class='respPicDiv'><img src='img/responseButtonOffersNo0L1.png' class='respPic'></div></div>","null","3","Sebastian","10","Shared","0.8,0.35","8","0.8","trustrating_stim/white_mw048.bmp","7","38","8"
"html-keyboard-response","160","435509","0.0-19.0-3.7","5e7abb2c6c89e4000a180b4a","bdp_trlrn","Fri Mar 10 2023 14:04:32 GMT-0600 (Central Standard Time)","830858","Trustworthy,Untrustworthy","","null","","","","feedback","","<div class='trialDiv'><img src='trustrating_stim/white_mw048.bmp'><br><font class='baseline'><strong>Sebastian</strong><p>Received: <strong>4</strong></font> &nbsp; &nbsp; &nbsp; &nbsp; &nbsp; &nbsp;<font class='posOutcome'>Shared back: <strong>2</strong></font></font><div class='respPicDiv'><img src='img/responseButtonOffersNo0_wht.png' class='respPic'></div></div>","null","3","Sebastian","10","Shared","0.8,0.35","8","0.8","trustrating_stim/white_mw048.bmp","7","40","8"
"html-keyboard-response","161","443710","0.0-19.0-1.8","5e7abb2c6c89e4000a180b4a","bdp_trlrn","Fri Mar 10 2023 14:04:32 GMT-0600 (Central Standard Time)","830858","Trustworthy,Untrustworthy","","8200","","","","decision","","<div class='trialDiv'><img src='trustrating_stim/white_mw046.bmp'><br><font class='baseline'><strong>Sean</strong><p>Choose number of points to send.</font><div class='respPicDiv'><img src='img/responseButtonOffersNo0L.png' class='respPic'></div></div>","5","3","Sean","6","Kept","0.2,0.8","14","0.2","trustrating_stim/white_mw046.bmp","5.5","45","9"
"html-keyboard-response","162","443973","0.0-19.0-2.8","5e7abb2c6c89e4000a180b4a","bdp_trlrn","Fri Mar 10 2023 14:04:32 GMT-0600 (Central Standard Time)","830858","Trustworthy,Untrustworthy","","null","","","","decisionFB","","<div class='trialDiv'><img src='trustrating_stim/white_mw046.bmp'><br><font class='baseline'><strong>Sean</strong><p>Choose number of points to send.</font><div class='respPicDiv'><img src='img/responseButtonOffersNo0L5.png' class='respPic'></div></div>","null","3","Sean","6","Kept","0.2,0.8","14","0.2","trustrating_stim/white_mw046.bmp","5.5","40","9"
"html-keyboard-response","163","444985","0.0-19.0-3.8","5e7abb2c6c89e4000a180b4a","bdp_trlrn","Fri Mar 10 2023 14:04:32 GMT-0600 (Central Standard Time)","830858","Trustworthy,Untrustworthy","","null","","","","feedback","","<div class='trialDiv'><img src='trustrating_stim/white_mw046.bmp'><br><font class='baseline'><strong>Sean</strong><p>Received: <strong>20</strong></font> &nbsp; &nbsp; &nbsp; &nbsp; &nbsp; &nbsp;<font class='negOutcome'>Shared back: <strong>0</strong></font></font><div class='respPicDiv'><img src='img/responseButtonOffersNo0_wht.png' class='respPic'></div></div>","null","3","Sean","6","Kept","0.2,0.8","14","0.2","trustrating_stim/white_mw046.bmp","5.5","40","9"
"html-keyboard-response","164","448700","0.0-19.0-1.9","5e7abb2c6c89e4000a180b4a","bdp_trlrn","Fri Mar 10 2023 14:04:32 GMT-0600 (Central Standard Time)","830858","Trustworthy,Untrustworthy","","3713","","","","decision","","<div class='trialDiv'><img src='trustrating_stim/white_mw066.bmp'><br><font class='baseline'><strong>Jordan</strong><p>Choose number of points to send.</font><div class='respPicDiv'><img src='img/responseButtonOffersNo0L.png' class='respPic'></div></div>","1","4","Jordan","3","Kept","0.2,0.65","10","0.2","trustrating_stim/white_mw066.bmp","3","45","10"
"html-keyboard-response","165","448957","0.0-19.0-2.9","5e7abb2c6c89e4000a180b4a","bdp_trlrn","Fri Mar 10 2023 14:04:32 GMT-0600 (Central Standard Time)","830858","Trustworthy,Untrustworthy","","null","","","","decisionFB","","<div class='trialDiv'><img src='trustrating_stim/white_mw066.bmp'><br><font class='baseline'><strong>Jordan</strong><p>Choose number of points to send.</font><div class='respPicDiv'><img src='img/responseButtonOffersNo0L1.png' class='respPic'></div></div>","null","4","Jordan","3","Kept","0.2,0.65","10","0.2","trustrating_stim/white_mw066.bmp","3","44","10"
"html-keyboard-response","166","449971","0.0-19.0-3.9","5e7abb2c6c89e4000a180b4a","bdp_trlrn","Fri Mar 10 2023 14:04:32 GMT-0600 (Central Standard Time)","830858","Trustworthy,Untrustworthy","","null","","","","feedback","","<div class='trialDiv'><img src='trustrating_stim/white_mw066.bmp'><br><font class='baseline'><strong>Jordan</strong><p>Received: <strong>4</strong></font> &nbsp; &nbsp; &nbsp; &nbsp; &nbsp; &nbsp;<font class='negOutcome'>Shared back: <strong>0</strong></font></font><div class='respPicDiv'><img src='img/responseButtonOffersNo0_wht.png' class='respPic'></div></div>","null","4","Jordan","3","Kept","0.2,0.65","10","0.2","trustrating_stim/white_mw066.bmp","3","44","10"
"html-keyboard-response","167","453928","0.0-19.0-1.10","5e7abb2c6c89e4000a180b4a","bdp_trlrn","Fri Mar 10 2023 14:04:32 GMT-0600 (Central Standard Time)","830858","Trustworthy,Untrustworthy","","3956","","","","decision","","<div class='trialDiv'><img src='trustrating_stim/white_mw048.bmp'><br><font class='baseline'><strong>Sebastian</strong><p>Choose number of points to send.</font><div class='respPicDiv'><img src='img/responseButtonOffersNo0L.png' class='respPic'></div></div>","5","4","Sebastian","10","Shared","0.8,0.35","8","0.8","trustrating_stim/white_mw048.bmp","7","49","11"
"html-keyboard-response","168","454195","0.0-19.0-2.10","5e7abb2c6c89e4000a180b4a","bdp_trlrn","Fri Mar 10 2023 14:04:32 GMT-0600 (Central Standard Time)","830858","Trustworthy,Untrustworthy","","null","","","","decisionFB","","<div class='trialDiv'><img src='trustrating_stim/white_mw048.bmp'><br><font class='baseline'><strong>Sebastian</strong><p>Choose number of points to send.</font><div class='respPicDiv'><img src='img/responseButtonOffersNo0L5.png' class='respPic'></div></div>","null","4","Sebastian","10","Shared","0.8,0.35","8","0.8","trustrating_stim/white_mw048.bmp","7","44","11"
"html-keyboard-response","169","455212","0.0-19.0-3.10","5e7abb2c6c89e4000a180b4a","bdp_trlrn","Fri Mar 10 2023 14:04:32 GMT-0600 (Central Standard Time)","830858","Trustworthy,Untrustworthy","","null","","","","feedback","","<div class='trialDiv'><img src='trustrating_stim/white_mw048.bmp'><br><font class='baseline'><strong>Sebastian</strong><p>Received: <strong>20</strong></font> &nbsp; &nbsp; &nbsp; &nbsp; &nbsp; &nbsp;<font class='posOutcome'>Shared back: <strong>10</strong></font></font><div class='respPicDiv'><img src='img/responseButtonOffersNo0_wht.png' class='respPic'></div></div>","null","4","Sebastian","10","Shared","0.8,0.35","8","0.8","trustrating_stim/white_mw048.bmp","7","54","11"
"html-keyboard-response","170","458271","0.0-19.0-1.11","5e7abb2c6c89e4000a180b4a","bdp_trlrn","Fri Mar 10 2023 14:04:32 GMT-0600 (Central Standard Time)","830858","Trustworthy,Untrustworthy","","3058","","","","decision","","<div class='trialDiv'><img src='trustrating_stim/white_mw046.bmp'><br><font class='baseline'><strong>Sean</strong><p>Choose number of points to send.</font><div class='respPicDiv'><img src='img/responseButtonOffersNo0L.png' class='respPic'></div></div>","1","4","Sean","6","Kept","0.2,0.8","14","0.2","trustrating_stim/white_mw046.bmp","5.5","59","12"
"html-keyboard-response","171","458528","0.0-19.0-2.11","5e7abb2c6c89e4000a180b4a","bdp_trlrn","Fri Mar 10 2023 14:04:32 GMT-0600 (Central Standard Time)","830858","Trustworthy,Untrustworthy","","null","","","","decisionFB","","<div class='trialDiv'><img src='trustrating_stim/white_mw046.bmp'><br><font class='baseline'><strong>Sean</strong><p>Choose number of points to send.</font><div class='respPicDiv'><img src='img/responseButtonOffersNo0L1.png' class='respPic'></div></div>","null","4","Sean","6","Kept","0.2,0.8","14","0.2","trustrating_stim/white_mw046.bmp","5.5","58","12"
"html-keyboard-response","172","459542","0.0-19.0-3.11","5e7abb2c6c89e4000a180b4a","bdp_trlrn","Fri Mar 10 2023 14:04:32 GMT-0600 (Central Standard Time)","830858","Trustworthy,Untrustworthy","","null","","","","feedback","","<div class='trialDiv'><img src='trustrating_stim/white_mw046.bmp'><br><font class='baseline'><strong>Sean</strong><p>Received: <strong>4</strong></font> &nbsp; &nbsp; &nbsp; &nbsp; &nbsp; &nbsp;<font class='negOutcome'>Shared back: <strong>0</strong></font></font><div class='respPicDiv'><img src='img/responseButtonOffersNo0_wht.png' class='respPic'></div></div>","null","4","Sean","6","Kept","0.2,0.8","14","0.2","trustrating_stim/white_mw046.bmp","5.5","58","12"
"html-keyboard-response","173","460582","0.0-19.0-1.12","5e7abb2c6c89e4000a180b4a","bdp_trlrn","Fri Mar 10 2023 14:04:32 GMT-0600 (Central Standard Time)","830858","Trustworthy,Untrustworthy","","1039","","","","decision","","<div class='trialDiv'><img src='trustrating_stim/white_mw066.bmp'><br><font class='baseline'><strong>Jordan</strong><p>Choose number of points to send.</font><div class='respPicDiv'><img src='img/responseButtonOffersNo0L.png' class='respPic'></div></div>","1","5","Jordan","3","Kept","0.2,0.65","10","0.2","trustrating_stim/white_mw066.bmp","3","63","13"
"html-keyboard-response","174","460835","0.0-19.0-2.12","5e7abb2c6c89e4000a180b4a","bdp_trlrn","Fri Mar 10 2023 14:04:32 GMT-0600 (Central Standard Time)","830858","Trustworthy,Untrustworthy","","null","","","","decisionFB","","<div class='trialDiv'><img src='trustrating_stim/white_mw066.bmp'><br><font class='baseline'><strong>Jordan</strong><p>Choose number of points to send.</font><div class='respPicDiv'><img src='img/responseButtonOffersNo0L1.png' class='respPic'></div></div>","null","5","Jordan","3","Kept","0.2,0.65","10","0.2","trustrating_stim/white_mw066.bmp","3","62","13"
"html-keyboard-response","175","461850","0.0-19.0-3.12","5e7abb2c6c89e4000a180b4a","bdp_trlrn","Fri Mar 10 2023 14:04:32 GMT-0600 (Central Standard Time)","830858","Trustworthy,Untrustworthy","","null","","","","feedback","","<div class='trialDiv'><img src='trustrating_stim/white_mw066.bmp'><br><font class='baseline'><strong>Jordan</strong><p>Received: <strong>4</strong></font> &nbsp; &nbsp; &nbsp; &nbsp; &nbsp; &nbsp;<font class='negOutcome'>Shared back: <strong>0</strong></font></font><div class='respPicDiv'><img src='img/responseButtonOffersNo0_wht.png' class='respPic'></div></div>","null","5","Jordan","3","Kept","0.2,0.65","10","0.2","trustrating_stim/white_mw066.bmp","3","62","13"
"html-keyboard-response","176","463859","0.0-19.0-1.13","5e7abb2c6c89e4000a180b4a","bdp_trlrn","Fri Mar 10 2023 14:04:32 GMT-0600 (Central Standard Time)","830858","Trustworthy,Untrustworthy","","2007","","","","decision","","<div class='trialDiv'><img src='trustrating_stim/white_mw048.bmp'><br><font class='baseline'><strong>Sebastian</strong><p>Choose number of points to send.</font><div class='respPicDiv'><img src='img/responseButtonOffersNo0L.png' class='respPic'></div></div>","5","5","Sebastian","10","Shared","0.8,0.35","8","0.8","trustrating_stim/white_mw048.bmp","7","67","14"
"html-keyboard-response","177","464119","0.0-19.0-2.13","5e7abb2c6c89e4000a180b4a","bdp_trlrn","Fri Mar 10 2023 14:04:32 GMT-0600 (Central Standard Time)","830858","Trustworthy,Untrustworthy","","null","","","","decisionFB","","<div class='trialDiv'><img src='trustrating_stim/white_mw048.bmp'><br><font class='baseline'><strong>Sebastian</strong><p>Choose number of points to send.</font><div class='respPicDiv'><img src='img/responseButtonOffersNo0L5.png' class='respPic'></div></div>","null","5","Sebastian","10","Shared","0.8,0.35","8","0.8","trustrating_stim/white_mw048.bmp","7","62","14"
"html-keyboard-response","178","465131","0.0-19.0-3.13","5e7abb2c6c89e4000a180b4a","bdp_trlrn","Fri Mar 10 2023 14:04:32 GMT-0600 (Central Standard Time)","830858","Trustworthy,Untrustworthy","","null","","","","feedback","","<div class='trialDiv'><img src='trustrating_stim/white_mw048.bmp'><br><font class='baseline'><strong>Sebastian</strong><p>Received: <strong>20</strong></font> &nbsp; &nbsp; &nbsp; &nbsp; &nbsp; &nbsp;<font class='posOutcome'>Shared back: <strong>10</strong></font></font><div class='respPicDiv'><img src='img/responseButtonOffersNo0_wht.png' class='respPic'></div></div>","null","5","Sebastian","10","Shared","0.8,0.35","8","0.8","trustrating_stim/white_mw048.bmp","7","72","14"
"html-keyboard-response","179","466357","0.0-19.0-1.14","5e7abb2c6c89e4000a180b4a","bdp_trlrn","Fri Mar 10 2023 14:04:32 GMT-0600 (Central Standard Time)","830858","Trustworthy,Untrustworthy","","1224","","","","decision","","<div class='trialDiv'><img src='trustrating_stim/white_mw046.bmp'><br><font class='baseline'><strong>Sean</strong><p>Choose number of points to send.</font><div class='respPicDiv'><img src='img/responseButtonOffersNo0L.png' class='respPic'></div></div>","1","5","Sean","6","Kept","0.2,0.8","14","0.2","trustrating_stim/white_mw046.bmp","5.5","77","15"
"html-keyboard-response","180","466612","0.0-19.0-2.14","5e7abb2c6c89e4000a180b4a","bdp_trlrn","Fri Mar 10 2023 14:04:32 GMT-0600 (Central Standard Time)","830858","Trustworthy,Untrustworthy","","null","","","","decisionFB","","<div class='trialDiv'><img src='trustrating_stim/white_mw046.bmp'><br><font class='baseline'><strong>Sean</strong><p>Choose number of points to send.</font><div class='respPicDiv'><img src='img/responseButtonOffersNo0L1.png' class='respPic'></div></div>","null","5","Sean","6","Kept","0.2,0.8","14","0.2","trustrating_stim/white_mw046.bmp","5.5","76","15"
"html-keyboard-response","181","467624","0.0-19.0-3.14","5e7abb2c6c89e4000a180b4a","bdp_trlrn","Fri Mar 10 2023 14:04:32 GMT-0600 (Central Standard Time)","830858","Trustworthy,Untrustworthy","","null","","","","feedback","","<div class='trialDiv'><img src='trustrating_stim/white_mw046.bmp'><br><font class='baseline'><strong>Sean</strong><p>Received: <strong>4</strong></font> &nbsp; &nbsp; &nbsp; &nbsp; &nbsp; &nbsp;<font class='negOutcome'>Shared back: <strong>0</strong></font></font><div class='respPicDiv'><img src='img/responseButtonOffersNo0_wht.png' class='respPic'></div></div>","null","5","Sean","6","Kept","0.2,0.8","14","0.2","trustrating_stim/white_mw046.bmp","5.5","76","15"
"html-keyboard-response","182","468650","0.0-19.0-1.15","5e7abb2c6c89e4000a180b4a","bdp_trlrn","Fri Mar 10 2023 14:04:32 GMT-0600 (Central Standard Time)","830858","Trustworthy,Untrustworthy","","1024","","","","decision","","<div class='trialDiv'><img src='trustrating_stim/white_mw066.bmp'><br><font class='baseline'><strong>Jordan</strong><p>Choose number of points to send.</font><div class='respPicDiv'><img src='img/responseButtonOffersNo0L.png' class='respPic'></div></div>","1","6","Jordan","3","Kept","0.2,0.65","10","0.2","trustrating_stim/white_mw066.bmp","3","81","16"
"html-keyboard-response","183","468916","0.0-19.0-2.15","5e7abb2c6c89e4000a180b4a","bdp_trlrn","Fri Mar 10 2023 14:04:32 GMT-0600 (Central Standard Time)","830858","Trustworthy,Untrustworthy","","null","","","","decisionFB","","<div class='trialDiv'><img src='trustrating_stim/white_mw066.bmp'><br><font class='baseline'><strong>Jordan</strong><p>Choose number of points to send.</font><div class='respPicDiv'><img src='img/responseButtonOffersNo0L1.png' class='respPic'></div></div>","null","6","Jordan","3","Kept","0.2,0.65","10","0.2","trustrating_stim/white_mw066.bmp","3","80","16"
"html-keyboard-response","184","469929","0.0-19.0-3.15","5e7abb2c6c89e4000a180b4a","bdp_trlrn","Fri Mar 10 2023 14:04:32 GMT-0600 (Central Standard Time)","830858","Trustworthy,Untrustworthy","","null","","","","feedback","","<div class='trialDiv'><img src='trustrating_stim/white_mw066.bmp'><br><font class='baseline'><strong>Jordan</strong><p>Received: <strong>4</strong></font> &nbsp; &nbsp; &nbsp; &nbsp; &nbsp; &nbsp;<font class='negOutcome'>Shared back: <strong>0</strong></font></font><div class='respPicDiv'><img src='img/responseButtonOffersNo0_wht.png' class='respPic'></div></div>","null","6","Jordan","3","Kept","0.2,0.65","10","0.2","trustrating_stim/white_mw066.bmp","3","80","16"
"html-keyboard-response","185","471299","0.0-19.0-1.16","5e7abb2c6c89e4000a180b4a","bdp_trlrn","Fri Mar 10 2023 14:04:32 GMT-0600 (Central Standard Time)","830858","Trustworthy,Untrustworthy","","1369","","","","decision","","<div class='trialDiv'><img src='trustrating_stim/white_mw048.bmp'><br><font class='baseline'><strong>Sebastian</strong><p>Choose number of points to send.</font><div class='respPicDiv'><img src='img/responseButtonOffersNo0L.png' class='respPic'></div></div>","5","6","Sebastian","10","Kept","0.8,0.35","8","0.8","trustrating_stim/white_mw048.bmp","7","85","17"
"html-keyboard-response","186","471556","0.0-19.0-2.16","5e7abb2c6c89e4000a180b4a","bdp_trlrn","Fri Mar 10 2023 14:04:32 GMT-0600 (Central Standard Time)","830858","Trustworthy,Untrustworthy","","null","","","","decisionFB","","<div class='trialDiv'><img src='trustrating_stim/white_mw048.bmp'><br><font class='baseline'><strong>Sebastian</strong><p>Choose number of points to send.</font><div class='respPicDiv'><img src='img/responseButtonOffersNo0L5.png' class='respPic'></div></div>","null","6","Sebastian","10","Kept","0.8,0.35","8","0.8","trustrating_stim/white_mw048.bmp","7","80","17"
"html-keyboard-response","187","472568","0.0-19.0-3.16","5e7abb2c6c89e4000a180b4a","bdp_trlrn","Fri Mar 10 2023 14:04:32 GMT-0600 (Central Standard Time)","830858","Trustworthy,Untrustworthy","","null","","","","feedback","","<div class='trialDiv'><img src='trustrating_stim/white_mw048.bmp'><br><font class='baseline'><strong>Sebastian</strong><p>Received: <strong>20</strong></font> &nbsp; &nbsp; &nbsp; &nbsp; &nbsp; &nbsp;<font class='negOutcome'>Shared back: <strong>0</strong></font></font><div class='respPicDiv'><img src='img/responseButtonOffersNo0_wht.png' class='respPic'></div></div>","null","6","Sebastian","10","Kept","0.8,0.35","8","0.8","trustrating_stim/white_mw048.bmp","7","80","17"
"html-keyboard-response","188","473671","0.0-19.0-1.17","5e7abb2c6c89e4000a180b4a","bdp_trlrn","Fri Mar 10 2023 14:04:32 GMT-0600 (Central Standard Time)","830858","Trustworthy,Untrustworthy","","1101","","","","decision","","<div class='trialDiv'><img src='trustrating_stim/white_mw046.bmp'><br><font class='baseline'><strong>Sean</strong><p>Choose number of points to send.</font><div class='respPicDiv'><img src='img/responseButtonOffersNo0L.png' class='respPic'></div></div>","1","6","Sean","6","Kept","0.2,0.8","14","0.2","trustrating_stim/white_mw046.bmp","5.5","85","18"
"html-keyboard-response","189","473936","0.0-19.0-2.17","5e7abb2c6c89e4000a180b4a","bdp_trlrn","Fri Mar 10 2023 14:04:32 GMT-0600 (Central Standard Time)","830858","Trustworthy,Untrustworthy","","null","","","","decisionFB","","<div class='trialDiv'><img src='trustrating_stim/white_mw046.bmp'><br><font class='baseline'><strong>Sean</strong><p>Choose number of points to send.</font><div class='respPicDiv'><img src='img/responseButtonOffersNo0L1.png' class='respPic'></div></div>","null","6","Sean","6","Kept","0.2,0.8","14","0.2","trustrating_stim/white_mw046.bmp","5.5","84","18"
"html-keyboard-response","190","474949","0.0-19.0-3.17","5e7abb2c6c89e4000a180b4a","bdp_trlrn","Fri Mar 10 2023 14:04:32 GMT-0600 (Central Standard Time)","830858","Trustworthy,Untrustworthy","","null","","","","feedback","","<div class='trialDiv'><img src='trustrating_stim/white_mw046.bmp'><br><font class='baseline'><strong>Sean</strong><p>Received: <strong>4</strong></font> &nbsp; &nbsp; &nbsp; &nbsp; &nbsp; &nbsp;<font class='negOutcome'>Shared back: <strong>0</strong></font></font><div class='respPicDiv'><img src='img/responseButtonOffersNo0_wht.png' class='respPic'></div></div>","null","6","Sean","6","Kept","0.2,0.8","14","0.2","trustrating_stim/white_mw046.bmp","5.5","84","18"
"html-keyboard-response","191","476365","0.0-19.0-1.18","5e7abb2c6c89e4000a180b4a","bdp_trlrn","Fri Mar 10 2023 14:04:32 GMT-0600 (Central Standard Time)","830858","Trustworthy,Untrustworthy","","1415","","","","decision","","<div class='trialDiv'><img src='trustrating_stim/white_mw048.bmp'><br><font class='baseline'><strong>Sebastian</strong><p>Choose number of points to send.</font><div class='respPicDiv'><img src='img/responseButtonOffersNo0L.png' class='respPic'></div></div>","2","7","Sebastian","10","Shared","0.8,0.35","8","0.8","trustrating_stim/white_mw048.bmp","7","89","19"
"html-keyboard-response","192","476619","0.0-19.0-2.18","5e7abb2c6c89e4000a180b4a","bdp_trlrn","Fri Mar 10 2023 14:04:32 GMT-0600 (Central Standard Time)","830858","Trustworthy,Untrustworthy","","null","","","","decisionFB","","<div class='trialDiv'><img src='trustrating_stim/white_mw048.bmp'><br><font class='baseline'><strong>Sebastian</strong><p>Choose number of points to send.</font><div class='respPicDiv'><img src='img/responseButtonOffersNo0L2.png' class='respPic'></div></div>","null","7","Sebastian","10","Shared","0.8,0.35","8","0.8","trustrating_stim/white_mw048.bmp","7","87","19"
"html-keyboard-response","193","477632","0.0-19.0-3.18","5e7abb2c6c89e4000a180b4a","bdp_trlrn","Fri Mar 10 2023 14:04:32 GMT-0600 (Central Standard Time)","830858","Trustworthy,Untrustworthy","","null","","","","feedback","","<div class='trialDiv'><img src='trustrating_stim/white_mw048.bmp'><br><font class='baseline'><strong>Sebastian</strong><p>Received: <strong>8</strong></font> &nbsp; &nbsp; &nbsp; &nbsp; &nbsp; &nbsp;<font class='posOutcome'>Shared back: <strong>4</strong></font></font><div class='respPicDiv'><img src='img/responseButtonOffersNo0_wht.png' class='respPic'></div></div>","null","7","Sebastian","10","Shared","0.8,0.35","8","0.8","trustrating_stim/white_mw048.bmp","7","91","19"
"html-keyboard-response","194","478911","0.0-19.0-1.19","5e7abb2c6c89e4000a180b4a","bdp_trlrn","Fri Mar 10 2023 14:04:32 GMT-0600 (Central Standard Time)","830858","Trustworthy,Untrustworthy","","1278","","","","decision","","<div class='trialDiv'><img src='trustrating_stim/white_mw066.bmp'><br><font class='baseline'><strong>Jordan</strong><p>Choose number of points to send.</font><div class='respPicDiv'><img src='img/responseButtonOffersNo0L.png' class='respPic'></div></div>","1","7","Jordan","3","Kept","0.2,0.65","10","0.2","trustrating_stim/white_mw066.bmp","3","96","20"
"html-keyboard-response","195","479171","0.0-19.0-2.19","5e7abb2c6c89e4000a180b4a","bdp_trlrn","Fri Mar 10 2023 14:04:32 GMT-0600 (Central Standard Time)","830858","Trustworthy,Untrustworthy","","null","","","","decisionFB","","<div class='trialDiv'><img src='trustrating_stim/white_mw066.bmp'><br><font class='baseline'><strong>Jordan</strong><p>Choose number of points to send.</font><div class='respPicDiv'><img src='img/responseButtonOffersNo0L1.png' class='respPic'></div></div>","null","7","Jordan","3","Kept","0.2,0.65","10","0.2","trustrating_stim/white_mw066.bmp","3","95","20"
"html-keyboard-response","196","480185","0.0-19.0-3.19","5e7abb2c6c89e4000a180b4a","bdp_trlrn","Fri Mar 10 2023 14:04:32 GMT-0600 (Central Standard Time)","830858","Trustworthy,Untrustworthy","","null","","","","feedback","","<div class='trialDiv'><img src='trustrating_stim/white_mw066.bmp'><br><font class='baseline'><strong>Jordan</strong><p>Received: <strong>4</strong></font> &nbsp; &nbsp; &nbsp; &nbsp; &nbsp; &nbsp;<font class='negOutcome'>Shared back: <strong>0</strong></font></font><div class='respPicDiv'><img src='img/responseButtonOffersNo0_wht.png' class='respPic'></div></div>","null","7","Jordan","3","Kept","0.2,0.65","10","0.2","trustrating_stim/white_mw066.bmp","3","95","20"
"html-keyboard-response","197","481538","0.0-19.0-1.20","5e7abb2c6c89e4000a180b4a","bdp_trlrn","Fri Mar 10 2023 14:04:32 GMT-0600 (Central Standard Time)","830858","Trustworthy,Untrustworthy","","1351","","","","decision","","<div class='trialDiv'><img src='trustrating_stim/white_mw046.bmp'><br><font class='baseline'><strong>Sean</strong><p>Choose number of points to send.</font><div class='respPicDiv'><img src='img/responseButtonOffersNo0L.png' class='respPic'></div></div>","1","7","Sean","6","Kept","0.2,0.8","14","0.2","trustrating_stim/white_mw046.bmp","5.5","100","21"
"html-keyboard-response","198","481791","0.0-19.0-2.20","5e7abb2c6c89e4000a180b4a","bdp_trlrn","Fri Mar 10 2023 14:04:32 GMT-0600 (Central Standard Time)","830858","Trustworthy,Untrustworthy","","null","","","","decisionFB","","<div class='trialDiv'><img src='trustrating_stim/white_mw046.bmp'><br><font class='baseline'><strong>Sean</strong><p>Choose number of points to send.</font><div class='respPicDiv'><img src='img/responseButtonOffersNo0L1.png' class='respPic'></div></div>","null","7","Sean","6","Kept","0.2,0.8","14","0.2","trustrating_stim/white_mw046.bmp","5.5","99","21"
"html-keyboard-response","199","482805","0.0-19.0-3.20","5e7abb2c6c89e4000a180b4a","bdp_trlrn","Fri Mar 10 2023 14:04:32 GMT-0600 (Central Standard Time)","830858","Trustworthy,Untrustworthy","","null","","","","feedback","","<div class='trialDiv'><img src='trustrating_stim/white_mw046.bmp'><br><font class='baseline'><strong>Sean</strong><p>Received: <strong>4</strong></font> &nbsp; &nbsp; &nbsp; &nbsp; &nbsp; &nbsp;<font class='negOutcome'>Shared back: <strong>0</strong></font></font><div class='respPicDiv'><img src='img/responseButtonOffersNo0_wht.png' class='respPic'></div></div>","null","7","Sean","6","Kept","0.2,0.8","14","0.2","trustrating_stim/white_mw046.bmp","5.5","99","21"
"html-keyboard-response","200","483981","0.0-19.0-1.21","5e7abb2c6c89e4000a180b4a","bdp_trlrn","Fri Mar 10 2023 14:04:32 GMT-0600 (Central Standard Time)","830858","Trustworthy,Untrustworthy","","1174","","","","decision","","<div class='trialDiv'><img src='trustrating_stim/white_mw048.bmp'><br><font class='baseline'><strong>Sebastian</strong><p>Choose number of points to send.</font><div class='respPicDiv'><img src='img/responseButtonOffersNo0L.png' class='respPic'></div></div>","2","8","Sebastian","10","Kept","0.8,0.35","8","0.8","trustrating_stim/white_mw048.bmp","7","104","22"
"html-keyboard-response","201","484240","0.0-19.0-2.21","5e7abb2c6c89e4000a180b4a","bdp_trlrn","Fri Mar 10 2023 14:04:32 GMT-0600 (Central Standard Time)","830858","Trustworthy,Untrustworthy","","null","","","","decisionFB","","<div class='trialDiv'><img src='trustrating_stim/white_mw048.bmp'><br><font class='baseline'><strong>Sebastian</strong><p>Choose number of points to send.</font><div class='respPicDiv'><img src='img/responseButtonOffersNo0L2.png' class='respPic'></div></div>","null","8","Sebastian","10","Kept","0.8,0.35","8","0.8","trustrating_stim/white_mw048.bmp","7","102","22"
"html-keyboard-response","202","485242","0.0-19.0-3.21","5e7abb2c6c89e4000a180b4a","bdp_trlrn","Fri Mar 10 2023 14:04:32 GMT-0600 (Central Standard Time)","830858","Trustworthy,Untrustworthy","","null","","","","feedback","","<div class='trialDiv'><img src='trustrating_stim/white_mw048.bmp'><br><font class='baseline'><strong>Sebastian</strong><p>Received: <strong>8</strong></font> &nbsp; &nbsp; &nbsp; &nbsp; &nbsp; &nbsp;<font class='negOutcome'>Shared back: <strong>0</strong></font></font><div class='respPicDiv'><img src='img/responseButtonOffersNo0_wht.png' class='respPic'></div></div>","null","8","Sebastian","10","Kept","0.8,0.35","8","0.8","trustrating_stim/white_mw048.bmp","7","102","22"
"html-keyboard-response","203","486146","0.0-19.0-1.22","5e7abb2c6c89e4000a180b4a","bdp_trlrn","Fri Mar 10 2023 14:04:32 GMT-0600 (Central Standard Time)","830858","Trustworthy,Untrustworthy","","901","","","","decision","","<div class='trialDiv'><img src='trustrating_stim/white_mw066.bmp'><br><font class='baseline'><strong>Jordan</strong><p>Choose number of points to send.</font><div class='respPicDiv'><img src='img/responseButtonOffersNo0L.png' class='respPic'></div></div>","1","8","Jordan","3","Kept","0.2,0.65","10","0.2","trustrating_stim/white_mw066.bmp","3","107","23"
"html-keyboard-response","204","486399","0.0-19.0-2.22","5e7abb2c6c89e4000a180b4a","bdp_trlrn","Fri Mar 10 2023 14:04:32 GMT-0600 (Central Standard Time)","830858","Trustworthy,Untrustworthy","","null","","","","decisionFB","","<div class='trialDiv'><img src='trustrating_stim/white_mw066.bmp'><br><font class='baseline'><strong>Jordan</strong><p>Choose number of points to send.</font><div class='respPicDiv'><img src='img/responseButtonOffersNo0L1.png' class='respPic'></div></div>","null","8","Jordan","3","Kept","0.2,0.65","10","0.2","trustrating_stim/white_mw066.bmp","3","106","23"
"html-keyboard-response","205","487411","0.0-19.0-3.22","5e7abb2c6c89e4000a180b4a","bdp_trlrn","Fri Mar 10 2023 14:04:32 GMT-0600 (Central Standard Time)","830858","Trustworthy,Untrustworthy","","null","","","","feedback","","<div class='trialDiv'><img src='trustrating_stim/white_mw066.bmp'><br><font class='baseline'><strong>Jordan</strong><p>Received: <strong>4</strong></font> &nbsp; &nbsp; &nbsp; &nbsp; &nbsp; &nbsp;<font class='negOutcome'>Shared back: <strong>0</strong></font></font><div class='respPicDiv'><img src='img/responseButtonOffersNo0_wht.png' class='respPic'></div></div>","null","8","Jordan","3","Kept","0.2,0.65","10","0.2","trustrating_stim/white_mw066.bmp","3","106","23"
"html-keyboard-response","206","488181","0.0-19.0-1.23","5e7abb2c6c89e4000a180b4a","bdp_trlrn","Fri Mar 10 2023 14:04:32 GMT-0600 (Central Standard Time)","830858","Trustworthy,Untrustworthy","","769","","","","decision","","<div class='trialDiv'><img src='trustrating_stim/white_mw046.bmp'><br><font class='baseline'><strong>Sean</strong><p>Choose number of points to send.</font><div class='respPicDiv'><img src='img/responseButtonOffersNo0L.png' class='respPic'></div></div>","1","8","Sean","6","Kept","0.2,0.8","14","0.2","trustrating_stim/white_mw046.bmp","5.5","111","24"
"html-keyboard-response","207","488435","0.0-19.0-2.23","5e7abb2c6c89e4000a180b4a","bdp_trlrn","Fri Mar 10 2023 14:04:32 GMT-0600 (Central Standard Time)","830858","Trustworthy,Untrustworthy","","null","","","","decisionFB","","<div class='trialDiv'><img src='trustrating_stim/white_mw046.bmp'><br><font class='baseline'><strong>Sean</strong><p>Choose number of points to send.</font><div class='respPicDiv'><img src='img/responseButtonOffersNo0L1.png' class='respPic'></div></div>","null","8","Sean","6","Kept","0.2,0.8","14","0.2","trustrating_stim/white_mw046.bmp","5.5","110","24"
"html-keyboard-response","208","489448","0.0-19.0-3.23","5e7abb2c6c89e4000a180b4a","bdp_trlrn","Fri Mar 10 2023 14:04:32 GMT-0600 (Central Standard Time)","830858","Trustworthy,Untrustworthy","","null","","","","feedback","","<div class='trialDiv'><img src='trustrating_stim/white_mw046.bmp'><br><font class='baseline'><strong>Sean</strong><p>Received: <strong>4</strong></font> &nbsp; &nbsp; &nbsp; &nbsp; &nbsp; &nbsp;<font class='negOutcome'>Shared back: <strong>0</strong></font></font><div class='respPicDiv'><img src='img/responseButtonOffersNo0_wht.png' class='respPic'></div></div>","null","8","Sean","6","Kept","0.2,0.8","14","0.2","trustrating_stim/white_mw046.bmp","5.5","110","24"
"html-keyboard-response","209","490453","0.0-19.0-1.24","5e7abb2c6c89e4000a180b4a","bdp_trlrn","Fri Mar 10 2023 14:04:32 GMT-0600 (Central Standard Time)","830858","Trustworthy,Untrustworthy","","1004","","","","decision","","<div class='trialDiv'><img src='trustrating_stim/white_mw066.bmp'><br><font class='baseline'><strong>Jordan</strong><p>Choose number of points to send.</font><div class='respPicDiv'><img src='img/responseButtonOffersNo0L.png' class='respPic'></div></div>","1","9","Jordan","3","Kept","0.2,0.65","10","0.2","trustrating_stim/white_mw066.bmp","3","115","25"
"html-keyboard-response","210","490711","0.0-19.0-2.24","5e7abb2c6c89e4000a180b4a","bdp_trlrn","Fri Mar 10 2023 14:04:32 GMT-0600 (Central Standard Time)","830858","Trustworthy,Untrustworthy","","null","","","","decisionFB","","<div class='trialDiv'><img src='trustrating_stim/white_mw066.bmp'><br><font class='baseline'><strong>Jordan</strong><p>Choose number of points to send.</font><div class='respPicDiv'><img src='img/responseButtonOffersNo0L1.png' class='respPic'></div></div>","null","9","Jordan","3","Kept","0.2,0.65","10","0.2","trustrating_stim/white_mw066.bmp","3","114","25"
"html-keyboard-response","211","491726","0.0-19.0-3.24","5e7abb2c6c89e4000a180b4a","bdp_trlrn","Fri Mar 10 2023 14:04:32 GMT-0600 (Central Standard Time)","830858","Trustworthy,Untrustworthy","","null","","","","feedback","","<div class='trialDiv'><img src='trustrating_stim/white_mw066.bmp'><br><font class='baseline'><strong>Jordan</strong><p>Received: <strong>4</strong></font> &nbsp; &nbsp; &nbsp; &nbsp; &nbsp; &nbsp;<font class='negOutcome'>Shared back: <strong>0</strong></font></font><div class='respPicDiv'><img src='img/responseButtonOffersNo0_wht.png' class='respPic'></div></div>","null","9","Jordan","3","Kept","0.2,0.65","10","0.2","trustrating_stim/white_mw066.bmp","3","114","25"
"html-keyboard-response","212","492466","0.0-19.0-1.25","5e7abb2c6c89e4000a180b4a","bdp_trlrn","Fri Mar 10 2023 14:04:32 GMT-0600 (Central Standard Time)","830858","Trustworthy,Untrustworthy","","737","","","","decision","","<div class='trialDiv'><img src='trustrating_stim/white_mw048.bmp'><br><font class='baseline'><strong>Sebastian</strong><p>Choose number of points to send.</font><div class='respPicDiv'><img src='img/responseButtonOffersNo0L.png' class='respPic'></div></div>","1","9","Sebastian","10","Shared","0.8,0.35","8","0.8","trustrating_stim/white_mw048.bmp","7","119","26"
"html-keyboard-response","213","492724","0.0-19.0-2.25","5e7abb2c6c89e4000a180b4a","bdp_trlrn","Fri Mar 10 2023 14:04:32 GMT-0600 (Central Standard Time)","830858","Trustworthy,Untrustworthy","","null","","","","decisionFB","","<div class='trialDiv'><img src='trustrating_stim/white_mw048.bmp'><br><font class='baseline'><strong>Sebastian</strong><p>Choose number of points to send.</font><div class='respPicDiv'><img src='img/responseButtonOffersNo0L1.png' class='respPic'></div></div>","null","9","Sebastian","10","Shared","0.8,0.35","8","0.8","trustrating_stim/white_mw048.bmp","7","118","26"
"html-keyboard-response","214","493738","0.0-19.0-3.25","5e7abb2c6c89e4000a180b4a","bdp_trlrn","Fri Mar 10 2023 14:04:32 GMT-0600 (Central Standard Time)","830858","Trustworthy,Untrustworthy","","null","","","","feedback","","<div class='trialDiv'><img src='trustrating_stim/white_mw048.bmp'><br><font class='baseline'><strong>Sebastian</strong><p>Received: <strong>4</strong></font> &nbsp; &nbsp; &nbsp; &nbsp; &nbsp; &nbsp;<font class='posOutcome'>Shared back: <strong>2</strong></font></font><div class='respPicDiv'><img src='img/responseButtonOffersNo0_wht.png' class='respPic'></div></div>","null","9","Sebastian","10","Shared","0.8,0.35","8","0.8","trustrating_stim/white_mw048.bmp","7","120","26"
"html-keyboard-response","215","494655","0.0-19.0-1.26","5e7abb2c6c89e4000a180b4a","bdp_trlrn","Fri Mar 10 2023 14:04:32 GMT-0600 (Central Standard Time)","830858","Trustworthy,Untrustworthy","","916","","","","decision","","<div class='trialDiv'><img src='trustrating_stim/white_mw046.bmp'><br><font class='baseline'><strong>Sean</strong><p>Choose number of points to send.</font><div class='respPicDiv'><img src='img/responseButtonOffersNo0L.png' class='respPic'></div></div>","1","9","Sean","6","Kept","0.2,0.8","14","0.2","trustrating_stim/white_mw046.bmp","5.5","125","27"
"html-keyboard-response","216","494922","0.0-19.0-2.26","5e7abb2c6c89e4000a180b4a","bdp_trlrn","Fri Mar 10 2023 14:04:32 GMT-0600 (Central Standard Time)","830858","Trustworthy,Untrustworthy","","null","","","","decisionFB","","<div class='trialDiv'><img src='trustrating_stim/white_mw046.bmp'><br><font class='baseline'><strong>Sean</strong><p>Choose number of points to send.</font><div class='respPicDiv'><img src='img/responseButtonOffersNo0L1.png' class='respPic'></div></div>","null","9","Sean","6","Kept","0.2,0.8","14","0.2","trustrating_stim/white_mw046.bmp","5.5","124","27"
"html-keyboard-response","217","495937","0.0-19.0-3.26","5e7abb2c6c89e4000a180b4a","bdp_trlrn","Fri Mar 10 2023 14:04:32 GMT-0600 (Central Standard Time)","830858","Trustworthy,Untrustworthy","","null","","","","feedback","","<div class='trialDiv'><img src='trustrating_stim/white_mw046.bmp'><br><font class='baseline'><strong>Sean</strong><p>Received: <strong>4</strong></font> &nbsp; &nbsp; &nbsp; &nbsp; &nbsp; &nbsp;<font class='negOutcome'>Shared back: <strong>0</strong></font></font><div class='respPicDiv'><img src='img/responseButtonOffersNo0_wht.png' class='respPic'></div></div>","null","9","Sean","6","Kept","0.2,0.8","14","0.2","trustrating_stim/white_mw046.bmp","5.5","124","27"
"html-keyboard-response","218","496844","0.0-19.0-1.27","5e7abb2c6c89e4000a180b4a","bdp_trlrn","Fri Mar 10 2023 14:04:32 GMT-0600 (Central Standard Time)","830858","Trustworthy,Untrustworthy","","905","","","","decision","","<div class='trialDiv'><img src='trustrating_stim/white_mw066.bmp'><br><font class='baseline'><strong>Jordan</strong><p>Choose number of points to send.</font><div class='respPicDiv'><img src='img/responseButtonOffersNo0L.png' class='respPic'></div></div>","1","10","Jordan","3","Kept","0.2,0.65","10","0.2","trustrating_stim/white_mw066.bmp","3","129","28"
"html-keyboard-response","219","497103","0.0-19.0-2.27","5e7abb2c6c89e4000a180b4a","bdp_trlrn","Fri Mar 10 2023 14:04:32 GMT-0600 (Central Standard Time)","830858","Trustworthy,Untrustworthy","","null","","","","decisionFB","","<div class='trialDiv'><img src='trustrating_stim/white_mw066.bmp'><br><font class='baseline'><strong>Jordan</strong><p>Choose number of points to send.</font><div class='respPicDiv'><img src='img/responseButtonOffersNo0L1.png' class='respPic'></div></div>","null","10","Jordan","3","Kept","0.2,0.65","10","0.2","trustrating_stim/white_mw066.bmp","3","128","28"
"html-keyboard-response","220","498116","0.0-19.0-3.27","5e7abb2c6c89e4000a180b4a","bdp_trlrn","Fri Mar 10 2023 14:04:32 GMT-0600 (Central Standard Time)","830858","Trustworthy,Untrustworthy","","null","","","","feedback","","<div class='trialDiv'><img src='trustrating_stim/white_mw066.bmp'><br><font class='baseline'><strong>Jordan</strong><p>Received: <strong>4</strong></font> &nbsp; &nbsp; &nbsp; &nbsp; &nbsp; &nbsp;<font class='negOutcome'>Shared back: <strong>0</strong></font></font><div class='respPicDiv'><img src='img/responseButtonOffersNo0_wht.png' class='respPic'></div></div>","null","10","Jordan","3","Kept","0.2,0.65","10","0.2","trustrating_stim/white_mw066.bmp","3","128","28"
"html-keyboard-response","221","498979","0.0-19.0-1.28","5e7abb2c6c89e4000a180b4a","bdp_trlrn","Fri Mar 10 2023 14:04:32 GMT-0600 (Central Standard Time)","830858","Trustworthy,Untrustworthy","","861","","","","decision","","<div class='trialDiv'><img src='trustrating_stim/white_mw048.bmp'><br><font class='baseline'><strong>Sebastian</strong><p>Choose number of points to send.</font><div class='respPicDiv'><img src='img/responseButtonOffersNo0L.png' class='respPic'></div></div>","1","10","Sebastian","10","Kept","0.8,0.35","8","0.8","trustrating_stim/white_mw048.bmp","7","133","29"
"html-keyboard-response","222","499238","0.0-19.0-2.28","5e7abb2c6c89e4000a180b4a","bdp_trlrn","Fri Mar 10 2023 14:04:32 GMT-0600 (Central Standard Time)","830858","Trustworthy,Untrustworthy","","null","","","","decisionFB","","<div class='trialDiv'><img src='trustrating_stim/white_mw048.bmp'><br><font class='baseline'><strong>Sebastian</strong><p>Choose number of points to send.</font><div class='respPicDiv'><img src='img/responseButtonOffersNo0L1.png' class='respPic'></div></div>","null","10","Sebastian","10","Kept","0.8,0.35","8","0.8","trustrating_stim/white_mw048.bmp","7","132","29"
