"trial_type","trial_index","time_elapsed","internal_node_id","subject_id","task","startTime","totalTime","labels","view_history","rt","event","trial","time","trialtype","success","stimulus","key_press","aground","name","faceID","outcome","agenttype","agentswpt","agentcurrpshare","face","avgRating","point_total","round"
"pavlovia","0","2","0.0-0.0","5dd03c5486c8861300974102","bdp_trlrn","Tue Mar 14 2023 14:01:53 GMT-0400 (Eastern Daylight Time)","588069","Untrustworthy,Trustworthy","","","","","","","","","","","","","","","","","","","",""
"instructions","1","2926","0.0-1.0","5dd03c5486c8861300974102","bdp_trlrn","Tue Mar 14 2023 14:01:53 GMT-0400 (Eastern Daylight Time)","588069","Untrustworthy,Trustworthy","[{""page_index"":0,""viewing_time"":2924}]","2924","","","","","","","","","","","","","","","","","",""
"","","","","5dd03c5486c8861300974102","bdp_trlrn","Tue Mar 14 2023 14:01:53 GMT-0400 (Eastern Daylight Time)","588069","Untrustworthy,Trustworthy","","","fullscreenenter","2","5638","fullscreenenter","","","","","","","","","","","","","",""
"fullscreen","2","6632","0.0-2.0","5dd03c5486c8861300974102","bdp_trlrn","Tue Mar 14 2023 14:01:53 GMT-0400 (Eastern Daylight Time)","588069","Untrustworthy,Trustworthy","","","","","","","true","","","","","","","","","","","","",""
"instructions","3","11854","0.0-4.0","5dd03c5486c8861300974102","bdp_trlrn","Tue Mar 14 2023 14:01:53 GMT-0400 (Eastern Daylight Time)","588069","Untrustworthy,Trustworthy","[{""page_index"":0,""viewing_time"":3942},{""page_index"":1,""viewing_time"":1280}]","5222","","","","","","","","","","","","","","","","","",""
"instructions","4","13110","0.0-5.0","5dd03c5486c8861300974102","bdp_trlrn","Tue Mar 14 2023 14:01:53 GMT-0400 (Eastern Daylight Time)","588069","Untrustworthy,Trustworthy","[{""page_index"":0,""viewing_time"":1256}]","1256","","","","","","","","","","","","","","","","","",""
"image-keyboard-response","5","17910","0.0-6.0-1.0","5dd03c5486c8861300974102","bdp_trlrn","Tue Mar 14 2023 14:01:53 GMT-0400 (Eastern Daylight Time)","588069","Untrustworthy,Trustworthy","","4699","","","","rating","","trustrating_stim/white_00299_940422_fa_edt.bmp","4","","","","","","","","","","",""
"image-keyboard-response","6","18121","0.0-6.0-2.0","5dd03c5486c8861300974102","bdp_trlrn","Tue Mar 14 2023 14:01:53 GMT-0400 (Eastern Daylight Time)","588069","Untrustworthy,Trustworthy","","null","","","","ratingFB","","trustrating_stim/white_00299_940422_fa_edt.bmp","null","","","","","","","","","","",""
"image-keyboard-response","7","21742","0.0-6.0-1.1","5dd03c5486c8861300974102","bdp_trlrn","Tue Mar 14 2023 14:01:53 GMT-0400 (Eastern Daylight Time)","588069","Untrustworthy,Trustworthy","","3519","","","","rating","","trustrating_stim/white_00109_931230_fa_edt.bmp","6","","","","","","","","","","",""
"image-keyboard-response","8","21954","0.0-6.0-2.1","5dd03c5486c8861300974102","bdp_trlrn","Tue Mar 14 2023 14:01:53 GMT-0400 (Eastern Daylight Time)","588069","Untrustworthy,Trustworthy","","null","","","","ratingFB","","trustrating_stim/white_00109_931230_fa_edt.bmp","null","","","","","","","","","","",""
"image-keyboard-response","9","23430","0.0-6.0-1.2","5dd03c5486c8861300974102","bdp_trlrn","Tue Mar 14 2023 14:01:53 GMT-0400 (Eastern Daylight Time)","588069","Untrustworthy,Trustworthy","","1367","","","","rating","","trustrating_stim/white_00120_931230_fa_edt.bmp","8","","","","","","","","","","",""
"image-keyboard-response","10","23639","0.0-6.0-2.2","5dd03c5486c8861300974102","bdp_trlrn","Tue Mar 14 2023 14:01:53 GMT-0400 (Eastern Daylight Time)","588069","Untrustworthy,Trustworthy","","null","","","","ratingFB","","trustrating_stim/white_00120_931230_fa_edt.bmp","null","","","","","","","","","","",""
"image-keyboard-response","11","26846","0.0-6.0-1.3","5dd03c5486c8861300974102","bdp_trlrn","Tue Mar 14 2023 14:01:53 GMT-0400 (Eastern Daylight Time)","588069","Untrustworthy,Trustworthy","","3105","","","","rating","","trustrating_stim/white_00519_940519_fb_edt.bmp","6","","","","","","","","","","",""
"image-keyboard-response","12","27055","0.0-6.0-2.3","5dd03c5486c8861300974102","bdp_trlrn","Tue Mar 14 2023 14:01:53 GMT-0400 (Eastern Daylight Time)","588069","Untrustworthy,Trustworthy","","null","","","","ratingFB","","trustrating_stim/white_00519_940519_fb_edt.bmp","null","","","","","","","","","","",""
"image-keyboard-response","13","29182","0.0-6.0-1.4","5dd03c5486c8861300974102","bdp_trlrn","Tue Mar 14 2023 14:01:53 GMT-0400 (Eastern Daylight Time)","588069","Untrustworthy,Trustworthy","","2026","","","","rating","","trustrating_stim/white_mw071.bmp","2","","","","","","","","","","",""
"image-keyboard-response","14","29383","0.0-6.0-2.4","5dd03c5486c8861300974102","bdp_trlrn","Tue Mar 14 2023 14:01:53 GMT-0400 (Eastern Daylight Time)","588069","Untrustworthy,Trustworthy","","null","","","","ratingFB","","trustrating_stim/white_mw071.bmp","null","","","","","","","","","","",""
"image-keyboard-response","15","32342","0.0-6.0-1.5","5dd03c5486c8861300974102","bdp_trlrn","Tue Mar 14 2023 14:01:53 GMT-0400 (Eastern Daylight Time)","588069","Untrustworthy,Trustworthy","","2858","","","","rating","","trustrating_stim/white_mw053.bmp","4","","","","","","","","","","",""
"image-keyboard-response","16","32543","0.0-6.0-2.5","5dd03c5486c8861300974102","bdp_trlrn","Tue Mar 14 2023 14:01:53 GMT-0400 (Eastern Daylight Time)","588069","Untrustworthy,Trustworthy","","null","","","","ratingFB","","trustrating_stim/white_mw053.bmp","null","","","","","","","","","","",""
"image-keyboard-response","17","34182","0.0-6.0-1.6","5dd03c5486c8861300974102","bdp_trlrn","Tue Mar 14 2023 14:01:53 GMT-0400 (Eastern Daylight Time)","588069","Untrustworthy,Trustworthy","","1538","","","","rating","","trustrating_stim/white_mw049.bmp","6","","","","","","","","","","",""
"image-keyboard-response","18","34384","0.0-6.0-2.6","5dd03c5486c8861300974102","bdp_trlrn","Tue Mar 14 2023 14:01:53 GMT-0400 (Eastern Daylight Time)","588069","Untrustworthy,Trustworthy","","null","","","","ratingFB","","trustrating_stim/white_mw049.bmp","null","","","","","","","","","","",""
"image-keyboard-response","19","35358","0.0-6.0-1.7","5dd03c5486c8861300974102","bdp_trlrn","Tue Mar 14 2023 14:01:53 GMT-0400 (Eastern Daylight Time)","588069","Untrustworthy,Trustworthy","","873","","","","rating","","trustrating_stim/white_mw089.bmp","2","","","","","","","","","","",""
"image-keyboard-response","20","35559","0.0-6.0-2.7","5dd03c5486c8861300974102","bdp_trlrn","Tue Mar 14 2023 14:01:53 GMT-0400 (Eastern Daylight Time)","588069","Untrustworthy,Trustworthy","","null","","","","ratingFB","","trustrating_stim/white_mw089.bmp","null","","","","","","","","","","",""
"image-keyboard-response","21","37782","0.0-6.0-1.8","5dd03c5486c8861300974102","bdp_trlrn","Tue Mar 14 2023 14:01:53 GMT-0400 (Eastern Daylight Time)","588069","Untrustworthy,Trustworthy","","2122","","","","rating","","trustrating_stim/white_mw048.bmp","3","","","","","","","","","","",""
"image-keyboard-response","22","37984","0.0-6.0-2.8","5dd03c5486c8861300974102","bdp_trlrn","Tue Mar 14 2023 14:01:53 GMT-0400 (Eastern Daylight Time)","588069","Untrustworthy,Trustworthy","","null","","","","ratingFB","","trustrating_stim/white_mw048.bmp","null","","","","","","","","","","",""
"image-keyboard-response","23","40318","0.0-6.0-1.9","5dd03c5486c8861300974102","bdp_trlrn","Tue Mar 14 2023 14:01:53 GMT-0400 (Eastern Daylight Time)","588069","Untrustworthy,Trustworthy","","2233","","","","rating","","trustrating_stim/white_00577_940928_fa_edt.bmp","3","","","","","","","","","","",""
"image-keyboard-response","24","40519","0.0-6.0-2.9","5dd03c5486c8861300974102","bdp_trlrn","Tue Mar 14 2023 14:01:53 GMT-0400 (Eastern Daylight Time)","588069","Untrustworthy,Trustworthy","","null","","","","ratingFB","","trustrating_stim/white_00577_940928_fa_edt.bmp","null","","","","","","","","","","",""
"image-keyboard-response","25","42590","0.0-6.0-1.10","5dd03c5486c8861300974102","bdp_trlrn","Tue Mar 14 2023 14:01:53 GMT-0400 (Eastern Daylight Time)","588069","Untrustworthy,Trustworthy","","1970","","","","rating","","trustrating_stim/white_00785_941205_fb_edt.bmp","4","","","","","","","","","","",""
"image-keyboard-response","26","42791","0.0-6.0-2.10","5dd03c5486c8861300974102","bdp_trlrn","Tue Mar 14 2023 14:01:53 GMT-0400 (Eastern Daylight Time)","588069","Untrustworthy,Trustworthy","","null","","","","ratingFB","","trustrating_stim/white_00785_941205_fb_edt.bmp","null","","","","","","","","","","",""
"image-keyboard-response","27","44310","0.0-6.0-1.11","5dd03c5486c8861300974102","bdp_trlrn","Tue Mar 14 2023 14:01:53 GMT-0400 (Eastern Daylight Time)","588069","Untrustworthy,Trustworthy","","1418","","","","rating","","trustrating_stim/white_00898_960530_fa_edt.bmp","7","","","","","","","","","","",""
"image-keyboard-response","28","44512","0.0-6.0-2.11","5dd03c5486c8861300974102","bdp_trlrn","Tue Mar 14 2023 14:01:53 GMT-0400 (Eastern Daylight Time)","588069","Untrustworthy,Trustworthy","","null","","","","ratingFB","","trustrating_stim/white_00898_960530_fa_edt.bmp","null","","","","","","","","","","",""
"image-keyboard-response","29","46846","0.0-6.0-1.12","5dd03c5486c8861300974102","bdp_trlrn","Tue Mar 14 2023 14:01:53 GMT-0400 (Eastern Daylight Time)","588069","Untrustworthy,Trustworthy","","2233","","","","rating","","trustrating_stim/white_00807_941205_fb_edt.bmp","6","","","","","","","","","","",""
"image-keyboard-response","30","47048","0.0-6.0-2.12","5dd03c5486c8861300974102","bdp_trlrn","Tue Mar 14 2023 14:01:53 GMT-0400 (Eastern Daylight Time)","588069","Untrustworthy,Trustworthy","","null","","","","ratingFB","","trustrating_stim/white_00807_941205_fb_edt.bmp","null","","","","","","","","","","",""
"image-keyboard-response","31","48862","0.0-6.0-1.13","5dd03c5486c8861300974102","bdp_trlrn","Tue Mar 14 2023 14:01:53 GMT-0400 (Eastern Daylight Time)","588069","Untrustworthy,Trustworthy","","1713","","","","rating","","trustrating_stim/white_00761_941201_fb_edt.bmp","8","","","","","","","","","","",""
"image-keyboard-response","32","49063","0.0-6.0-2.13","5dd03c5486c8861300974102","bdp_trlrn","Tue Mar 14 2023 14:01:53 GMT-0400 (Eastern Daylight Time)","588069","Untrustworthy,Trustworthy","","null","","","","ratingFB","","trustrating_stim/white_00761_941201_fb_edt.bmp","null","","","","","","","","","","",""
"image-keyboard-response","33","50270","0.0-6.0-1.14","5dd03c5486c8861300974102","bdp_trlrn","Tue Mar 14 2023 14:01:53 GMT-0400 (Eastern Daylight Time)","588069","Untrustworthy,Trustworthy","","1106","","","","rating","","trustrating_stim/white_mw060.bmp","2","","","","","","","","","","",""
"image-keyboard-response","34","50471","0.0-6.0-2.14","5dd03c5486c8861300974102","bdp_trlrn","Tue Mar 14 2023 14:01:53 GMT-0400 (Eastern Daylight Time)","588069","Untrustworthy,Trustworthy","","null","","","","ratingFB","","trustrating_stim/white_mw060.bmp","null","","","","","","","","","","",""
"image-keyboard-response","35","51967","0.0-6.0-1.15","5dd03c5486c8861300974102","bdp_trlrn","Tue Mar 14 2023 14:01:53 GMT-0400 (Eastern Daylight Time)","588069","Untrustworthy,Trustworthy","","1394","","","","rating","","trustrating_stim/white_00602_940928_fb_edt.bmp","4","","","","","","","","","","",""
"image-keyboard-response","36","52167","0.0-6.0-2.15","5dd03c5486c8861300974102","bdp_trlrn","Tue Mar 14 2023 14:01:53 GMT-0400 (Eastern Daylight Time)","588069","Untrustworthy,Trustworthy","","null","","","","ratingFB","","trustrating_stim/white_00602_940928_fb_edt.bmp","null","","","","","","","","","","",""
"image-keyboard-response","37","56607","0.0-6.0-1.16","5dd03c5486c8861300974102","bdp_trlrn","Tue Mar 14 2023 14:01:53 GMT-0400 (Eastern Daylight Time)","588069","Untrustworthy,Trustworthy","","4339","","","","rating","","trustrating_stim/white_mw035.bmp","3","","","","","","","","","","",""
"image-keyboard-response","38","56809","0.0-6.0-2.16","5dd03c5486c8861300974102","bdp_trlrn","Tue Mar 14 2023 14:01:53 GMT-0400 (Eastern Daylight Time)","588069","Untrustworthy,Trustworthy","","null","","","","ratingFB","","trustrating_stim/white_mw035.bmp","null","","","","","","","","","","",""
"image-keyboard-response","39","58462","0.0-6.0-1.17","5dd03c5486c8861300974102","bdp_trlrn","Tue Mar 14 2023 14:01:53 GMT-0400 (Eastern Daylight Time)","588069","Untrustworthy,Trustworthy","","1553","","","","rating","","trustrating_stim/white_mw046.bmp","6","","","","","","","","","","",""
"image-keyboard-response","40","58664","0.0-6.0-2.17","5dd03c5486c8861300974102","bdp_trlrn","Tue Mar 14 2023 14:01:53 GMT-0400 (Eastern Daylight Time)","588069","Untrustworthy,Trustworthy","","null","","","","ratingFB","","trustrating_stim/white_mw046.bmp","null","","","","","","","","","","",""
"image-keyboard-response","41","60310","0.0-6.0-1.18","5dd03c5486c8861300974102","bdp_trlrn","Tue Mar 14 2023 14:01:53 GMT-0400 (Eastern Daylight Time)","588069","Untrustworthy,Trustworthy","","1546","","","","rating","","trustrating_stim/white_00659_941121_fa_edt.bmp","2","","","","","","","","","","",""
"image-keyboard-response","42","60511","0.0-6.0-2.18","5dd03c5486c8861300974102","bdp_trlrn","Tue Mar 14 2023 14:01:53 GMT-0400 (Eastern Daylight Time)","588069","Untrustworthy,Trustworthy","","null","","","","ratingFB","","trustrating_stim/white_00659_941121_fa_edt.bmp","null","","","","","","","","","","",""
"image-keyboard-response","43","63366","0.0-6.0-1.19","5dd03c5486c8861300974102","bdp_trlrn","Tue Mar 14 2023 14:01:53 GMT-0400 (Eastern Daylight Time)","588069","Untrustworthy,Trustworthy","","2754","","","","rating","","trustrating_stim/white_00223_940128_fb_edt.bmp","3","","","","","","","","","","",""
"image-keyboard-response","44","63567","0.0-6.0-2.19","5dd03c5486c8861300974102","bdp_trlrn","Tue Mar 14 2023 14:01:53 GMT-0400 (Eastern Daylight Time)","588069","Untrustworthy,Trustworthy","","null","","","","ratingFB","","trustrating_stim/white_00223_940128_fb_edt.bmp","null","","","","","","","","","","",""
"image-keyboard-response","45","64919","0.0-6.0-1.20","5dd03c5486c8861300974102","bdp_trlrn","Tue Mar 14 2023 14:01:53 GMT-0400 (Eastern Daylight Time)","588069","Untrustworthy,Trustworthy","","1251","","","","rating","","trustrating_stim/white_mw033.bmp","7","","","","","","","","","","",""
"image-keyboard-response","46","65120","0.0-6.0-2.20","5dd03c5486c8861300974102","bdp_trlrn","Tue Mar 14 2023 14:01:53 GMT-0400 (Eastern Daylight Time)","588069","Untrustworthy,Trustworthy","","null","","","","ratingFB","","trustrating_stim/white_mw033.bmp","null","","","","","","","","","","",""
"image-keyboard-response","47","66158","0.0-6.0-1.21","5dd03c5486c8861300974102","bdp_trlrn","Tue Mar 14 2023 14:01:53 GMT-0400 (Eastern Daylight Time)","588069","Untrustworthy,Trustworthy","","937","","","","rating","","trustrating_stim/white_mw056.bmp","3","","","","","","","","","","",""
"image-keyboard-response","48","66360","0.0-6.0-2.21","5dd03c5486c8861300974102","bdp_trlrn","Tue Mar 14 2023 14:01:53 GMT-0400 (Eastern Daylight Time)","588069","Untrustworthy,Trustworthy","","null","","","","ratingFB","","trustrating_stim/white_mw056.bmp","null","","","","","","","","","","",""
"image-keyboard-response","49","70062","0.0-6.0-1.22","5dd03c5486c8861300974102","bdp_trlrn","Tue Mar 14 2023 14:01:53 GMT-0400 (Eastern Daylight Time)","588069","Untrustworthy,Trustworthy","","3602","","","","rating","","trustrating_stim/white_mw063.bmp","4","","","","","","","","","","",""
"image-keyboard-response","50","70264","0.0-6.0-2.22","5dd03c5486c8861300974102","bdp_trlrn","Tue Mar 14 2023 14:01:53 GMT-0400 (Eastern Daylight Time)","588069","Untrustworthy,Trustworthy","","null","","","","ratingFB","","trustrating_stim/white_mw063.bmp","null","","","","","","","","","","",""
"image-keyboard-response","51","71982","0.0-6.0-1.23","5dd03c5486c8861300974102","bdp_trlrn","Tue Mar 14 2023 14:01:53 GMT-0400 (Eastern Daylight Time)","588069","Untrustworthy,Trustworthy","","1617","","","","rating","","trustrating_stim/white_00340_940422_fa_edt.bmp","2","","","","","","","","","","",""
"image-keyboard-response","52","72183","0.0-6.0-2.23","5dd03c5486c8861300974102","bdp_trlrn","Tue Mar 14 2023 14:01:53 GMT-0400 (Eastern Daylight Time)","588069","Untrustworthy,Trustworthy","","null","","","","ratingFB","","trustrating_stim/white_00340_940422_fa_edt.bmp","null","","","","","","","","","","",""
"image-keyboard-response","53","73478","0.0-6.0-1.24","5dd03c5486c8861300974102","bdp_trlrn","Tue Mar 14 2023 14:01:53 GMT-0400 (Eastern Daylight Time)","588069","Untrustworthy,Trustworthy","","1193","","","","rating","","trustrating_stim/white_mw097.bmp","4","","","","","","","","","","",""
"image-keyboard-response","54","73679","0.0-6.0-2.24","5dd03c5486c8861300974102","bdp_trlrn","Tue Mar 14 2023 14:01:53 GMT-0400 (Eastern Daylight Time)","588069","Untrustworthy,Trustworthy","","null","","","","ratingFB","","trustrating_stim/white_mw097.bmp","null","","","","","","","","","","",""
"image-keyboard-response","55","76902","0.0-6.0-1.25","5dd03c5486c8861300974102","bdp_trlrn","Tue Mar 14 2023 14:01:53 GMT-0400 (Eastern Daylight Time)","588069","Untrustworthy,Trustworthy","","3122","","","","rating","","trustrating_stim/white_mw099.bmp","3","","","","","","","","","","",""
"image-keyboard-response","56","77103","0.0-6.0-2.25","5dd03c5486c8861300974102","bdp_trlrn","Tue Mar 14 2023 14:01:53 GMT-0400 (Eastern Daylight Time)","588069","Untrustworthy,Trustworthy","","null","","","","ratingFB","","trustrating_stim/white_mw099.bmp","null","","","","","","","","","","",""
"image-keyboard-response","57","78438","0.0-6.0-1.26","5dd03c5486c8861300974102","bdp_trlrn","Tue Mar 14 2023 14:01:53 GMT-0400 (Eastern Daylight Time)","588069","Untrustworthy,Trustworthy","","1234","","","","rating","","trustrating_stim/white_00757_941201_fa_edt.bmp","4","","","","","","","","","","",""
"image-keyboard-response","58","78639","0.0-6.0-2.26","5dd03c5486c8861300974102","bdp_trlrn","Tue Mar 14 2023 14:01:53 GMT-0400 (Eastern Daylight Time)","588069","Untrustworthy,Trustworthy","","null","","","","ratingFB","","trustrating_stim/white_00757_941201_fa_edt.bmp","null","","","","","","","","","","",""
"image-keyboard-response","59","79918","0.0-6.0-1.27","5dd03c5486c8861300974102","bdp_trlrn","Tue Mar 14 2023 14:01:53 GMT-0400 (Eastern Daylight Time)","588069","Untrustworthy,Trustworthy","","1178","","","","rating","","trustrating_stim/white_mw066.bmp","6","","","","","","","","","","",""
"image-keyboard-response","60","80119","0.0-6.0-2.27","5dd03c5486c8861300974102","bdp_trlrn","Tue Mar 14 2023 14:01:53 GMT-0400 (Eastern Daylight Time)","588069","Untrustworthy,Trustworthy","","null","","","","ratingFB","","trustrating_stim/white_mw066.bmp","null","","","","","","","","","","",""
"image-keyboard-response","61","81671","0.0-6.0-1.28","5dd03c5486c8861300974102","bdp_trlrn","Tue Mar 14 2023 14:01:53 GMT-0400 (Eastern Daylight Time)","588069","Untrustworthy,Trustworthy","","1450","","","","rating","","trustrating_stim/white_00129_931230_fb_edt.bmp","2","","","","","","","","","","",""
"image-keyboard-response","62","81871","0.0-6.0-2.28","5dd03c5486c8861300974102","bdp_trlrn","Tue Mar 14 2023 14:01:53 GMT-0400 (Eastern Daylight Time)","588069","Untrustworthy,Trustworthy","","null","","","","ratingFB","","trustrating_stim/white_00129_931230_fb_edt.bmp","null","","","","","","","","","","",""
"image-keyboard-response","63","83046","0.0-6.0-1.29","5dd03c5486c8861300974102","bdp_trlrn","Tue Mar 14 2023 14:01:53 GMT-0400 (Eastern Daylight Time)","588069","Untrustworthy,Trustworthy","","1074","","","","rating","","trustrating_stim/white_mw084.bmp","3","","","","","","","","","","",""
"image-keyboard-response","64","83247","0.0-6.0-2.29","5dd03c5486c8861300974102","bdp_trlrn","Tue Mar 14 2023 14:01:53 GMT-0400 (Eastern Daylight Time)","588069","Untrustworthy,Trustworthy","","null","","","","ratingFB","","trustrating_stim/white_mw084.bmp","null","","","","","","","","","","",""
"image-keyboard-response","65","84438","0.0-6.0-1.30","5dd03c5486c8861300974102","bdp_trlrn","Tue Mar 14 2023 14:01:53 GMT-0400 (Eastern Daylight Time)","588069","Untrustworthy,Trustworthy","","1089","","","","rating","","trustrating_stim/white_00757_941201_fa_edt.bmp","2","","","","","","","","","","",""
"image-keyboard-response","66","84639","0.0-6.0-2.30","5dd03c5486c8861300974102","bdp_trlrn","Tue Mar 14 2023 14:01:53 GMT-0400 (Eastern Daylight Time)","588069","Untrustworthy,Trustworthy","","null","","","","ratingFB","","trustrating_stim/white_00757_941201_fa_edt.bmp","null","","","","","","","","","","",""
"image-keyboard-response","67","85782","0.0-6.0-1.31","5dd03c5486c8861300974102","bdp_trlrn","Tue Mar 14 2023 14:01:53 GMT-0400 (Eastern Daylight Time)","588069","Untrustworthy,Trustworthy","","1042","","","","rating","","trustrating_stim/white_00519_940519_fb_edt.bmp","6","","","","","","","","","","",""
"image-keyboard-response","68","85983","0.0-6.0-2.31","5dd03c5486c8861300974102","bdp_trlrn","Tue Mar 14 2023 14:01:53 GMT-0400 (Eastern Daylight Time)","588069","Untrustworthy,Trustworthy","","null","","","","ratingFB","","trustrating_stim/white_00519_940519_fb_edt.bmp","null","","","","","","","","","","",""
"image-keyboard-response","69","88550","0.0-6.0-1.32","5dd03c5486c8861300974102","bdp_trlrn","Tue Mar 14 2023 14:01:53 GMT-0400 (Eastern Daylight Time)","588069","Untrustworthy,Trustworthy","","2466","","","","rating","","trustrating_stim/white_00761_941201_fb_edt.bmp","7","","","","","","","","","","",""
"image-keyboard-response","70","88751","0.0-6.0-2.32","5dd03c5486c8861300974102","bdp_trlrn","Tue Mar 14 2023 14:01:53 GMT-0400 (Eastern Daylight Time)","588069","Untrustworthy,Trustworthy","","null","","","","ratingFB","","trustrating_stim/white_00761_941201_fb_edt.bmp","null","","","","","","","","","","",""
"image-keyboard-response","71","91470","0.0-6.0-1.33","5dd03c5486c8861300974102","bdp_trlrn","Tue Mar 14 2023 14:01:53 GMT-0400 (Eastern Daylight Time)","588069","Untrustworthy,Trustworthy","","2618","","","","rating","","trustrating_stim/white_00109_931230_fa_edt.bmp","6","","","","","","","","","","",""
"image-keyboard-response","72","91672","0.0-6.0-2.33","5dd03c5486c8861300974102","bdp_trlrn","Tue Mar 14 2023 14:01:53 GMT-0400 (Eastern Daylight Time)","588069","Untrustworthy,Trustworthy","","null","","","","ratingFB","","trustrating_stim/white_00109_931230_fa_edt.bmp","null","","","","","","","","","","",""
"image-keyboard-response","73","93110","0.0-6.0-1.34","5dd03c5486c8861300974102","bdp_trlrn","Tue Mar 14 2023 14:01:53 GMT-0400 (Eastern Daylight Time)","588069","Untrustworthy,Trustworthy","","1336","","","","rating","","trustrating_stim/white_mw046.bmp","3","","","","","","","","","","",""
"image-keyboard-response","74","93311","0.0-6.0-2.34","5dd03c5486c8861300974102","bdp_trlrn","Tue Mar 14 2023 14:01:53 GMT-0400 (Eastern Daylight Time)","588069","Untrustworthy,Trustworthy","","null","","","","ratingFB","","trustrating_stim/white_mw046.bmp","null","","","","","","","","","","",""
"image-keyboard-response","75","94534","0.0-6.0-1.35","5dd03c5486c8861300974102","bdp_trlrn","Tue Mar 14 2023 14:01:53 GMT-0400 (Eastern Daylight Time)","588069","Untrustworthy,Trustworthy","","1122","","","","rating","","trustrating_stim/white_00898_960530_fa_edt.bmp","7","","","","","","","","","","",""
"image-keyboard-response","76","94735","0.0-6.0-2.35","5dd03c5486c8861300974102","bdp_trlrn","Tue Mar 14 2023 14:01:53 GMT-0400 (Eastern Daylight Time)","588069","Untrustworthy,Trustworthy","","null","","","","ratingFB","","trustrating_stim/white_00898_960530_fa_edt.bmp","null","","","","","","","","","","",""
"image-keyboard-response","77","98126","0.0-6.0-1.36","5dd03c5486c8861300974102","bdp_trlrn","Tue Mar 14 2023 14:01:53 GMT-0400 (Eastern Daylight Time)","588069","Untrustworthy,Trustworthy","","3290","","","","rating","","trustrating_stim/white_00129_931230_fb_edt.bmp","7","","","","","","","","","","",""
"image-keyboard-response","78","98327","0.0-6.0-2.36","5dd03c5486c8861300974102","bdp_trlrn","Tue Mar 14 2023 14:01:53 GMT-0400 (Eastern Daylight Time)","588069","Untrustworthy,Trustworthy","","null","","","","ratingFB","","trustrating_stim/white_00129_931230_fb_edt.bmp","null","","","","","","","","","","",""
"image-keyboard-response","79","99694","0.0-6.0-1.37","5dd03c5486c8861300974102","bdp_trlrn","Tue Mar 14 2023 14:01:53 GMT-0400 (Eastern Daylight Time)","588069","Untrustworthy,Trustworthy","","1265","","","","rating","","trustrating_stim/white_mw049.bmp","8","","","","","","","","","","",""
"image-keyboard-response","80","99896","0.0-6.0-2.37","5dd03c5486c8861300974102","bdp_trlrn","Tue Mar 14 2023 14:01:53 GMT-0400 (Eastern Daylight Time)","588069","Untrustworthy,Trustworthy","","null","","","","ratingFB","","trustrating_stim/white_mw049.bmp","null","","","","","","","","","","",""
"image-keyboard-response","81","100726","0.0-6.0-1.38","5dd03c5486c8861300974102","bdp_trlrn","Tue Mar 14 2023 14:01:53 GMT-0400 (Eastern Daylight Time)","588069","Untrustworthy,Trustworthy","","729","","","","rating","","trustrating_stim/white_00659_941121_fa_edt.bmp","3","","","","","","","","","","",""
"image-keyboard-response","82","100928","0.0-6.0-2.38","5dd03c5486c8861300974102","bdp_trlrn","Tue Mar 14 2023 14:01:53 GMT-0400 (Eastern Daylight Time)","588069","Untrustworthy,Trustworthy","","null","","","","ratingFB","","trustrating_stim/white_00659_941121_fa_edt.bmp","null","","","","","","","","","","",""
"image-keyboard-response","83","102606","0.0-6.0-1.39","5dd03c5486c8861300974102","bdp_trlrn","Tue Mar 14 2023 14:01:53 GMT-0400 (Eastern Daylight Time)","588069","Untrustworthy,Trustworthy","","1577","","","","rating","","trustrating_stim/white_mw066.bmp","6","","","","","","","","","","",""
"image-keyboard-response","84","102807","0.0-6.0-2.39","5dd03c5486c8861300974102","bdp_trlrn","Tue Mar 14 2023 14:01:53 GMT-0400 (Eastern Daylight Time)","588069","Untrustworthy,Trustworthy","","null","","","","ratingFB","","trustrating_stim/white_mw066.bmp","null","","","","","","","","","","",""
"image-keyboard-response","85","104263","0.0-6.0-1.40","5dd03c5486c8861300974102","bdp_trlrn","Tue Mar 14 2023 14:01:53 GMT-0400 (Eastern Daylight Time)","588069","Untrustworthy,Trustworthy","","1354","","","","rating","","trustrating_stim/white_mw048.bmp","4","","","","","","","","","","",""
"image-keyboard-response","86","104464","0.0-6.0-2.40","5dd03c5486c8861300974102","bdp_trlrn","Tue Mar 14 2023 14:01:53 GMT-0400 (Eastern Daylight Time)","588069","Untrustworthy,Trustworthy","","null","","","","ratingFB","","trustrating_stim/white_mw048.bmp","null","","","","","","","","","","",""
"image-keyboard-response","87","113190","0.0-6.0-1.41","5dd03c5486c8861300974102","bdp_trlrn","Tue Mar 14 2023 14:01:53 GMT-0400 (Eastern Daylight Time)","588069","Untrustworthy,Trustworthy","","8625","","","","rating","","trustrating_stim/white_mw035.bmp","4","","","","","","","","","","",""
"image-keyboard-response","88","113391","0.0-6.0-2.41","5dd03c5486c8861300974102","bdp_trlrn","Tue Mar 14 2023 14:01:53 GMT-0400 (Eastern Daylight Time)","588069","Untrustworthy,Trustworthy","","null","","","","ratingFB","","trustrating_stim/white_mw035.bmp","null","","","","","","","","","","",""
"image-keyboard-response","89","117479","0.0-6.0-1.42","5dd03c5486c8861300974102","bdp_trlrn","Tue Mar 14 2023 14:01:53 GMT-0400 (Eastern Daylight Time)","588069","Untrustworthy,Trustworthy","","3985","","","","rating","","trustrating_stim/white_mw071.bmp","2","","","","","","","","","","",""
"image-keyboard-response","90","117680","0.0-6.0-2.42","5dd03c5486c8861300974102","bdp_trlrn","Tue Mar 14 2023 14:01:53 GMT-0400 (Eastern Daylight Time)","588069","Untrustworthy,Trustworthy","","null","","","","ratingFB","","trustrating_stim/white_mw071.bmp","null","","","","","","","","","","",""
"image-keyboard-response","91","120238","0.0-6.0-1.43","5dd03c5486c8861300974102","bdp_trlrn","Tue Mar 14 2023 14:01:53 GMT-0400 (Eastern Daylight Time)","588069","Untrustworthy,Trustworthy","","2457","","","","rating","","trustrating_stim/white_mw097.bmp","7","","","","","","","","","","",""
"image-keyboard-response","92","120439","0.0-6.0-2.43","5dd03c5486c8861300974102","bdp_trlrn","Tue Mar 14 2023 14:01:53 GMT-0400 (Eastern Daylight Time)","588069","Untrustworthy,Trustworthy","","null","","","","ratingFB","","trustrating_stim/white_mw097.bmp","null","","","","","","","","","","",""
"image-keyboard-response","93","123086","0.0-6.0-1.44","5dd03c5486c8861300974102","bdp_trlrn","Tue Mar 14 2023 14:01:53 GMT-0400 (Eastern Daylight Time)","588069","Untrustworthy,Trustworthy","","2545","","","","rating","","trustrating_stim/white_mw084.bmp","6","","","","","","","","","","",""
"image-keyboard-response","94","123288","0.0-6.0-2.44","5dd03c5486c8861300974102","bdp_trlrn","Tue Mar 14 2023 14:01:53 GMT-0400 (Eastern Daylight Time)","588069","Untrustworthy,Trustworthy","","null","","","","ratingFB","","trustrating_stim/white_mw084.bmp","null","","","","","","","","","","",""
"image-keyboard-response","95","125166","0.0-6.0-1.45","5dd03c5486c8861300974102","bdp_trlrn","Tue Mar 14 2023 14:01:53 GMT-0400 (Eastern Daylight Time)","588069","Untrustworthy,Trustworthy","","1777","","","","rating","","trustrating_stim/white_00223_940128_fb_edt.bmp","4","","","","","","","","","","",""
"image-keyboard-response","96","125367","0.0-6.0-2.45","5dd03c5486c8861300974102","bdp_trlrn","Tue Mar 14 2023 14:01:53 GMT-0400 (Eastern Daylight Time)","588069","Untrustworthy,Trustworthy","","null","","","","ratingFB","","trustrating_stim/white_00223_940128_fb_edt.bmp","null","","","","","","","","","","",""
"image-keyboard-response","97","127302","0.0-6.0-1.46","5dd03c5486c8861300974102","bdp_trlrn","Tue Mar 14 2023 14:01:53 GMT-0400 (Eastern Daylight Time)","588069","Untrustworthy,Trustworthy","","1834","","","","rating","","trustrating_stim/white_mw033.bmp","6","","","","","","","","","","",""
"image-keyboard-response","98","127504","0.0-6.0-2.46","5dd03c5486c8861300974102","bdp_trlrn","Tue Mar 14 2023 14:01:53 GMT-0400 (Eastern Daylight Time)","588069","Untrustworthy,Trustworthy","","null","","","","ratingFB","","trustrating_stim/white_mw033.bmp","null","","","","","","","","","","",""
"image-keyboard-response","99","128775","0.0-6.0-1.47","5dd03c5486c8861300974102","bdp_trlrn","Tue Mar 14 2023 14:01:53 GMT-0400 (Eastern Daylight Time)","588069","Untrustworthy,Trustworthy","","1169","","","","rating","","trustrating_stim/white_00299_940422_fa_edt.bmp","7","","","","","","","","","","",""
"image-keyboard-response","100","128976","0.0-6.0-2.47","5dd03c5486c8861300974102","bdp_trlrn","Tue Mar 14 2023 14:01:53 GMT-0400 (Eastern Daylight Time)","588069","Untrustworthy,Trustworthy","","null","","","","ratingFB","","trustrating_stim/white_00299_940422_fa_edt.bmp","null","","","","","","","","","","",""
"image-keyboard-response","101","130006","0.0-6.0-1.48","5dd03c5486c8861300974102","bdp_trlrn","Tue Mar 14 2023 14:01:53 GMT-0400 (Eastern Daylight Time)","588069","Untrustworthy,Trustworthy","","929","","","","rating","","trustrating_stim/white_mw053.bmp","8","","","","","","","","","","",""
"image-keyboard-response","102","130207","0.0-6.0-2.48","5dd03c5486c8861300974102","bdp_trlrn","Tue Mar 14 2023 14:01:53 GMT-0400 (Eastern Daylight Time)","588069","Untrustworthy,Trustworthy","","null","","","","ratingFB","","trustrating_stim/white_mw053.bmp","null","","","","","","","","","","",""
"image-keyboard-response","103","131486","0.0-6.0-1.49","5dd03c5486c8861300974102","bdp_trlrn","Tue Mar 14 2023 14:01:53 GMT-0400 (Eastern Daylight Time)","588069","Untrustworthy,Trustworthy","","1178","","","","rating","","trustrating_stim/white_00785_941205_fb_edt.bmp","4","","","","","","","","","","",""
"image-keyboard-response","104","131687","0.0-6.0-2.49","5dd03c5486c8861300974102","bdp_trlrn","Tue Mar 14 2023 14:01:53 GMT-0400 (Eastern Daylight Time)","588069","Untrustworthy,Trustworthy","","null","","","","ratingFB","","trustrating_stim/white_00785_941205_fb_edt.bmp","null","","","","","","","","","","",""
"image-keyboard-response","105","132598","0.0-6.0-1.50","5dd03c5486c8861300974102","bdp_trlrn","Tue Mar 14 2023 14:01:53 GMT-0400 (Eastern Daylight Time)","588069","Untrustworthy,Trustworthy","","809","","","","rating","","trustrating_stim/white_mw063.bmp","3","","","","","","","","","","",""
"image-keyboard-response","106","132799","0.0-6.0-2.50","5dd03c5486c8861300974102","bdp_trlrn","Tue Mar 14 2023 14:01:53 GMT-0400 (Eastern Daylight Time)","588069","Untrustworthy,Trustworthy","","null","","","","ratingFB","","trustrating_stim/white_mw063.bmp","null","","","","","","","","","","",""
"image-keyboard-response","107","135062","0.0-6.0-1.51","5dd03c5486c8861300974102","bdp_trlrn","Tue Mar 14 2023 14:01:53 GMT-0400 (Eastern Daylight Time)","588069","Untrustworthy,Trustworthy","","2161","","","","rating","","trustrating_stim/white_mw099.bmp","4","","","","","","","","","","",""
"image-keyboard-response","108","135263","0.0-6.0-2.51","5dd03c5486c8861300974102","bdp_trlrn","Tue Mar 14 2023 14:01:53 GMT-0400 (Eastern Daylight Time)","588069","Untrustworthy,Trustworthy","","null","","","","ratingFB","","trustrating_stim/white_mw099.bmp","null","","","","","","","","","","",""
"image-keyboard-response","109","138102","0.0-6.0-1.52","5dd03c5486c8861300974102","bdp_trlrn","Tue Mar 14 2023 14:01:53 GMT-0400 (Eastern Daylight Time)","588069","Untrustworthy,Trustworthy","","2738","","","","rating","","trustrating_stim/white_00340_940422_fa_edt.bmp","6","","","","","","","","","","",""
"image-keyboard-response","110","138303","0.0-6.0-2.52","5dd03c5486c8861300974102","bdp_trlrn","Tue Mar 14 2023 14:01:53 GMT-0400 (Eastern Daylight Time)","588069","Untrustworthy,Trustworthy","","null","","","","ratingFB","","trustrating_stim/white_00340_940422_fa_edt.bmp","null","","","","","","","","","","",""
"image-keyboard-response","111","139471","0.0-6.0-1.53","5dd03c5486c8861300974102","bdp_trlrn","Tue Mar 14 2023 14:01:53 GMT-0400 (Eastern Daylight Time)","588069","Untrustworthy,Trustworthy","","1066","","","","rating","","trustrating_stim/white_00120_931230_fa_edt.bmp","8","","","","","","","","","","",""
"image-keyboard-response","112","139672","0.0-6.0-2.53","5dd03c5486c8861300974102","bdp_trlrn","Tue Mar 14 2023 14:01:53 GMT-0400 (Eastern Daylight Time)","588069","Untrustworthy,Trustworthy","","null","","","","ratingFB","","trustrating_stim/white_00120_931230_fa_edt.bmp","null","","","","","","","","","","",""
"image-keyboard-response","113","141574","0.0-6.0-1.54","5dd03c5486c8861300974102","bdp_trlrn","Tue Mar 14 2023 14:01:53 GMT-0400 (Eastern Daylight Time)","588069","Untrustworthy,Trustworthy","","1801","","","","rating","","trustrating_stim/white_mw056.bmp","6","","","","","","","","","","",""
"image-keyboard-response","114","141775","0.0-6.0-2.54","5dd03c5486c8861300974102","bdp_trlrn","Tue Mar 14 2023 14:01:53 GMT-0400 (Eastern Daylight Time)","588069","Untrustworthy,Trustworthy","","null","","","","ratingFB","","trustrating_stim/white_mw056.bmp","null","","","","","","","","","","",""
"image-keyboard-response","115","143094","0.0-6.0-1.55","5dd03c5486c8861300974102","bdp_trlrn","Tue Mar 14 2023 14:01:53 GMT-0400 (Eastern Daylight Time)","588069","Untrustworthy,Trustworthy","","1218","","","","rating","","trustrating_stim/white_00807_941205_fb_edt.bmp","7","","","","","","","","","","",""
"image-keyboard-response","116","143295","0.0-6.0-2.55","5dd03c5486c8861300974102","bdp_trlrn","Tue Mar 14 2023 14:01:53 GMT-0400 (Eastern Daylight Time)","588069","Untrustworthy,Trustworthy","","null","","","","ratingFB","","trustrating_stim/white_00807_941205_fb_edt.bmp","null","","","","","","","","","","",""
"image-keyboard-response","117","144734","0.0-6.0-1.56","5dd03c5486c8861300974102","bdp_trlrn","Tue Mar 14 2023 14:01:53 GMT-0400 (Eastern Daylight Time)","588069","Untrustworthy,Trustworthy","","1337","","","","rating","","trustrating_stim/white_mw089.bmp","3","","","","","","","","","","",""
"image-keyboard-response","118","144936","0.0-6.0-2.56","5dd03c5486c8861300974102","bdp_trlrn","Tue Mar 14 2023 14:01:53 GMT-0400 (Eastern Daylight Time)","588069","Untrustworthy,Trustworthy","","null","","","","ratingFB","","trustrating_stim/white_mw089.bmp","null","","","","","","","","","","",""
"image-keyboard-response","119","146726","0.0-6.0-1.57","5dd03c5486c8861300974102","bdp_trlrn","Tue Mar 14 2023 14:01:53 GMT-0400 (Eastern Daylight Time)","588069","Untrustworthy,Trustworthy","","1689","","","","rating","","trustrating_stim/white_00602_940928_fb_edt.bmp","6","","","","","","","","","","",""
"image-keyboard-response","120","146928","0.0-6.0-2.57","5dd03c5486c8861300974102","bdp_trlrn","Tue Mar 14 2023 14:01:53 GMT-0400 (Eastern Daylight Time)","588069","Untrustworthy,Trustworthy","","null","","","","ratingFB","","trustrating_stim/white_00602_940928_fb_edt.bmp","null","","","","","","","","","","",""
"image-keyboard-response","121","148078","0.0-6.0-1.58","5dd03c5486c8861300974102","bdp_trlrn","Tue Mar 14 2023 14:01:53 GMT-0400 (Eastern Daylight Time)","588069","Untrustworthy,Trustworthy","","1049","","","","rating","","trustrating_stim/white_mw060.bmp","2","","","","","","","","","","",""
"image-keyboard-response","122","148279","0.0-6.0-2.58","5dd03c5486c8861300974102","bdp_trlrn","Tue Mar 14 2023 14:01:53 GMT-0400 (Eastern Daylight Time)","588069","Untrustworthy,Trustworthy","","null","","","","ratingFB","","trustrating_stim/white_mw060.bmp","null","","","","","","","","","","",""
"image-keyboard-response","123","149254","0.0-6.0-1.59","5dd03c5486c8861300974102","bdp_trlrn","Tue Mar 14 2023 14:01:53 GMT-0400 (Eastern Daylight Time)","588069","Untrustworthy,Trustworthy","","873","","","","rating","","trustrating_stim/white_00577_940928_fa_edt.bmp","3","","","","","","","","","","",""
"image-keyboard-response","124","149455","0.0-6.0-2.59","5dd03c5486c8861300974102","bdp_trlrn","Tue Mar 14 2023 14:01:53 GMT-0400 (Eastern Daylight Time)","588069","Untrustworthy,Trustworthy","","null","","","","ratingFB","","trustrating_stim/white_00577_940928_fa_edt.bmp","null","","","","","","","","","","",""
"instructions","125","151031","0.0-7.0","5dd03c5486c8861300974102","bdp_trlrn","Tue Mar 14 2023 14:01:53 GMT-0400 (Eastern Daylight Time)","588069","Untrustworthy,Trustworthy","[{""page_index"":0,""viewing_time"":1473}]","1474","","","","","","","","","","","","","","","","","",""
"instructions","126","201206","0.0-8.0","5dd03c5486c8861300974102","bdp_trlrn","Tue Mar 14 2023 14:01:53 GMT-0400 (Eastern Daylight Time)","588069","Untrustworthy,Trustworthy","[{""page_index"":0,""viewing_time"":13843},{""page_index"":1,""viewing_time"":10552},{""page_index"":2,""viewing_time"":5360},{""page_index"":3,""viewing_time"":5160},{""page_index"":4,""viewing_time"":2720},{""page_index"":5,""viewing_time"":4496},{""page_index"":6,""viewing_time"":6912},{""page_index"":7,""viewing_time"":1032}]","50075","","","","","","","","","","","","","","","","","",""
"html-keyboard-response","127","213142","0.0-9.0","5dd03c5486c8861300974102","bdp_trlrn","Tue Mar 14 2023 14:01:53 GMT-0400 (Eastern Daylight Time)","588069","Untrustworthy,Trustworthy","","11935","","","","","","<div class='header' style='text-align:left; position: absolute; top: 5%; left: 5%;'><small>Task 3 of 5</small></div><div class='instruxDiv'><p><strong>1) What is the minimum number of points you can choose to send to your partner?</strong></p><p>a) 0</p><p>b) 1</p><p>c) 5</p>","C","","","","","","","","","","",""
"html-keyboard-response","128","216838","0.0-10.0","5dd03c5486c8861300974102","bdp_trlrn","Tue Mar 14 2023 14:01:53 GMT-0400 (Eastern Daylight Time)","588069","Untrustworthy,Trustworthy","","3595","","","","","","<div class='header' style='text-align:left; position: absolute; top: 5%; left: 5%;'><small>Task 3 of 5</small></div><div class='instruxDiv'><p><strong>1) What is the minimum number of points you can choose to send to your partner?</strong></p><p>a) 1</p><p>b) 1</p><p style='color:#FF0000'>c) 5</p><h3 style='color:#FF0000'>Incorrect!</h3><h3 class='center-content'>The correct response is b).</h3><h3 class='center-content'>The minimum number of points you can choose to send to your partner is 1 point.</h3><p><em>Press SPACEBAR to continue</em></p></div>"," ","","","","","","","","","","",""
"html-keyboard-response","129","220703","0.0-11.0","5dd03c5486c8861300974102","bdp_trlrn","Tue Mar 14 2023 14:01:53 GMT-0400 (Eastern Daylight Time)","588069","Untrustworthy,Trustworthy","","3764","","","","","","<div class='header' style='text-align:left; position: absolute; top: 5%; left: 5%;'><small>Task 3 of 5</small></div><div class='instruxDiv'><p><strong>2) What is the maximum number of points you can choose to send to your partner?</strong></p><p>a) 8</p><p>b) 5</p><p>c) 3</p>","B","","","","","","","","","","",""
"html-keyboard-response","130","221534","0.0-12.0","5dd03c5486c8861300974102","bdp_trlrn","Tue Mar 14 2023 14:01:53 GMT-0400 (Eastern Daylight Time)","588069","Untrustworthy,Trustworthy","","731","","","","","","<div class='header' style='text-align:left; position: absolute; top: 5%; left: 5%;'><small>Task 3 of 5</small></div><div class='instruxDiv'><p><strong>2) What is the maximum number of points you can choose to send to your partner?</strong></p><p>a) 8</p><p style='color:#00FF00'>b) 5</p><p>c) 3</p><h3 style='color:#00FF00'>Correct!</h3><h3 class='center-content'>The correct response is b).</h3><h3 class='center-content'>The maximum number of points you can choose to send to your partner is 5 points.</h3><p><em>Press SPACEBAR to continue</em></p></div>"," ","","","","","","","","","","",""
"html-keyboard-response","131","231863","0.0-13.0","5dd03c5486c8861300974102","bdp_trlrn","Tue Mar 14 2023 14:01:53 GMT-0400 (Eastern Daylight Time)","588069","Untrustworthy,Trustworthy","","10227","","","","","","<div class='header' style='text-align:left; position: absolute; top: 5%; left: 5%;'><small>Task 3 of 5</small></div><div class='instruxDiv'><p><strong>3) What happens to the amount of points you send to your partner?</strong></p><p>a) Nothing</p><p>b) It doubles</p><p>c) It quadruples</p>","C","","","","","","","","","","",""
"html-keyboard-response","132","232558","0.0-14.0","5dd03c5486c8861300974102","bdp_trlrn","Tue Mar 14 2023 14:01:53 GMT-0400 (Eastern Daylight Time)","588069","Untrustworthy,Trustworthy","","594","","","","","","<div class='header' style='text-align:left; position: absolute; top: 5%; left: 5%;'><small>Task 3 of 5</small></div><div class='instruxDiv'><p><strong>3) What happens to the amount of points you send to your partner?</strong></p><p>a) Nothing</p><p>b) It doubles</p><p style='color:#00FF00'>c) It quadruples</p><h3 style='color:#00FF00'>Correct!</h3><h3 class='center-content'>The correct response is c).</h3><h3 class='center-content'>The amount of points you send to your partner quadruples.</h3><p><em>Press SPACEBAR to continue</em></p></div>"," ","","","","","","","","","","",""
"html-keyboard-response","133","255430","0.0-15.0","5dd03c5486c8861300974102","bdp_trlrn","Tue Mar 14 2023 14:01:53 GMT-0400 (Eastern Daylight Time)","588069","Untrustworthy,Trustworthy","","22771","","","","","","<div class='header' style='text-align:left; position: absolute; top: 5%; left: 5%;'><small>Task 3 of 5</small></div><div class='instruxDiv'><p><strong>4) If you decided to share 4 out of 5 points with your partner, and they decided to share half of the amount they received with you, how many points would you receive back from them on this round?</strong></p><p>a) 16</p><p>b) 0</p><p>c) 8</p>","C","","","","","","","","","","",""
"html-keyboard-response","134","256599","0.0-16.0","5dd03c5486c8861300974102","bdp_trlrn","Tue Mar 14 2023 14:01:53 GMT-0400 (Eastern Daylight Time)","588069","Untrustworthy,Trustworthy","","1067","","","","","","<div class='header' style='text-align:left; position: absolute; top: 5%; left: 5%;'><small>Task 3 of 5</small></div><div class='instruxDiv'><p><strong>4) If you decided to share 4 out of 5 points with your partner, and they decided to share half of the amount they received with you, how many points would you receive back from them on this round?</strong></p><p>a) 16</p><p>b) 0</p><p style='color:#00FF00'>c) 8</p><h3 style='color:#00FF00'>Correct!</h3><h3 class='center-content'>The correct response is c).</h3><h3 class='center-content'>If you shared 4 out of 5 points with your partner and they decided to share half of the amount they received with you, you would receive 8 points back (i.e. (4 x 4)/2 = 8).</h3><p><em>Press SPACEBAR to continue</em></p></div>"," ","","","","","","","","","","",""
"html-keyboard-response","135","261710","0.0-17.0","5dd03c5486c8861300974102","bdp_trlrn","Tue Mar 14 2023 14:01:53 GMT-0400 (Eastern Daylight Time)","588069","Untrustworthy,Trustworthy","","null","","","","","","<div class='header' style='text-align:left; position: absolute; top: 5%; left: 5%;'><small>Task 3 of 5</small></div><div class='instruxDiv'><p>Thank you for completing the quiz<p>These are the actual partners you will be interacting with in the next block:<p><div class='tc' align='center'><img class='introPic' src='trustrating_stim/white_00659_941121_fa_edt.bmp'><br><strong>Brian</strong></div><div class='bl' align='center'><img class='introPic' src='trustrating_stim/white_mw056.bmp'><br><strong>Marcus</strong></div><div class='br' align='center'><img class='introPic' src='trustrating_stim/white_00120_931230_fa_edt.bmp'><br><strong>Michael</strong></div></div><p>Across <strong>66 rounds</strong> you will interact with each partner <strong>22 times</strong> (in random order).<p style='align:center; color:white'><font <em>Press SPACEBAR to continue</em></p>","null","","","","","","","","","","",""
"instructions","136","263774","0.0-18.0","5dd03c5486c8861300974102","bdp_trlrn","Tue Mar 14 2023 14:01:53 GMT-0400 (Eastern Daylight Time)","588069","Untrustworthy,Trustworthy","[{""page_index"":0,""viewing_time"":815},{""page_index"":1,""viewing_time"":1248}]","2063","","","","","","","","","","","","","","","","","",""
"html-keyboard-response","137","274694","0.0-19.0-1.0","5dd03c5486c8861300974102","bdp_trlrn","Tue Mar 14 2023 14:01:53 GMT-0400 (Eastern Daylight Time)","588069","Untrustworthy,Trustworthy","","10819","","","","decision","","<div class='trialDiv'><img src='trustrating_stim/white_00120_931230_fa_edt.bmp'><br><font class='baseline'><strong>Michael</strong><p>Choose number of points to send.</font><div class='respPicDiv'><img src='img/responseButtonOffersNo0L.png' class='respPic'></div></div>","5","1","Michael","11","Kept","0.2,0.65","12","0.2","trustrating_stim/white_00120_931230_fa_edt.bmp","8","5","1"
"html-keyboard-response","138","274946","0.0-19.0-2.0","5dd03c5486c8861300974102","bdp_trlrn","Tue Mar 14 2023 14:01:53 GMT-0400 (Eastern Daylight Time)","588069","Untrustworthy,Trustworthy","","null","","","","decisionFB","","<div class='trialDiv'><img src='trustrating_stim/white_00120_931230_fa_edt.bmp'><br><font class='baseline'><strong>Michael</strong><p>Choose number of points to send.</font><div class='respPicDiv'><img src='img/responseButtonOffersNo0L5.png' class='respPic'></div></div>","null","1","Michael","11","Kept","0.2,0.65","12","0.2","trustrating_stim/white_00120_931230_fa_edt.bmp","8","0","1"
"html-keyboard-response","139","275947","0.0-19.0-3.0","5dd03c5486c8861300974102","bdp_trlrn","Tue Mar 14 2023 14:01:53 GMT-0400 (Eastern Daylight Time)","588069","Untrustworthy,Trustworthy","","null","","","","feedback","","<div class='trialDiv'><img src='trustrating_stim/white_00120_931230_fa_edt.bmp'><br><font class='baseline'><strong>Michael</strong><p>Received: <strong>20</strong></font> &nbsp; &nbsp; &nbsp; &nbsp; &nbsp; &nbsp;<font class='negOutcome'>Shared back: <strong>0</strong></font></font><div class='respPicDiv'><img src='img/responseButtonOffersNo0_wht.png' class='respPic'></div></div>","null","1","Michael","11","Kept","0.2,0.65","12","0.2","trustrating_stim/white_00120_931230_fa_edt.bmp","8","0","1"
"html-keyboard-response","140","278238","0.0-19.0-1.1","5dd03c5486c8861300974102","bdp_trlrn","Tue Mar 14 2023 14:01:53 GMT-0400 (Eastern Daylight Time)","588069","Untrustworthy,Trustworthy","","2290","","","","decision","","<div class='trialDiv'><img src='trustrating_stim/white_00659_941121_fa_edt.bmp'><br><font class='baseline'><strong>Brian</strong><p>Choose number of points to send.</font><div class='respPicDiv'><img src='img/responseButtonOffersNo0L.png' class='respPic'></div></div>","5","1","Brian","2","Shared","0.8,0.35","9","0.8","trustrating_stim/white_00659_941121_fa_edt.bmp","2.5","5","2"
"html-keyboard-response","141","278490","0.0-19.0-2.1","5dd03c5486c8861300974102","bdp_trlrn","Tue Mar 14 2023 14:01:53 GMT-0400 (Eastern Daylight Time)","588069","Untrustworthy,Trustworthy","","null","","","","decisionFB","","<div class='trialDiv'><img src='trustrating_stim/white_00659_941121_fa_edt.bmp'><br><font class='baseline'><strong>Brian</strong><p>Choose number of points to send.</font><div class='respPicDiv'><img src='img/responseButtonOffersNo0L5.png' class='respPic'></div></div>","null","1","Brian","2","Shared","0.8,0.35","9","0.8","trustrating_stim/white_00659_941121_fa_edt.bmp","2.5","0","2"
"html-keyboard-response","142","279491","0.0-19.0-3.1","5dd03c5486c8861300974102","bdp_trlrn","Tue Mar 14 2023 14:01:53 GMT-0400 (Eastern Daylight Time)","588069","Untrustworthy,Trustworthy","","null","","","","feedback","","<div class='trialDiv'><img src='trustrating_stim/white_00659_941121_fa_edt.bmp'><br><font class='baseline'><strong>Brian</strong><p>Received: <strong>20</strong></font> &nbsp; &nbsp; &nbsp; &nbsp; &nbsp; &nbsp;<font class='posOutcome'>Shared back: <strong>10</strong></font></font><div class='respPicDiv'><img src='img/responseButtonOffersNo0_wht.png' class='respPic'></div></div>","null","1","Brian","2","Shared","0.8,0.35","9","0.8","trustrating_stim/white_00659_941121_fa_edt.bmp","2.5","10","2"
"html-keyboard-response","143","280374","0.0-19.0-1.2","5dd03c5486c8861300974102","bdp_trlrn","Tue Mar 14 2023 14:01:53 GMT-0400 (Eastern Daylight Time)","588069","Untrustworthy,Trustworthy","","883","","","","decision","","<div class='trialDiv'><img src='trustrating_stim/white_mw056.bmp'><br><font class='baseline'><strong>Marcus</strong><p>Choose number of points to send.</font><div class='respPicDiv'><img src='img/responseButtonOffersNo0L.png' class='respPic'></div></div>","5","1","Marcus","6","Shared","0.65,0.35","11","0.65","trustrating_stim/white_mw056.bmp","4.5","15","3"
"html-keyboard-response","144","280625","0.0-19.0-2.2","5dd03c5486c8861300974102","bdp_trlrn","Tue Mar 14 2023 14:01:53 GMT-0400 (Eastern Daylight Time)","588069","Untrustworthy,Trustworthy","","null","","","","decisionFB","","<div class='trialDiv'><img src='trustrating_stim/white_mw056.bmp'><br><font class='baseline'><strong>Marcus</strong><p>Choose number of points to send.</font><div class='respPicDiv'><img src='img/responseButtonOffersNo0L5.png' class='respPic'></div></div>","null","1","Marcus","6","Shared","0.65,0.35","11","0.65","trustrating_stim/white_mw056.bmp","4.5","10","3"
"html-keyboard-response","145","281627","0.0-19.0-3.2","5dd03c5486c8861300974102","bdp_trlrn","Tue Mar 14 2023 14:01:53 GMT-0400 (Eastern Daylight Time)","588069","Untrustworthy,Trustworthy","","null","","","","feedback","","<div class='trialDiv'><img src='trustrating_stim/white_mw056.bmp'><br><font class='baseline'><strong>Marcus</strong><p>Received: <strong>20</strong></font> &nbsp; &nbsp; &nbsp; &nbsp; &nbsp; &nbsp;<font class='posOutcome'>Shared back: <strong>10</strong></font></font><div class='respPicDiv'><img src='img/responseButtonOffersNo0_wht.png' class='respPic'></div></div>","null","1","Marcus","6","Shared","0.65,0.35","11","0.65","trustrating_stim/white_mw056.bmp","4.5","20","3"
"html-keyboard-response","146","282806","0.0-19.0-1.3","5dd03c5486c8861300974102","bdp_trlrn","Tue Mar 14 2023 14:01:53 GMT-0400 (Eastern Daylight Time)","588069","Untrustworthy,Trustworthy","","1179","","","","decision","","<div class='trialDiv'><img src='trustrating_stim/white_00659_941121_fa_edt.bmp'><br><font class='baseline'><strong>Brian</strong><p>Choose number of points to send.</font><div class='respPicDiv'><img src='img/responseButtonOffersNo0L.png' class='respPic'></div></div>","5","2","Brian","2","Shared","0.8,0.35","9","0.8","trustrating_stim/white_00659_941121_fa_edt.bmp","2.5","25","4"
"html-keyboard-response","147","283057","0.0-19.0-2.3","5dd03c5486c8861300974102","bdp_trlrn","Tue Mar 14 2023 14:01:53 GMT-0400 (Eastern Daylight Time)","588069","Untrustworthy,Trustworthy","","null","","","","decisionFB","","<div class='trialDiv'><img src='trustrating_stim/white_00659_941121_fa_edt.bmp'><br><font class='baseline'><strong>Brian</strong><p>Choose number of points to send.</font><div class='respPicDiv'><img src='img/responseButtonOffersNo0L5.png' class='respPic'></div></div>","null","2","Brian","2","Shared","0.8,0.35","9","0.8","trustrating_stim/white_00659_941121_fa_edt.bmp","2.5","20","4"
"html-keyboard-response","148","284059","0.0-19.0-3.3","5dd03c5486c8861300974102","bdp_trlrn","Tue Mar 14 2023 14:01:53 GMT-0400 (Eastern Daylight Time)","588069","Untrustworthy,Trustworthy","","null","","","","feedback","","<div class='trialDiv'><img src='trustrating_stim/white_00659_941121_fa_edt.bmp'><br><font class='baseline'><strong>Brian</strong><p>Received: <strong>20</strong></font> &nbsp; &nbsp; &nbsp; &nbsp; &nbsp; &nbsp;<font class='posOutcome'>Shared back: <strong>10</strong></font></font><div class='respPicDiv'><img src='img/responseButtonOffersNo0_wht.png' class='respPic'></div></div>","null","2","Brian","2","Shared","0.8,0.35","9","0.8","trustrating_stim/white_00659_941121_fa_edt.bmp","2.5","30","4"
"html-keyboard-response","149","285222","0.0-19.0-1.4","5dd03c5486c8861300974102","bdp_trlrn","Tue Mar 14 2023 14:01:53 GMT-0400 (Eastern Daylight Time)","588069","Untrustworthy,Trustworthy","","1163","","","","decision","","<div class='trialDiv'><img src='trustrating_stim/white_00120_931230_fa_edt.bmp'><br><font class='baseline'><strong>Michael</strong><p>Choose number of points to send.</font><div class='respPicDiv'><img src='img/responseButtonOffersNo0L.png' class='respPic'></div></div>","1","2","Michael","11","Kept","0.2,0.65","12","0.2","trustrating_stim/white_00120_931230_fa_edt.bmp","8","35","5"
"html-keyboard-response","150","285473","0.0-19.0-2.4","5dd03c5486c8861300974102","bdp_trlrn","Tue Mar 14 2023 14:01:53 GMT-0400 (Eastern Daylight Time)","588069","Untrustworthy,Trustworthy","","null","","","","decisionFB","","<div class='trialDiv'><img src='trustrating_stim/white_00120_931230_fa_edt.bmp'><br><font class='baseline'><strong>Michael</strong><p>Choose number of points to send.</font><div class='respPicDiv'><img src='img/responseButtonOffersNo0L1.png' class='respPic'></div></div>","null","2","Michael","11","Kept","0.2,0.65","12","0.2","trustrating_stim/white_00120_931230_fa_edt.bmp","8","34","5"
"html-keyboard-response","151","286474","0.0-19.0-3.4","5dd03c5486c8861300974102","bdp_trlrn","Tue Mar 14 2023 14:01:53 GMT-0400 (Eastern Daylight Time)","588069","Untrustworthy,Trustworthy","","null","","","","feedback","","<div class='trialDiv'><img src='trustrating_stim/white_00120_931230_fa_edt.bmp'><br><font class='baseline'><strong>Michael</strong><p>Received: <strong>4</strong></font> &nbsp; &nbsp; &nbsp; &nbsp; &nbsp; &nbsp;<font class='negOutcome'>Shared back: <strong>0</strong></font></font><div class='respPicDiv'><img src='img/responseButtonOffersNo0_wht.png' class='respPic'></div></div>","null","2","Michael","11","Kept","0.2,0.65","12","0.2","trustrating_stim/white_00120_931230_fa_edt.bmp","8","34","5"
"html-keyboard-response","152","287126","0.0-19.0-1.5","5dd03c5486c8861300974102","bdp_trlrn","Tue Mar 14 2023 14:01:53 GMT-0400 (Eastern Daylight Time)","588069","Untrustworthy,Trustworthy","","651","","","","decision","","<div class='trialDiv'><img src='trustrating_stim/white_mw056.bmp'><br><font class='baseline'><strong>Marcus</strong><p>Choose number of points to send.</font><div class='respPicDiv'><img src='img/responseButtonOffersNo0L.png' class='respPic'></div></div>","5","2","Marcus","6","Shared","0.65,0.35","11","0.65","trustrating_stim/white_mw056.bmp","4.5","39","6"
"html-keyboard-response","153","287378","0.0-19.0-2.5","5dd03c5486c8861300974102","bdp_trlrn","Tue Mar 14 2023 14:01:53 GMT-0400 (Eastern Daylight Time)","588069","Untrustworthy,Trustworthy","","null","","","","decisionFB","","<div class='trialDiv'><img src='trustrating_stim/white_mw056.bmp'><br><font class='baseline'><strong>Marcus</strong><p>Choose number of points to send.</font><div class='respPicDiv'><img src='img/responseButtonOffersNo0L5.png' class='respPic'></div></div>","null","2","Marcus","6","Shared","0.65,0.35","11","0.65","trustrating_stim/white_mw056.bmp","4.5","34","6"
"html-keyboard-response","154","288379","0.0-19.0-3.5","5dd03c5486c8861300974102","bdp_trlrn","Tue Mar 14 2023 14:01:53 GMT-0400 (Eastern Daylight Time)","588069","Untrustworthy,Trustworthy","","null","","","","feedback","","<div class='trialDiv'><img src='trustrating_stim/white_mw056.bmp'><br><font class='baseline'><strong>Marcus</strong><p>Received: <strong>20</strong></font> &nbsp; &nbsp; &nbsp; &nbsp; &nbsp; &nbsp;<font class='posOutcome'>Shared back: <strong>10</strong></font></font><div class='respPicDiv'><img src='img/responseButtonOffersNo0_wht.png' class='respPic'></div></div>","null","2","Marcus","6","Shared","0.65,0.35","11","0.65","trustrating_stim/white_mw056.bmp","4.5","44","6"
"html-keyboard-response","155","288999","0.0-19.0-1.6","5dd03c5486c8861300974102","bdp_trlrn","Tue Mar 14 2023 14:01:53 GMT-0400 (Eastern Daylight Time)","588069","Untrustworthy,Trustworthy","","618","","","","decision","","<div class='trialDiv'><img src='trustrating_stim/white_00120_931230_fa_edt.bmp'><br><font class='baseline'><strong>Michael</strong><p>Choose number of points to send.</font><div class='respPicDiv'><img src='img/responseButtonOffersNo0L.png' class='respPic'></div></div>","1","3","Michael","11","Kept","0.2,0.65","12","0.2","trustrating_stim/white_00120_931230_fa_edt.bmp","8","49","7"
"html-keyboard-response","156","289249","0.0-19.0-2.6","5dd03c5486c8861300974102","bdp_trlrn","Tue Mar 14 2023 14:01:53 GMT-0400 (Eastern Daylight Time)","588069","Untrustworthy,Trustworthy","","null","","","","decisionFB","","<div class='trialDiv'><img src='trustrating_stim/white_00120_931230_fa_edt.bmp'><br><font class='baseline'><strong>Michael</strong><p>Choose number of points to send.</font><div class='respPicDiv'><img src='img/responseButtonOffersNo0L1.png' class='respPic'></div></div>","null","3","Michael","11","Kept","0.2,0.65","12","0.2","trustrating_stim/white_00120_931230_fa_edt.bmp","8","48","7"
"html-keyboard-response","157","290250","0.0-19.0-3.6","5dd03c5486c8861300974102","bdp_trlrn","Tue Mar 14 2023 14:01:53 GMT-0400 (Eastern Daylight Time)","588069","Untrustworthy,Trustworthy","","null","","","","feedback","","<div class='trialDiv'><img src='trustrating_stim/white_00120_931230_fa_edt.bmp'><br><font class='baseline'><strong>Michael</strong><p>Received: <strong>4</strong></font> &nbsp; &nbsp; &nbsp; &nbsp; &nbsp; &nbsp;<font class='negOutcome'>Shared back: <strong>0</strong></font></font><div class='respPicDiv'><img src='img/responseButtonOffersNo0_wht.png' class='respPic'></div></div>","null","3","Michael","11","Kept","0.2,0.65","12","0.2","trustrating_stim/white_00120_931230_fa_edt.bmp","8","48","7"
"html-keyboard-response","158","290838","0.0-19.0-1.7","5dd03c5486c8861300974102","bdp_trlrn","Tue Mar 14 2023 14:01:53 GMT-0400 (Eastern Daylight Time)","588069","Untrustworthy,Trustworthy","","587","","","","decision","","<div class='trialDiv'><img src='trustrating_stim/white_00659_941121_fa_edt.bmp'><br><font class='baseline'><strong>Brian</strong><p>Choose number of points to send.</font><div class='respPicDiv'><img src='img/responseButtonOffersNo0L.png' class='respPic'></div></div>","5","3","Brian","2","Shared","0.8,0.35","9","0.8","trustrating_stim/white_00659_941121_fa_edt.bmp","2.5","53","8"
"html-keyboard-response","159","291089","0.0-19.0-2.7","5dd03c5486c8861300974102","bdp_trlrn","Tue Mar 14 2023 14:01:53 GMT-0400 (Eastern Daylight Time)","588069","Untrustworthy,Trustworthy","","null","","","","decisionFB","","<div class='trialDiv'><img src='trustrating_stim/white_00659_941121_fa_edt.bmp'><br><font class='baseline'><strong>Brian</strong><p>Choose number of points to send.</font><div class='respPicDiv'><img src='img/responseButtonOffersNo0L5.png' class='respPic'></div></div>","null","3","Brian","2","Shared","0.8,0.35","9","0.8","trustrating_stim/white_00659_941121_fa_edt.bmp","2.5","48","8"
"html-keyboard-response","160","292091","0.0-19.0-3.7","5dd03c5486c8861300974102","bdp_trlrn","Tue Mar 14 2023 14:01:53 GMT-0400 (Eastern Daylight Time)","588069","Untrustworthy,Trustworthy","","null","","","","feedback","","<div class='trialDiv'><img src='trustrating_stim/white_00659_941121_fa_edt.bmp'><br><font class='baseline'><strong>Brian</strong><p>Received: <strong>20</strong></font> &nbsp; &nbsp; &nbsp; &nbsp; &nbsp; &nbsp;<font class='posOutcome'>Shared back: <strong>10</strong></font></font><div class='respPicDiv'><img src='img/responseButtonOffersNo0_wht.png' class='respPic'></div></div>","null","3","Brian","2","Shared","0.8,0.35","9","0.8","trustrating_stim/white_00659_941121_fa_edt.bmp","2.5","58","8"
"html-keyboard-response","161","293078","0.0-19.0-1.8","5dd03c5486c8861300974102","bdp_trlrn","Tue Mar 14 2023 14:01:53 GMT-0400 (Eastern Daylight Time)","588069","Untrustworthy,Trustworthy","","987","","","","decision","","<div class='trialDiv'><img src='trustrating_stim/white_mw056.bmp'><br><font class='baseline'><strong>Marcus</strong><p>Choose number of points to send.</font><div class='respPicDiv'><img src='img/responseButtonOffersNo0L.png' class='respPic'></div></div>","5","3","Marcus","6","Shared","0.65,0.35","11","0.65","trustrating_stim/white_mw056.bmp","4.5","63","9"
"html-keyboard-response","162","293329","0.0-19.0-2.8","5dd03c5486c8861300974102","bdp_trlrn","Tue Mar 14 2023 14:01:53 GMT-0400 (Eastern Daylight Time)","588069","Untrustworthy,Trustworthy","","null","","","","decisionFB","","<div class='trialDiv'><img src='trustrating_stim/white_mw056.bmp'><br><font class='baseline'><strong>Marcus</strong><p>Choose number of points to send.</font><div class='respPicDiv'><img src='img/responseButtonOffersNo0L5.png' class='respPic'></div></div>","null","3","Marcus","6","Shared","0.65,0.35","11","0.65","trustrating_stim/white_mw056.bmp","4.5","58","9"
"html-keyboard-response","163","294331","0.0-19.0-3.8","5dd03c5486c8861300974102","bdp_trlrn","Tue Mar 14 2023 14:01:53 GMT-0400 (Eastern Daylight Time)","588069","Untrustworthy,Trustworthy","","null","","","","feedback","","<div class='trialDiv'><img src='trustrating_stim/white_mw056.bmp'><br><font class='baseline'><strong>Marcus</strong><p>Received: <strong>20</strong></font> &nbsp; &nbsp; &nbsp; &nbsp; &nbsp; &nbsp;<font class='posOutcome'>Shared back: <strong>10</strong></font></font><div class='respPicDiv'><img src='img/responseButtonOffersNo0_wht.png' class='respPic'></div></div>","null","3","Marcus","6","Shared","0.65,0.35","11","0.65","trustrating_stim/white_mw056.bmp","4.5","68","9"
"html-keyboard-response","164","295118","0.0-19.0-1.9","5dd03c5486c8861300974102","bdp_trlrn","Tue Mar 14 2023 14:01:53 GMT-0400 (Eastern Daylight Time)","588069","Untrustworthy,Trustworthy","","787","","","","decision","","<div class='trialDiv'><img src='trustrating_stim/white_00120_931230_fa_edt.bmp'><br><font class='baseline'><strong>Michael</strong><p>Choose number of points to send.</font><div class='respPicDiv'><img src='img/responseButtonOffersNo0L.png' class='respPic'></div></div>","1","4","Michael","11","Kept","0.2,0.65","12","0.2","trustrating_stim/white_00120_931230_fa_edt.bmp","8","73","10"
"html-keyboard-response","165","295369","0.0-19.0-2.9","5dd03c5486c8861300974102","bdp_trlrn","Tue Mar 14 2023 14:01:53 GMT-0400 (Eastern Daylight Time)","588069","Untrustworthy,Trustworthy","","null","","","","decisionFB","","<div class='trialDiv'><img src='trustrating_stim/white_00120_931230_fa_edt.bmp'><br><font class='baseline'><strong>Michael</strong><p>Choose number of points to send.</font><div class='respPicDiv'><img src='img/responseButtonOffersNo0L1.png' class='respPic'></div></div>","null","4","Michael","11","Kept","0.2,0.65","12","0.2","trustrating_stim/white_00120_931230_fa_edt.bmp","8","72","10"
"html-keyboard-response","166","296376","0.0-19.0-3.9","5dd03c5486c8861300974102","bdp_trlrn","Tue Mar 14 2023 14:01:53 GMT-0400 (Eastern Daylight Time)","588069","Untrustworthy,Trustworthy","","null","","","","feedback","","<div class='trialDiv'><img src='trustrating_stim/white_00120_931230_fa_edt.bmp'><br><font class='baseline'><strong>Michael</strong><p>Received: <strong>4</strong></font> &nbsp; &nbsp; &nbsp; &nbsp; &nbsp; &nbsp;<font class='negOutcome'>Shared back: <strong>0</strong></font></font><div class='respPicDiv'><img src='img/responseButtonOffersNo0_wht.png' class='respPic'></div></div>","null","4","Michael","11","Kept","0.2,0.65","12","0.2","trustrating_stim/white_00120_931230_fa_edt.bmp","8","72","10"
"html-keyboard-response","167","296766","0.0-19.0-1.10","5dd03c5486c8861300974102","bdp_trlrn","Tue Mar 14 2023 14:01:53 GMT-0400 (Eastern Daylight Time)","588069","Untrustworthy,Trustworthy","","390","","","","decision","","<div class='trialDiv'><img src='trustrating_stim/white_mw056.bmp'><br><font class='baseline'><strong>Marcus</strong><p>Choose number of points to send.</font><div class='respPicDiv'><img src='img/responseButtonOffersNo0L.png' class='respPic'></div></div>","5","4","Marcus","6","Kept","0.65,0.35","11","0.65","trustrating_stim/white_mw056.bmp","4.5","77","11"
"html-keyboard-response","168","297018","0.0-19.0-2.10","5dd03c5486c8861300974102","bdp_trlrn","Tue Mar 14 2023 14:01:53 GMT-0400 (Eastern Daylight Time)","588069","Untrustworthy,Trustworthy","","null","","","","decisionFB","","<div class='trialDiv'><img src='trustrating_stim/white_mw056.bmp'><br><font class='baseline'><strong>Marcus</strong><p>Choose number of points to send.</font><div class='respPicDiv'><img src='img/responseButtonOffersNo0L5.png' class='respPic'></div></div>","null","4","Marcus","6","Kept","0.65,0.35","11","0.65","trustrating_stim/white_mw056.bmp","4.5","72","11"
"html-keyboard-response","169","298019","0.0-19.0-3.10","5dd03c5486c8861300974102","bdp_trlrn","Tue Mar 14 2023 14:01:53 GMT-0400 (Eastern Daylight Time)","588069","Untrustworthy,Trustworthy","","null","","","","feedback","","<div class='trialDiv'><img src='trustrating_stim/white_mw056.bmp'><br><font class='baseline'><strong>Marcus</strong><p>Received: <strong>20</strong></font> &nbsp; &nbsp; &nbsp; &nbsp; &nbsp; &nbsp;<font class='negOutcome'>Shared back: <strong>0</strong></font></font><div class='respPicDiv'><img src='img/responseButtonOffersNo0_wht.png' class='respPic'></div></div>","null","4","Marcus","6","Kept","0.65,0.35","11","0.65","trustrating_stim/white_mw056.bmp","4.5","72","11"
"html-keyboard-response","170","298382","0.0-19.0-1.11","5dd03c5486c8861300974102","bdp_trlrn","Tue Mar 14 2023 14:01:53 GMT-0400 (Eastern Daylight Time)","588069","Untrustworthy,Trustworthy","","363","","","","decision","","<div class='trialDiv'><img src='trustrating_stim/white_00659_941121_fa_edt.bmp'><br><font class='baseline'><strong>Brian</strong><p>Choose number of points to send.</font><div class='respPicDiv'><img src='img/responseButtonOffersNo0L.png' class='respPic'></div></div>","5","4","Brian","2","Shared","0.8,0.35","9","0.8","trustrating_stim/white_00659_941121_fa_edt.bmp","2.5","77","12"
"html-keyboard-response","171","298634","0.0-19.0-2.11","5dd03c5486c8861300974102","bdp_trlrn","Tue Mar 14 2023 14:01:53 GMT-0400 (Eastern Daylight Time)","588069","Untrustworthy,Trustworthy","","null","","","","decisionFB","","<div class='trialDiv'><img src='trustrating_stim/white_00659_941121_fa_edt.bmp'><br><font class='baseline'><strong>Brian</strong><p>Choose number of points to send.</font><div class='respPicDiv'><img src='img/responseButtonOffersNo0L5.png' class='respPic'></div></div>","null","4","Brian","2","Shared","0.8,0.35","9","0.8","trustrating_stim/white_00659_941121_fa_edt.bmp","2.5","72","12"
"html-keyboard-response","172","299635","0.0-19.0-3.11","5dd03c5486c8861300974102","bdp_trlrn","Tue Mar 14 2023 14:01:53 GMT-0400 (Eastern Daylight Time)","588069","Untrustworthy,Trustworthy","","null","","","","feedback","","<div class='trialDiv'><img src='trustrating_stim/white_00659_941121_fa_edt.bmp'><br><font class='baseline'><strong>Brian</strong><p>Received: <strong>20</strong></font> &nbsp; &nbsp; &nbsp; &nbsp; &nbsp; &nbsp;<font class='posOutcome'>Shared back: <strong>10</strong></font></font><div class='respPicDiv'><img src='img/responseButtonOffersNo0_wht.png' class='respPic'></div></div>","null","4","Brian","2","Shared","0.8,0.35","9","0.8","trustrating_stim/white_00659_941121_fa_edt.bmp","2.5","82","12"
"html-keyboard-response","173","301583","0.0-19.0-1.12","5dd03c5486c8861300974102","bdp_trlrn","Tue Mar 14 2023 14:01:53 GMT-0400 (Eastern Daylight Time)","588069","Untrustworthy,Trustworthy","","1948","","","","decision","","<div class='trialDiv'><img src='trustrating_stim/white_mw056.bmp'><br><font class='baseline'><strong>Marcus</strong><p>Choose number of points to send.</font><div class='respPicDiv'><img src='img/responseButtonOffersNo0L.png' class='respPic'></div></div>","3","5","Marcus","6","Shared","0.65,0.35","11","0.65","trustrating_stim/white_mw056.bmp","4.5","87","13"
"html-keyboard-response","174","301834","0.0-19.0-2.12","5dd03c5486c8861300974102","bdp_trlrn","Tue Mar 14 2023 14:01:53 GMT-0400 (Eastern Daylight Time)","588069","Untrustworthy,Trustworthy","","null","","","","decisionFB","","<div class='trialDiv'><img src='trustrating_stim/white_mw056.bmp'><br><font class='baseline'><strong>Marcus</strong><p>Choose number of points to send.</font><div class='respPicDiv'><img src='img/responseButtonOffersNo0L3.png' class='respPic'></div></div>","null","5","Marcus","6","Shared","0.65,0.35","11","0.65","trustrating_stim/white_mw056.bmp","4.5","84","13"
"html-keyboard-response","175","302836","0.0-19.0-3.12","5dd03c5486c8861300974102","bdp_trlrn","Tue Mar 14 2023 14:01:53 GMT-0400 (Eastern Daylight Time)","588069","Untrustworthy,Trustworthy","","null","","","","feedback","","<div class='trialDiv'><img src='trustrating_stim/white_mw056.bmp'><br><font class='baseline'><strong>Marcus</strong><p>Received: <strong>12</strong></font> &nbsp; &nbsp; &nbsp; &nbsp; &nbsp; &nbsp;<font class='posOutcome'>Shared back: <strong>6</strong></font></font><div class='respPicDiv'><img src='img/responseButtonOffersNo0_wht.png' class='respPic'></div></div>","null","5","Marcus","6","Shared","0.65,0.35","11","0.65","trustrating_stim/white_mw056.bmp","4.5","90","13"
"html-keyboard-response","176","304102","0.0-19.0-1.13","5dd03c5486c8861300974102","bdp_trlrn","Tue Mar 14 2023 14:01:53 GMT-0400 (Eastern Daylight Time)","588069","Untrustworthy,Trustworthy","","1266","","","","decision","","<div class='trialDiv'><img src='trustrating_stim/white_00120_931230_fa_edt.bmp'><br><font class='baseline'><strong>Michael</strong><p>Choose number of points to send.</font><div class='respPicDiv'><img src='img/responseButtonOffersNo0L.png' class='respPic'></div></div>","1","5","Michael","11","Kept","0.2,0.65","12","0.2","trustrating_stim/white_00120_931230_fa_edt.bmp","8","95","14"
"html-keyboard-response","177","304354","0.0-19.0-2.13","5dd03c5486c8861300974102","bdp_trlrn","Tue Mar 14 2023 14:01:53 GMT-0400 (Eastern Daylight Time)","588069","Untrustworthy,Trustworthy","","null","","","","decisionFB","","<div class='trialDiv'><img src='trustrating_stim/white_00120_931230_fa_edt.bmp'><br><font class='baseline'><strong>Michael</strong><p>Choose number of points to send.</font><div class='respPicDiv'><img src='img/responseButtonOffersNo0L1.png' class='respPic'></div></div>","null","5","Michael","11","Kept","0.2,0.65","12","0.2","trustrating_stim/white_00120_931230_fa_edt.bmp","8","94","14"
"html-keyboard-response","178","305355","0.0-19.0-3.13","5dd03c5486c8861300974102","bdp_trlrn","Tue Mar 14 2023 14:01:53 GMT-0400 (Eastern Daylight Time)","588069","Untrustworthy,Trustworthy","","null","","","","feedback","","<div class='trialDiv'><img src='trustrating_stim/white_00120_931230_fa_edt.bmp'><br><font class='baseline'><strong>Michael</strong><p>Received: <strong>4</strong></font> &nbsp; &nbsp; &nbsp; &nbsp; &nbsp; &nbsp;<font class='negOutcome'>Shared back: <strong>0</strong></font></font><div class='respPicDiv'><img src='img/responseButtonOffersNo0_wht.png' class='respPic'></div></div>","null","5","Michael","11","Kept","0.2,0.65","12","0.2","trustrating_stim/white_00120_931230_fa_edt.bmp","8","94","14"
"html-keyboard-response","179","306094","0.0-19.0-1.14","5dd03c5486c8861300974102","bdp_trlrn","Tue Mar 14 2023 14:01:53 GMT-0400 (Eastern Daylight Time)","588069","Untrustworthy,Trustworthy","","738","","","","decision","","<div class='trialDiv'><img src='trustrating_stim/white_00659_941121_fa_edt.bmp'><br><font class='baseline'><strong>Brian</strong><p>Choose number of points to send.</font><div class='respPicDiv'><img src='img/responseButtonOffersNo0L.png' class='respPic'></div></div>","5","5","Brian","2","Shared","0.8,0.35","9","0.8","trustrating_stim/white_00659_941121_fa_edt.bmp","2.5","99","15"
"html-keyboard-response","180","306346","0.0-19.0-2.14","5dd03c5486c8861300974102","bdp_trlrn","Tue Mar 14 2023 14:01:53 GMT-0400 (Eastern Daylight Time)","588069","Untrustworthy,Trustworthy","","null","","","","decisionFB","","<div class='trialDiv'><img src='trustrating_stim/white_00659_941121_fa_edt.bmp'><br><font class='baseline'><strong>Brian</strong><p>Choose number of points to send.</font><div class='respPicDiv'><img src='img/responseButtonOffersNo0L5.png' class='respPic'></div></div>","null","5","Brian","2","Shared","0.8,0.35","9","0.8","trustrating_stim/white_00659_941121_fa_edt.bmp","2.5","94","15"
"html-keyboard-response","181","307348","0.0-19.0-3.14","5dd03c5486c8861300974102","bdp_trlrn","Tue Mar 14 2023 14:01:53 GMT-0400 (Eastern Daylight Time)","588069","Untrustworthy,Trustworthy","","null","","","","feedback","","<div class='trialDiv'><img src='trustrating_stim/white_00659_941121_fa_edt.bmp'><br><font class='baseline'><strong>Brian</strong><p>Received: <strong>20</strong></font> &nbsp; &nbsp; &nbsp; &nbsp; &nbsp; &nbsp;<font class='posOutcome'>Shared back: <strong>10</strong></font></font><div class='respPicDiv'><img src='img/responseButtonOffersNo0_wht.png' class='respPic'></div></div>","null","5","Brian","2","Shared","0.8,0.35","9","0.8","trustrating_stim/white_00659_941121_fa_edt.bmp","2.5","104","15"
"html-keyboard-response","182","308718","0.0-19.0-1.15","5dd03c5486c8861300974102","bdp_trlrn","Tue Mar 14 2023 14:01:53 GMT-0400 (Eastern Daylight Time)","588069","Untrustworthy,Trustworthy","","1370","","","","decision","","<div class='trialDiv'><img src='trustrating_stim/white_mw056.bmp'><br><font class='baseline'><strong>Marcus</strong><p>Choose number of points to send.</font><div class='respPicDiv'><img src='img/responseButtonOffersNo0L.png' class='respPic'></div></div>","3","6","Marcus","6","Shared","0.65,0.35","11","0.65","trustrating_stim/white_mw056.bmp","4.5","109","16"
"html-keyboard-response","183","308969","0.0-19.0-2.15","5dd03c5486c8861300974102","bdp_trlrn","Tue Mar 14 2023 14:01:53 GMT-0400 (Eastern Daylight Time)","588069","Untrustworthy,Trustworthy","","null","","","","decisionFB","","<div class='trialDiv'><img src='trustrating_stim/white_mw056.bmp'><br><font class='baseline'><strong>Marcus</strong><p>Choose number of points to send.</font><div class='respPicDiv'><img src='img/responseButtonOffersNo0L3.png' class='respPic'></div></div>","null","6","Marcus","6","Shared","0.65,0.35","11","0.65","trustrating_stim/white_mw056.bmp","4.5","106","16"
"html-keyboard-response","184","309971","0.0-19.0-3.15","5dd03c5486c8861300974102","bdp_trlrn","Tue Mar 14 2023 14:01:53 GMT-0400 (Eastern Daylight Time)","588069","Untrustworthy,Trustworthy","","null","","","","feedback","","<div class='trialDiv'><img src='trustrating_stim/white_mw056.bmp'><br><font class='baseline'><strong>Marcus</strong><p>Received: <strong>12</strong></font> &nbsp; &nbsp; &nbsp; &nbsp; &nbsp; &nbsp;<font class='posOutcome'>Shared back: <strong>6</strong></font></font><div class='respPicDiv'><img src='img/responseButtonOffersNo0_wht.png' class='respPic'></div></div>","null","6","Marcus","6","Shared","0.65,0.35","11","0.65","trustrating_stim/white_mw056.bmp","4.5","112","16"
"html-keyboard-response","185","311054","0.0-19.0-1.16","5dd03c5486c8861300974102","bdp_trlrn","Tue Mar 14 2023 14:01:53 GMT-0400 (Eastern Daylight Time)","588069","Untrustworthy,Trustworthy","","1083","","","","decision","","<div class='trialDiv'><img src='trustrating_stim/white_00120_931230_fa_edt.bmp'><br><font class='baseline'><strong>Michael</strong><p>Choose number of points to send.</font><div class='respPicDiv'><img src='img/responseButtonOffersNo0L.png' class='respPic'></div></div>","1","6","Michael","11","Kept","0.2,0.65","12","0.2","trustrating_stim/white_00120_931230_fa_edt.bmp","8","117","17"
"html-keyboard-response","186","311305","0.0-19.0-2.16","5dd03c5486c8861300974102","bdp_trlrn","Tue Mar 14 2023 14:01:53 GMT-0400 (Eastern Daylight Time)","588069","Untrustworthy,Trustworthy","","null","","","","decisionFB","","<div class='trialDiv'><img src='trustrating_stim/white_00120_931230_fa_edt.bmp'><br><font class='baseline'><strong>Michael</strong><p>Choose number of points to send.</font><div class='respPicDiv'><img src='img/responseButtonOffersNo0L1.png' class='respPic'></div></div>","null","6","Michael","11","Kept","0.2,0.65","12","0.2","trustrating_stim/white_00120_931230_fa_edt.bmp","8","116","17"
"html-keyboard-response","187","312313","0.0-19.0-3.16","5dd03c5486c8861300974102","bdp_trlrn","Tue Mar 14 2023 14:01:53 GMT-0400 (Eastern Daylight Time)","588069","Untrustworthy,Trustworthy","","null","","","","feedback","","<div class='trialDiv'><img src='trustrating_stim/white_00120_931230_fa_edt.bmp'><br><font class='baseline'><strong>Michael</strong><p>Received: <strong>4</strong></font> &nbsp; &nbsp; &nbsp; &nbsp; &nbsp; &nbsp;<font class='negOutcome'>Shared back: <strong>0</strong></font></font><div class='respPicDiv'><img src='img/responseButtonOffersNo0_wht.png' class='respPic'></div></div>","null","6","Michael","11","Kept","0.2,0.65","12","0.2","trustrating_stim/white_00120_931230_fa_edt.bmp","8","116","17"
"html-keyboard-response","188","313175","0.0-19.0-1.17","5dd03c5486c8861300974102","bdp_trlrn","Tue Mar 14 2023 14:01:53 GMT-0400 (Eastern Daylight Time)","588069","Untrustworthy,Trustworthy","","861","","","","decision","","<div class='trialDiv'><img src='trustrating_stim/white_00659_941121_fa_edt.bmp'><br><font class='baseline'><strong>Brian</strong><p>Choose number of points to send.</font><div class='respPicDiv'><img src='img/responseButtonOffersNo0L.png' class='respPic'></div></div>","5","6","Brian","2","Shared","0.8,0.35","9","0.8","trustrating_stim/white_00659_941121_fa_edt.bmp","2.5","121","18"
"html-keyboard-response","189","313426","0.0-19.0-2.17","5dd03c5486c8861300974102","bdp_trlrn","Tue Mar 14 2023 14:01:53 GMT-0400 (Eastern Daylight Time)","588069","Untrustworthy,Trustworthy","","null","","","","decisionFB","","<div class='trialDiv'><img src='trustrating_stim/white_00659_941121_fa_edt.bmp'><br><font class='baseline'><strong>Brian</strong><p>Choose number of points to send.</font><div class='respPicDiv'><img src='img/responseButtonOffersNo0L5.png' class='respPic'></div></div>","null","6","Brian","2","Shared","0.8,0.35","9","0.8","trustrating_stim/white_00659_941121_fa_edt.bmp","2.5","116","18"
"html-keyboard-response","190","314427","0.0-19.0-3.17","5dd03c5486c8861300974102","bdp_trlrn","Tue Mar 14 2023 14:01:53 GMT-0400 (Eastern Daylight Time)","588069","Untrustworthy,Trustworthy","","null","","","","feedback","","<div class='trialDiv'><img src='trustrating_stim/white_00659_941121_fa_edt.bmp'><br><font class='baseline'><strong>Brian</strong><p>Received: <strong>20</strong></font> &nbsp; &nbsp; &nbsp; &nbsp; &nbsp; &nbsp;<font class='posOutcome'>Shared back: <strong>10</strong></font></font><div class='respPicDiv'><img src='img/responseButtonOffersNo0_wht.png' class='respPic'></div></div>","null","6","Brian","2","Shared","0.8,0.35","9","0.8","trustrating_stim/white_00659_941121_fa_edt.bmp","2.5","126","18"
"html-keyboard-response","191","315734","0.0-19.0-1.18","5dd03c5486c8861300974102","bdp_trlrn","Tue Mar 14 2023 14:01:53 GMT-0400 (Eastern Daylight Time)","588069","Untrustworthy,Trustworthy","","1306","","","","decision","","<div class='trialDiv'><img src='trustrating_stim/white_00120_931230_fa_edt.bmp'><br><font class='baseline'><strong>Michael</strong><p>Choose number of points to send.</font><div class='respPicDiv'><img src='img/responseButtonOffersNo0L.png' class='respPic'></div></div>","4","7","Michael","11","Shared","0.2,0.65","12","0.2","trustrating_stim/white_00120_931230_fa_edt.bmp","8","131","19"
"html-keyboard-response","192","315985","0.0-19.0-2.18","5dd03c5486c8861300974102","bdp_trlrn","Tue Mar 14 2023 14:01:53 GMT-0400 (Eastern Daylight Time)","588069","Untrustworthy,Trustworthy","","null","","","","decisionFB","","<div class='trialDiv'><img src='trustrating_stim/white_00120_931230_fa_edt.bmp'><br><font class='baseline'><strong>Michael</strong><p>Choose number of points to send.</font><div class='respPicDiv'><img src='img/responseButtonOffersNo0L4.png' class='respPic'></div></div>","null","7","Michael","11","Shared","0.2,0.65","12","0.2","trustrating_stim/white_00120_931230_fa_edt.bmp","8","127","19"
"html-keyboard-response","193","316987","0.0-19.0-3.18","5dd03c5486c8861300974102","bdp_trlrn","Tue Mar 14 2023 14:01:53 GMT-0400 (Eastern Daylight Time)","588069","Untrustworthy,Trustworthy","","null","","","","feedback","","<div class='trialDiv'><img src='trustrating_stim/white_00120_931230_fa_edt.bmp'><br><font class='baseline'><strong>Michael</strong><p>Received: <strong>16</strong></font> &nbsp; &nbsp; &nbsp; &nbsp; &nbsp; &nbsp;<font class='posOutcome'>Shared back: <strong>8</strong></font></font><div class='respPicDiv'><img src='img/responseButtonOffersNo0_wht.png' class='respPic'></div></div>","null","7","Michael","11","Shared","0.2,0.65","12","0.2","trustrating_stim/white_00120_931230_fa_edt.bmp","8","135","19"
"html-keyboard-response","194","318342","0.0-19.0-1.19","5dd03c5486c8861300974102","bdp_trlrn","Tue Mar 14 2023 14:01:53 GMT-0400 (Eastern Daylight Time)","588069","Untrustworthy,Trustworthy","","1355","","","","decision","","<div class='trialDiv'><img src='trustrating_stim/white_mw056.bmp'><br><font class='baseline'><strong>Marcus</strong><p>Choose number of points to send.</font><div class='respPicDiv'><img src='img/responseButtonOffersNo0L.png' class='respPic'></div></div>","5","7","Marcus","6","Shared","0.65,0.35","11","0.65","trustrating_stim/white_mw056.bmp","4.5","140","20"
"html-keyboard-response","195","318594","0.0-19.0-2.19","5dd03c5486c8861300974102","bdp_trlrn","Tue Mar 14 2023 14:01:53 GMT-0400 (Eastern Daylight Time)","588069","Untrustworthy,Trustworthy","","null","","","","decisionFB","","<div class='trialDiv'><img src='trustrating_stim/white_mw056.bmp'><br><font class='baseline'><strong>Marcus</strong><p>Choose number of points to send.</font><div class='respPicDiv'><img src='img/responseButtonOffersNo0L5.png' class='respPic'></div></div>","null","7","Marcus","6","Shared","0.65,0.35","11","0.65","trustrating_stim/white_mw056.bmp","4.5","135","20"
"html-keyboard-response","196","319607","0.0-19.0-3.19","5dd03c5486c8861300974102","bdp_trlrn","Tue Mar 14 2023 14:01:53 GMT-0400 (Eastern Daylight Time)","588069","Untrustworthy,Trustworthy","","null","","","","feedback","","<div class='trialDiv'><img src='trustrating_stim/white_mw056.bmp'><br><font class='baseline'><strong>Marcus</strong><p>Received: <strong>20</strong></font> &nbsp; &nbsp; &nbsp; &nbsp; &nbsp; &nbsp;<font class='posOutcome'>Shared back: <strong>10</strong></font></font><div class='respPicDiv'><img src='img/responseButtonOffersNo0_wht.png' class='respPic'></div></div>","null","7","Marcus","6","Shared","0.65,0.35","11","0.65","trustrating_stim/white_mw056.bmp","4.5","145","20"
"html-keyboard-response","197","320415","0.0-19.0-1.20","5dd03c5486c8861300974102","bdp_trlrn","Tue Mar 14 2023 14:01:53 GMT-0400 (Eastern Daylight Time)","588069","Untrustworthy,Trustworthy","","806","","","","decision","","<div class='trialDiv'><img src='trustrating_stim/white_00659_941121_fa_edt.bmp'><br><font class='baseline'><strong>Brian</strong><p>Choose number of points to send.</font><div class='respPicDiv'><img src='img/responseButtonOffersNo0L.png' class='respPic'></div></div>","5","7","Brian","2","Shared","0.8,0.35","9","0.8","trustrating_stim/white_00659_941121_fa_edt.bmp","2.5","150","21"
"html-keyboard-response","198","320666","0.0-19.0-2.20","5dd03c5486c8861300974102","bdp_trlrn","Tue Mar 14 2023 14:01:53 GMT-0400 (Eastern Daylight Time)","588069","Untrustworthy,Trustworthy","","null","","","","decisionFB","","<div class='trialDiv'><img src='trustrating_stim/white_00659_941121_fa_edt.bmp'><br><font class='baseline'><strong>Brian</strong><p>Choose number of points to send.</font><div class='respPicDiv'><img src='img/responseButtonOffersNo0L5.png' class='respPic'></div></div>","null","7","Brian","2","Shared","0.8,0.35","9","0.8","trustrating_stim/white_00659_941121_fa_edt.bmp","2.5","145","21"
"html-keyboard-response","199","321667","0.0-19.0-3.20","5dd03c5486c8861300974102","bdp_trlrn","Tue Mar 14 2023 14:01:53 GMT-0400 (Eastern Daylight Time)","588069","Untrustworthy,Trustworthy","","null","","","","feedback","","<div class='trialDiv'><img src='trustrating_stim/white_00659_941121_fa_edt.bmp'><br><font class='baseline'><strong>Brian</strong><p>Received: <strong>20</strong></font> &nbsp; &nbsp; &nbsp; &nbsp; &nbsp; &nbsp;<font class='posOutcome'>Shared back: <strong>10</strong></font></font><div class='respPicDiv'><img src='img/responseButtonOffersNo0_wht.png' class='respPic'></div></div>","null","7","Brian","2","Shared","0.8,0.35","9","0.8","trustrating_stim/white_00659_941121_fa_edt.bmp","2.5","155","21"
"html-keyboard-response","200","322670","0.0-19.0-1.21","5dd03c5486c8861300974102","bdp_trlrn","Tue Mar 14 2023 14:01:53 GMT-0400 (Eastern Daylight Time)","588069","Untrustworthy,Trustworthy","","1002","","","","decision","","<div class='trialDiv'><img src='trustrating_stim/white_00120_931230_fa_edt.bmp'><br><font class='baseline'><strong>Michael</strong><p>Choose number of points to send.</font><div class='respPicDiv'><img src='img/responseButtonOffersNo0L.png' class='respPic'></div></div>","1","8","Michael","11","Kept","0.2,0.65","12","0.2","trustrating_stim/white_00120_931230_fa_edt.bmp","8","160","22"
"html-keyboard-response","201","322921","0.0-19.0-2.21","5dd03c5486c8861300974102","bdp_trlrn","Tue Mar 14 2023 14:01:53 GMT-0400 (Eastern Daylight Time)","588069","Untrustworthy,Trustworthy","","null","","","","decisionFB","","<div class='trialDiv'><img src='trustrating_stim/white_00120_931230_fa_edt.bmp'><br><font class='baseline'><strong>Michael</strong><p>Choose number of points to send.</font><div class='respPicDiv'><img src='img/responseButtonOffersNo0L1.png' class='respPic'></div></div>","null","8","Michael","11","Kept","0.2,0.65","12","0.2","trustrating_stim/white_00120_931230_fa_edt.bmp","8","159","22"
"html-keyboard-response","202","323923","0.0-19.0-3.21","5dd03c5486c8861300974102","bdp_trlrn","Tue Mar 14 2023 14:01:53 GMT-0400 (Eastern Daylight Time)","588069","Untrustworthy,Trustworthy","","null","","","","feedback","","<div class='trialDiv'><img src='trustrating_stim/white_00120_931230_fa_edt.bmp'><br><font class='baseline'><strong>Michael</strong><p>Received: <strong>4</strong></font> &nbsp; &nbsp; &nbsp; &nbsp; &nbsp; &nbsp;<font class='negOutcome'>Shared back: <strong>0</strong></font></font><div class='respPicDiv'><img src='img/responseButtonOffersNo0_wht.png' class='respPic'></div></div>","null","8","Michael","11","Kept","0.2,0.65","12","0.2","trustrating_stim/white_00120_931230_fa_edt.bmp","8","159","22"
"html-keyboard-response","203","324471","0.0-19.0-1.22","5dd03c5486c8861300974102","bdp_trlrn","Tue Mar 14 2023 14:01:53 GMT-0400 (Eastern Daylight Time)","588069","Untrustworthy,Trustworthy","","547","","","","decision","","<div class='trialDiv'><img src='trustrating_stim/white_00659_941121_fa_edt.bmp'><br><font class='baseline'><strong>Brian</strong><p>Choose number of points to send.</font><div class='respPicDiv'><img src='img/responseButtonOffersNo0L.png' class='respPic'></div></div>","5","8","Brian","2","Shared","0.8,0.35","9","0.8","trustrating_stim/white_00659_941121_fa_edt.bmp","2.5","164","23"
"html-keyboard-response","204","324721","0.0-19.0-2.22","5dd03c5486c8861300974102","bdp_trlrn","Tue Mar 14 2023 14:01:53 GMT-0400 (Eastern Daylight Time)","588069","Untrustworthy,Trustworthy","","null","","","","decisionFB","","<div class='trialDiv'><img src='trustrating_stim/white_00659_941121_fa_edt.bmp'><br><font class='baseline'><strong>Brian</strong><p>Choose number of points to send.</font><div class='respPicDiv'><img src='img/responseButtonOffersNo0L5.png' class='respPic'></div></div>","null","8","Brian","2","Shared","0.8,0.35","9","0.8","trustrating_stim/white_00659_941121_fa_edt.bmp","2.5","159","23"
"html-keyboard-response","205","325722","0.0-19.0-3.22","5dd03c5486c8861300974102","bdp_trlrn","Tue Mar 14 2023 14:01:53 GMT-0400 (Eastern Daylight Time)","588069","Untrustworthy,Trustworthy","","null","","","","feedback","","<div class='trialDiv'><img src='trustrating_stim/white_00659_941121_fa_edt.bmp'><br><font class='baseline'><strong>Brian</strong><p>Received: <strong>20</strong></font> &nbsp; &nbsp; &nbsp; &nbsp; &nbsp; &nbsp;<font class='posOutcome'>Shared back: <strong>10</strong></font></font><div class='respPicDiv'><img src='img/responseButtonOffersNo0_wht.png' class='respPic'></div></div>","null","8","Brian","2","Shared","0.8,0.35","9","0.8","trustrating_stim/white_00659_941121_fa_edt.bmp","2.5","169","23"
"html-keyboard-response","206","326094","0.0-19.0-1.23","5dd03c5486c8861300974102","bdp_trlrn","Tue Mar 14 2023 14:01:53 GMT-0400 (Eastern Daylight Time)","588069","Untrustworthy,Trustworthy","","371","","","","decision","","<div class='trialDiv'><img src='trustrating_stim/white_mw056.bmp'><br><font class='baseline'><strong>Marcus</strong><p>Choose number of points to send.</font><div class='respPicDiv'><img src='img/responseButtonOffersNo0L.png' class='respPic'></div></div>","5","8","Marcus","6","Kept","0.65,0.35","11","0.65","trustrating_stim/white_mw056.bmp","4.5","174","24"
"html-keyboard-response","207","326346","0.0-19.0-2.23","5dd03c5486c8861300974102","bdp_trlrn","Tue Mar 14 2023 14:01:53 GMT-0400 (Eastern Daylight Time)","588069","Untrustworthy,Trustworthy","","null","","","","decisionFB","","<div class='trialDiv'><img src='trustrating_stim/white_mw056.bmp'><br><font class='baseline'><strong>Marcus</strong><p>Choose number of points to send.</font><div class='respPicDiv'><img src='img/responseButtonOffersNo0L5.png' class='respPic'></div></div>","null","8","Marcus","6","Kept","0.65,0.35","11","0.65","trustrating_stim/white_mw056.bmp","4.5","169","24"
"html-keyboard-response","208","327347","0.0-19.0-3.23","5dd03c5486c8861300974102","bdp_trlrn","Tue Mar 14 2023 14:01:53 GMT-0400 (Eastern Daylight Time)","588069","Untrustworthy,Trustworthy","","null","","","","feedback","","<div class='trialDiv'><img src='trustrating_stim/white_mw056.bmp'><br><font class='baseline'><strong>Marcus</strong><p>Received: <strong>20</strong></font> &nbsp; &nbsp; &nbsp; &nbsp; &nbsp; &nbsp;<font class='negOutcome'>Shared back: <strong>0</strong></font></font><div class='respPicDiv'><img src='img/responseButtonOffersNo0_wht.png' class='respPic'></div></div>","null","8","Marcus","6","Kept","0.65,0.35","11","0.65","trustrating_stim/white_mw056.bmp","4.5","169","24"
"html-keyboard-response","209","328310","0.0-19.0-1.24","5dd03c5486c8861300974102","bdp_trlrn","Tue Mar 14 2023 14:01:53 GMT-0400 (Eastern Daylight Time)","588069","Untrustworthy,Trustworthy","","963","","","","decision","","<div class='trialDiv'><img src='trustrating_stim/white_00659_941121_fa_edt.bmp'><br><font class='baseline'><strong>Brian</strong><p>Choose number of points to send.</font><div class='respPicDiv'><img src='img/responseButtonOffersNo0L.png' class='respPic'></div></div>","5","9","Brian","2","Kept","0.8,0.35","9","0.8","trustrating_stim/white_00659_941121_fa_edt.bmp","2.5","174","25"
"html-keyboard-response","210","328561","0.0-19.0-2.24","5dd03c5486c8861300974102","bdp_trlrn","Tue Mar 14 2023 14:01:53 GMT-0400 (Eastern Daylight Time)","588069","Untrustworthy,Trustworthy","","null","","","","decisionFB","","<div class='trialDiv'><img src='trustrating_stim/white_00659_941121_fa_edt.bmp'><br><font class='baseline'><strong>Brian</strong><p>Choose number of points to send.</font><div class='respPicDiv'><img src='img/responseButtonOffersNo0L5.png' class='respPic'></div></div>","null","9","Brian","2","Kept","0.8,0.35","9","0.8","trustrating_stim/white_00659_941121_fa_edt.bmp","2.5","169","25"
"html-keyboard-response","211","329563","0.0-19.0-3.24","5dd03c5486c8861300974102","bdp_trlrn","Tue Mar 14 2023 14:01:53 GMT-0400 (Eastern Daylight Time)","588069","Untrustworthy,Trustworthy","","null","","","","feedback","","<div class='trialDiv'><img src='trustrating_stim/white_00659_941121_fa_edt.bmp'><br><font class='baseline'><strong>Brian</strong><p>Received: <strong>20</strong></font> &nbsp; &nbsp; &nbsp; &nbsp; &nbsp; &nbsp;<font class='negOutcome'>Shared back: <strong>0</strong></font></font><div class='respPicDiv'><img src='img/responseButtonOffersNo0_wht.png' class='respPic'></div></div>","null","9","Brian","2","Kept","0.8,0.35","9","0.8","trustrating_stim/white_00659_941121_fa_edt.bmp","2.5","169","25"
"html-keyboard-response","212","330774","0.0-19.0-1.25","5dd03c5486c8861300974102","bdp_trlrn","Tue Mar 14 2023 14:01:53 GMT-0400 (Eastern Daylight Time)","588069","Untrustworthy,Trustworthy","","1211","","","","decision","","<div class='trialDiv'><img src='trustrating_stim/white_mw056.bmp'><br><font class='baseline'><strong>Marcus</strong><p>Choose number of points to send.</font><div class='respPicDiv'><img src='img/responseButtonOffersNo0L.png' class='respPic'></div></div>","4","9","Marcus","6","Shared","0.65,0.35","11","0.65","trustrating_stim/white_mw056.bmp","4.5","174","26"
"html-keyboard-response","213","331026","0.0-19.0-2.25","5dd03c5486c8861300974102","bdp_trlrn","Tue Mar 14 2023 14:01:53 GMT-0400 (Eastern Daylight Time)","588069","Untrustworthy,Trustworthy","","null","","","","decisionFB","","<div class='trialDiv'><img src='trustrating_stim/white_mw056.bmp'><br><font class='baseline'><strong>Marcus</strong><p>Choose number of points to send.</font><div class='respPicDiv'><img src='img/responseButtonOffersNo0L4.png' class='respPic'></div></div>","null","9","Marcus","6","Shared","0.65,0.35","11","0.65","trustrating_stim/white_mw056.bmp","4.5","170","26"
"html-keyboard-response","214","332027","0.0-19.0-3.25","5dd03c5486c8861300974102","bdp_trlrn","Tue Mar 14 2023 14:01:53 GMT-0400 (Eastern Daylight Time)","588069","Untrustworthy,Trustworthy","","null","","","","feedback","","<div class='trialDiv'><img src='trustrating_stim/white_mw056.bmp'><br><font class='baseline'><strong>Marcus</strong><p>Received: <strong>16</strong></font> &nbsp; &nbsp; &nbsp; &nbsp; &nbsp; &nbsp;<font class='posOutcome'>Shared back: <strong>8</strong></font></font><div class='respPicDiv'><img src='img/responseButtonOffersNo0_wht.png' class='respPic'></div></div>","null","9","Marcus","6","Shared","0.65,0.35","11","0.65","trustrating_stim/white_mw056.bmp","4.5","178","26"
"html-keyboard-response","215","333198","0.0-19.0-1.26","5dd03c5486c8861300974102","bdp_trlrn","Tue Mar 14 2023 14:01:53 GMT-0400 (Eastern Daylight Time)","588069","Untrustworthy,Trustworthy","","1171","","","","decision","","<div class='trialDiv'><img src='trustrating_stim/white_00120_931230_fa_edt.bmp'><br><font class='baseline'><strong>Michael</strong><p>Choose number of points to send.</font><div class='respPicDiv'><img src='img/responseButtonOffersNo0L.png' class='respPic'></div></div>","1","9","Michael","11","Shared","0.2,0.65","12","0.2","trustrating_stim/white_00120_931230_fa_edt.bmp","8","183","27"
"html-keyboard-response","216","333449","0.0-19.0-2.26","5dd03c5486c8861300974102","bdp_trlrn","Tue Mar 14 2023 14:01:53 GMT-0400 (Eastern Daylight Time)","588069","Untrustworthy,Trustworthy","","null","","","","decisionFB","","<div class='trialDiv'><img src='trustrating_stim/white_00120_931230_fa_edt.bmp'><br><font class='baseline'><strong>Michael</strong><p>Choose number of points to send.</font><div class='respPicDiv'><img src='img/responseButtonOffersNo0L1.png' class='respPic'></div></div>","null","9","Michael","11","Shared","0.2,0.65","12","0.2","trustrating_stim/white_00120_931230_fa_edt.bmp","8","182","27"
"html-keyboard-response","217","334450","0.0-19.0-3.26","5dd03c5486c8861300974102","bdp_trlrn","Tue Mar 14 2023 14:01:53 GMT-0400 (Eastern Daylight Time)","588069","Untrustworthy,Trustworthy","","null","","","","feedback","","<div class='trialDiv'><img src='trustrating_stim/white_00120_931230_fa_edt.bmp'><br><font class='baseline'><strong>Michael</strong><p>Received: <strong>4</strong></font> &nbsp; &nbsp; &nbsp; &nbsp; &nbsp; &nbsp;<font class='posOutcome'>Shared back: <strong>2</strong></font></font><div class='respPicDiv'><img src='img/responseButtonOffersNo0_wht.png' class='respPic'></div></div>","null","9","Michael","11","Shared","0.2,0.65","12","0.2","trustrating_stim/white_00120_931230_fa_edt.bmp","8","184","27"
"html-keyboard-response","218","335175","0.0-19.0-1.27","5dd03c5486c8861300974102","bdp_trlrn","Tue Mar 14 2023 14:01:53 GMT-0400 (Eastern Daylight Time)","588069","Untrustworthy,Trustworthy","","724","","","","decision","","<div class='trialDiv'><img src='trustrating_stim/white_00659_941121_fa_edt.bmp'><br><font class='baseline'><strong>Brian</strong><p>Choose number of points to send.</font><div class='respPicDiv'><img src='img/responseButtonOffersNo0L.png' class='respPic'></div></div>","4","10","Brian","2","Kept","0.8,0.35","9","0.8","trustrating_stim/white_00659_941121_fa_edt.bmp","2.5","189","28"
"html-keyboard-response","219","335426","0.0-19.0-2.27","5dd03c5486c8861300974102","bdp_trlrn","Tue Mar 14 2023 14:01:53 GMT-0400 (Eastern Daylight Time)","588069","Untrustworthy,Trustworthy","","null","","","","decisionFB","","<div class='trialDiv'><img src='trustrating_stim/white_00659_941121_fa_edt.bmp'><br><font class='baseline'><strong>Brian</strong><p>Choose number of points to send.</font><div class='respPicDiv'><img src='img/responseButtonOffersNo0L4.png' class='respPic'></div></div>","null","10","Brian","2","Kept","0.8,0.35","9","0.8","trustrating_stim/white_00659_941121_fa_edt.bmp","2.5","185","28"
