"trial_type","trial_index","time_elapsed","internal_node_id","subject_id","task","startTime","totalTime","labels","view_history","rt","event","trial","time","trialtype","success","stimulus","key_press","aground","name","faceID","outcome","agenttype","agentswpt","agentcurrpshare","face","avgRating","point_total","round"
"pavlovia","0","2","0.0-0.0","61086469e5457fed4f164b8e","bdp_trlrn","Wed Mar 15 2023 19:24:06 GMT-0700 (Pacific Daylight Time)","680839","Untrustworthy,Trustworthy","","","","","","","","","","","","","","","","","","","",""
"instructions","1","8871","0.0-1.0","61086469e5457fed4f164b8e","bdp_trlrn","Wed Mar 15 2023 19:24:06 GMT-0700 (Pacific Daylight Time)","680839","Untrustworthy,Trustworthy","[{""page_index"":0,""viewing_time"":8869}]","8869","","","","","","","","","","","","","","","","","",""
"","","","","61086469e5457fed4f164b8e","bdp_trlrn","Wed Mar 15 2023 19:24:06 GMT-0700 (Pacific Daylight Time)","680839","Untrustworthy,Trustworthy","","","fullscreenenter","2","11589","fullscreenenter","","","","","","","","","","","","","",""
"fullscreen","2","12586","0.0-2.0","61086469e5457fed4f164b8e","bdp_trlrn","Wed Mar 15 2023 19:24:06 GMT-0700 (Pacific Daylight Time)","680839","Untrustworthy,Trustworthy","","","","","","","true","","","","","","","","","","","","",""
"instructions","3","26816","0.0-4.0","61086469e5457fed4f164b8e","bdp_trlrn","Wed Mar 15 2023 19:24:06 GMT-0700 (Pacific Daylight Time)","680839","Untrustworthy,Trustworthy","[{""page_index"":0,""viewing_time"":9863},{""page_index"":1,""viewing_time"":4366}]","14230","","","","","","","","","","","","","","","","","",""
"instructions","4","28050","0.0-5.0","61086469e5457fed4f164b8e","bdp_trlrn","Wed Mar 15 2023 19:24:06 GMT-0700 (Pacific Daylight Time)","680839","Untrustworthy,Trustworthy","[{""page_index"":0,""viewing_time"":1233}]","1234","","","","","","","","","","","","","","","","","",""
"image-keyboard-response","5","31787","0.0-6.0-1.0","61086469e5457fed4f164b8e","bdp_trlrn","Wed Mar 15 2023 19:24:06 GMT-0700 (Pacific Daylight Time)","680839","Untrustworthy,Trustworthy","","3633","","","","rating","","trustrating_stim/white_00340_940422_fa_edt.bmp","2","","","","","","","","","","",""
"image-keyboard-response","6","31988","0.0-6.0-2.0","61086469e5457fed4f164b8e","bdp_trlrn","Wed Mar 15 2023 19:24:06 GMT-0700 (Pacific Daylight Time)","680839","Untrustworthy,Trustworthy","","null","","","","ratingFB","","trustrating_stim/white_00340_940422_fa_edt.bmp","null","","","","","","","","","","",""
"image-keyboard-response","7","34120","0.0-6.0-1.1","61086469e5457fed4f164b8e","bdp_trlrn","Wed Mar 15 2023 19:24:06 GMT-0700 (Pacific Daylight Time)","680839","Untrustworthy,Trustworthy","","2030","","","","rating","","trustrating_stim/white_00757_941201_fa_edt.bmp","2","","","","","","","","","","",""
"image-keyboard-response","8","34322","0.0-6.0-2.1","61086469e5457fed4f164b8e","bdp_trlrn","Wed Mar 15 2023 19:24:06 GMT-0700 (Pacific Daylight Time)","680839","Untrustworthy,Trustworthy","","null","","","","ratingFB","","trustrating_stim/white_00757_941201_fa_edt.bmp","null","","","","","","","","","","",""
"image-keyboard-response","9","36484","0.0-6.0-1.2","61086469e5457fed4f164b8e","bdp_trlrn","Wed Mar 15 2023 19:24:06 GMT-0700 (Pacific Daylight Time)","680839","Untrustworthy,Trustworthy","","2061","","","","rating","","trustrating_stim/white_mw089.bmp","2","","","","","","","","","","",""
"image-keyboard-response","10","36685","0.0-6.0-2.2","61086469e5457fed4f164b8e","bdp_trlrn","Wed Mar 15 2023 19:24:06 GMT-0700 (Pacific Daylight Time)","680839","Untrustworthy,Trustworthy","","null","","","","ratingFB","","trustrating_stim/white_mw089.bmp","null","","","","","","","","","","",""
"image-keyboard-response","11","39725","0.0-6.0-1.3","61086469e5457fed4f164b8e","bdp_trlrn","Wed Mar 15 2023 19:24:06 GMT-0700 (Pacific Daylight Time)","680839","Untrustworthy,Trustworthy","","2937","","","","rating","","trustrating_stim/white_mw053.bmp","4","","","","","","","","","","",""
"image-keyboard-response","12","39927","0.0-6.0-2.3","61086469e5457fed4f164b8e","bdp_trlrn","Wed Mar 15 2023 19:24:06 GMT-0700 (Pacific Daylight Time)","680839","Untrustworthy,Trustworthy","","null","","","","ratingFB","","trustrating_stim/white_mw053.bmp","null","","","","","","","","","","",""
"image-keyboard-response","13","42968","0.0-6.0-1.4","61086469e5457fed4f164b8e","bdp_trlrn","Wed Mar 15 2023 19:24:06 GMT-0700 (Pacific Daylight Time)","680839","Untrustworthy,Trustworthy","","2939","","","","rating","","trustrating_stim/white_00299_940422_fa_edt.bmp","2","","","","","","","","","","",""
"image-keyboard-response","14","43169","0.0-6.0-2.4","61086469e5457fed4f164b8e","bdp_trlrn","Wed Mar 15 2023 19:24:06 GMT-0700 (Pacific Daylight Time)","680839","Untrustworthy,Trustworthy","","null","","","","ratingFB","","trustrating_stim/white_00299_940422_fa_edt.bmp","null","","","","","","","","","","",""
"image-keyboard-response","15","44632","0.0-6.0-1.5","61086469e5457fed4f164b8e","bdp_trlrn","Wed Mar 15 2023 19:24:06 GMT-0700 (Pacific Daylight Time)","680839","Untrustworthy,Trustworthy","","1362","","","","rating","","trustrating_stim/white_00577_940928_fa_edt.bmp","2","","","","","","","","","","",""
"image-keyboard-response","16","44833","0.0-6.0-2.5","61086469e5457fed4f164b8e","bdp_trlrn","Wed Mar 15 2023 19:24:06 GMT-0700 (Pacific Daylight Time)","680839","Untrustworthy,Trustworthy","","null","","","","ratingFB","","trustrating_stim/white_00577_940928_fa_edt.bmp","null","","","","","","","","","","",""
"image-keyboard-response","17","46760","0.0-6.0-1.6","61086469e5457fed4f164b8e","bdp_trlrn","Wed Mar 15 2023 19:24:06 GMT-0700 (Pacific Daylight Time)","680839","Untrustworthy,Trustworthy","","1825","","","","rating","","trustrating_stim/white_mw033.bmp","4","","","","","","","","","","",""
"image-keyboard-response","18","46961","0.0-6.0-2.6","61086469e5457fed4f164b8e","bdp_trlrn","Wed Mar 15 2023 19:24:06 GMT-0700 (Pacific Daylight Time)","680839","Untrustworthy,Trustworthy","","null","","","","ratingFB","","trustrating_stim/white_mw033.bmp","null","","","","","","","","","","",""
"image-keyboard-response","19","48938","0.0-6.0-1.7","61086469e5457fed4f164b8e","bdp_trlrn","Wed Mar 15 2023 19:24:06 GMT-0700 (Pacific Daylight Time)","680839","Untrustworthy,Trustworthy","","1875","","","","rating","","trustrating_stim/white_00602_940928_fb_edt.bmp","5","","","","","","","","","","",""
"image-keyboard-response","20","49140","0.0-6.0-2.7","61086469e5457fed4f164b8e","bdp_trlrn","Wed Mar 15 2023 19:24:06 GMT-0700 (Pacific Daylight Time)","680839","Untrustworthy,Trustworthy","","null","","","","ratingFB","","trustrating_stim/white_00602_940928_fb_edt.bmp","null","","","","","","","","","","",""
"image-keyboard-response","21","50582","0.0-6.0-1.8","61086469e5457fed4f164b8e","bdp_trlrn","Wed Mar 15 2023 19:24:06 GMT-0700 (Pacific Daylight Time)","680839","Untrustworthy,Trustworthy","","1341","","","","rating","","trustrating_stim/white_00761_941201_fb_edt.bmp","5","","","","","","","","","","",""
"image-keyboard-response","22","50784","0.0-6.0-2.8","61086469e5457fed4f164b8e","bdp_trlrn","Wed Mar 15 2023 19:24:06 GMT-0700 (Pacific Daylight Time)","680839","Untrustworthy,Trustworthy","","null","","","","ratingFB","","trustrating_stim/white_00761_941201_fb_edt.bmp","null","","","","","","","","","","",""
"image-keyboard-response","23","53040","0.0-6.0-1.9","61086469e5457fed4f164b8e","bdp_trlrn","Wed Mar 15 2023 19:24:06 GMT-0700 (Pacific Daylight Time)","680839","Untrustworthy,Trustworthy","","2154","","","","rating","","trustrating_stim/white_00519_940519_fb_edt.bmp","4","","","","","","","","","","",""
"image-keyboard-response","24","53242","0.0-6.0-2.9","61086469e5457fed4f164b8e","bdp_trlrn","Wed Mar 15 2023 19:24:06 GMT-0700 (Pacific Daylight Time)","680839","Untrustworthy,Trustworthy","","null","","","","ratingFB","","trustrating_stim/white_00519_940519_fb_edt.bmp","null","","","","","","","","","","",""
"image-keyboard-response","25","55733","0.0-6.0-1.10","61086469e5457fed4f164b8e","bdp_trlrn","Wed Mar 15 2023 19:24:06 GMT-0700 (Pacific Daylight Time)","680839","Untrustworthy,Trustworthy","","2390","","","","rating","","trustrating_stim/white_00785_941205_fb_edt.bmp","3","","","","","","","","","","",""
"image-keyboard-response","26","55935","0.0-6.0-2.10","61086469e5457fed4f164b8e","bdp_trlrn","Wed Mar 15 2023 19:24:06 GMT-0700 (Pacific Daylight Time)","680839","Untrustworthy,Trustworthy","","null","","","","ratingFB","","trustrating_stim/white_00785_941205_fb_edt.bmp","null","","","","","","","","","","",""
"image-keyboard-response","27","58046","0.0-6.0-1.11","61086469e5457fed4f164b8e","bdp_trlrn","Wed Mar 15 2023 19:24:06 GMT-0700 (Pacific Daylight Time)","680839","Untrustworthy,Trustworthy","","2009","","","","rating","","trustrating_stim/white_mw071.bmp","5","","","","","","","","","","",""
"image-keyboard-response","28","58248","0.0-6.0-2.11","61086469e5457fed4f164b8e","bdp_trlrn","Wed Mar 15 2023 19:24:06 GMT-0700 (Pacific Daylight Time)","680839","Untrustworthy,Trustworthy","","null","","","","ratingFB","","trustrating_stim/white_mw071.bmp","null","","","","","","","","","","",""
"image-keyboard-response","29","61064","0.0-6.0-1.12","61086469e5457fed4f164b8e","bdp_trlrn","Wed Mar 15 2023 19:24:06 GMT-0700 (Pacific Daylight Time)","680839","Untrustworthy,Trustworthy","","2714","","","","rating","","trustrating_stim/white_00659_941121_fa_edt.bmp","3","","","","","","","","","","",""
"image-keyboard-response","30","61266","0.0-6.0-2.12","61086469e5457fed4f164b8e","bdp_trlrn","Wed Mar 15 2023 19:24:06 GMT-0700 (Pacific Daylight Time)","680839","Untrustworthy,Trustworthy","","null","","","","ratingFB","","trustrating_stim/white_00659_941121_fa_edt.bmp","null","","","","","","","","","","",""
"image-keyboard-response","31","62738","0.0-6.0-1.13","61086469e5457fed4f164b8e","bdp_trlrn","Wed Mar 15 2023 19:24:06 GMT-0700 (Pacific Daylight Time)","680839","Untrustworthy,Trustworthy","","1370","","","","rating","","trustrating_stim/white_mw035.bmp","4","","","","","","","","","","",""
"image-keyboard-response","32","62938","0.0-6.0-2.13","61086469e5457fed4f164b8e","bdp_trlrn","Wed Mar 15 2023 19:24:06 GMT-0700 (Pacific Daylight Time)","680839","Untrustworthy,Trustworthy","","null","","","","ratingFB","","trustrating_stim/white_mw035.bmp","null","","","","","","","","","","",""
"image-keyboard-response","33","64846","0.0-6.0-1.14","61086469e5457fed4f164b8e","bdp_trlrn","Wed Mar 15 2023 19:24:06 GMT-0700 (Pacific Daylight Time)","680839","Untrustworthy,Trustworthy","","1807","","","","rating","","trustrating_stim/white_mw056.bmp","3","","","","","","","","","","",""
"image-keyboard-response","34","65049","0.0-6.0-2.14","61086469e5457fed4f164b8e","bdp_trlrn","Wed Mar 15 2023 19:24:06 GMT-0700 (Pacific Daylight Time)","680839","Untrustworthy,Trustworthy","","null","","","","ratingFB","","trustrating_stim/white_mw056.bmp","null","","","","","","","","","","",""
"image-keyboard-response","35","68088","0.0-6.0-1.15","61086469e5457fed4f164b8e","bdp_trlrn","Wed Mar 15 2023 19:24:06 GMT-0700 (Pacific Daylight Time)","680839","Untrustworthy,Trustworthy","","2937","","","","rating","","trustrating_stim/white_mw097.bmp","3","","","","","","","","","","",""
"image-keyboard-response","36","68289","0.0-6.0-2.15","61086469e5457fed4f164b8e","bdp_trlrn","Wed Mar 15 2023 19:24:06 GMT-0700 (Pacific Daylight Time)","680839","Untrustworthy,Trustworthy","","null","","","","ratingFB","","trustrating_stim/white_mw097.bmp","null","","","","","","","","","","",""
"image-keyboard-response","37","70981","0.0-6.0-1.16","61086469e5457fed4f164b8e","bdp_trlrn","Wed Mar 15 2023 19:24:06 GMT-0700 (Pacific Daylight Time)","680839","Untrustworthy,Trustworthy","","2592","","","","rating","","trustrating_stim/white_00120_931230_fa_edt.bmp","5","","","","","","","","","","",""
"image-keyboard-response","38","71182","0.0-6.0-2.16","61086469e5457fed4f164b8e","bdp_trlrn","Wed Mar 15 2023 19:24:06 GMT-0700 (Pacific Daylight Time)","680839","Untrustworthy,Trustworthy","","null","","","","ratingFB","","trustrating_stim/white_00120_931230_fa_edt.bmp","null","","","","","","","","","","",""
"image-keyboard-response","39","72320","0.0-6.0-1.17","61086469e5457fed4f164b8e","bdp_trlrn","Wed Mar 15 2023 19:24:06 GMT-0700 (Pacific Daylight Time)","680839","Untrustworthy,Trustworthy","","1036","","","","rating","","trustrating_stim/white_mw049.bmp","5","","","","","","","","","","",""
"image-keyboard-response","40","72520","0.0-6.0-2.17","61086469e5457fed4f164b8e","bdp_trlrn","Wed Mar 15 2023 19:24:06 GMT-0700 (Pacific Daylight Time)","680839","Untrustworthy,Trustworthy","","null","","","","ratingFB","","trustrating_stim/white_mw049.bmp","null","","","","","","","","","","",""
"image-keyboard-response","41","73804","0.0-6.0-1.18","61086469e5457fed4f164b8e","bdp_trlrn","Wed Mar 15 2023 19:24:06 GMT-0700 (Pacific Daylight Time)","680839","Untrustworthy,Trustworthy","","1183","","","","rating","","trustrating_stim/white_00898_960530_fa_edt.bmp","5","","","","","","","","","","",""
"image-keyboard-response","42","74006","0.0-6.0-2.18","61086469e5457fed4f164b8e","bdp_trlrn","Wed Mar 15 2023 19:24:06 GMT-0700 (Pacific Daylight Time)","680839","Untrustworthy,Trustworthy","","null","","","","ratingFB","","trustrating_stim/white_00898_960530_fa_edt.bmp","null","","","","","","","","","","",""
"image-keyboard-response","43","74873","0.0-6.0-1.19","61086469e5457fed4f164b8e","bdp_trlrn","Wed Mar 15 2023 19:24:06 GMT-0700 (Pacific Daylight Time)","680839","Untrustworthy,Trustworthy","","765","","","","rating","","trustrating_stim/white_00109_931230_fa_edt.bmp","5","","","","","","","","","","",""
"image-keyboard-response","44","75075","0.0-6.0-2.19","61086469e5457fed4f164b8e","bdp_trlrn","Wed Mar 15 2023 19:24:06 GMT-0700 (Pacific Daylight Time)","680839","Untrustworthy,Trustworthy","","null","","","","ratingFB","","trustrating_stim/white_00109_931230_fa_edt.bmp","null","","","","","","","","","","",""
"image-keyboard-response","45","75897","0.0-6.0-1.20","61086469e5457fed4f164b8e","bdp_trlrn","Wed Mar 15 2023 19:24:06 GMT-0700 (Pacific Daylight Time)","680839","Untrustworthy,Trustworthy","","722","","","","rating","","trustrating_stim/white_00129_931230_fb_edt.bmp","5","","","","","","","","","","",""
"image-keyboard-response","46","76098","0.0-6.0-2.20","61086469e5457fed4f164b8e","bdp_trlrn","Wed Mar 15 2023 19:24:06 GMT-0700 (Pacific Daylight Time)","680839","Untrustworthy,Trustworthy","","null","","","","ratingFB","","trustrating_stim/white_00129_931230_fb_edt.bmp","null","","","","","","","","","","",""
"image-keyboard-response","47","77730","0.0-6.0-1.21","61086469e5457fed4f164b8e","bdp_trlrn","Wed Mar 15 2023 19:24:06 GMT-0700 (Pacific Daylight Time)","680839","Untrustworthy,Trustworthy","","1531","","","","rating","","trustrating_stim/white_mw048.bmp","2","","","","","","","","","","",""
"image-keyboard-response","48","77932","0.0-6.0-2.21","61086469e5457fed4f164b8e","bdp_trlrn","Wed Mar 15 2023 19:24:06 GMT-0700 (Pacific Daylight Time)","680839","Untrustworthy,Trustworthy","","null","","","","ratingFB","","trustrating_stim/white_mw048.bmp","null","","","","","","","","","","",""
"image-keyboard-response","49","79245","0.0-6.0-1.22","61086469e5457fed4f164b8e","bdp_trlrn","Wed Mar 15 2023 19:24:06 GMT-0700 (Pacific Daylight Time)","680839","Untrustworthy,Trustworthy","","1211","","","","rating","","trustrating_stim/white_mw084.bmp","3","","","","","","","","","","",""
"image-keyboard-response","50","79446","0.0-6.0-2.22","61086469e5457fed4f164b8e","bdp_trlrn","Wed Mar 15 2023 19:24:06 GMT-0700 (Pacific Daylight Time)","680839","Untrustworthy,Trustworthy","","null","","","","ratingFB","","trustrating_stim/white_mw084.bmp","null","","","","","","","","","","",""
"image-keyboard-response","51","81168","0.0-6.0-1.23","61086469e5457fed4f164b8e","bdp_trlrn","Wed Mar 15 2023 19:24:06 GMT-0700 (Pacific Daylight Time)","680839","Untrustworthy,Trustworthy","","1620","","","","rating","","trustrating_stim/white_00807_941205_fb_edt.bmp","3","","","","","","","","","","",""
"image-keyboard-response","52","81369","0.0-6.0-2.23","61086469e5457fed4f164b8e","bdp_trlrn","Wed Mar 15 2023 19:24:06 GMT-0700 (Pacific Daylight Time)","680839","Untrustworthy,Trustworthy","","null","","","","ratingFB","","trustrating_stim/white_00807_941205_fb_edt.bmp","null","","","","","","","","","","",""
"image-keyboard-response","53","83141","0.0-6.0-1.24","61086469e5457fed4f164b8e","bdp_trlrn","Wed Mar 15 2023 19:24:06 GMT-0700 (Pacific Daylight Time)","680839","Untrustworthy,Trustworthy","","1670","","","","rating","","trustrating_stim/white_mw046.bmp","3","","","","","","","","","","",""
"image-keyboard-response","54","83343","0.0-6.0-2.24","61086469e5457fed4f164b8e","bdp_trlrn","Wed Mar 15 2023 19:24:06 GMT-0700 (Pacific Daylight Time)","680839","Untrustworthy,Trustworthy","","null","","","","ratingFB","","trustrating_stim/white_mw046.bmp","null","","","","","","","","","","",""
"image-keyboard-response","55","84740","0.0-6.0-1.25","61086469e5457fed4f164b8e","bdp_trlrn","Wed Mar 15 2023 19:24:06 GMT-0700 (Pacific Daylight Time)","680839","Untrustworthy,Trustworthy","","1296","","","","rating","","trustrating_stim/white_00223_940128_fb_edt.bmp","4","","","","","","","","","","",""
"image-keyboard-response","56","84941","0.0-6.0-2.25","61086469e5457fed4f164b8e","bdp_trlrn","Wed Mar 15 2023 19:24:06 GMT-0700 (Pacific Daylight Time)","680839","Untrustworthy,Trustworthy","","null","","","","ratingFB","","trustrating_stim/white_00223_940128_fb_edt.bmp","null","","","","","","","","","","",""
"image-keyboard-response","57","86983","0.0-6.0-1.26","61086469e5457fed4f164b8e","bdp_trlrn","Wed Mar 15 2023 19:24:06 GMT-0700 (Pacific Daylight Time)","680839","Untrustworthy,Trustworthy","","1940","","","","rating","","trustrating_stim/white_mw066.bmp","4","","","","","","","","","","",""
"image-keyboard-response","58","87184","0.0-6.0-2.26","61086469e5457fed4f164b8e","bdp_trlrn","Wed Mar 15 2023 19:24:06 GMT-0700 (Pacific Daylight Time)","680839","Untrustworthy,Trustworthy","","null","","","","ratingFB","","trustrating_stim/white_mw066.bmp","null","","","","","","","","","","",""
"image-keyboard-response","59","88582","0.0-6.0-1.27","61086469e5457fed4f164b8e","bdp_trlrn","Wed Mar 15 2023 19:24:06 GMT-0700 (Pacific Daylight Time)","680839","Untrustworthy,Trustworthy","","1297","","","","rating","","trustrating_stim/white_mw063.bmp","3","","","","","","","","","","",""
"image-keyboard-response","60","88784","0.0-6.0-2.27","61086469e5457fed4f164b8e","bdp_trlrn","Wed Mar 15 2023 19:24:06 GMT-0700 (Pacific Daylight Time)","680839","Untrustworthy,Trustworthy","","null","","","","ratingFB","","trustrating_stim/white_mw063.bmp","null","","","","","","","","","","",""
"image-keyboard-response","61","90260","0.0-6.0-1.28","61086469e5457fed4f164b8e","bdp_trlrn","Wed Mar 15 2023 19:24:06 GMT-0700 (Pacific Daylight Time)","680839","Untrustworthy,Trustworthy","","1374","","","","rating","","trustrating_stim/white_mw099.bmp","4","","","","","","","","","","",""
"image-keyboard-response","62","90461","0.0-6.0-2.28","61086469e5457fed4f164b8e","bdp_trlrn","Wed Mar 15 2023 19:24:06 GMT-0700 (Pacific Daylight Time)","680839","Untrustworthy,Trustworthy","","null","","","","ratingFB","","trustrating_stim/white_mw099.bmp","null","","","","","","","","","","",""
"image-keyboard-response","63","91879","0.0-6.0-1.29","61086469e5457fed4f164b8e","bdp_trlrn","Wed Mar 15 2023 19:24:06 GMT-0700 (Pacific Daylight Time)","680839","Untrustworthy,Trustworthy","","1316","","","","rating","","trustrating_stim/white_mw060.bmp","3","","","","","","","","","","",""
"image-keyboard-response","64","92080","0.0-6.0-2.29","61086469e5457fed4f164b8e","bdp_trlrn","Wed Mar 15 2023 19:24:06 GMT-0700 (Pacific Daylight Time)","680839","Untrustworthy,Trustworthy","","null","","","","ratingFB","","trustrating_stim/white_mw060.bmp","null","","","","","","","","","","",""
"image-keyboard-response","65","93023","0.0-6.0-1.30","61086469e5457fed4f164b8e","bdp_trlrn","Wed Mar 15 2023 19:24:06 GMT-0700 (Pacific Daylight Time)","680839","Untrustworthy,Trustworthy","","841","","","","rating","","trustrating_stim/white_mw049.bmp","4","","","","","","","","","","",""
"image-keyboard-response","66","93224","0.0-6.0-2.30","61086469e5457fed4f164b8e","bdp_trlrn","Wed Mar 15 2023 19:24:06 GMT-0700 (Pacific Daylight Time)","680839","Untrustworthy,Trustworthy","","null","","","","ratingFB","","trustrating_stim/white_mw049.bmp","null","","","","","","","","","","",""
"image-keyboard-response","67","95526","0.0-6.0-1.31","61086469e5457fed4f164b8e","bdp_trlrn","Wed Mar 15 2023 19:24:06 GMT-0700 (Pacific Daylight Time)","680839","Untrustworthy,Trustworthy","","2201","","","","rating","","trustrating_stim/white_mw033.bmp","4","","","","","","","","","","",""
"image-keyboard-response","68","95727","0.0-6.0-2.31","61086469e5457fed4f164b8e","bdp_trlrn","Wed Mar 15 2023 19:24:06 GMT-0700 (Pacific Daylight Time)","680839","Untrustworthy,Trustworthy","","null","","","","ratingFB","","trustrating_stim/white_mw033.bmp","null","","","","","","","","","","",""
"image-keyboard-response","69","98539","0.0-6.0-1.32","61086469e5457fed4f164b8e","bdp_trlrn","Wed Mar 15 2023 19:24:06 GMT-0700 (Pacific Daylight Time)","680839","Untrustworthy,Trustworthy","","2711","","","","rating","","trustrating_stim/white_mw099.bmp","4","","","","","","","","","","",""
"image-keyboard-response","70","98741","0.0-6.0-2.32","61086469e5457fed4f164b8e","bdp_trlrn","Wed Mar 15 2023 19:24:06 GMT-0700 (Pacific Daylight Time)","680839","Untrustworthy,Trustworthy","","null","","","","ratingFB","","trustrating_stim/white_mw099.bmp","null","","","","","","","","","","",""
"image-keyboard-response","71","99718","0.0-6.0-1.33","61086469e5457fed4f164b8e","bdp_trlrn","Wed Mar 15 2023 19:24:06 GMT-0700 (Pacific Daylight Time)","680839","Untrustworthy,Trustworthy","","875","","","","rating","","trustrating_stim/white_00129_931230_fb_edt.bmp","4","","","","","","","","","","",""
"image-keyboard-response","72","99919","0.0-6.0-2.33","61086469e5457fed4f164b8e","bdp_trlrn","Wed Mar 15 2023 19:24:06 GMT-0700 (Pacific Daylight Time)","680839","Untrustworthy,Trustworthy","","null","","","","ratingFB","","trustrating_stim/white_00129_931230_fb_edt.bmp","null","","","","","","","","","","",""
"image-keyboard-response","73","103110","0.0-6.0-1.34","61086469e5457fed4f164b8e","bdp_trlrn","Wed Mar 15 2023 19:24:06 GMT-0700 (Pacific Daylight Time)","680839","Untrustworthy,Trustworthy","","3089","","","","rating","","trustrating_stim/white_mw084.bmp","4","","","","","","","","","","",""
"image-keyboard-response","74","103312","0.0-6.0-2.34","61086469e5457fed4f164b8e","bdp_trlrn","Wed Mar 15 2023 19:24:06 GMT-0700 (Pacific Daylight Time)","680839","Untrustworthy,Trustworthy","","null","","","","ratingFB","","trustrating_stim/white_mw084.bmp","null","","","","","","","","","","",""
"image-keyboard-response","75","104425","0.0-6.0-1.35","61086469e5457fed4f164b8e","bdp_trlrn","Wed Mar 15 2023 19:24:06 GMT-0700 (Pacific Daylight Time)","680839","Untrustworthy,Trustworthy","","1011","","","","rating","","trustrating_stim/white_mw053.bmp","3","","","","","","","","","","",""
"image-keyboard-response","76","104626","0.0-6.0-2.35","61086469e5457fed4f164b8e","bdp_trlrn","Wed Mar 15 2023 19:24:06 GMT-0700 (Pacific Daylight Time)","680839","Untrustworthy,Trustworthy","","null","","","","ratingFB","","trustrating_stim/white_mw053.bmp","null","","","","","","","","","","",""
"image-keyboard-response","77","107267","0.0-6.0-1.36","61086469e5457fed4f164b8e","bdp_trlrn","Wed Mar 15 2023 19:24:06 GMT-0700 (Pacific Daylight Time)","680839","Untrustworthy,Trustworthy","","2538","","","","rating","","trustrating_stim/white_00519_940519_fb_edt.bmp","3","","","","","","","","","","",""
"image-keyboard-response","78","107468","0.0-6.0-2.36","61086469e5457fed4f164b8e","bdp_trlrn","Wed Mar 15 2023 19:24:06 GMT-0700 (Pacific Daylight Time)","680839","Untrustworthy,Trustworthy","","null","","","","ratingFB","","trustrating_stim/white_00519_940519_fb_edt.bmp","null","","","","","","","","","","",""
"image-keyboard-response","79","110034","0.0-6.0-1.37","61086469e5457fed4f164b8e","bdp_trlrn","Wed Mar 15 2023 19:24:06 GMT-0700 (Pacific Daylight Time)","680839","Untrustworthy,Trustworthy","","2464","","","","rating","","trustrating_stim/white_mw063.bmp","3","","","","","","","","","","",""
"image-keyboard-response","80","110235","0.0-6.0-2.37","61086469e5457fed4f164b8e","bdp_trlrn","Wed Mar 15 2023 19:24:06 GMT-0700 (Pacific Daylight Time)","680839","Untrustworthy,Trustworthy","","null","","","","ratingFB","","trustrating_stim/white_mw063.bmp","null","","","","","","","","","","",""
"image-keyboard-response","81","112603","0.0-6.0-1.38","61086469e5457fed4f164b8e","bdp_trlrn","Wed Mar 15 2023 19:24:06 GMT-0700 (Pacific Daylight Time)","680839","Untrustworthy,Trustworthy","","2266","","","","rating","","trustrating_stim/white_mw035.bmp","4","","","","","","","","","","",""
"image-keyboard-response","82","112804","0.0-6.0-2.38","61086469e5457fed4f164b8e","bdp_trlrn","Wed Mar 15 2023 19:24:06 GMT-0700 (Pacific Daylight Time)","680839","Untrustworthy,Trustworthy","","null","","","","ratingFB","","trustrating_stim/white_mw035.bmp","null","","","","","","","","","","",""
"image-keyboard-response","83","114017","0.0-6.0-1.39","61086469e5457fed4f164b8e","bdp_trlrn","Wed Mar 15 2023 19:24:06 GMT-0700 (Pacific Daylight Time)","680839","Untrustworthy,Trustworthy","","1109","","","","rating","","trustrating_stim/white_mw089.bmp","2","","","","","","","","","","",""
"image-keyboard-response","84","114219","0.0-6.0-2.39","61086469e5457fed4f164b8e","bdp_trlrn","Wed Mar 15 2023 19:24:06 GMT-0700 (Pacific Daylight Time)","680839","Untrustworthy,Trustworthy","","null","","","","ratingFB","","trustrating_stim/white_mw089.bmp","null","","","","","","","","","","",""
"image-keyboard-response","85","117784","0.0-6.0-1.40","61086469e5457fed4f164b8e","bdp_trlrn","Wed Mar 15 2023 19:24:06 GMT-0700 (Pacific Daylight Time)","680839","Untrustworthy,Trustworthy","","3463","","","","rating","","trustrating_stim/white_mw071.bmp","3","","","","","","","","","","",""
"image-keyboard-response","86","117985","0.0-6.0-2.40","61086469e5457fed4f164b8e","bdp_trlrn","Wed Mar 15 2023 19:24:06 GMT-0700 (Pacific Daylight Time)","680839","Untrustworthy,Trustworthy","","null","","","","ratingFB","","trustrating_stim/white_mw071.bmp","null","","","","","","","","","","",""
"image-keyboard-response","87","119002","0.0-6.0-1.41","61086469e5457fed4f164b8e","bdp_trlrn","Wed Mar 15 2023 19:24:06 GMT-0700 (Pacific Daylight Time)","680839","Untrustworthy,Trustworthy","","915","","","","rating","","trustrating_stim/white_00340_940422_fa_edt.bmp","2","","","","","","","","","","",""
"image-keyboard-response","88","119203","0.0-6.0-2.41","61086469e5457fed4f164b8e","bdp_trlrn","Wed Mar 15 2023 19:24:06 GMT-0700 (Pacific Daylight Time)","680839","Untrustworthy,Trustworthy","","null","","","","ratingFB","","trustrating_stim/white_00340_940422_fa_edt.bmp","null","","","","","","","","","","",""
"image-keyboard-response","89","122729","0.0-6.0-1.42","61086469e5457fed4f164b8e","bdp_trlrn","Wed Mar 15 2023 19:24:06 GMT-0700 (Pacific Daylight Time)","680839","Untrustworthy,Trustworthy","","3424","","","","rating","","trustrating_stim/white_00659_941121_fa_edt.bmp","3","","","","","","","","","","",""
"image-keyboard-response","90","122931","0.0-6.0-2.42","61086469e5457fed4f164b8e","bdp_trlrn","Wed Mar 15 2023 19:24:06 GMT-0700 (Pacific Daylight Time)","680839","Untrustworthy,Trustworthy","","null","","","","ratingFB","","trustrating_stim/white_00659_941121_fa_edt.bmp","null","","","","","","","","","","",""
"image-keyboard-response","91","125313","0.0-6.0-1.43","61086469e5457fed4f164b8e","bdp_trlrn","Wed Mar 15 2023 19:24:06 GMT-0700 (Pacific Daylight Time)","680839","Untrustworthy,Trustworthy","","2280","","","","rating","","trustrating_stim/white_00761_941201_fb_edt.bmp","5","","","","","","","","","","",""
"image-keyboard-response","92","125514","0.0-6.0-2.43","61086469e5457fed4f164b8e","bdp_trlrn","Wed Mar 15 2023 19:24:06 GMT-0700 (Pacific Daylight Time)","680839","Untrustworthy,Trustworthy","","null","","","","ratingFB","","trustrating_stim/white_00761_941201_fb_edt.bmp","null","","","","","","","","","","",""
"image-keyboard-response","93","127051","0.0-6.0-1.44","61086469e5457fed4f164b8e","bdp_trlrn","Wed Mar 15 2023 19:24:06 GMT-0700 (Pacific Daylight Time)","680839","Untrustworthy,Trustworthy","","1435","","","","rating","","trustrating_stim/white_mw056.bmp","3","","","","","","","","","","",""
"image-keyboard-response","94","127252","0.0-6.0-2.44","61086469e5457fed4f164b8e","bdp_trlrn","Wed Mar 15 2023 19:24:06 GMT-0700 (Pacific Daylight Time)","680839","Untrustworthy,Trustworthy","","null","","","","ratingFB","","trustrating_stim/white_mw056.bmp","null","","","","","","","","","","",""
"image-keyboard-response","95","130194","0.0-6.0-1.45","61086469e5457fed4f164b8e","bdp_trlrn","Wed Mar 15 2023 19:24:06 GMT-0700 (Pacific Daylight Time)","680839","Untrustworthy,Trustworthy","","2839","","","","rating","","trustrating_stim/white_00577_940928_fa_edt.bmp","2","","","","","","","","","","",""
"image-keyboard-response","96","130394","0.0-6.0-2.45","61086469e5457fed4f164b8e","bdp_trlrn","Wed Mar 15 2023 19:24:06 GMT-0700 (Pacific Daylight Time)","680839","Untrustworthy,Trustworthy","","null","","","","ratingFB","","trustrating_stim/white_00577_940928_fa_edt.bmp","null","","","","","","","","","","",""
"image-keyboard-response","97","131837","0.0-6.0-1.46","61086469e5457fed4f164b8e","bdp_trlrn","Wed Mar 15 2023 19:24:06 GMT-0700 (Pacific Daylight Time)","680839","Untrustworthy,Trustworthy","","1340","","","","rating","","trustrating_stim/white_00807_941205_fb_edt.bmp","3","","","","","","","","","","",""
"image-keyboard-response","98","132038","0.0-6.0-2.46","61086469e5457fed4f164b8e","bdp_trlrn","Wed Mar 15 2023 19:24:06 GMT-0700 (Pacific Daylight Time)","680839","Untrustworthy,Trustworthy","","null","","","","ratingFB","","trustrating_stim/white_00807_941205_fb_edt.bmp","null","","","","","","","","","","",""
"image-keyboard-response","99","134585","0.0-6.0-1.47","61086469e5457fed4f164b8e","bdp_trlrn","Wed Mar 15 2023 19:24:06 GMT-0700 (Pacific Daylight Time)","680839","Untrustworthy,Trustworthy","","2446","","","","rating","","trustrating_stim/white_mw060.bmp","3","","","","","","","","","","",""
"image-keyboard-response","100","134786","0.0-6.0-2.47","61086469e5457fed4f164b8e","bdp_trlrn","Wed Mar 15 2023 19:24:06 GMT-0700 (Pacific Daylight Time)","680839","Untrustworthy,Trustworthy","","null","","","","ratingFB","","trustrating_stim/white_mw060.bmp","null","","","","","","","","","","",""
"image-keyboard-response","101","135829","0.0-6.0-1.48","61086469e5457fed4f164b8e","bdp_trlrn","Wed Mar 15 2023 19:24:06 GMT-0700 (Pacific Daylight Time)","680839","Untrustworthy,Trustworthy","","940","","","","rating","","trustrating_stim/white_00602_940928_fb_edt.bmp","4","","","","","","","","","","",""
"image-keyboard-response","102","136030","0.0-6.0-2.48","61086469e5457fed4f164b8e","bdp_trlrn","Wed Mar 15 2023 19:24:06 GMT-0700 (Pacific Daylight Time)","680839","Untrustworthy,Trustworthy","","null","","","","ratingFB","","trustrating_stim/white_00602_940928_fb_edt.bmp","null","","","","","","","","","","",""
"image-keyboard-response","103","137937","0.0-6.0-1.49","61086469e5457fed4f164b8e","bdp_trlrn","Wed Mar 15 2023 19:24:06 GMT-0700 (Pacific Daylight Time)","680839","Untrustworthy,Trustworthy","","1805","","","","rating","","trustrating_stim/white_00898_960530_fa_edt.bmp","5","","","","","","","","","","",""
"image-keyboard-response","104","138138","0.0-6.0-2.49","61086469e5457fed4f164b8e","bdp_trlrn","Wed Mar 15 2023 19:24:06 GMT-0700 (Pacific Daylight Time)","680839","Untrustworthy,Trustworthy","","null","","","","ratingFB","","trustrating_stim/white_00898_960530_fa_edt.bmp","null","","","","","","","","","","",""
"image-keyboard-response","105","141694","0.0-6.0-1.50","61086469e5457fed4f164b8e","bdp_trlrn","Wed Mar 15 2023 19:24:06 GMT-0700 (Pacific Daylight Time)","680839","Untrustworthy,Trustworthy","","3453","","","","rating","","trustrating_stim/white_00757_941201_fa_edt.bmp","3","","","","","","","","","","",""
"image-keyboard-response","106","141895","0.0-6.0-2.50","61086469e5457fed4f164b8e","bdp_trlrn","Wed Mar 15 2023 19:24:06 GMT-0700 (Pacific Daylight Time)","680839","Untrustworthy,Trustworthy","","null","","","","ratingFB","","trustrating_stim/white_00757_941201_fa_edt.bmp","null","","","","","","","","","","",""
"image-keyboard-response","107","143247","0.0-6.0-1.51","61086469e5457fed4f164b8e","bdp_trlrn","Wed Mar 15 2023 19:24:06 GMT-0700 (Pacific Daylight Time)","680839","Untrustworthy,Trustworthy","","1250","","","","rating","","trustrating_stim/white_mw048.bmp","2","","","","","","","","","","",""
"image-keyboard-response","108","143448","0.0-6.0-2.51","61086469e5457fed4f164b8e","bdp_trlrn","Wed Mar 15 2023 19:24:06 GMT-0700 (Pacific Daylight Time)","680839","Untrustworthy,Trustworthy","","null","","","","ratingFB","","trustrating_stim/white_mw048.bmp","null","","","","","","","","","","",""
"image-keyboard-response","109","144403","0.0-6.0-1.52","61086469e5457fed4f164b8e","bdp_trlrn","Wed Mar 15 2023 19:24:06 GMT-0700 (Pacific Daylight Time)","680839","Untrustworthy,Trustworthy","","853","","","","rating","","trustrating_stim/white_00109_931230_fa_edt.bmp","3","","","","","","","","","","",""
"image-keyboard-response","110","144604","0.0-6.0-2.52","61086469e5457fed4f164b8e","bdp_trlrn","Wed Mar 15 2023 19:24:06 GMT-0700 (Pacific Daylight Time)","680839","Untrustworthy,Trustworthy","","null","","","","ratingFB","","trustrating_stim/white_00109_931230_fa_edt.bmp","null","","","","","","","","","","",""
"image-keyboard-response","111","146585","0.0-6.0-1.53","61086469e5457fed4f164b8e","bdp_trlrn","Wed Mar 15 2023 19:24:06 GMT-0700 (Pacific Daylight Time)","680839","Untrustworthy,Trustworthy","","1879","","","","rating","","trustrating_stim/white_00223_940128_fb_edt.bmp","4","","","","","","","","","","",""
"image-keyboard-response","112","146786","0.0-6.0-2.53","61086469e5457fed4f164b8e","bdp_trlrn","Wed Mar 15 2023 19:24:06 GMT-0700 (Pacific Daylight Time)","680839","Untrustworthy,Trustworthy","","null","","","","ratingFB","","trustrating_stim/white_00223_940128_fb_edt.bmp","null","","","","","","","","","","",""
"image-keyboard-response","113","149173","0.0-6.0-1.54","61086469e5457fed4f164b8e","bdp_trlrn","Wed Mar 15 2023 19:24:06 GMT-0700 (Pacific Daylight Time)","680839","Untrustworthy,Trustworthy","","2284","","","","rating","","trustrating_stim/white_00120_931230_fa_edt.bmp","5","","","","","","","","","","",""
"image-keyboard-response","114","149374","0.0-6.0-2.54","61086469e5457fed4f164b8e","bdp_trlrn","Wed Mar 15 2023 19:24:06 GMT-0700 (Pacific Daylight Time)","680839","Untrustworthy,Trustworthy","","null","","","","ratingFB","","trustrating_stim/white_00120_931230_fa_edt.bmp","null","","","","","","","","","","",""
"image-keyboard-response","115","151127","0.0-6.0-1.55","61086469e5457fed4f164b8e","bdp_trlrn","Wed Mar 15 2023 19:24:06 GMT-0700 (Pacific Daylight Time)","680839","Untrustworthy,Trustworthy","","1651","","","","rating","","trustrating_stim/white_mw046.bmp","4","","","","","","","","","","",""
"image-keyboard-response","116","151328","0.0-6.0-2.55","61086469e5457fed4f164b8e","bdp_trlrn","Wed Mar 15 2023 19:24:06 GMT-0700 (Pacific Daylight Time)","680839","Untrustworthy,Trustworthy","","null","","","","ratingFB","","trustrating_stim/white_mw046.bmp","null","","","","","","","","","","",""
"image-keyboard-response","117","152895","0.0-6.0-1.56","61086469e5457fed4f164b8e","bdp_trlrn","Wed Mar 15 2023 19:24:06 GMT-0700 (Pacific Daylight Time)","680839","Untrustworthy,Trustworthy","","1465","","","","rating","","trustrating_stim/white_mw097.bmp","3","","","","","","","","","","",""
"image-keyboard-response","118","153096","0.0-6.0-2.56","61086469e5457fed4f164b8e","bdp_trlrn","Wed Mar 15 2023 19:24:06 GMT-0700 (Pacific Daylight Time)","680839","Untrustworthy,Trustworthy","","null","","","","ratingFB","","trustrating_stim/white_mw097.bmp","null","","","","","","","","","","",""
"image-keyboard-response","119","154754","0.0-6.0-1.57","61086469e5457fed4f164b8e","bdp_trlrn","Wed Mar 15 2023 19:24:06 GMT-0700 (Pacific Daylight Time)","680839","Untrustworthy,Trustworthy","","1555","","","","rating","","trustrating_stim/white_00299_940422_fa_edt.bmp","4","","","","","","","","","","",""
"image-keyboard-response","120","154954","0.0-6.0-2.57","61086469e5457fed4f164b8e","bdp_trlrn","Wed Mar 15 2023 19:24:06 GMT-0700 (Pacific Daylight Time)","680839","Untrustworthy,Trustworthy","","null","","","","ratingFB","","trustrating_stim/white_00299_940422_fa_edt.bmp","null","","","","","","","","","","",""
"image-keyboard-response","121","156413","0.0-6.0-1.58","61086469e5457fed4f164b8e","bdp_trlrn","Wed Mar 15 2023 19:24:06 GMT-0700 (Pacific Daylight Time)","680839","Untrustworthy,Trustworthy","","1355","","","","rating","","trustrating_stim/white_00785_941205_fb_edt.bmp","2","","","","","","","","","","",""
"image-keyboard-response","122","156614","0.0-6.0-2.58","61086469e5457fed4f164b8e","bdp_trlrn","Wed Mar 15 2023 19:24:06 GMT-0700 (Pacific Daylight Time)","680839","Untrustworthy,Trustworthy","","null","","","","ratingFB","","trustrating_stim/white_00785_941205_fb_edt.bmp","null","","","","","","","","","","",""
"image-keyboard-response","123","157811","0.0-6.0-1.59","61086469e5457fed4f164b8e","bdp_trlrn","Wed Mar 15 2023 19:24:06 GMT-0700 (Pacific Daylight Time)","680839","Untrustworthy,Trustworthy","","1093","","","","rating","","trustrating_stim/white_mw066.bmp","3","","","","","","","","","","",""
"image-keyboard-response","124","158012","0.0-6.0-2.59","61086469e5457fed4f164b8e","bdp_trlrn","Wed Mar 15 2023 19:24:06 GMT-0700 (Pacific Daylight Time)","680839","Untrustworthy,Trustworthy","","null","","","","ratingFB","","trustrating_stim/white_mw066.bmp","null","","","","","","","","","","",""
"instructions","125","159545","0.0-7.0","61086469e5457fed4f164b8e","bdp_trlrn","Wed Mar 15 2023 19:24:06 GMT-0700 (Pacific Daylight Time)","680839","Untrustworthy,Trustworthy","[{""page_index"":0,""viewing_time"":1432}]","1432","","","","","","","","","","","","","","","","","",""
"instructions","126","280665","0.0-8.0","61086469e5457fed4f164b8e","bdp_trlrn","Wed Mar 15 2023 19:24:06 GMT-0700 (Pacific Daylight Time)","680839","Untrustworthy,Trustworthy","[{""page_index"":0,""viewing_time"":27246},{""page_index"":1,""viewing_time"":20194},{""page_index"":2,""viewing_time"":1533},{""page_index"":3,""viewing_time"":14902},{""page_index"":4,""viewing_time"":4671},{""page_index"":5,""viewing_time"":17576},{""page_index"":6,""viewing_time"":28121},{""page_index"":7,""viewing_time"":6775}]","121018","","","","","","","","","","","","","","","","","",""
"html-keyboard-response","127","287700","0.0-9.0","61086469e5457fed4f164b8e","bdp_trlrn","Wed Mar 15 2023 19:24:06 GMT-0700 (Pacific Daylight Time)","680839","Untrustworthy,Trustworthy","","7034","","","","","","<div class='header' style='text-align:left; position: absolute; top: 5%; left: 5%;'><small>Task 3 of 5</small></div><div class='instruxDiv'><p><strong>1) What is the minimum number of points you can choose to send to your partner?</strong></p><p>a) 0</p><p>b) 1</p><p>c) 5</p>","B","","","","","","","","","","",""
"html-keyboard-response","128","289703","0.0-10.0","61086469e5457fed4f164b8e","bdp_trlrn","Wed Mar 15 2023 19:24:06 GMT-0700 (Pacific Daylight Time)","680839","Untrustworthy,Trustworthy","","1902","","","","","","<div class='header' style='text-align:left; position: absolute; top: 5%; left: 5%;'><small>Task 3 of 5</small></div><div class='instruxDiv'><p><strong>1) What is the minimum number of points you can choose to send to your partner?</strong></p><p>a) 0</p><p style='color:#00FF00'>b) 1</p><p>c) 5</p><h3 style='color:#00FF00'>Correct!</h3><h3 class='center-content'>The correct response is b).</h3><h3 class='center-content'>The minimum number of points you can choose to send to your partner is 1 point.</h3><p><em>Press SPACEBAR to continue</em></p></div>"," ","","","","","","","","","","",""
"html-keyboard-response","129","294479","0.0-11.0","61086469e5457fed4f164b8e","bdp_trlrn","Wed Mar 15 2023 19:24:06 GMT-0700 (Pacific Daylight Time)","680839","Untrustworthy,Trustworthy","","4674","","","","","","<div class='header' style='text-align:left; position: absolute; top: 5%; left: 5%;'><small>Task 3 of 5</small></div><div class='instruxDiv'><p><strong>2) What is the maximum number of points you can choose to send to your partner?</strong></p><p>a) 8</p><p>b) 5</p><p>c) 3</p>","B","","","","","","","","","","",""
"html-keyboard-response","130","295044","0.0-12.0","61086469e5457fed4f164b8e","bdp_trlrn","Wed Mar 15 2023 19:24:06 GMT-0700 (Pacific Daylight Time)","680839","Untrustworthy,Trustworthy","","464","","","","","","<div class='header' style='text-align:left; position: absolute; top: 5%; left: 5%;'><small>Task 3 of 5</small></div><div class='instruxDiv'><p><strong>2) What is the maximum number of points you can choose to send to your partner?</strong></p><p>a) 8</p><p style='color:#00FF00'>b) 5</p><p>c) 3</p><h3 style='color:#00FF00'>Correct!</h3><h3 class='center-content'>The correct response is b).</h3><h3 class='center-content'>The maximum number of points you can choose to send to your partner is 5 points.</h3><p><em>Press SPACEBAR to continue</em></p></div>"," ","","","","","","","","","","",""
"html-keyboard-response","131","297741","0.0-13.0","61086469e5457fed4f164b8e","bdp_trlrn","Wed Mar 15 2023 19:24:06 GMT-0700 (Pacific Daylight Time)","680839","Untrustworthy,Trustworthy","","2597","","","","","","<div class='header' style='text-align:left; position: absolute; top: 5%; left: 5%;'><small>Task 3 of 5</small></div><div class='instruxDiv'><p><strong>3) What happens to the amount of points you send to your partner?</strong></p><p>a) Nothing</p><p>b) It doubles</p><p>c) It quadruples</p>","C","","","","","","","","","","",""
"html-keyboard-response","132","298361","0.0-14.0","61086469e5457fed4f164b8e","bdp_trlrn","Wed Mar 15 2023 19:24:06 GMT-0700 (Pacific Daylight Time)","680839","Untrustworthy,Trustworthy","","519","","","","","","<div class='header' style='text-align:left; position: absolute; top: 5%; left: 5%;'><small>Task 3 of 5</small></div><div class='instruxDiv'><p><strong>3) What happens to the amount of points you send to your partner?</strong></p><p>a) Nothing</p><p>b) It doubles</p><p style='color:#00FF00'>c) It quadruples</p><h3 style='color:#00FF00'>Correct!</h3><h3 class='center-content'>The correct response is c).</h3><h3 class='center-content'>The amount of points you send to your partner quadruples.</h3><p><em>Press SPACEBAR to continue</em></p></div>"," ","","","","","","","","","","",""
"html-keyboard-response","133","349349","0.0-15.0","61086469e5457fed4f164b8e","bdp_trlrn","Wed Mar 15 2023 19:24:06 GMT-0700 (Pacific Daylight Time)","680839","Untrustworthy,Trustworthy","","50887","","","","","","<div class='header' style='text-align:left; position: absolute; top: 5%; left: 5%;'><small>Task 3 of 5</small></div><div class='instruxDiv'><p><strong>4) If you decided to share 4 out of 5 points with your partner, and they decided to share half of the amount they received with you, how many points would you receive back from them on this round?</strong></p><p>a) 16</p><p>b) 0</p><p>c) 8</p>","C","","","","","","","","","","",""
"html-keyboard-response","134","366305","0.0-16.0","61086469e5457fed4f164b8e","bdp_trlrn","Wed Mar 15 2023 19:24:06 GMT-0700 (Pacific Daylight Time)","680839","Untrustworthy,Trustworthy","","16853","","","","","","<div class='header' style='text-align:left; position: absolute; top: 5%; left: 5%;'><small>Task 3 of 5</small></div><div class='instruxDiv'><p><strong>4) If you decided to share 4 out of 5 points with your partner, and they decided to share half of the amount they received with you, how many points would you receive back from them on this round?</strong></p><p>a) 16</p><p>b) 0</p><p style='color:#00FF00'>c) 8</p><h3 style='color:#00FF00'>Correct!</h3><h3 class='center-content'>The correct response is c).</h3><h3 class='center-content'>If you shared 4 out of 5 points with your partner and they decided to share half of the amount they received with you, you would receive 8 points back (i.e. (4 x 4)/2 = 8).</h3><p><em>Press SPACEBAR to continue</em></p></div>"," ","","","","","","","","","","",""
"html-keyboard-response","135","371408","0.0-17.0","61086469e5457fed4f164b8e","bdp_trlrn","Wed Mar 15 2023 19:24:06 GMT-0700 (Pacific Daylight Time)","680839","Untrustworthy,Trustworthy","","null","","","","","","<div class='header' style='text-align:left; position: absolute; top: 5%; left: 5%;'><small>Task 3 of 5</small></div><div class='instruxDiv'><p>Thank you for completing the quiz<p>These are the actual partners you will be interacting with in the next block:<p><div class='tc' align='center'><img class='introPic' src='trustrating_stim/white_00340_940422_fa_edt.bmp'><br><strong>Jordan</strong></div><div class='bl' align='center'><img class='introPic' src='trustrating_stim/white_mw053.bmp'><br><strong>Jonathan</strong></div><div class='br' align='center'><img class='introPic' src='trustrating_stim/white_00120_931230_fa_edt.bmp'><br><strong>Sean</strong></div></div><p>Across <strong>66 rounds</strong> you will interact with each partner <strong>22 times</strong> (in random order).<p style='align:center; color:white'><font <em>Press SPACEBAR to continue</em></p>","null","","","","","","","","","","",""
"instructions","136","383426","0.0-18.0","61086469e5457fed4f164b8e","bdp_trlrn","Wed Mar 15 2023 19:24:06 GMT-0700 (Pacific Daylight Time)","680839","Untrustworthy,Trustworthy","[{""page_index"":0,""viewing_time"":9720},{""page_index"":1,""viewing_time"":2298}]","12018","","","","","","","","","","","","","","","","","",""
"html-keyboard-response","137","388857","0.0-19.0-1.0","61086469e5457fed4f164b8e","bdp_trlrn","Wed Mar 15 2023 19:24:06 GMT-0700 (Pacific Daylight Time)","680839","Untrustworthy,Trustworthy","","5328","","","","decision","","<div class='trialDiv'><img src='trustrating_stim/white_00120_931230_fa_edt.bmp'><br><font class='baseline'><strong>Sean</strong><p>Choose number of points to send.</font><div class='respPicDiv'><img src='img/responseButtonOffersNo0L.png' class='respPic'></div></div>","3","1","Sean","9","Kept","0.2,0.65","11","0.2","trustrating_stim/white_00120_931230_fa_edt.bmp","5","5","1"
"html-keyboard-response","138","389109","0.0-19.0-2.0","61086469e5457fed4f164b8e","bdp_trlrn","Wed Mar 15 2023 19:24:06 GMT-0700 (Pacific Daylight Time)","680839","Untrustworthy,Trustworthy","","null","","","","decisionFB","","<div class='trialDiv'><img src='trustrating_stim/white_00120_931230_fa_edt.bmp'><br><font class='baseline'><strong>Sean</strong><p>Choose number of points to send.</font><div class='respPicDiv'><img src='img/responseButtonOffersNo0L3.png' class='respPic'></div></div>","null","1","Sean","9","Kept","0.2,0.65","11","0.2","trustrating_stim/white_00120_931230_fa_edt.bmp","5","2","1"
"html-keyboard-response","139","390111","0.0-19.0-3.0","61086469e5457fed4f164b8e","bdp_trlrn","Wed Mar 15 2023 19:24:06 GMT-0700 (Pacific Daylight Time)","680839","Untrustworthy,Trustworthy","","null","","","","feedback","","<div class='trialDiv'><img src='trustrating_stim/white_00120_931230_fa_edt.bmp'><br><font class='baseline'><strong>Sean</strong><p>Received: <strong>12</strong></font> &nbsp; &nbsp; &nbsp; &nbsp; &nbsp; &nbsp;<font class='negOutcome'>Shared back: <strong>0</strong></font></font><div class='respPicDiv'><img src='img/responseButtonOffersNo0_wht.png' class='respPic'></div></div>","null","1","Sean","9","Kept","0.2,0.65","11","0.2","trustrating_stim/white_00120_931230_fa_edt.bmp","5","2","1"
"html-keyboard-response","140","393249","0.0-19.0-1.1","61086469e5457fed4f164b8e","bdp_trlrn","Wed Mar 15 2023 19:24:06 GMT-0700 (Pacific Daylight Time)","680839","Untrustworthy,Trustworthy","","3136","","","","decision","","<div class='trialDiv'><img src='trustrating_stim/white_mw053.bmp'><br><font class='baseline'><strong>Jonathan</strong><p>Choose number of points to send.</font><div class='respPicDiv'><img src='img/responseButtonOffersNo0L.png' class='respPic'></div></div>","3","1","Jonathan","4","Shared","0.8,0.35","13","0.8","trustrating_stim/white_mw053.bmp","3.5","7","2"
"html-keyboard-response","141","393502","0.0-19.0-2.1","61086469e5457fed4f164b8e","bdp_trlrn","Wed Mar 15 2023 19:24:06 GMT-0700 (Pacific Daylight Time)","680839","Untrustworthy,Trustworthy","","null","","","","decisionFB","","<div class='trialDiv'><img src='trustrating_stim/white_mw053.bmp'><br><font class='baseline'><strong>Jonathan</strong><p>Choose number of points to send.</font><div class='respPicDiv'><img src='img/responseButtonOffersNo0L3.png' class='respPic'></div></div>","null","1","Jonathan","4","Shared","0.8,0.35","13","0.8","trustrating_stim/white_mw053.bmp","3.5","4","2"
"html-keyboard-response","142","394503","0.0-19.0-3.1","61086469e5457fed4f164b8e","bdp_trlrn","Wed Mar 15 2023 19:24:06 GMT-0700 (Pacific Daylight Time)","680839","Untrustworthy,Trustworthy","","null","","","","feedback","","<div class='trialDiv'><img src='trustrating_stim/white_mw053.bmp'><br><font class='baseline'><strong>Jonathan</strong><p>Received: <strong>12</strong></font> &nbsp; &nbsp; &nbsp; &nbsp; &nbsp; &nbsp;<font class='posOutcome'>Shared back: <strong>6</strong></font></font><div class='respPicDiv'><img src='img/responseButtonOffersNo0_wht.png' class='respPic'></div></div>","null","1","Jonathan","4","Shared","0.8,0.35","13","0.8","trustrating_stim/white_mw053.bmp","3.5","10","2"
"html-keyboard-response","143","396785","0.0-19.0-1.2","61086469e5457fed4f164b8e","bdp_trlrn","Wed Mar 15 2023 19:24:06 GMT-0700 (Pacific Daylight Time)","680839","Untrustworthy,Trustworthy","","2281","","","","decision","","<div class='trialDiv'><img src='trustrating_stim/white_00340_940422_fa_edt.bmp'><br><font class='baseline'><strong>Jordan</strong><p>Choose number of points to send.</font><div class='respPicDiv'><img src='img/responseButtonOffersNo0L.png' class='respPic'></div></div>","3","1","Jordan","2","Shared","0.8,0.2","11","0.8","trustrating_stim/white_00340_940422_fa_edt.bmp","2","15","3"
"html-keyboard-response","144","397036","0.0-19.0-2.2","61086469e5457fed4f164b8e","bdp_trlrn","Wed Mar 15 2023 19:24:06 GMT-0700 (Pacific Daylight Time)","680839","Untrustworthy,Trustworthy","","null","","","","decisionFB","","<div class='trialDiv'><img src='trustrating_stim/white_00340_940422_fa_edt.bmp'><br><font class='baseline'><strong>Jordan</strong><p>Choose number of points to send.</font><div class='respPicDiv'><img src='img/responseButtonOffersNo0L3.png' class='respPic'></div></div>","null","1","Jordan","2","Shared","0.8,0.2","11","0.8","trustrating_stim/white_00340_940422_fa_edt.bmp","2","12","3"
"html-keyboard-response","145","398038","0.0-19.0-3.2","61086469e5457fed4f164b8e","bdp_trlrn","Wed Mar 15 2023 19:24:06 GMT-0700 (Pacific Daylight Time)","680839","Untrustworthy,Trustworthy","","null","","","","feedback","","<div class='trialDiv'><img src='trustrating_stim/white_00340_940422_fa_edt.bmp'><br><font class='baseline'><strong>Jordan</strong><p>Received: <strong>12</strong></font> &nbsp; &nbsp; &nbsp; &nbsp; &nbsp; &nbsp;<font class='posOutcome'>Shared back: <strong>6</strong></font></font><div class='respPicDiv'><img src='img/responseButtonOffersNo0_wht.png' class='respPic'></div></div>","null","1","Jordan","2","Shared","0.8,0.2","11","0.8","trustrating_stim/white_00340_940422_fa_edt.bmp","2","18","3"
"html-keyboard-response","146","400851","0.0-19.0-1.3","61086469e5457fed4f164b8e","bdp_trlrn","Wed Mar 15 2023 19:24:06 GMT-0700 (Pacific Daylight Time)","680839","Untrustworthy,Trustworthy","","2812","","","","decision","","<div class='trialDiv'><img src='trustrating_stim/white_mw053.bmp'><br><font class='baseline'><strong>Jonathan</strong><p>Choose number of points to send.</font><div class='respPicDiv'><img src='img/responseButtonOffersNo0L.png' class='respPic'></div></div>","3","2","Jonathan","4","Shared","0.8,0.35","13","0.8","trustrating_stim/white_mw053.bmp","3.5","23","4"
"html-keyboard-response","147","401103","0.0-19.0-2.3","61086469e5457fed4f164b8e","bdp_trlrn","Wed Mar 15 2023 19:24:06 GMT-0700 (Pacific Daylight Time)","680839","Untrustworthy,Trustworthy","","null","","","","decisionFB","","<div class='trialDiv'><img src='trustrating_stim/white_mw053.bmp'><br><font class='baseline'><strong>Jonathan</strong><p>Choose number of points to send.</font><div class='respPicDiv'><img src='img/responseButtonOffersNo0L3.png' class='respPic'></div></div>","null","2","Jonathan","4","Shared","0.8,0.35","13","0.8","trustrating_stim/white_mw053.bmp","3.5","20","4"
"html-keyboard-response","148","402105","0.0-19.0-3.3","61086469e5457fed4f164b8e","bdp_trlrn","Wed Mar 15 2023 19:24:06 GMT-0700 (Pacific Daylight Time)","680839","Untrustworthy,Trustworthy","","null","","","","feedback","","<div class='trialDiv'><img src='trustrating_stim/white_mw053.bmp'><br><font class='baseline'><strong>Jonathan</strong><p>Received: <strong>12</strong></font> &nbsp; &nbsp; &nbsp; &nbsp; &nbsp; &nbsp;<font class='posOutcome'>Shared back: <strong>6</strong></font></font><div class='respPicDiv'><img src='img/responseButtonOffersNo0_wht.png' class='respPic'></div></div>","null","2","Jonathan","4","Shared","0.8,0.35","13","0.8","trustrating_stim/white_mw053.bmp","3.5","26","4"
"html-keyboard-response","149","404913","0.0-19.0-1.4","61086469e5457fed4f164b8e","bdp_trlrn","Wed Mar 15 2023 19:24:06 GMT-0700 (Pacific Daylight Time)","680839","Untrustworthy,Trustworthy","","2807","","","","decision","","<div class='trialDiv'><img src='trustrating_stim/white_00120_931230_fa_edt.bmp'><br><font class='baseline'><strong>Sean</strong><p>Choose number of points to send.</font><div class='respPicDiv'><img src='img/responseButtonOffersNo0L.png' class='respPic'></div></div>","3","2","Sean","9","Kept","0.2,0.65","11","0.2","trustrating_stim/white_00120_931230_fa_edt.bmp","5","31","5"
"html-keyboard-response","150","405165","0.0-19.0-2.4","61086469e5457fed4f164b8e","bdp_trlrn","Wed Mar 15 2023 19:24:06 GMT-0700 (Pacific Daylight Time)","680839","Untrustworthy,Trustworthy","","null","","","","decisionFB","","<div class='trialDiv'><img src='trustrating_stim/white_00120_931230_fa_edt.bmp'><br><font class='baseline'><strong>Sean</strong><p>Choose number of points to send.</font><div class='respPicDiv'><img src='img/responseButtonOffersNo0L3.png' class='respPic'></div></div>","null","2","Sean","9","Kept","0.2,0.65","11","0.2","trustrating_stim/white_00120_931230_fa_edt.bmp","5","28","5"
"html-keyboard-response","151","406167","0.0-19.0-3.4","61086469e5457fed4f164b8e","bdp_trlrn","Wed Mar 15 2023 19:24:06 GMT-0700 (Pacific Daylight Time)","680839","Untrustworthy,Trustworthy","","null","","","","feedback","","<div class='trialDiv'><img src='trustrating_stim/white_00120_931230_fa_edt.bmp'><br><font class='baseline'><strong>Sean</strong><p>Received: <strong>12</strong></font> &nbsp; &nbsp; &nbsp; &nbsp; &nbsp; &nbsp;<font class='negOutcome'>Shared back: <strong>0</strong></font></font><div class='respPicDiv'><img src='img/responseButtonOffersNo0_wht.png' class='respPic'></div></div>","null","2","Sean","9","Kept","0.2,0.65","11","0.2","trustrating_stim/white_00120_931230_fa_edt.bmp","5","28","5"
"html-keyboard-response","152","407691","0.0-19.0-1.5","61086469e5457fed4f164b8e","bdp_trlrn","Wed Mar 15 2023 19:24:06 GMT-0700 (Pacific Daylight Time)","680839","Untrustworthy,Trustworthy","","1523","","","","decision","","<div class='trialDiv'><img src='trustrating_stim/white_00340_940422_fa_edt.bmp'><br><font class='baseline'><strong>Jordan</strong><p>Choose number of points to send.</font><div class='respPicDiv'><img src='img/responseButtonOffersNo0L.png' class='respPic'></div></div>","4","2","Jordan","2","Shared","0.8,0.2","11","0.8","trustrating_stim/white_00340_940422_fa_edt.bmp","2","33","6"
"html-keyboard-response","153","407943","0.0-19.0-2.5","61086469e5457fed4f164b8e","bdp_trlrn","Wed Mar 15 2023 19:24:06 GMT-0700 (Pacific Daylight Time)","680839","Untrustworthy,Trustworthy","","null","","","","decisionFB","","<div class='trialDiv'><img src='trustrating_stim/white_00340_940422_fa_edt.bmp'><br><font class='baseline'><strong>Jordan</strong><p>Choose number of points to send.</font><div class='respPicDiv'><img src='img/responseButtonOffersNo0L4.png' class='respPic'></div></div>","null","2","Jordan","2","Shared","0.8,0.2","11","0.8","trustrating_stim/white_00340_940422_fa_edt.bmp","2","29","6"
"html-keyboard-response","154","408946","0.0-19.0-3.5","61086469e5457fed4f164b8e","bdp_trlrn","Wed Mar 15 2023 19:24:06 GMT-0700 (Pacific Daylight Time)","680839","Untrustworthy,Trustworthy","","null","","","","feedback","","<div class='trialDiv'><img src='trustrating_stim/white_00340_940422_fa_edt.bmp'><br><font class='baseline'><strong>Jordan</strong><p>Received: <strong>16</strong></font> &nbsp; &nbsp; &nbsp; &nbsp; &nbsp; &nbsp;<font class='posOutcome'>Shared back: <strong>8</strong></font></font><div class='respPicDiv'><img src='img/responseButtonOffersNo0_wht.png' class='respPic'></div></div>","null","2","Jordan","2","Shared","0.8,0.2","11","0.8","trustrating_stim/white_00340_940422_fa_edt.bmp","2","37","6"
"html-keyboard-response","155","410798","0.0-19.0-1.6","61086469e5457fed4f164b8e","bdp_trlrn","Wed Mar 15 2023 19:24:06 GMT-0700 (Pacific Daylight Time)","680839","Untrustworthy,Trustworthy","","1852","","","","decision","","<div class='trialDiv'><img src='trustrating_stim/white_mw053.bmp'><br><font class='baseline'><strong>Jonathan</strong><p>Choose number of points to send.</font><div class='respPicDiv'><img src='img/responseButtonOffersNo0L.png' class='respPic'></div></div>","5","3","Jonathan","4","Shared","0.8,0.35","13","0.8","trustrating_stim/white_mw053.bmp","3.5","42","7"
"html-keyboard-response","156","411050","0.0-19.0-2.6","61086469e5457fed4f164b8e","bdp_trlrn","Wed Mar 15 2023 19:24:06 GMT-0700 (Pacific Daylight Time)","680839","Untrustworthy,Trustworthy","","null","","","","decisionFB","","<div class='trialDiv'><img src='trustrating_stim/white_mw053.bmp'><br><font class='baseline'><strong>Jonathan</strong><p>Choose number of points to send.</font><div class='respPicDiv'><img src='img/responseButtonOffersNo0L5.png' class='respPic'></div></div>","null","3","Jonathan","4","Shared","0.8,0.35","13","0.8","trustrating_stim/white_mw053.bmp","3.5","37","7"
"html-keyboard-response","157","412052","0.0-19.0-3.6","61086469e5457fed4f164b8e","bdp_trlrn","Wed Mar 15 2023 19:24:06 GMT-0700 (Pacific Daylight Time)","680839","Untrustworthy,Trustworthy","","null","","","","feedback","","<div class='trialDiv'><img src='trustrating_stim/white_mw053.bmp'><br><font class='baseline'><strong>Jonathan</strong><p>Received: <strong>20</strong></font> &nbsp; &nbsp; &nbsp; &nbsp; &nbsp; &nbsp;<font class='posOutcome'>Shared back: <strong>10</strong></font></font><div class='respPicDiv'><img src='img/responseButtonOffersNo0_wht.png' class='respPic'></div></div>","null","3","Jonathan","4","Shared","0.8,0.35","13","0.8","trustrating_stim/white_mw053.bmp","3.5","47","7"
"html-keyboard-response","158","414095","0.0-19.0-1.7","61086469e5457fed4f164b8e","bdp_trlrn","Wed Mar 15 2023 19:24:06 GMT-0700 (Pacific Daylight Time)","680839","Untrustworthy,Trustworthy","","2043","","","","decision","","<div class='trialDiv'><img src='trustrating_stim/white_00120_931230_fa_edt.bmp'><br><font class='baseline'><strong>Sean</strong><p>Choose number of points to send.</font><div class='respPicDiv'><img src='img/responseButtonOffersNo0L.png' class='respPic'></div></div>","4","3","Sean","9","Kept","0.2,0.65","11","0.2","trustrating_stim/white_00120_931230_fa_edt.bmp","5","52","8"
"html-keyboard-response","159","414347","0.0-19.0-2.7","61086469e5457fed4f164b8e","bdp_trlrn","Wed Mar 15 2023 19:24:06 GMT-0700 (Pacific Daylight Time)","680839","Untrustworthy,Trustworthy","","null","","","","decisionFB","","<div class='trialDiv'><img src='trustrating_stim/white_00120_931230_fa_edt.bmp'><br><font class='baseline'><strong>Sean</strong><p>Choose number of points to send.</font><div class='respPicDiv'><img src='img/responseButtonOffersNo0L4.png' class='respPic'></div></div>","null","3","Sean","9","Kept","0.2,0.65","11","0.2","trustrating_stim/white_00120_931230_fa_edt.bmp","5","48","8"
"html-keyboard-response","160","415350","0.0-19.0-3.7","61086469e5457fed4f164b8e","bdp_trlrn","Wed Mar 15 2023 19:24:06 GMT-0700 (Pacific Daylight Time)","680839","Untrustworthy,Trustworthy","","null","","","","feedback","","<div class='trialDiv'><img src='trustrating_stim/white_00120_931230_fa_edt.bmp'><br><font class='baseline'><strong>Sean</strong><p>Received: <strong>16</strong></font> &nbsp; &nbsp; &nbsp; &nbsp; &nbsp; &nbsp;<font class='negOutcome'>Shared back: <strong>0</strong></font></font><div class='respPicDiv'><img src='img/responseButtonOffersNo0_wht.png' class='respPic'></div></div>","null","3","Sean","9","Kept","0.2,0.65","11","0.2","trustrating_stim/white_00120_931230_fa_edt.bmp","5","48","8"
"html-keyboard-response","161","417128","0.0-19.0-1.8","61086469e5457fed4f164b8e","bdp_trlrn","Wed Mar 15 2023 19:24:06 GMT-0700 (Pacific Daylight Time)","680839","Untrustworthy,Trustworthy","","1777","","","","decision","","<div class='trialDiv'><img src='trustrating_stim/white_00340_940422_fa_edt.bmp'><br><font class='baseline'><strong>Jordan</strong><p>Choose number of points to send.</font><div class='respPicDiv'><img src='img/responseButtonOffersNo0L.png' class='respPic'></div></div>","5","3","Jordan","2","Kept","0.8,0.2","11","0.8","trustrating_stim/white_00340_940422_fa_edt.bmp","2","53","9"
"html-keyboard-response","162","417379","0.0-19.0-2.8","61086469e5457fed4f164b8e","bdp_trlrn","Wed Mar 15 2023 19:24:06 GMT-0700 (Pacific Daylight Time)","680839","Untrustworthy,Trustworthy","","null","","","","decisionFB","","<div class='trialDiv'><img src='trustrating_stim/white_00340_940422_fa_edt.bmp'><br><font class='baseline'><strong>Jordan</strong><p>Choose number of points to send.</font><div class='respPicDiv'><img src='img/responseButtonOffersNo0L5.png' class='respPic'></div></div>","null","3","Jordan","2","Kept","0.8,0.2","11","0.8","trustrating_stim/white_00340_940422_fa_edt.bmp","2","48","9"
"html-keyboard-response","163","418381","0.0-19.0-3.8","61086469e5457fed4f164b8e","bdp_trlrn","Wed Mar 15 2023 19:24:06 GMT-0700 (Pacific Daylight Time)","680839","Untrustworthy,Trustworthy","","null","","","","feedback","","<div class='trialDiv'><img src='trustrating_stim/white_00340_940422_fa_edt.bmp'><br><font class='baseline'><strong>Jordan</strong><p>Received: <strong>20</strong></font> &nbsp; &nbsp; &nbsp; &nbsp; &nbsp; &nbsp;<font class='negOutcome'>Shared back: <strong>0</strong></font></font><div class='respPicDiv'><img src='img/responseButtonOffersNo0_wht.png' class='respPic'></div></div>","null","3","Jordan","2","Kept","0.8,0.2","11","0.8","trustrating_stim/white_00340_940422_fa_edt.bmp","2","48","9"
"html-keyboard-response","164","419456","0.0-19.0-1.9","61086469e5457fed4f164b8e","bdp_trlrn","Wed Mar 15 2023 19:24:06 GMT-0700 (Pacific Daylight Time)","680839","Untrustworthy,Trustworthy","","1075","","","","decision","","<div class='trialDiv'><img src='trustrating_stim/white_00120_931230_fa_edt.bmp'><br><font class='baseline'><strong>Sean</strong><p>Choose number of points to send.</font><div class='respPicDiv'><img src='img/responseButtonOffersNo0L.png' class='respPic'></div></div>","4","4","Sean","9","Shared","0.2,0.65","11","0.2","trustrating_stim/white_00120_931230_fa_edt.bmp","5","53","10"
"html-keyboard-response","165","419707","0.0-19.0-2.9","61086469e5457fed4f164b8e","bdp_trlrn","Wed Mar 15 2023 19:24:06 GMT-0700 (Pacific Daylight Time)","680839","Untrustworthy,Trustworthy","","null","","","","decisionFB","","<div class='trialDiv'><img src='trustrating_stim/white_00120_931230_fa_edt.bmp'><br><font class='baseline'><strong>Sean</strong><p>Choose number of points to send.</font><div class='respPicDiv'><img src='img/responseButtonOffersNo0L4.png' class='respPic'></div></div>","null","4","Sean","9","Shared","0.2,0.65","11","0.2","trustrating_stim/white_00120_931230_fa_edt.bmp","5","49","10"
"html-keyboard-response","166","420709","0.0-19.0-3.9","61086469e5457fed4f164b8e","bdp_trlrn","Wed Mar 15 2023 19:24:06 GMT-0700 (Pacific Daylight Time)","680839","Untrustworthy,Trustworthy","","null","","","","feedback","","<div class='trialDiv'><img src='trustrating_stim/white_00120_931230_fa_edt.bmp'><br><font class='baseline'><strong>Sean</strong><p>Received: <strong>16</strong></font> &nbsp; &nbsp; &nbsp; &nbsp; &nbsp; &nbsp;<font class='posOutcome'>Shared back: <strong>8</strong></font></font><div class='respPicDiv'><img src='img/responseButtonOffersNo0_wht.png' class='respPic'></div></div>","null","4","Sean","9","Shared","0.2,0.65","11","0.2","trustrating_stim/white_00120_931230_fa_edt.bmp","5","57","10"
"html-keyboard-response","167","421619","0.0-19.0-1.10","61086469e5457fed4f164b8e","bdp_trlrn","Wed Mar 15 2023 19:24:06 GMT-0700 (Pacific Daylight Time)","680839","Untrustworthy,Trustworthy","","908","","","","decision","","<div class='trialDiv'><img src='trustrating_stim/white_00340_940422_fa_edt.bmp'><br><font class='baseline'><strong>Jordan</strong><p>Choose number of points to send.</font><div class='respPicDiv'><img src='img/responseButtonOffersNo0L.png' class='respPic'></div></div>","4","4","Jordan","2","Shared","0.8,0.2","11","0.8","trustrating_stim/white_00340_940422_fa_edt.bmp","2","62","11"
"html-keyboard-response","168","421870","0.0-19.0-2.10","61086469e5457fed4f164b8e","bdp_trlrn","Wed Mar 15 2023 19:24:06 GMT-0700 (Pacific Daylight Time)","680839","Untrustworthy,Trustworthy","","null","","","","decisionFB","","<div class='trialDiv'><img src='trustrating_stim/white_00340_940422_fa_edt.bmp'><br><font class='baseline'><strong>Jordan</strong><p>Choose number of points to send.</font><div class='respPicDiv'><img src='img/responseButtonOffersNo0L4.png' class='respPic'></div></div>","null","4","Jordan","2","Shared","0.8,0.2","11","0.8","trustrating_stim/white_00340_940422_fa_edt.bmp","2","58","11"
"html-keyboard-response","169","422872","0.0-19.0-3.10","61086469e5457fed4f164b8e","bdp_trlrn","Wed Mar 15 2023 19:24:06 GMT-0700 (Pacific Daylight Time)","680839","Untrustworthy,Trustworthy","","null","","","","feedback","","<div class='trialDiv'><img src='trustrating_stim/white_00340_940422_fa_edt.bmp'><br><font class='baseline'><strong>Jordan</strong><p>Received: <strong>16</strong></font> &nbsp; &nbsp; &nbsp; &nbsp; &nbsp; &nbsp;<font class='posOutcome'>Shared back: <strong>8</strong></font></font><div class='respPicDiv'><img src='img/responseButtonOffersNo0_wht.png' class='respPic'></div></div>","null","4","Jordan","2","Shared","0.8,0.2","11","0.8","trustrating_stim/white_00340_940422_fa_edt.bmp","2","66","11"
"html-keyboard-response","170","423242","0.0-19.0-1.11","61086469e5457fed4f164b8e","bdp_trlrn","Wed Mar 15 2023 19:24:06 GMT-0700 (Pacific Daylight Time)","680839","Untrustworthy,Trustworthy","","369","","","","decision","","<div class='trialDiv'><img src='trustrating_stim/white_mw053.bmp'><br><font class='baseline'><strong>Jonathan</strong><p>Choose number of points to send.</font><div class='respPicDiv'><img src='img/responseButtonOffersNo0L.png' class='respPic'></div></div>","3","4","Jonathan","4","Shared","0.8,0.35","13","0.8","trustrating_stim/white_mw053.bmp","3.5","71","12"
"html-keyboard-response","171","423494","0.0-19.0-2.11","61086469e5457fed4f164b8e","bdp_trlrn","Wed Mar 15 2023 19:24:06 GMT-0700 (Pacific Daylight Time)","680839","Untrustworthy,Trustworthy","","null","","","","decisionFB","","<div class='trialDiv'><img src='trustrating_stim/white_mw053.bmp'><br><font class='baseline'><strong>Jonathan</strong><p>Choose number of points to send.</font><div class='respPicDiv'><img src='img/responseButtonOffersNo0L3.png' class='respPic'></div></div>","null","4","Jonathan","4","Shared","0.8,0.35","13","0.8","trustrating_stim/white_mw053.bmp","3.5","68","12"
"html-keyboard-response","172","424496","0.0-19.0-3.11","61086469e5457fed4f164b8e","bdp_trlrn","Wed Mar 15 2023 19:24:06 GMT-0700 (Pacific Daylight Time)","680839","Untrustworthy,Trustworthy","","null","","","","feedback","","<div class='trialDiv'><img src='trustrating_stim/white_mw053.bmp'><br><font class='baseline'><strong>Jonathan</strong><p>Received: <strong>12</strong></font> &nbsp; &nbsp; &nbsp; &nbsp; &nbsp; &nbsp;<font class='posOutcome'>Shared back: <strong>6</strong></font></font><div class='respPicDiv'><img src='img/responseButtonOffersNo0_wht.png' class='respPic'></div></div>","null","4","Jonathan","4","Shared","0.8,0.35","13","0.8","trustrating_stim/white_mw053.bmp","3.5","74","12"
"html-keyboard-response","173","424781","0.0-19.0-1.12","61086469e5457fed4f164b8e","bdp_trlrn","Wed Mar 15 2023 19:24:06 GMT-0700 (Pacific Daylight Time)","680839","Untrustworthy,Trustworthy","","284","","","","decision","","<div class='trialDiv'><img src='trustrating_stim/white_00340_940422_fa_edt.bmp'><br><font class='baseline'><strong>Jordan</strong><p>Choose number of points to send.</font><div class='respPicDiv'><img src='img/responseButtonOffersNo0L.png' class='respPic'></div></div>","5","5","Jordan","2","Shared","0.8,0.2","11","0.8","trustrating_stim/white_00340_940422_fa_edt.bmp","2","79","13"
"html-keyboard-response","174","425032","0.0-19.0-2.12","61086469e5457fed4f164b8e","bdp_trlrn","Wed Mar 15 2023 19:24:06 GMT-0700 (Pacific Daylight Time)","680839","Untrustworthy,Trustworthy","","null","","","","decisionFB","","<div class='trialDiv'><img src='trustrating_stim/white_00340_940422_fa_edt.bmp'><br><font class='baseline'><strong>Jordan</strong><p>Choose number of points to send.</font><div class='respPicDiv'><img src='img/responseButtonOffersNo0L5.png' class='respPic'></div></div>","null","5","Jordan","2","Shared","0.8,0.2","11","0.8","trustrating_stim/white_00340_940422_fa_edt.bmp","2","74","13"
"html-keyboard-response","175","426033","0.0-19.0-3.12","61086469e5457fed4f164b8e","bdp_trlrn","Wed Mar 15 2023 19:24:06 GMT-0700 (Pacific Daylight Time)","680839","Untrustworthy,Trustworthy","","null","","","","feedback","","<div class='trialDiv'><img src='trustrating_stim/white_00340_940422_fa_edt.bmp'><br><font class='baseline'><strong>Jordan</strong><p>Received: <strong>20</strong></font> &nbsp; &nbsp; &nbsp; &nbsp; &nbsp; &nbsp;<font class='posOutcome'>Shared back: <strong>10</strong></font></font><div class='respPicDiv'><img src='img/responseButtonOffersNo0_wht.png' class='respPic'></div></div>","null","5","Jordan","2","Shared","0.8,0.2","11","0.8","trustrating_stim/white_00340_940422_fa_edt.bmp","2","84","13"
"html-keyboard-response","176","426885","0.0-19.0-1.13","61086469e5457fed4f164b8e","bdp_trlrn","Wed Mar 15 2023 19:24:06 GMT-0700 (Pacific Daylight Time)","680839","Untrustworthy,Trustworthy","","852","","","","decision","","<div class='trialDiv'><img src='trustrating_stim/white_mw053.bmp'><br><font class='baseline'><strong>Jonathan</strong><p>Choose number of points to send.</font><div class='respPicDiv'><img src='img/responseButtonOffersNo0L.png' class='respPic'></div></div>","4","5","Jonathan","4","Shared","0.8,0.35","13","0.8","trustrating_stim/white_mw053.bmp","3.5","89","14"
"html-keyboard-response","177","427136","0.0-19.0-2.13","61086469e5457fed4f164b8e","bdp_trlrn","Wed Mar 15 2023 19:24:06 GMT-0700 (Pacific Daylight Time)","680839","Untrustworthy,Trustworthy","","null","","","","decisionFB","","<div class='trialDiv'><img src='trustrating_stim/white_mw053.bmp'><br><font class='baseline'><strong>Jonathan</strong><p>Choose number of points to send.</font><div class='respPicDiv'><img src='img/responseButtonOffersNo0L4.png' class='respPic'></div></div>","null","5","Jonathan","4","Shared","0.8,0.35","13","0.8","trustrating_stim/white_mw053.bmp","3.5","85","14"
"html-keyboard-response","178","428139","0.0-19.0-3.13","61086469e5457fed4f164b8e","bdp_trlrn","Wed Mar 15 2023 19:24:06 GMT-0700 (Pacific Daylight Time)","680839","Untrustworthy,Trustworthy","","null","","","","feedback","","<div class='trialDiv'><img src='trustrating_stim/white_mw053.bmp'><br><font class='baseline'><strong>Jonathan</strong><p>Received: <strong>16</strong></font> &nbsp; &nbsp; &nbsp; &nbsp; &nbsp; &nbsp;<font class='posOutcome'>Shared back: <strong>8</strong></font></font><div class='respPicDiv'><img src='img/responseButtonOffersNo0_wht.png' class='respPic'></div></div>","null","5","Jonathan","4","Shared","0.8,0.35","13","0.8","trustrating_stim/white_mw053.bmp","3.5","93","14"
"html-keyboard-response","179","428328","0.0-19.0-1.14","61086469e5457fed4f164b8e","bdp_trlrn","Wed Mar 15 2023 19:24:06 GMT-0700 (Pacific Daylight Time)","680839","Untrustworthy,Trustworthy","","188","","","","decision","","<div class='trialDiv'><img src='trustrating_stim/white_00120_931230_fa_edt.bmp'><br><font class='baseline'><strong>Sean</strong><p>Choose number of points to send.</font><div class='respPicDiv'><img src='img/responseButtonOffersNo0L.png' class='respPic'></div></div>","5","5","Sean","9","Kept","0.2,0.65","11","0.2","trustrating_stim/white_00120_931230_fa_edt.bmp","5","98","15"
"html-keyboard-response","180","428580","0.0-19.0-2.14","61086469e5457fed4f164b8e","bdp_trlrn","Wed Mar 15 2023 19:24:06 GMT-0700 (Pacific Daylight Time)","680839","Untrustworthy,Trustworthy","","null","","","","decisionFB","","<div class='trialDiv'><img src='trustrating_stim/white_00120_931230_fa_edt.bmp'><br><font class='baseline'><strong>Sean</strong><p>Choose number of points to send.</font><div class='respPicDiv'><img src='img/responseButtonOffersNo0L5.png' class='respPic'></div></div>","null","5","Sean","9","Kept","0.2,0.65","11","0.2","trustrating_stim/white_00120_931230_fa_edt.bmp","5","93","15"
"html-keyboard-response","181","429582","0.0-19.0-3.14","61086469e5457fed4f164b8e","bdp_trlrn","Wed Mar 15 2023 19:24:06 GMT-0700 (Pacific Daylight Time)","680839","Untrustworthy,Trustworthy","","null","","","","feedback","","<div class='trialDiv'><img src='trustrating_stim/white_00120_931230_fa_edt.bmp'><br><font class='baseline'><strong>Sean</strong><p>Received: <strong>20</strong></font> &nbsp; &nbsp; &nbsp; &nbsp; &nbsp; &nbsp;<font class='negOutcome'>Shared back: <strong>0</strong></font></font><div class='respPicDiv'><img src='img/responseButtonOffersNo0_wht.png' class='respPic'></div></div>","null","5","Sean","9","Kept","0.2,0.65","11","0.2","trustrating_stim/white_00120_931230_fa_edt.bmp","5","93","15"
"html-keyboard-response","182","430107","0.0-19.0-1.15","61086469e5457fed4f164b8e","bdp_trlrn","Wed Mar 15 2023 19:24:06 GMT-0700 (Pacific Daylight Time)","680839","Untrustworthy,Trustworthy","","524","","","","decision","","<div class='trialDiv'><img src='trustrating_stim/white_mw053.bmp'><br><font class='baseline'><strong>Jonathan</strong><p>Choose number of points to send.</font><div class='respPicDiv'><img src='img/responseButtonOffersNo0L.png' class='respPic'></div></div>","4","6","Jonathan","4","Shared","0.8,0.35","13","0.8","trustrating_stim/white_mw053.bmp","3.5","98","16"
"html-keyboard-response","183","430368","0.0-19.0-2.15","61086469e5457fed4f164b8e","bdp_trlrn","Wed Mar 15 2023 19:24:06 GMT-0700 (Pacific Daylight Time)","680839","Untrustworthy,Trustworthy","","null","","","","decisionFB","","<div class='trialDiv'><img src='trustrating_stim/white_mw053.bmp'><br><font class='baseline'><strong>Jonathan</strong><p>Choose number of points to send.</font><div class='respPicDiv'><img src='img/responseButtonOffersNo0L4.png' class='respPic'></div></div>","null","6","Jonathan","4","Shared","0.8,0.35","13","0.8","trustrating_stim/white_mw053.bmp","3.5","94","16"
"html-keyboard-response","184","431369","0.0-19.0-3.15","61086469e5457fed4f164b8e","bdp_trlrn","Wed Mar 15 2023 19:24:06 GMT-0700 (Pacific Daylight Time)","680839","Untrustworthy,Trustworthy","","null","","","","feedback","","<div class='trialDiv'><img src='trustrating_stim/white_mw053.bmp'><br><font class='baseline'><strong>Jonathan</strong><p>Received: <strong>16</strong></font> &nbsp; &nbsp; &nbsp; &nbsp; &nbsp; &nbsp;<font class='posOutcome'>Shared back: <strong>8</strong></font></font><div class='respPicDiv'><img src='img/responseButtonOffersNo0_wht.png' class='respPic'></div></div>","null","6","Jonathan","4","Shared","0.8,0.35","13","0.8","trustrating_stim/white_mw053.bmp","3.5","102","16"
"html-keyboard-response","185","431565","0.0-19.0-1.16","61086469e5457fed4f164b8e","bdp_trlrn","Wed Mar 15 2023 19:24:06 GMT-0700 (Pacific Daylight Time)","680839","Untrustworthy,Trustworthy","","195","","","","decision","","<div class='trialDiv'><img src='trustrating_stim/white_00340_940422_fa_edt.bmp'><br><font class='baseline'><strong>Jordan</strong><p>Choose number of points to send.</font><div class='respPicDiv'><img src='img/responseButtonOffersNo0L.png' class='respPic'></div></div>","5","6","Jordan","2","Shared","0.8,0.2","11","0.8","trustrating_stim/white_00340_940422_fa_edt.bmp","2","107","17"
"html-keyboard-response","186","431816","0.0-19.0-2.16","61086469e5457fed4f164b8e","bdp_trlrn","Wed Mar 15 2023 19:24:06 GMT-0700 (Pacific Daylight Time)","680839","Untrustworthy,Trustworthy","","null","","","","decisionFB","","<div class='trialDiv'><img src='trustrating_stim/white_00340_940422_fa_edt.bmp'><br><font class='baseline'><strong>Jordan</strong><p>Choose number of points to send.</font><div class='respPicDiv'><img src='img/responseButtonOffersNo0L5.png' class='respPic'></div></div>","null","6","Jordan","2","Shared","0.8,0.2","11","0.8","trustrating_stim/white_00340_940422_fa_edt.bmp","2","102","17"
"html-keyboard-response","187","432818","0.0-19.0-3.16","61086469e5457fed4f164b8e","bdp_trlrn","Wed Mar 15 2023 19:24:06 GMT-0700 (Pacific Daylight Time)","680839","Untrustworthy,Trustworthy","","null","","","","feedback","","<div class='trialDiv'><img src='trustrating_stim/white_00340_940422_fa_edt.bmp'><br><font class='baseline'><strong>Jordan</strong><p>Received: <strong>20</strong></font> &nbsp; &nbsp; &nbsp; &nbsp; &nbsp; &nbsp;<font class='posOutcome'>Shared back: <strong>10</strong></font></font><div class='respPicDiv'><img src='img/responseButtonOffersNo0_wht.png' class='respPic'></div></div>","null","6","Jordan","2","Shared","0.8,0.2","11","0.8","trustrating_stim/white_00340_940422_fa_edt.bmp","2","112","17"
"html-keyboard-response","188","433309","0.0-19.0-1.17","61086469e5457fed4f164b8e","bdp_trlrn","Wed Mar 15 2023 19:24:06 GMT-0700 (Pacific Daylight Time)","680839","Untrustworthy,Trustworthy","","490","","","","decision","","<div class='trialDiv'><img src='trustrating_stim/white_00120_931230_fa_edt.bmp'><br><font class='baseline'><strong>Sean</strong><p>Choose number of points to send.</font><div class='respPicDiv'><img src='img/responseButtonOffersNo0L.png' class='respPic'></div></div>","4","6","Sean","9","Shared","0.2,0.65","11","0.2","trustrating_stim/white_00120_931230_fa_edt.bmp","5","117","18"
"html-keyboard-response","189","433561","0.0-19.0-2.17","61086469e5457fed4f164b8e","bdp_trlrn","Wed Mar 15 2023 19:24:06 GMT-0700 (Pacific Daylight Time)","680839","Untrustworthy,Trustworthy","","null","","","","decisionFB","","<div class='trialDiv'><img src='trustrating_stim/white_00120_931230_fa_edt.bmp'><br><font class='baseline'><strong>Sean</strong><p>Choose number of points to send.</font><div class='respPicDiv'><img src='img/responseButtonOffersNo0L4.png' class='respPic'></div></div>","null","6","Sean","9","Shared","0.2,0.65","11","0.2","trustrating_stim/white_00120_931230_fa_edt.bmp","5","113","18"
"html-keyboard-response","190","434563","0.0-19.0-3.17","61086469e5457fed4f164b8e","bdp_trlrn","Wed Mar 15 2023 19:24:06 GMT-0700 (Pacific Daylight Time)","680839","Untrustworthy,Trustworthy","","null","","","","feedback","","<div class='trialDiv'><img src='trustrating_stim/white_00120_931230_fa_edt.bmp'><br><font class='baseline'><strong>Sean</strong><p>Received: <strong>16</strong></font> &nbsp; &nbsp; &nbsp; &nbsp; &nbsp; &nbsp;<font class='posOutcome'>Shared back: <strong>8</strong></font></font><div class='respPicDiv'><img src='img/responseButtonOffersNo0_wht.png' class='respPic'></div></div>","null","6","Sean","9","Shared","0.2,0.65","11","0.2","trustrating_stim/white_00120_931230_fa_edt.bmp","5","121","18"
"html-keyboard-response","191","434768","0.0-19.0-1.18","61086469e5457fed4f164b8e","bdp_trlrn","Wed Mar 15 2023 19:24:06 GMT-0700 (Pacific Daylight Time)","680839","Untrustworthy,Trustworthy","","203","","","","decision","","<div class='trialDiv'><img src='trustrating_stim/white_00340_940422_fa_edt.bmp'><br><font class='baseline'><strong>Jordan</strong><p>Choose number of points to send.</font><div class='respPicDiv'><img src='img/responseButtonOffersNo0L.png' class='respPic'></div></div>","5","7","Jordan","2","Shared","0.8,0.2","11","0.8","trustrating_stim/white_00340_940422_fa_edt.bmp","2","126","19"
"html-keyboard-response","192","435019","0.0-19.0-2.18","61086469e5457fed4f164b8e","bdp_trlrn","Wed Mar 15 2023 19:24:06 GMT-0700 (Pacific Daylight Time)","680839","Untrustworthy,Trustworthy","","null","","","","decisionFB","","<div class='trialDiv'><img src='trustrating_stim/white_00340_940422_fa_edt.bmp'><br><font class='baseline'><strong>Jordan</strong><p>Choose number of points to send.</font><div class='respPicDiv'><img src='img/responseButtonOffersNo0L5.png' class='respPic'></div></div>","null","7","Jordan","2","Shared","0.8,0.2","11","0.8","trustrating_stim/white_00340_940422_fa_edt.bmp","2","121","19"
"html-keyboard-response","193","436021","0.0-19.0-3.18","61086469e5457fed4f164b8e","bdp_trlrn","Wed Mar 15 2023 19:24:06 GMT-0700 (Pacific Daylight Time)","680839","Untrustworthy,Trustworthy","","null","","","","feedback","","<div class='trialDiv'><img src='trustrating_stim/white_00340_940422_fa_edt.bmp'><br><font class='baseline'><strong>Jordan</strong><p>Received: <strong>20</strong></font> &nbsp; &nbsp; &nbsp; &nbsp; &nbsp; &nbsp;<font class='posOutcome'>Shared back: <strong>10</strong></font></font><div class='respPicDiv'><img src='img/responseButtonOffersNo0_wht.png' class='respPic'></div></div>","null","7","Jordan","2","Shared","0.8,0.2","11","0.8","trustrating_stim/white_00340_940422_fa_edt.bmp","2","131","19"
"html-keyboard-response","194","436277","0.0-19.0-1.19","61086469e5457fed4f164b8e","bdp_trlrn","Wed Mar 15 2023 19:24:06 GMT-0700 (Pacific Daylight Time)","680839","Untrustworthy,Trustworthy","","255","","","","decision","","<div class='trialDiv'><img src='trustrating_stim/white_mw053.bmp'><br><font class='baseline'><strong>Jonathan</strong><p>Choose number of points to send.</font><div class='respPicDiv'><img src='img/responseButtonOffersNo0L.png' class='respPic'></div></div>","4","7","Jonathan","4","Shared","0.8,0.35","13","0.8","trustrating_stim/white_mw053.bmp","3.5","136","20"
"html-keyboard-response","195","436528","0.0-19.0-2.19","61086469e5457fed4f164b8e","bdp_trlrn","Wed Mar 15 2023 19:24:06 GMT-0700 (Pacific Daylight Time)","680839","Untrustworthy,Trustworthy","","null","","","","decisionFB","","<div class='trialDiv'><img src='trustrating_stim/white_mw053.bmp'><br><font class='baseline'><strong>Jonathan</strong><p>Choose number of points to send.</font><div class='respPicDiv'><img src='img/responseButtonOffersNo0L4.png' class='respPic'></div></div>","null","7","Jonathan","4","Shared","0.8,0.35","13","0.8","trustrating_stim/white_mw053.bmp","3.5","132","20"
"html-keyboard-response","196","437529","0.0-19.0-3.19","61086469e5457fed4f164b8e","bdp_trlrn","Wed Mar 15 2023 19:24:06 GMT-0700 (Pacific Daylight Time)","680839","Untrustworthy,Trustworthy","","null","","","","feedback","","<div class='trialDiv'><img src='trustrating_stim/white_mw053.bmp'><br><font class='baseline'><strong>Jonathan</strong><p>Received: <strong>16</strong></font> &nbsp; &nbsp; &nbsp; &nbsp; &nbsp; &nbsp;<font class='posOutcome'>Shared back: <strong>8</strong></font></font><div class='respPicDiv'><img src='img/responseButtonOffersNo0_wht.png' class='respPic'></div></div>","null","7","Jonathan","4","Shared","0.8,0.35","13","0.8","trustrating_stim/white_mw053.bmp","3.5","140","20"
"html-keyboard-response","197","438335","0.0-19.0-1.20","61086469e5457fed4f164b8e","bdp_trlrn","Wed Mar 15 2023 19:24:06 GMT-0700 (Pacific Daylight Time)","680839","Untrustworthy,Trustworthy","","805","","","","decision","","<div class='trialDiv'><img src='trustrating_stim/white_00120_931230_fa_edt.bmp'><br><font class='baseline'><strong>Sean</strong><p>Choose number of points to send.</font><div class='respPicDiv'><img src='img/responseButtonOffersNo0L.png' class='respPic'></div></div>","5","7","Sean","9","Kept","0.2,0.65","11","0.2","trustrating_stim/white_00120_931230_fa_edt.bmp","5","145","21"
"html-keyboard-response","198","438587","0.0-19.0-2.20","61086469e5457fed4f164b8e","bdp_trlrn","Wed Mar 15 2023 19:24:06 GMT-0700 (Pacific Daylight Time)","680839","Untrustworthy,Trustworthy","","null","","","","decisionFB","","<div class='trialDiv'><img src='trustrating_stim/white_00120_931230_fa_edt.bmp'><br><font class='baseline'><strong>Sean</strong><p>Choose number of points to send.</font><div class='respPicDiv'><img src='img/responseButtonOffersNo0L5.png' class='respPic'></div></div>","null","7","Sean","9","Kept","0.2,0.65","11","0.2","trustrating_stim/white_00120_931230_fa_edt.bmp","5","140","21"
"html-keyboard-response","199","439589","0.0-19.0-3.20","61086469e5457fed4f164b8e","bdp_trlrn","Wed Mar 15 2023 19:24:06 GMT-0700 (Pacific Daylight Time)","680839","Untrustworthy,Trustworthy","","null","","","","feedback","","<div class='trialDiv'><img src='trustrating_stim/white_00120_931230_fa_edt.bmp'><br><font class='baseline'><strong>Sean</strong><p>Received: <strong>20</strong></font> &nbsp; &nbsp; &nbsp; &nbsp; &nbsp; &nbsp;<font class='negOutcome'>Shared back: <strong>0</strong></font></font><div class='respPicDiv'><img src='img/responseButtonOffersNo0_wht.png' class='respPic'></div></div>","null","7","Sean","9","Kept","0.2,0.65","11","0.2","trustrating_stim/white_00120_931230_fa_edt.bmp","5","140","21"
"html-keyboard-response","200","439898","0.0-19.0-1.21","61086469e5457fed4f164b8e","bdp_trlrn","Wed Mar 15 2023 19:24:06 GMT-0700 (Pacific Daylight Time)","680839","Untrustworthy,Trustworthy","","308","","","","decision","","<div class='trialDiv'><img src='trustrating_stim/white_00340_940422_fa_edt.bmp'><br><font class='baseline'><strong>Jordan</strong><p>Choose number of points to send.</font><div class='respPicDiv'><img src='img/responseButtonOffersNo0L.png' class='respPic'></div></div>","5","8","Jordan","2","Shared","0.8,0.2","11","0.8","trustrating_stim/white_00340_940422_fa_edt.bmp","2","145","22"
"html-keyboard-response","201","440149","0.0-19.0-2.21","61086469e5457fed4f164b8e","bdp_trlrn","Wed Mar 15 2023 19:24:06 GMT-0700 (Pacific Daylight Time)","680839","Untrustworthy,Trustworthy","","null","","","","decisionFB","","<div class='trialDiv'><img src='trustrating_stim/white_00340_940422_fa_edt.bmp'><br><font class='baseline'><strong>Jordan</strong><p>Choose number of points to send.</font><div class='respPicDiv'><img src='img/responseButtonOffersNo0L5.png' class='respPic'></div></div>","null","8","Jordan","2","Shared","0.8,0.2","11","0.8","trustrating_stim/white_00340_940422_fa_edt.bmp","2","140","22"
"html-keyboard-response","202","441151","0.0-19.0-3.21","61086469e5457fed4f164b8e","bdp_trlrn","Wed Mar 15 2023 19:24:06 GMT-0700 (Pacific Daylight Time)","680839","Untrustworthy,Trustworthy","","null","","","","feedback","","<div class='trialDiv'><img src='trustrating_stim/white_00340_940422_fa_edt.bmp'><br><font class='baseline'><strong>Jordan</strong><p>Received: <strong>20</strong></font> &nbsp; &nbsp; &nbsp; &nbsp; &nbsp; &nbsp;<font class='posOutcome'>Shared back: <strong>10</strong></font></font><div class='respPicDiv'><img src='img/responseButtonOffersNo0_wht.png' class='respPic'></div></div>","null","8","Jordan","2","Shared","0.8,0.2","11","0.8","trustrating_stim/white_00340_940422_fa_edt.bmp","2","150","22"
"html-keyboard-response","203","441347","0.0-19.0-1.22","61086469e5457fed4f164b8e","bdp_trlrn","Wed Mar 15 2023 19:24:06 GMT-0700 (Pacific Daylight Time)","680839","Untrustworthy,Trustworthy","","195","","","","decision","","<div class='trialDiv'><img src='trustrating_stim/white_00120_931230_fa_edt.bmp'><br><font class='baseline'><strong>Sean</strong><p>Choose number of points to send.</font><div class='respPicDiv'><img src='img/responseButtonOffersNo0L.png' class='respPic'></div></div>","4","8","Sean","9","Shared","0.2,0.65","11","0.2","trustrating_stim/white_00120_931230_fa_edt.bmp","5","155","23"
"html-keyboard-response","204","441598","0.0-19.0-2.22","61086469e5457fed4f164b8e","bdp_trlrn","Wed Mar 15 2023 19:24:06 GMT-0700 (Pacific Daylight Time)","680839","Untrustworthy,Trustworthy","","null","","","","decisionFB","","<div class='trialDiv'><img src='trustrating_stim/white_00120_931230_fa_edt.bmp'><br><font class='baseline'><strong>Sean</strong><p>Choose number of points to send.</font><div class='respPicDiv'><img src='img/responseButtonOffersNo0L4.png' class='respPic'></div></div>","null","8","Sean","9","Shared","0.2,0.65","11","0.2","trustrating_stim/white_00120_931230_fa_edt.bmp","5","151","23"
"html-keyboard-response","205","442600","0.0-19.0-3.22","61086469e5457fed4f164b8e","bdp_trlrn","Wed Mar 15 2023 19:24:06 GMT-0700 (Pacific Daylight Time)","680839","Untrustworthy,Trustworthy","","null","","","","feedback","","<div class='trialDiv'><img src='trustrating_stim/white_00120_931230_fa_edt.bmp'><br><font class='baseline'><strong>Sean</strong><p>Received: <strong>16</strong></font> &nbsp; &nbsp; &nbsp; &nbsp; &nbsp; &nbsp;<font class='posOutcome'>Shared back: <strong>8</strong></font></font><div class='respPicDiv'><img src='img/responseButtonOffersNo0_wht.png' class='respPic'></div></div>","null","8","Sean","9","Shared","0.2,0.65","11","0.2","trustrating_stim/white_00120_931230_fa_edt.bmp","5","159","23"
"html-keyboard-response","206","442840","0.0-19.0-1.23","61086469e5457fed4f164b8e","bdp_trlrn","Wed Mar 15 2023 19:24:06 GMT-0700 (Pacific Daylight Time)","680839","Untrustworthy,Trustworthy","","239","","","","decision","","<div class='trialDiv'><img src='trustrating_stim/white_mw053.bmp'><br><font class='baseline'><strong>Jonathan</strong><p>Choose number of points to send.</font><div class='respPicDiv'><img src='img/responseButtonOffersNo0L.png' class='respPic'></div></div>","3","8","Jonathan","4","Shared","0.8,0.35","13","0.8","trustrating_stim/white_mw053.bmp","3.5","164","24"
"html-keyboard-response","207","443092","0.0-19.0-2.23","61086469e5457fed4f164b8e","bdp_trlrn","Wed Mar 15 2023 19:24:06 GMT-0700 (Pacific Daylight Time)","680839","Untrustworthy,Trustworthy","","null","","","","decisionFB","","<div class='trialDiv'><img src='trustrating_stim/white_mw053.bmp'><br><font class='baseline'><strong>Jonathan</strong><p>Choose number of points to send.</font><div class='respPicDiv'><img src='img/responseButtonOffersNo0L3.png' class='respPic'></div></div>","null","8","Jonathan","4","Shared","0.8,0.35","13","0.8","trustrating_stim/white_mw053.bmp","3.5","161","24"
"html-keyboard-response","208","444093","0.0-19.0-3.23","61086469e5457fed4f164b8e","bdp_trlrn","Wed Mar 15 2023 19:24:06 GMT-0700 (Pacific Daylight Time)","680839","Untrustworthy,Trustworthy","","null","","","","feedback","","<div class='trialDiv'><img src='trustrating_stim/white_mw053.bmp'><br><font class='baseline'><strong>Jonathan</strong><p>Received: <strong>12</strong></font> &nbsp; &nbsp; &nbsp; &nbsp; &nbsp; &nbsp;<font class='posOutcome'>Shared back: <strong>6</strong></font></font><div class='respPicDiv'><img src='img/responseButtonOffersNo0_wht.png' class='respPic'></div></div>","null","8","Jonathan","4","Shared","0.8,0.35","13","0.8","trustrating_stim/white_mw053.bmp","3.5","167","24"
"html-keyboard-response","209","444319","0.0-19.0-1.24","61086469e5457fed4f164b8e","bdp_trlrn","Wed Mar 15 2023 19:24:06 GMT-0700 (Pacific Daylight Time)","680839","Untrustworthy,Trustworthy","","226","","","","decision","","<div class='trialDiv'><img src='trustrating_stim/white_00120_931230_fa_edt.bmp'><br><font class='baseline'><strong>Sean</strong><p>Choose number of points to send.</font><div class='respPicDiv'><img src='img/responseButtonOffersNo0L.png' class='respPic'></div></div>","5","9","Sean","9","Kept","0.2,0.65","11","0.2","trustrating_stim/white_00120_931230_fa_edt.bmp","5","172","25"
"html-keyboard-response","210","444571","0.0-19.0-2.24","61086469e5457fed4f164b8e","bdp_trlrn","Wed Mar 15 2023 19:24:06 GMT-0700 (Pacific Daylight Time)","680839","Untrustworthy,Trustworthy","","null","","","","decisionFB","","<div class='trialDiv'><img src='trustrating_stim/white_00120_931230_fa_edt.bmp'><br><font class='baseline'><strong>Sean</strong><p>Choose number of points to send.</font><div class='respPicDiv'><img src='img/responseButtonOffersNo0L5.png' class='respPic'></div></div>","null","9","Sean","9","Kept","0.2,0.65","11","0.2","trustrating_stim/white_00120_931230_fa_edt.bmp","5","167","25"
"html-keyboard-response","211","445573","0.0-19.0-3.24","61086469e5457fed4f164b8e","bdp_trlrn","Wed Mar 15 2023 19:24:06 GMT-0700 (Pacific Daylight Time)","680839","Untrustworthy,Trustworthy","","null","","","","feedback","","<div class='trialDiv'><img src='trustrating_stim/white_00120_931230_fa_edt.bmp'><br><font class='baseline'><strong>Sean</strong><p>Received: <strong>20</strong></font> &nbsp; &nbsp; &nbsp; &nbsp; &nbsp; &nbsp;<font class='negOutcome'>Shared back: <strong>0</strong></font></font><div class='respPicDiv'><img src='img/responseButtonOffersNo0_wht.png' class='respPic'></div></div>","null","9","Sean","9","Kept","0.2,0.65","11","0.2","trustrating_stim/white_00120_931230_fa_edt.bmp","5","167","25"
"html-keyboard-response","212","445838","0.0-19.0-1.25","61086469e5457fed4f164b8e","bdp_trlrn","Wed Mar 15 2023 19:24:06 GMT-0700 (Pacific Daylight Time)","680839","Untrustworthy,Trustworthy","","264","","","","decision","","<div class='trialDiv'><img src='trustrating_stim/white_00340_940422_fa_edt.bmp'><br><font class='baseline'><strong>Jordan</strong><p>Choose number of points to send.</font><div class='respPicDiv'><img src='img/responseButtonOffersNo0L.png' class='respPic'></div></div>","5","9","Jordan","2","Shared","0.8,0.2","11","0.8","trustrating_stim/white_00340_940422_fa_edt.bmp","2","172","26"
"html-keyboard-response","213","446090","0.0-19.0-2.25","61086469e5457fed4f164b8e","bdp_trlrn","Wed Mar 15 2023 19:24:06 GMT-0700 (Pacific Daylight Time)","680839","Untrustworthy,Trustworthy","","null","","","","decisionFB","","<div class='trialDiv'><img src='trustrating_stim/white_00340_940422_fa_edt.bmp'><br><font class='baseline'><strong>Jordan</strong><p>Choose number of points to send.</font><div class='respPicDiv'><img src='img/responseButtonOffersNo0L5.png' class='respPic'></div></div>","null","9","Jordan","2","Shared","0.8,0.2","11","0.8","trustrating_stim/white_00340_940422_fa_edt.bmp","2","167","26"
"html-keyboard-response","214","447092","0.0-19.0-3.25","61086469e5457fed4f164b8e","bdp_trlrn","Wed Mar 15 2023 19:24:06 GMT-0700 (Pacific Daylight Time)","680839","Untrustworthy,Trustworthy","","null","","","","feedback","","<div class='trialDiv'><img src='trustrating_stim/white_00340_940422_fa_edt.bmp'><br><font class='baseline'><strong>Jordan</strong><p>Received: <strong>20</strong></font> &nbsp; &nbsp; &nbsp; &nbsp; &nbsp; &nbsp;<font class='posOutcome'>Shared back: <strong>10</strong></font></font><div class='respPicDiv'><img src='img/responseButtonOffersNo0_wht.png' class='respPic'></div></div>","null","9","Jordan","2","Shared","0.8,0.2","11","0.8","trustrating_stim/white_00340_940422_fa_edt.bmp","2","177","26"
"html-keyboard-response","215","447337","0.0-19.0-1.26","61086469e5457fed4f164b8e","bdp_trlrn","Wed Mar 15 2023 19:24:06 GMT-0700 (Pacific Daylight Time)","680839","Untrustworthy,Trustworthy","","245","","","","decision","","<div class='trialDiv'><img src='trustrating_stim/white_mw053.bmp'><br><font class='baseline'><strong>Jonathan</strong><p>Choose number of points to send.</font><div class='respPicDiv'><img src='img/responseButtonOffersNo0L.png' class='respPic'></div></div>","3","9","Jonathan","4","Shared","0.8,0.35","13","0.8","trustrating_stim/white_mw053.bmp","3.5","182","27"
"html-keyboard-response","216","447589","0.0-19.0-2.26","61086469e5457fed4f164b8e","bdp_trlrn","Wed Mar 15 2023 19:24:06 GMT-0700 (Pacific Daylight Time)","680839","Untrustworthy,Trustworthy","","null","","","","decisionFB","","<div class='trialDiv'><img src='trustrating_stim/white_mw053.bmp'><br><font class='baseline'><strong>Jonathan</strong><p>Choose number of points to send.</font><div class='respPicDiv'><img src='img/responseButtonOffersNo0L3.png' class='respPic'></div></div>","null","9","Jonathan","4","Shared","0.8,0.35","13","0.8","trustrating_stim/white_mw053.bmp","3.5","179","27"
"html-keyboard-response","217","448591","0.0-19.0-3.26","61086469e5457fed4f164b8e","bdp_trlrn","Wed Mar 15 2023 19:24:06 GMT-0700 (Pacific Daylight Time)","680839","Untrustworthy,Trustworthy","","null","","","","feedback","","<div class='trialDiv'><img src='trustrating_stim/white_mw053.bmp'><br><font class='baseline'><strong>Jonathan</strong><p>Received: <strong>12</strong></font> &nbsp; &nbsp; &nbsp; &nbsp; &nbsp; &nbsp;<font class='posOutcome'>Shared back: <strong>6</strong></font></font><div class='respPicDiv'><img src='img/responseButtonOffersNo0_wht.png' class='respPic'></div></div>","null","9","Jonathan","4","Shared","0.8,0.35","13","0.8","trustrating_stim/white_mw053.bmp","3.5","185","27"
"html-keyboard-response","218","448836","0.0-19.0-1.27","61086469e5457fed4f164b8e","bdp_trlrn","Wed Mar 15 2023 19:24:06 GMT-0700 (Pacific Daylight Time)","680839","Untrustworthy,Trustworthy","","244","","","","decision","","<div class='trialDiv'><img src='trustrating_stim/white_00120_931230_fa_edt.bmp'><br><font class='baseline'><strong>Sean</strong><p>Choose number of points to send.</font><div class='respPicDiv'><img src='img/responseButtonOffersNo0L.png' class='respPic'></div></div>","5","10","Sean","9","Kept","0.2,0.65","11","0.2","trustrating_stim/white_00120_931230_fa_edt.bmp","5","190","28"
"html-keyboard-response","219","449089","0.0-19.0-2.27","61086469e5457fed4f164b8e","bdp_trlrn","Wed Mar 15 2023 19:24:06 GMT-0700 (Pacific Daylight Time)","680839","Untrustworthy,Trustworthy","","null","","","","decisionFB","","<div class='trialDiv'><img src='trustrating_stim/white_00120_931230_fa_edt.bmp'><br><font class='baseline'><strong>Sean</strong><p>Choose number of points to send.</font><div class='respPicDiv'><img src='img/responseButtonOffersNo0L5.png' class='respPic'></div></div>","null","10","Sean","9","Kept","0.2,0.65","11","0.2","trustrating_stim/white_00120_931230_fa_edt.bmp","5","185","28"
