"trial_type","trial_index","time_elapsed","internal_node_id","subject_id","task","startTime","totalTime","labels","view_history","rt","event","trial","time","trialtype","success","stimulus","key_press","aground","name","faceID","outcome","agenttype","agentswpt","agentcurrpshare","face","avgRating","point_total","round"
"pavlovia","0","3","0.0-0.0","633fa968afc8d3d2c0d8745c","bdp_trlrn","Fri Mar 10 2023 21:50:47 GMT-0800 (Pacific Standard Time)","486630","Trustworthy,Untrustworthy","","","","","","","","","","","","","","","","","","","",""
"instructions","1","4540","0.0-1.0","633fa968afc8d3d2c0d8745c","bdp_trlrn","Fri Mar 10 2023 21:50:47 GMT-0800 (Pacific Standard Time)","486630","Trustworthy,Untrustworthy","[{""page_index"":0,""viewing_time"":4536}]","4536","","","","","","","","","","","","","","","","","",""
"","","","","633fa968afc8d3d2c0d8745c","bdp_trlrn","Fri Mar 10 2023 21:50:47 GMT-0800 (Pacific Standard Time)","486630","Trustworthy,Untrustworthy","","","fullscreenenter","2","9003","fullscreenenter","","","","","","","","","","","","","",""
"fullscreen","2","9968","0.0-2.0","633fa968afc8d3d2c0d8745c","bdp_trlrn","Fri Mar 10 2023 21:50:47 GMT-0800 (Pacific Standard Time)","486630","Trustworthy,Untrustworthy","","","","","","","true","","","","","","","","","","","","",""
"instructions","3","28427","0.0-4.0","633fa968afc8d3d2c0d8745c","bdp_trlrn","Fri Mar 10 2023 21:50:47 GMT-0800 (Pacific Standard Time)","486630","Trustworthy,Untrustworthy","[{""page_index"":0,""viewing_time"":12118},{""page_index"":1,""viewing_time"":6338}]","18456","","","","","","","","","","","","","","","","","",""
"instructions","4","29224","0.0-5.0","633fa968afc8d3d2c0d8745c","bdp_trlrn","Fri Mar 10 2023 21:50:47 GMT-0800 (Pacific Standard Time)","486630","Trustworthy,Untrustworthy","[{""page_index"":0,""viewing_time"":796}]","796","","","","","","","","","","","","","","","","","",""
"image-keyboard-response","5","31802","0.0-6.0-1.0","633fa968afc8d3d2c0d8745c","bdp_trlrn","Fri Mar 10 2023 21:50:47 GMT-0800 (Pacific Standard Time)","486630","Trustworthy,Untrustworthy","","2470","","","","rating","","trustrating_stim/white_00223_940128_fb_edt.bmp","9","","","","","","","","","","",""
"image-keyboard-response","6","32003","0.0-6.0-2.0","633fa968afc8d3d2c0d8745c","bdp_trlrn","Fri Mar 10 2023 21:50:47 GMT-0800 (Pacific Standard Time)","486630","Trustworthy,Untrustworthy","","null","","","","ratingFB","","trustrating_stim/white_00223_940128_fb_edt.bmp","null","","","","","","","","","","",""
"image-keyboard-response","7","32972","0.0-6.0-1.1","633fa968afc8d3d2c0d8745c","bdp_trlrn","Fri Mar 10 2023 21:50:47 GMT-0800 (Pacific Standard Time)","486630","Trustworthy,Untrustworthy","","862","","","","rating","","trustrating_stim/white_mw089.bmp","9","","","","","","","","","","",""
"image-keyboard-response","8","33183","0.0-6.0-2.1","633fa968afc8d3d2c0d8745c","bdp_trlrn","Fri Mar 10 2023 21:50:47 GMT-0800 (Pacific Standard Time)","486630","Trustworthy,Untrustworthy","","null","","","","ratingFB","","trustrating_stim/white_mw089.bmp","null","","","","","","","","","","",""
"image-keyboard-response","9","33863","0.0-6.0-1.2","633fa968afc8d3d2c0d8745c","bdp_trlrn","Fri Mar 10 2023 21:50:47 GMT-0800 (Pacific Standard Time)","486630","Trustworthy,Untrustworthy","","571","","","","rating","","trustrating_stim/white_mw084.bmp","9","","","","","","","","","","",""
"image-keyboard-response","10","34076","0.0-6.0-2.2","633fa968afc8d3d2c0d8745c","bdp_trlrn","Fri Mar 10 2023 21:50:47 GMT-0800 (Pacific Standard Time)","486630","Trustworthy,Untrustworthy","","null","","","","ratingFB","","trustrating_stim/white_mw084.bmp","null","","","","","","","","","","",""
"image-keyboard-response","11","36833","0.0-6.0-1.3","633fa968afc8d3d2c0d8745c","bdp_trlrn","Fri Mar 10 2023 21:50:47 GMT-0800 (Pacific Standard Time)","486630","Trustworthy,Untrustworthy","","2651","","","","rating","","trustrating_stim/white_00807_941205_fb_edt.bmp","5","","","","","","","","","","",""
"image-keyboard-response","12","37046","0.0-6.0-2.3","633fa968afc8d3d2c0d8745c","bdp_trlrn","Fri Mar 10 2023 21:50:47 GMT-0800 (Pacific Standard Time)","486630","Trustworthy,Untrustworthy","","null","","","","ratingFB","","trustrating_stim/white_00807_941205_fb_edt.bmp","null","","","","","","","","","","",""
"image-keyboard-response","13","37480","0.0-6.0-1.4","633fa968afc8d3d2c0d8745c","bdp_trlrn","Fri Mar 10 2023 21:50:47 GMT-0800 (Pacific Standard Time)","486630","Trustworthy,Untrustworthy","","326","","","","rating","","trustrating_stim/white_mw046.bmp","5","","","","","","","","","","",""
"image-keyboard-response","14","37694","0.0-6.0-2.4","633fa968afc8d3d2c0d8745c","bdp_trlrn","Fri Mar 10 2023 21:50:47 GMT-0800 (Pacific Standard Time)","486630","Trustworthy,Untrustworthy","","null","","","","ratingFB","","trustrating_stim/white_mw046.bmp","null","","","","","","","","","","",""
"image-keyboard-response","15","38167","0.0-6.0-1.5","633fa968afc8d3d2c0d8745c","bdp_trlrn","Fri Mar 10 2023 21:50:47 GMT-0800 (Pacific Standard Time)","486630","Trustworthy,Untrustworthy","","367","","","","rating","","trustrating_stim/white_mw053.bmp","5","","","","","","","","","","",""
"image-keyboard-response","16","38383","0.0-6.0-2.5","633fa968afc8d3d2c0d8745c","bdp_trlrn","Fri Mar 10 2023 21:50:47 GMT-0800 (Pacific Standard Time)","486630","Trustworthy,Untrustworthy","","null","","","","ratingFB","","trustrating_stim/white_mw053.bmp","null","","","","","","","","","","",""
"image-keyboard-response","17","39601","0.0-6.0-1.6","633fa968afc8d3d2c0d8745c","bdp_trlrn","Fri Mar 10 2023 21:50:47 GMT-0800 (Pacific Standard Time)","486630","Trustworthy,Untrustworthy","","1112","","","","rating","","trustrating_stim/white_00299_940422_fa_edt.bmp","6","","","","","","","","","","",""
"image-keyboard-response","18","39817","0.0-6.0-2.6","633fa968afc8d3d2c0d8745c","bdp_trlrn","Fri Mar 10 2023 21:50:47 GMT-0800 (Pacific Standard Time)","486630","Trustworthy,Untrustworthy","","null","","","","ratingFB","","trustrating_stim/white_00299_940422_fa_edt.bmp","null","","","","","","","","","","",""
"image-keyboard-response","19","40219","0.0-6.0-1.7","633fa968afc8d3d2c0d8745c","bdp_trlrn","Fri Mar 10 2023 21:50:47 GMT-0800 (Pacific Standard Time)","486630","Trustworthy,Untrustworthy","","296","","","","rating","","trustrating_stim/white_00659_941121_fa_edt.bmp","6","","","","","","","","","","",""
"image-keyboard-response","20","40436","0.0-6.0-2.7","633fa968afc8d3d2c0d8745c","bdp_trlrn","Fri Mar 10 2023 21:50:47 GMT-0800 (Pacific Standard Time)","486630","Trustworthy,Untrustworthy","","null","","","","ratingFB","","trustrating_stim/white_00659_941121_fa_edt.bmp","null","","","","","","","","","","",""
"image-keyboard-response","21","40764","0.0-6.0-1.8","633fa968afc8d3d2c0d8745c","bdp_trlrn","Fri Mar 10 2023 21:50:47 GMT-0800 (Pacific Standard Time)","486630","Trustworthy,Untrustworthy","","222","","","","rating","","trustrating_stim/white_mw056.bmp","6","","","","","","","","","","",""
"image-keyboard-response","22","40967","0.0-6.0-2.8","633fa968afc8d3d2c0d8745c","bdp_trlrn","Fri Mar 10 2023 21:50:47 GMT-0800 (Pacific Standard Time)","486630","Trustworthy,Untrustworthy","","null","","","","ratingFB","","trustrating_stim/white_mw056.bmp","null","","","","","","","","","","",""
"image-keyboard-response","23","41157","0.0-6.0-1.9","633fa968afc8d3d2c0d8745c","bdp_trlrn","Fri Mar 10 2023 21:50:47 GMT-0800 (Pacific Standard Time)","486630","Trustworthy,Untrustworthy","","84","","","","rating","","trustrating_stim/white_00109_931230_fa_edt.bmp","6","","","","","","","","","","",""
"image-keyboard-response","24","41369","0.0-6.0-2.9","633fa968afc8d3d2c0d8745c","bdp_trlrn","Fri Mar 10 2023 21:50:47 GMT-0800 (Pacific Standard Time)","486630","Trustworthy,Untrustworthy","","null","","","","ratingFB","","trustrating_stim/white_00109_931230_fa_edt.bmp","null","","","","","","","","","","",""
"image-keyboard-response","25","41767","0.0-6.0-1.10","633fa968afc8d3d2c0d8745c","bdp_trlrn","Fri Mar 10 2023 21:50:47 GMT-0800 (Pacific Standard Time)","486630","Trustworthy,Untrustworthy","","292","","","","rating","","trustrating_stim/white_00898_960530_fa_edt.bmp","6","","","","","","","","","","",""
"image-keyboard-response","26","41983","0.0-6.0-2.10","633fa968afc8d3d2c0d8745c","bdp_trlrn","Fri Mar 10 2023 21:50:47 GMT-0800 (Pacific Standard Time)","486630","Trustworthy,Untrustworthy","","null","","","","ratingFB","","trustrating_stim/white_00898_960530_fa_edt.bmp","null","","","","","","","","","","",""
"image-keyboard-response","27","42345","0.0-6.0-1.11","633fa968afc8d3d2c0d8745c","bdp_trlrn","Fri Mar 10 2023 21:50:47 GMT-0800 (Pacific Standard Time)","486630","Trustworthy,Untrustworthy","","257","","","","rating","","trustrating_stim/white_mw099.bmp","6","","","","","","","","","","",""
"image-keyboard-response","28","42561","0.0-6.0-2.11","633fa968afc8d3d2c0d8745c","bdp_trlrn","Fri Mar 10 2023 21:50:47 GMT-0800 (Pacific Standard Time)","486630","Trustworthy,Untrustworthy","","null","","","","ratingFB","","trustrating_stim/white_mw099.bmp","null","","","","","","","","","","",""
"image-keyboard-response","29","42672","0.0-6.0-1.12","633fa968afc8d3d2c0d8745c","bdp_trlrn","Fri Mar 10 2023 21:50:47 GMT-0800 (Pacific Standard Time)","486630","Trustworthy,Untrustworthy","","6","","","","rating","","trustrating_stim/white_00129_931230_fb_edt.bmp","6","","","","","","","","","","",""
"image-keyboard-response","30","42879","0.0-6.0-2.12","633fa968afc8d3d2c0d8745c","bdp_trlrn","Fri Mar 10 2023 21:50:47 GMT-0800 (Pacific Standard Time)","486630","Trustworthy,Untrustworthy","","null","","","","ratingFB","","trustrating_stim/white_00129_931230_fb_edt.bmp","null","","","","","","","","","","",""
"image-keyboard-response","31","43003","0.0-6.0-1.13","633fa968afc8d3d2c0d8745c","bdp_trlrn","Fri Mar 10 2023 21:50:47 GMT-0800 (Pacific Standard Time)","486630","Trustworthy,Untrustworthy","","18","","","","rating","","trustrating_stim/white_00519_940519_fb_edt.bmp","6","","","","","","","","","","",""
"image-keyboard-response","32","43212","0.0-6.0-2.13","633fa968afc8d3d2c0d8745c","bdp_trlrn","Fri Mar 10 2023 21:50:47 GMT-0800 (Pacific Standard Time)","486630","Trustworthy,Untrustworthy","","null","","","","ratingFB","","trustrating_stim/white_00519_940519_fb_edt.bmp","null","","","","","","","","","","",""
"image-keyboard-response","33","43492","0.0-6.0-1.14","633fa968afc8d3d2c0d8745c","bdp_trlrn","Fri Mar 10 2023 21:50:47 GMT-0800 (Pacific Standard Time)","486630","Trustworthy,Untrustworthy","","174","","","","rating","","trustrating_stim/white_mw071.bmp","6","","","","","","","","","","",""
"image-keyboard-response","34","43707","0.0-6.0-2.14","633fa968afc8d3d2c0d8745c","bdp_trlrn","Fri Mar 10 2023 21:50:47 GMT-0800 (Pacific Standard Time)","486630","Trustworthy,Untrustworthy","","null","","","","ratingFB","","trustrating_stim/white_mw071.bmp","null","","","","","","","","","","",""
"image-keyboard-response","35","44056","0.0-6.0-1.15","633fa968afc8d3d2c0d8745c","bdp_trlrn","Fri Mar 10 2023 21:50:47 GMT-0800 (Pacific Standard Time)","486630","Trustworthy,Untrustworthy","","244","","","","rating","","trustrating_stim/white_mw063.bmp","6","","","","","","","","","","",""
"image-keyboard-response","36","44273","0.0-6.0-2.15","633fa968afc8d3d2c0d8745c","bdp_trlrn","Fri Mar 10 2023 21:50:47 GMT-0800 (Pacific Standard Time)","486630","Trustworthy,Untrustworthy","","null","","","","ratingFB","","trustrating_stim/white_mw063.bmp","null","","","","","","","","","","",""
"image-keyboard-response","37","44639","0.0-6.0-1.16","633fa968afc8d3d2c0d8745c","bdp_trlrn","Fri Mar 10 2023 21:50:47 GMT-0800 (Pacific Standard Time)","486630","Trustworthy,Untrustworthy","","261","","","","rating","","trustrating_stim/white_00761_941201_fb_edt.bmp","6","","","","","","","","","","",""
"image-keyboard-response","38","44854","0.0-6.0-2.16","633fa968afc8d3d2c0d8745c","bdp_trlrn","Fri Mar 10 2023 21:50:47 GMT-0800 (Pacific Standard Time)","486630","Trustworthy,Untrustworthy","","null","","","","ratingFB","","trustrating_stim/white_00761_941201_fb_edt.bmp","null","","","","","","","","","","",""
"image-keyboard-response","39","44984","0.0-6.0-1.17","633fa968afc8d3d2c0d8745c","bdp_trlrn","Fri Mar 10 2023 21:50:47 GMT-0800 (Pacific Standard Time)","486630","Trustworthy,Untrustworthy","","24","","","","rating","","trustrating_stim/white_mw060.bmp","6","","","","","","","","","","",""
"image-keyboard-response","40","45187","0.0-6.0-2.17","633fa968afc8d3d2c0d8745c","bdp_trlrn","Fri Mar 10 2023 21:50:47 GMT-0800 (Pacific Standard Time)","486630","Trustworthy,Untrustworthy","","null","","","","ratingFB","","trustrating_stim/white_mw060.bmp","null","","","","","","","","","","",""
"image-keyboard-response","41","45319","0.0-6.0-1.18","633fa968afc8d3d2c0d8745c","bdp_trlrn","Fri Mar 10 2023 21:50:47 GMT-0800 (Pacific Standard Time)","486630","Trustworthy,Untrustworthy","","27","","","","rating","","trustrating_stim/white_mw033.bmp","6","","","","","","","","","","",""
"image-keyboard-response","42","45521","0.0-6.0-2.18","633fa968afc8d3d2c0d8745c","bdp_trlrn","Fri Mar 10 2023 21:50:47 GMT-0800 (Pacific Standard Time)","486630","Trustworthy,Untrustworthy","","null","","","","ratingFB","","trustrating_stim/white_mw033.bmp","null","","","","","","","","","","",""
"image-keyboard-response","43","45653","0.0-6.0-1.19","633fa968afc8d3d2c0d8745c","bdp_trlrn","Fri Mar 10 2023 21:50:47 GMT-0800 (Pacific Standard Time)","486630","Trustworthy,Untrustworthy","","25","","","","rating","","trustrating_stim/white_mw049.bmp","6","","","","","","","","","","",""
"image-keyboard-response","44","45855","0.0-6.0-2.19","633fa968afc8d3d2c0d8745c","bdp_trlrn","Fri Mar 10 2023 21:50:47 GMT-0800 (Pacific Standard Time)","486630","Trustworthy,Untrustworthy","","null","","","","ratingFB","","trustrating_stim/white_mw049.bmp","null","","","","","","","","","","",""
"image-keyboard-response","45","46203","0.0-6.0-1.20","633fa968afc8d3d2c0d8745c","bdp_trlrn","Fri Mar 10 2023 21:50:47 GMT-0800 (Pacific Standard Time)","486630","Trustworthy,Untrustworthy","","243","","","","rating","","trustrating_stim/white_00120_931230_fa_edt.bmp","6","","","","","","","","","","",""
"image-keyboard-response","46","46420","0.0-6.0-2.20","633fa968afc8d3d2c0d8745c","bdp_trlrn","Fri Mar 10 2023 21:50:47 GMT-0800 (Pacific Standard Time)","486630","Trustworthy,Untrustworthy","","null","","","","ratingFB","","trustrating_stim/white_00120_931230_fa_edt.bmp","null","","","","","","","","","","",""
"image-keyboard-response","47","46550","0.0-6.0-1.21","633fa968afc8d3d2c0d8745c","bdp_trlrn","Fri Mar 10 2023 21:50:47 GMT-0800 (Pacific Standard Time)","486630","Trustworthy,Untrustworthy","","24","","","","rating","","trustrating_stim/white_mw035.bmp","5","","","","","","","","","","",""
"image-keyboard-response","48","46753","0.0-6.0-2.21","633fa968afc8d3d2c0d8745c","bdp_trlrn","Fri Mar 10 2023 21:50:47 GMT-0800 (Pacific Standard Time)","486630","Trustworthy,Untrustworthy","","null","","","","ratingFB","","trustrating_stim/white_mw035.bmp","null","","","","","","","","","","",""
"image-keyboard-response","49","47096","0.0-6.0-1.22","633fa968afc8d3d2c0d8745c","bdp_trlrn","Fri Mar 10 2023 21:50:47 GMT-0800 (Pacific Standard Time)","486630","Trustworthy,Untrustworthy","","237","","","","rating","","trustrating_stim/white_00577_940928_fa_edt.bmp","5","","","","","","","","","","",""
"image-keyboard-response","50","47312","0.0-6.0-2.22","633fa968afc8d3d2c0d8745c","bdp_trlrn","Fri Mar 10 2023 21:50:47 GMT-0800 (Pacific Standard Time)","486630","Trustworthy,Untrustworthy","","null","","","","ratingFB","","trustrating_stim/white_00577_940928_fa_edt.bmp","null","","","","","","","","","","",""
"image-keyboard-response","51","47660","0.0-6.0-1.23","633fa968afc8d3d2c0d8745c","bdp_trlrn","Fri Mar 10 2023 21:50:47 GMT-0800 (Pacific Standard Time)","486630","Trustworthy,Untrustworthy","","240","","","","rating","","trustrating_stim/white_00602_940928_fb_edt.bmp","5","","","","","","","","","","",""
"image-keyboard-response","52","47874","0.0-6.0-2.23","633fa968afc8d3d2c0d8745c","bdp_trlrn","Fri Mar 10 2023 21:50:47 GMT-0800 (Pacific Standard Time)","486630","Trustworthy,Untrustworthy","","null","","","","ratingFB","","trustrating_stim/white_00602_940928_fb_edt.bmp","null","","","","","","","","","","",""
"image-keyboard-response","53","48236","0.0-6.0-1.24","633fa968afc8d3d2c0d8745c","bdp_trlrn","Fri Mar 10 2023 21:50:47 GMT-0800 (Pacific Standard Time)","486630","Trustworthy,Untrustworthy","","256","","","","rating","","trustrating_stim/white_mw048.bmp","5","","","","","","","","","","",""
"image-keyboard-response","54","48453","0.0-6.0-2.24","633fa968afc8d3d2c0d8745c","bdp_trlrn","Fri Mar 10 2023 21:50:47 GMT-0800 (Pacific Standard Time)","486630","Trustworthy,Untrustworthy","","null","","","","ratingFB","","trustrating_stim/white_mw048.bmp","null","","","","","","","","","","",""
"image-keyboard-response","55","48576","0.0-6.0-1.25","633fa968afc8d3d2c0d8745c","bdp_trlrn","Fri Mar 10 2023 21:50:47 GMT-0800 (Pacific Standard Time)","486630","Trustworthy,Untrustworthy","","16","","","","rating","","trustrating_stim/white_00340_940422_fa_edt.bmp","5","","","","","","","","","","",""
"image-keyboard-response","56","48787","0.0-6.0-2.25","633fa968afc8d3d2c0d8745c","bdp_trlrn","Fri Mar 10 2023 21:50:47 GMT-0800 (Pacific Standard Time)","486630","Trustworthy,Untrustworthy","","null","","","","ratingFB","","trustrating_stim/white_00340_940422_fa_edt.bmp","null","","","","","","","","","","",""
"image-keyboard-response","57","48901","0.0-6.0-1.26","633fa968afc8d3d2c0d8745c","bdp_trlrn","Fri Mar 10 2023 21:50:47 GMT-0800 (Pacific Standard Time)","486630","Trustworthy,Untrustworthy","","9","","","","rating","","trustrating_stim/white_mw066.bmp","5","","","","","","","","","","",""
"image-keyboard-response","58","49105","0.0-6.0-2.26","633fa968afc8d3d2c0d8745c","bdp_trlrn","Fri Mar 10 2023 21:50:47 GMT-0800 (Pacific Standard Time)","486630","Trustworthy,Untrustworthy","","null","","","","ratingFB","","trustrating_stim/white_mw066.bmp","null","","","","","","","","","","",""
"image-keyboard-response","59","49419","0.0-6.0-1.27","633fa968afc8d3d2c0d8745c","bdp_trlrn","Fri Mar 10 2023 21:50:47 GMT-0800 (Pacific Standard Time)","486630","Trustworthy,Untrustworthy","","209","","","","rating","","trustrating_stim/white_00757_941201_fa_edt.bmp","5","","","","","","","","","","",""
"image-keyboard-response","60","49636","0.0-6.0-2.27","633fa968afc8d3d2c0d8745c","bdp_trlrn","Fri Mar 10 2023 21:50:47 GMT-0800 (Pacific Standard Time)","486630","Trustworthy,Untrustworthy","","null","","","","ratingFB","","trustrating_stim/white_00757_941201_fa_edt.bmp","null","","","","","","","","","","",""
"image-keyboard-response","61","49971","0.0-6.0-1.28","633fa968afc8d3d2c0d8745c","bdp_trlrn","Fri Mar 10 2023 21:50:47 GMT-0800 (Pacific Standard Time)","486630","Trustworthy,Untrustworthy","","230","","","","rating","","trustrating_stim/white_00785_941205_fb_edt.bmp","5","","","","","","","","","","",""
"image-keyboard-response","62","50186","0.0-6.0-2.28","633fa968afc8d3d2c0d8745c","bdp_trlrn","Fri Mar 10 2023 21:50:47 GMT-0800 (Pacific Standard Time)","486630","Trustworthy,Untrustworthy","","null","","","","ratingFB","","trustrating_stim/white_00785_941205_fb_edt.bmp","null","","","","","","","","","","",""
"image-keyboard-response","63","50608","0.0-6.0-1.29","633fa968afc8d3d2c0d8745c","bdp_trlrn","Fri Mar 10 2023 21:50:47 GMT-0800 (Pacific Standard Time)","486630","Trustworthy,Untrustworthy","","316","","","","rating","","trustrating_stim/white_mw097.bmp","5","","","","","","","","","","",""
"image-keyboard-response","64","50824","0.0-6.0-2.29","633fa968afc8d3d2c0d8745c","bdp_trlrn","Fri Mar 10 2023 21:50:47 GMT-0800 (Pacific Standard Time)","486630","Trustworthy,Untrustworthy","","null","","","","ratingFB","","trustrating_stim/white_mw097.bmp","null","","","","","","","","","","",""
"image-keyboard-response","65","51224","0.0-6.0-1.30","633fa968afc8d3d2c0d8745c","bdp_trlrn","Fri Mar 10 2023 21:50:47 GMT-0800 (Pacific Standard Time)","486630","Trustworthy,Untrustworthy","","295","","","","rating","","trustrating_stim/white_mw056.bmp","5","","","","","","","","","","",""
"image-keyboard-response","66","51442","0.0-6.0-2.30","633fa968afc8d3d2c0d8745c","bdp_trlrn","Fri Mar 10 2023 21:50:47 GMT-0800 (Pacific Standard Time)","486630","Trustworthy,Untrustworthy","","null","","","","ratingFB","","trustrating_stim/white_mw056.bmp","null","","","","","","","","","","",""
"image-keyboard-response","67","51631","0.0-6.0-1.31","633fa968afc8d3d2c0d8745c","bdp_trlrn","Fri Mar 10 2023 21:50:47 GMT-0800 (Pacific Standard Time)","486630","Trustworthy,Untrustworthy","","81","","","","rating","","trustrating_stim/white_mw084.bmp","5","","","","","","","","","","",""
"image-keyboard-response","68","51844","0.0-6.0-2.31","633fa968afc8d3d2c0d8745c","bdp_trlrn","Fri Mar 10 2023 21:50:47 GMT-0800 (Pacific Standard Time)","486630","Trustworthy,Untrustworthy","","null","","","","ratingFB","","trustrating_stim/white_mw084.bmp","null","","","","","","","","","","",""
"image-keyboard-response","69","52012","0.0-6.0-1.32","633fa968afc8d3d2c0d8745c","bdp_trlrn","Fri Mar 10 2023 21:50:47 GMT-0800 (Pacific Standard Time)","486630","Trustworthy,Untrustworthy","","61","","","","rating","","trustrating_stim/white_mw063.bmp","5","","","","","","","","","","",""
"image-keyboard-response","70","52214","0.0-6.0-2.32","633fa968afc8d3d2c0d8745c","bdp_trlrn","Fri Mar 10 2023 21:50:47 GMT-0800 (Pacific Standard Time)","486630","Trustworthy,Untrustworthy","","null","","","","ratingFB","","trustrating_stim/white_mw063.bmp","null","","","","","","","","","","",""
"image-keyboard-response","71","52558","0.0-6.0-1.33","633fa968afc8d3d2c0d8745c","bdp_trlrn","Fri Mar 10 2023 21:50:47 GMT-0800 (Pacific Standard Time)","486630","Trustworthy,Untrustworthy","","227","","","","rating","","trustrating_stim/white_mw053.bmp","5","","","","","","","","","","",""
"image-keyboard-response","72","52775","0.0-6.0-2.33","633fa968afc8d3d2c0d8745c","bdp_trlrn","Fri Mar 10 2023 21:50:47 GMT-0800 (Pacific Standard Time)","486630","Trustworthy,Untrustworthy","","null","","","","ratingFB","","trustrating_stim/white_mw053.bmp","null","","","","","","","","","","",""
"image-keyboard-response","73","53132","0.0-6.0-1.34","633fa968afc8d3d2c0d8745c","bdp_trlrn","Fri Mar 10 2023 21:50:47 GMT-0800 (Pacific Standard Time)","486630","Trustworthy,Untrustworthy","","252","","","","rating","","trustrating_stim/white_00340_940422_fa_edt.bmp","5","","","","","","","","","","",""
"image-keyboard-response","74","53348","0.0-6.0-2.34","633fa968afc8d3d2c0d8745c","bdp_trlrn","Fri Mar 10 2023 21:50:47 GMT-0800 (Pacific Standard Time)","486630","Trustworthy,Untrustworthy","","null","","","","ratingFB","","trustrating_stim/white_00340_940422_fa_edt.bmp","null","","","","","","","","","","",""
"image-keyboard-response","75","53567","0.0-6.0-1.35","633fa968afc8d3d2c0d8745c","bdp_trlrn","Fri Mar 10 2023 21:50:47 GMT-0800 (Pacific Standard Time)","486630","Trustworthy,Untrustworthy","","111","","","","rating","","trustrating_stim/white_00785_941205_fb_edt.bmp","5","","","","","","","","","","",""
"image-keyboard-response","76","53783","0.0-6.0-2.35","633fa968afc8d3d2c0d8745c","bdp_trlrn","Fri Mar 10 2023 21:50:47 GMT-0800 (Pacific Standard Time)","486630","Trustworthy,Untrustworthy","","null","","","","ratingFB","","trustrating_stim/white_00785_941205_fb_edt.bmp","null","","","","","","","","","","",""
"image-keyboard-response","77","53943","0.0-6.0-1.36","633fa968afc8d3d2c0d8745c","bdp_trlrn","Fri Mar 10 2023 21:50:47 GMT-0800 (Pacific Standard Time)","486630","Trustworthy,Untrustworthy","","55","","","","rating","","trustrating_stim/white_00299_940422_fa_edt.bmp","5","","","","","","","","","","",""
"image-keyboard-response","78","54150","0.0-6.0-2.36","633fa968afc8d3d2c0d8745c","bdp_trlrn","Fri Mar 10 2023 21:50:47 GMT-0800 (Pacific Standard Time)","486630","Trustworthy,Untrustworthy","","null","","","","ratingFB","","trustrating_stim/white_00299_940422_fa_edt.bmp","null","","","","","","","","","","",""
"image-keyboard-response","79","54398","0.0-6.0-1.37","633fa968afc8d3d2c0d8745c","bdp_trlrn","Fri Mar 10 2023 21:50:47 GMT-0800 (Pacific Standard Time)","486630","Trustworthy,Untrustworthy","","143","","","","rating","","trustrating_stim/white_mw033.bmp","5","","","","","","","","","","",""
"image-keyboard-response","80","54600","0.0-6.0-2.37","633fa968afc8d3d2c0d8745c","bdp_trlrn","Fri Mar 10 2023 21:50:47 GMT-0800 (Pacific Standard Time)","486630","Trustworthy,Untrustworthy","","null","","","","ratingFB","","trustrating_stim/white_mw033.bmp","null","","","","","","","","","","",""
"image-keyboard-response","81","55117","0.0-6.0-1.38","633fa968afc8d3d2c0d8745c","bdp_trlrn","Fri Mar 10 2023 21:50:47 GMT-0800 (Pacific Standard Time)","486630","Trustworthy,Untrustworthy","","411","","","","rating","","trustrating_stim/white_mw060.bmp","5","","","","","","","","","","",""
"image-keyboard-response","82","55334","0.0-6.0-2.38","633fa968afc8d3d2c0d8745c","bdp_trlrn","Fri Mar 10 2023 21:50:47 GMT-0800 (Pacific Standard Time)","486630","Trustworthy,Untrustworthy","","null","","","","ratingFB","","trustrating_stim/white_mw060.bmp","null","","","","","","","","","","",""
"image-keyboard-response","83","55724","0.0-6.0-1.39","633fa968afc8d3d2c0d8745c","bdp_trlrn","Fri Mar 10 2023 21:50:47 GMT-0800 (Pacific Standard Time)","486630","Trustworthy,Untrustworthy","","284","","","","rating","","trustrating_stim/white_00109_931230_fa_edt.bmp","5","","","","","","","","","","",""
"image-keyboard-response","84","55939","0.0-6.0-2.39","633fa968afc8d3d2c0d8745c","bdp_trlrn","Fri Mar 10 2023 21:50:47 GMT-0800 (Pacific Standard Time)","486630","Trustworthy,Untrustworthy","","null","","","","ratingFB","","trustrating_stim/white_00109_931230_fa_edt.bmp","null","","","","","","","","","","",""
"image-keyboard-response","85","56245","0.0-6.0-1.40","633fa968afc8d3d2c0d8745c","bdp_trlrn","Fri Mar 10 2023 21:50:47 GMT-0800 (Pacific Standard Time)","486630","Trustworthy,Untrustworthy","","200","","","","rating","","trustrating_stim/white_mw066.bmp","5","","","","","","","","","","",""
"image-keyboard-response","86","56456","0.0-6.0-2.40","633fa968afc8d3d2c0d8745c","bdp_trlrn","Fri Mar 10 2023 21:50:47 GMT-0800 (Pacific Standard Time)","486630","Trustworthy,Untrustworthy","","null","","","","ratingFB","","trustrating_stim/white_mw066.bmp","null","","","","","","","","","","",""
"image-keyboard-response","87","57313","0.0-6.0-1.41","633fa968afc8d3d2c0d8745c","bdp_trlrn","Fri Mar 10 2023 21:50:47 GMT-0800 (Pacific Standard Time)","486630","Trustworthy,Untrustworthy","","752","","","","rating","","trustrating_stim/white_00757_941201_fa_edt.bmp","5","","","","","","","","","","",""
"image-keyboard-response","88","57528","0.0-6.0-2.41","633fa968afc8d3d2c0d8745c","bdp_trlrn","Fri Mar 10 2023 21:50:47 GMT-0800 (Pacific Standard Time)","486630","Trustworthy,Untrustworthy","","null","","","","ratingFB","","trustrating_stim/white_00757_941201_fa_edt.bmp","null","","","","","","","","","","",""
"image-keyboard-response","89","57894","0.0-6.0-1.42","633fa968afc8d3d2c0d8745c","bdp_trlrn","Fri Mar 10 2023 21:50:47 GMT-0800 (Pacific Standard Time)","486630","Trustworthy,Untrustworthy","","262","","","","rating","","trustrating_stim/white_mw071.bmp","5","","","","","","","","","","",""
"image-keyboard-response","90","58109","0.0-6.0-2.42","633fa968afc8d3d2c0d8745c","bdp_trlrn","Fri Mar 10 2023 21:50:47 GMT-0800 (Pacific Standard Time)","486630","Trustworthy,Untrustworthy","","null","","","","ratingFB","","trustrating_stim/white_mw071.bmp","null","","","","","","","","","","",""
"image-keyboard-response","91","58452","0.0-6.0-1.43","633fa968afc8d3d2c0d8745c","bdp_trlrn","Fri Mar 10 2023 21:50:47 GMT-0800 (Pacific Standard Time)","486630","Trustworthy,Untrustworthy","","237","","","","rating","","trustrating_stim/white_00577_940928_fa_edt.bmp","5","","","","","","","","","","",""
"image-keyboard-response","92","58668","0.0-6.0-2.43","633fa968afc8d3d2c0d8745c","bdp_trlrn","Fri Mar 10 2023 21:50:47 GMT-0800 (Pacific Standard Time)","486630","Trustworthy,Untrustworthy","","null","","","","ratingFB","","trustrating_stim/white_00577_940928_fa_edt.bmp","null","","","","","","","","","","",""
"image-keyboard-response","93","59737","0.0-6.0-1.44","633fa968afc8d3d2c0d8745c","bdp_trlrn","Fri Mar 10 2023 21:50:47 GMT-0800 (Pacific Standard Time)","486630","Trustworthy,Untrustworthy","","965","","","","rating","","trustrating_stim/white_00602_940928_fb_edt.bmp","5","","","","","","","","","","",""
"image-keyboard-response","94","59952","0.0-6.0-2.44","633fa968afc8d3d2c0d8745c","bdp_trlrn","Fri Mar 10 2023 21:50:47 GMT-0800 (Pacific Standard Time)","486630","Trustworthy,Untrustworthy","","null","","","","ratingFB","","trustrating_stim/white_00602_940928_fb_edt.bmp","null","","","","","","","","","","",""
"image-keyboard-response","95","60359","0.0-6.0-1.45","633fa968afc8d3d2c0d8745c","bdp_trlrn","Fri Mar 10 2023 21:50:47 GMT-0800 (Pacific Standard Time)","486630","Trustworthy,Untrustworthy","","302","","","","rating","","trustrating_stim/white_00519_940519_fb_edt.bmp","5","","","","","","","","","","",""
"image-keyboard-response","96","60574","0.0-6.0-2.45","633fa968afc8d3d2c0d8745c","bdp_trlrn","Fri Mar 10 2023 21:50:47 GMT-0800 (Pacific Standard Time)","486630","Trustworthy,Untrustworthy","","null","","","","ratingFB","","trustrating_stim/white_00519_940519_fb_edt.bmp","null","","","","","","","","","","",""
"image-keyboard-response","97","60688","0.0-6.0-1.46","633fa968afc8d3d2c0d8745c","bdp_trlrn","Fri Mar 10 2023 21:50:47 GMT-0800 (Pacific Standard Time)","486630","Trustworthy,Untrustworthy","","9","","","","rating","","trustrating_stim/white_mw097.bmp","5","","","","","","","","","","",""
"image-keyboard-response","98","60892","0.0-6.0-2.46","633fa968afc8d3d2c0d8745c","bdp_trlrn","Fri Mar 10 2023 21:50:47 GMT-0800 (Pacific Standard Time)","486630","Trustworthy,Untrustworthy","","null","","","","ratingFB","","trustrating_stim/white_mw097.bmp","null","","","","","","","","","","",""
"image-keyboard-response","99","61232","0.0-6.0-1.47","633fa968afc8d3d2c0d8745c","bdp_trlrn","Fri Mar 10 2023 21:50:47 GMT-0800 (Pacific Standard Time)","486630","Trustworthy,Untrustworthy","","234","","","","rating","","trustrating_stim/white_00120_931230_fa_edt.bmp","5","","","","","","","","","","",""
"image-keyboard-response","100","61442","0.0-6.0-2.47","633fa968afc8d3d2c0d8745c","bdp_trlrn","Fri Mar 10 2023 21:50:47 GMT-0800 (Pacific Standard Time)","486630","Trustworthy,Untrustworthy","","null","","","","ratingFB","","trustrating_stim/white_00120_931230_fa_edt.bmp","null","","","","","","","","","","",""
"image-keyboard-response","101","61817","0.0-6.0-1.48","633fa968afc8d3d2c0d8745c","bdp_trlrn","Fri Mar 10 2023 21:50:47 GMT-0800 (Pacific Standard Time)","486630","Trustworthy,Untrustworthy","","266","","","","rating","","trustrating_stim/white_00898_960530_fa_edt.bmp","5","","","","","","","","","","",""
"image-keyboard-response","102","62032","0.0-6.0-2.48","633fa968afc8d3d2c0d8745c","bdp_trlrn","Fri Mar 10 2023 21:50:47 GMT-0800 (Pacific Standard Time)","486630","Trustworthy,Untrustworthy","","null","","","","ratingFB","","trustrating_stim/white_00898_960530_fa_edt.bmp","null","","","","","","","","","","",""
"image-keyboard-response","103","62455","0.0-6.0-1.49","633fa968afc8d3d2c0d8745c","bdp_trlrn","Fri Mar 10 2023 21:50:47 GMT-0800 (Pacific Standard Time)","486630","Trustworthy,Untrustworthy","","316","","","","rating","","trustrating_stim/white_00807_941205_fb_edt.bmp","5","","","","","","","","","","",""
"image-keyboard-response","104","62671","0.0-6.0-2.49","633fa968afc8d3d2c0d8745c","bdp_trlrn","Fri Mar 10 2023 21:50:47 GMT-0800 (Pacific Standard Time)","486630","Trustworthy,Untrustworthy","","null","","","","ratingFB","","trustrating_stim/white_00807_941205_fb_edt.bmp","null","","","","","","","","","","",""
"image-keyboard-response","105","62781","0.0-6.0-1.50","633fa968afc8d3d2c0d8745c","bdp_trlrn","Fri Mar 10 2023 21:50:47 GMT-0800 (Pacific Standard Time)","486630","Trustworthy,Untrustworthy","","4","","","","rating","","trustrating_stim/white_mw048.bmp","5","","","","","","","","","","",""
"image-keyboard-response","106","62992","0.0-6.0-2.50","633fa968afc8d3d2c0d8745c","bdp_trlrn","Fri Mar 10 2023 21:50:47 GMT-0800 (Pacific Standard Time)","486630","Trustworthy,Untrustworthy","","null","","","","ratingFB","","trustrating_stim/white_mw048.bmp","null","","","","","","","","","","",""
"image-keyboard-response","107","63101","0.0-6.0-1.51","633fa968afc8d3d2c0d8745c","bdp_trlrn","Fri Mar 10 2023 21:50:47 GMT-0800 (Pacific Standard Time)","486630","Trustworthy,Untrustworthy","","3","","","","rating","","trustrating_stim/white_00761_941201_fb_edt.bmp","5","","","","","","","","","","",""
"image-keyboard-response","108","63307","0.0-6.0-2.51","633fa968afc8d3d2c0d8745c","bdp_trlrn","Fri Mar 10 2023 21:50:47 GMT-0800 (Pacific Standard Time)","486630","Trustworthy,Untrustworthy","","null","","","","ratingFB","","trustrating_stim/white_00761_941201_fb_edt.bmp","null","","","","","","","","","","",""
"image-keyboard-response","109","63770","0.0-6.0-1.52","633fa968afc8d3d2c0d8745c","bdp_trlrn","Fri Mar 10 2023 21:50:47 GMT-0800 (Pacific Standard Time)","486630","Trustworthy,Untrustworthy","","356","","","","rating","","trustrating_stim/white_mw035.bmp","5","","","","","","","","","","",""
"image-keyboard-response","110","63985","0.0-6.0-2.52","633fa968afc8d3d2c0d8745c","bdp_trlrn","Fri Mar 10 2023 21:50:47 GMT-0800 (Pacific Standard Time)","486630","Trustworthy,Untrustworthy","","null","","","","ratingFB","","trustrating_stim/white_mw035.bmp","null","","","","","","","","","","",""
"image-keyboard-response","111","64361","0.0-6.0-1.53","633fa968afc8d3d2c0d8745c","bdp_trlrn","Fri Mar 10 2023 21:50:47 GMT-0800 (Pacific Standard Time)","486630","Trustworthy,Untrustworthy","","271","","","","rating","","trustrating_stim/white_00659_941121_fa_edt.bmp","5","","","","","","","","","","",""
"image-keyboard-response","112","64563","0.0-6.0-2.53","633fa968afc8d3d2c0d8745c","bdp_trlrn","Fri Mar 10 2023 21:50:47 GMT-0800 (Pacific Standard Time)","486630","Trustworthy,Untrustworthy","","null","","","","ratingFB","","trustrating_stim/white_00659_941121_fa_edt.bmp","null","","","","","","","","","","",""
"image-keyboard-response","113","64802","0.0-6.0-1.54","633fa968afc8d3d2c0d8745c","bdp_trlrn","Fri Mar 10 2023 21:50:47 GMT-0800 (Pacific Standard Time)","486630","Trustworthy,Untrustworthy","","133","","","","rating","","trustrating_stim/white_00223_940128_fb_edt.bmp","5","","","","","","","","","","",""
"image-keyboard-response","114","65014","0.0-6.0-2.54","633fa968afc8d3d2c0d8745c","bdp_trlrn","Fri Mar 10 2023 21:50:47 GMT-0800 (Pacific Standard Time)","486630","Trustworthy,Untrustworthy","","null","","","","ratingFB","","trustrating_stim/white_00223_940128_fb_edt.bmp","null","","","","","","","","","","",""
"image-keyboard-response","115","65143","0.0-6.0-1.55","633fa968afc8d3d2c0d8745c","bdp_trlrn","Fri Mar 10 2023 21:50:47 GMT-0800 (Pacific Standard Time)","486630","Trustworthy,Untrustworthy","","23","","","","rating","","trustrating_stim/white_mw049.bmp","5","","","","","","","","","","",""
"image-keyboard-response","116","65350","0.0-6.0-2.55","633fa968afc8d3d2c0d8745c","bdp_trlrn","Fri Mar 10 2023 21:50:47 GMT-0800 (Pacific Standard Time)","486630","Trustworthy,Untrustworthy","","null","","","","ratingFB","","trustrating_stim/white_mw049.bmp","null","","","","","","","","","","",""
"image-keyboard-response","117","65686","0.0-6.0-1.56","633fa968afc8d3d2c0d8745c","bdp_trlrn","Fri Mar 10 2023 21:50:47 GMT-0800 (Pacific Standard Time)","486630","Trustworthy,Untrustworthy","","229","","","","rating","","trustrating_stim/white_mw099.bmp","5","","","","","","","","","","",""
"image-keyboard-response","118","65902","0.0-6.0-2.56","633fa968afc8d3d2c0d8745c","bdp_trlrn","Fri Mar 10 2023 21:50:47 GMT-0800 (Pacific Standard Time)","486630","Trustworthy,Untrustworthy","","null","","","","ratingFB","","trustrating_stim/white_mw099.bmp","null","","","","","","","","","","",""
"image-keyboard-response","119","66227","0.0-6.0-1.57","633fa968afc8d3d2c0d8745c","bdp_trlrn","Fri Mar 10 2023 21:50:47 GMT-0800 (Pacific Standard Time)","486630","Trustworthy,Untrustworthy","","219","","","","rating","","trustrating_stim/white_00129_931230_fb_edt.bmp","5","","","","","","","","","","",""
"image-keyboard-response","120","66442","0.0-6.0-2.57","633fa968afc8d3d2c0d8745c","bdp_trlrn","Fri Mar 10 2023 21:50:47 GMT-0800 (Pacific Standard Time)","486630","Trustworthy,Untrustworthy","","null","","","","ratingFB","","trustrating_stim/white_00129_931230_fb_edt.bmp","null","","","","","","","","","","",""
"image-keyboard-response","121","66758","0.0-6.0-1.58","633fa968afc8d3d2c0d8745c","bdp_trlrn","Fri Mar 10 2023 21:50:47 GMT-0800 (Pacific Standard Time)","486630","Trustworthy,Untrustworthy","","211","","","","rating","","trustrating_stim/white_mw089.bmp","5","","","","","","","","","","",""
"image-keyboard-response","122","66961","0.0-6.0-2.58","633fa968afc8d3d2c0d8745c","bdp_trlrn","Fri Mar 10 2023 21:50:47 GMT-0800 (Pacific Standard Time)","486630","Trustworthy,Untrustworthy","","null","","","","ratingFB","","trustrating_stim/white_mw089.bmp","null","","","","","","","","","","",""
"image-keyboard-response","123","67406","0.0-6.0-1.59","633fa968afc8d3d2c0d8745c","bdp_trlrn","Fri Mar 10 2023 21:50:47 GMT-0800 (Pacific Standard Time)","486630","Trustworthy,Untrustworthy","","340","","","","rating","","trustrating_stim/white_mw046.bmp","5","","","","","","","","","","",""
"image-keyboard-response","124","67618","0.0-6.0-2.59","633fa968afc8d3d2c0d8745c","bdp_trlrn","Fri Mar 10 2023 21:50:47 GMT-0800 (Pacific Standard Time)","486630","Trustworthy,Untrustworthy","","null","","","","ratingFB","","trustrating_stim/white_mw046.bmp","null","","","","","","","","","","",""
"instructions","125","72512","0.0-7.0","633fa968afc8d3d2c0d8745c","bdp_trlrn","Fri Mar 10 2023 21:50:47 GMT-0800 (Pacific Standard Time)","486630","Trustworthy,Untrustworthy","[{""page_index"":0,""viewing_time"":4789}]","4789","","","","","","","","","","","","","","","","","",""
"instructions","126","84703","0.0-8.0","633fa968afc8d3d2c0d8745c","bdp_trlrn","Fri Mar 10 2023 21:50:47 GMT-0800 (Pacific Standard Time)","486630","Trustworthy,Untrustworthy","[{""page_index"":0,""viewing_time"":1616},{""page_index"":1,""viewing_time"":6911},{""page_index"":2,""viewing_time"":517},{""page_index"":3,""viewing_time"":893},{""page_index"":4,""viewing_time"":606},{""page_index"":5,""viewing_time"":542},{""page_index"":6,""viewing_time"":466},{""page_index"":7,""viewing_time"":534}]","12085","","","","","","","","","","","","","","","","","",""
"html-keyboard-response","127","93457","0.0-9.0","633fa968afc8d3d2c0d8745c","bdp_trlrn","Fri Mar 10 2023 21:50:47 GMT-0800 (Pacific Standard Time)","486630","Trustworthy,Untrustworthy","","8751","","","","","","<div class='header' style='text-align:left; position: absolute; top: 5%; left: 5%;'><small>Task 2 of 5</small></div><div class='instruxDiv'><p><strong>1) What is the minimum number of points you can choose to send to your partner?</strong></p><p>a) 0</p><p>b) 1</p><p>c) 5</p>","C","","","","","","","","","","",""
"html-keyboard-response","128","102647","0.0-10.0","633fa968afc8d3d2c0d8745c","bdp_trlrn","Fri Mar 10 2023 21:50:47 GMT-0800 (Pacific Standard Time)","486630","Trustworthy,Untrustworthy","","9084","","","","","","<div class='header' style='text-align:left; position: absolute; top: 5%; left: 5%;'><small>Task 2 of 5</small></div><div class='instruxDiv'><p><strong>1) What is the minimum number of points you can choose to send to your partner?</strong></p><p>a) 1</p><p>b) 1</p><p style='color:#FF0000'>c) 5</p><h3 style='color:#FF0000'>Incorrect!</h3><h3 class='center-content'>The correct response is b).</h3><h3 class='center-content'>The minimum number of points you can choose to send to your partner is 1 point.</h3><p><em>Press SPACEBAR to continue</em></p></div>"," ","","","","","","","","","","",""
"html-keyboard-response","129","112276","0.0-11.0","633fa968afc8d3d2c0d8745c","bdp_trlrn","Fri Mar 10 2023 21:50:47 GMT-0800 (Pacific Standard Time)","486630","Trustworthy,Untrustworthy","","9524","","","","","","<div class='header' style='text-align:left; position: absolute; top: 5%; left: 5%;'><small>Task 2 of 5</small></div><div class='instruxDiv'><p><strong>2) What is the maximum number of points you can choose to send to your partner?</strong></p><p>a) 8</p><p>b) 5</p><p>c) 3</p>","B","","","","","","","","","","",""
"html-keyboard-response","130","115346","0.0-12.0","633fa968afc8d3d2c0d8745c","bdp_trlrn","Fri Mar 10 2023 21:50:47 GMT-0800 (Pacific Standard Time)","486630","Trustworthy,Untrustworthy","","2963","","","","","","<div class='header' style='text-align:left; position: absolute; top: 5%; left: 5%;'><small>Task 2 of 5</small></div><div class='instruxDiv'><p><strong>2) What is the maximum number of points you can choose to send to your partner?</strong></p><p>a) 8</p><p style='color:#00FF00'>b) 5</p><p>c) 3</p><h3 style='color:#00FF00'>Correct!</h3><h3 class='center-content'>The correct response is b).</h3><h3 class='center-content'>The maximum number of points you can choose to send to your partner is 5 points.</h3><p><em>Press SPACEBAR to continue</em></p></div>"," ","","","","","","","","","","",""
"html-keyboard-response","131","147223","0.0-13.0","633fa968afc8d3d2c0d8745c","bdp_trlrn","Fri Mar 10 2023 21:50:47 GMT-0800 (Pacific Standard Time)","486630","Trustworthy,Untrustworthy","","31771","","","","","","<div class='header' style='text-align:left; position: absolute; top: 5%; left: 5%;'><small>Task 2 of 5</small></div><div class='instruxDiv'><p><strong>3) What happens to the amount of points you send to your partner?</strong></p><p>a) Nothing</p><p>b) It doubles</p><p>c) It quadruples</p>","B","","","","","","","","","","",""
"html-keyboard-response","132","150925","0.0-14.0","633fa968afc8d3d2c0d8745c","bdp_trlrn","Fri Mar 10 2023 21:50:47 GMT-0800 (Pacific Standard Time)","486630","Trustworthy,Untrustworthy","","3595","","","","","","<div class='header' style='text-align:left; position: absolute; top: 5%; left: 5%;'><small>Task 2 of 5</small></div><div class='instruxDiv'><p><strong>3) What happens to the amount of points you send to your partner?</strong></p><p>a) Nothing</p><p style='color:#FF0000'>b) It doubles</p><p>c) It quadruples</p><h3 style='color:#FF0000'>Incorrect!</h3><h3 class='center-content'>The correct response is c).</h3><h3 class='center-content'>The amount of points you send to your partner quadruples.</h3><p><em>Press SPACEBAR to continue</em></p></div>"," ","","","","","","","","","","",""
"html-keyboard-response","133","166598","0.0-15.0","633fa968afc8d3d2c0d8745c","bdp_trlrn","Fri Mar 10 2023 21:50:47 GMT-0800 (Pacific Standard Time)","486630","Trustworthy,Untrustworthy","","15568","","","","","","<div class='header' style='text-align:left; position: absolute; top: 5%; left: 5%;'><small>Task 2 of 5</small></div><div class='instruxDiv'><p><strong>4) If you decided to share 4 out of 5 points with your partner, and they decided to share half of the amount they received with you, how many points would you receive back from them on this round?</strong></p><p>a) 16</p><p>b) 0</p><p>c) 8</p>","A","","","","","","","","","","",""
"html-keyboard-response","134","169657","0.0-16.0","633fa968afc8d3d2c0d8745c","bdp_trlrn","Fri Mar 10 2023 21:50:47 GMT-0800 (Pacific Standard Time)","486630","Trustworthy,Untrustworthy","","2952","","","","","","<div class='header' style='text-align:left; position: absolute; top: 5%; left: 5%;'><small>Task 2 of 5</small></div><div class='instruxDiv'><p><strong>4) If you decided to share 4 out of 5 points with your partner, and they decided to share half of the amount they received with you, how many points would you receive back from them on this round?</strong></p><p style='color:#FF0000'>a) 16</p><p>b) 0</p><p>c) 8</p><h3 style='color:#FF0000'>Incorrect!</h3><h3 class='center-content'>The correct response is c).</h3><h3 class='center-content'>If you shared 4 out of 5 points with your partner and they decided to share half of the amount they received with you, you would receive 8 points back (i.e. (4 x 4)/2 = 8).</h3><p><em>Press SPACEBAR to continue</em></p></div>"," ","","","","","","","","","","",""
"html-keyboard-response","135","174764","0.0-17.0","633fa968afc8d3d2c0d8745c","bdp_trlrn","Fri Mar 10 2023 21:50:47 GMT-0800 (Pacific Standard Time)","486630","Trustworthy,Untrustworthy","","null","","","","","","<div class='header' style='text-align:left; position: absolute; top: 5%; left: 5%;'><small>Task 2 of 5</small></div><div class='instruxDiv'><p>Thank you for completing the quiz<p>These are the actual partners you will be interacting with in the next block:<p><div class='tc' align='center'><img class='introPic' src='trustrating_stim/white_00785_941205_fb_edt.bmp'><br><strong>Anthony</strong></div><div class='bl' align='center'><img class='introPic' src='trustrating_stim/white_mw063.bmp'><br><strong>Ethan</strong></div><div class='br' align='center'><img class='introPic' src='trustrating_stim/white_mw089.bmp'><br><strong>Benjamin</strong></div></div><p>Across <strong>66 rounds</strong> you will interact with each partner <strong>22 times</strong> (in random order).<p style='align:center; color:white'><font <em>Press SPACEBAR to continue</em></p>","null","","","","","","","","","","",""
"instructions","136","181608","0.0-18.0","633fa968afc8d3d2c0d8745c","bdp_trlrn","Fri Mar 10 2023 21:50:47 GMT-0800 (Pacific Standard Time)","486630","Trustworthy,Untrustworthy","[{""page_index"":0,""viewing_time"":3413},{""page_index"":1,""viewing_time"":3430}]","6843","","","","","","","","","","","","","","","","","",""
"html-keyboard-response","137","183245","0.0-19.0-1.0","633fa968afc8d3d2c0d8745c","bdp_trlrn","Fri Mar 10 2023 21:50:47 GMT-0800 (Pacific Standard Time)","486630","Trustworthy,Untrustworthy","","1530","","","","decision","","<div class='trialDiv'><img src='trustrating_stim/white_00785_941205_fb_edt.bmp'><br><font class='baseline'><strong>Anthony</strong><p>Choose number of points to send.</font><div class='respPicDiv'><img src='img/responseButtonOffersNo0L.png' class='respPic'></div></div>","3","1","Anthony","3","Shared","0.35,0.65","12","0.35","trustrating_stim/white_00785_941205_fb_edt.bmp","5","5","1"
"html-keyboard-response","138","183501","0.0-19.0-2.0","633fa968afc8d3d2c0d8745c","bdp_trlrn","Fri Mar 10 2023 21:50:47 GMT-0800 (Pacific Standard Time)","486630","Trustworthy,Untrustworthy","","null","","","","decisionFB","","<div class='trialDiv'><img src='trustrating_stim/white_00785_941205_fb_edt.bmp'><br><font class='baseline'><strong>Anthony</strong><p>Choose number of points to send.</font><div class='respPicDiv'><img src='img/responseButtonOffersNo0L3.png' class='respPic'></div></div>","null","1","Anthony","3","Shared","0.35,0.65","12","0.35","trustrating_stim/white_00785_941205_fb_edt.bmp","5","2","1"
"html-keyboard-response","139","184515","0.0-19.0-3.0","633fa968afc8d3d2c0d8745c","bdp_trlrn","Fri Mar 10 2023 21:50:47 GMT-0800 (Pacific Standard Time)","486630","Trustworthy,Untrustworthy","","null","","","","feedback","","<div class='trialDiv'><img src='trustrating_stim/white_00785_941205_fb_edt.bmp'><br><font class='baseline'><strong>Anthony</strong><p>Received: <strong>12</strong></font> &nbsp; &nbsp; &nbsp; &nbsp; &nbsp; &nbsp;<font class='posOutcome'>Shared back: <strong>6</strong></font></font><div class='respPicDiv'><img src='img/responseButtonOffersNo0_wht.png' class='respPic'></div></div>","null","1","Anthony","3","Shared","0.35,0.65","12","0.35","trustrating_stim/white_00785_941205_fb_edt.bmp","5","8","1"
"html-keyboard-response","140","184704","0.0-19.0-1.1","633fa968afc8d3d2c0d8745c","bdp_trlrn","Fri Mar 10 2023 21:50:47 GMT-0800 (Pacific Standard Time)","486630","Trustworthy,Untrustworthy","","187","","","","decision","","<div class='trialDiv'><img src='trustrating_stim/white_mw063.bmp'><br><font class='baseline'><strong>Ethan</strong><p>Choose number of points to send.</font><div class='respPicDiv'><img src='img/responseButtonOffersNo0L.png' class='respPic'></div></div>","4","1","Ethan","7","Shared","0.8,0.35","13","0.8","trustrating_stim/white_mw063.bmp","5.5","13","2"
"html-keyboard-response","141","184966","0.0-19.0-2.1","633fa968afc8d3d2c0d8745c","bdp_trlrn","Fri Mar 10 2023 21:50:47 GMT-0800 (Pacific Standard Time)","486630","Trustworthy,Untrustworthy","","null","","","","decisionFB","","<div class='trialDiv'><img src='trustrating_stim/white_mw063.bmp'><br><font class='baseline'><strong>Ethan</strong><p>Choose number of points to send.</font><div class='respPicDiv'><img src='img/responseButtonOffersNo0L4.png' class='respPic'></div></div>","null","1","Ethan","7","Shared","0.8,0.35","13","0.8","trustrating_stim/white_mw063.bmp","5.5","9","2"
"html-keyboard-response","142","185982","0.0-19.0-3.1","633fa968afc8d3d2c0d8745c","bdp_trlrn","Fri Mar 10 2023 21:50:47 GMT-0800 (Pacific Standard Time)","486630","Trustworthy,Untrustworthy","","null","","","","feedback","","<div class='trialDiv'><img src='trustrating_stim/white_mw063.bmp'><br><font class='baseline'><strong>Ethan</strong><p>Received: <strong>16</strong></font> &nbsp; &nbsp; &nbsp; &nbsp; &nbsp; &nbsp;<font class='posOutcome'>Shared back: <strong>8</strong></font></font><div class='respPicDiv'><img src='img/responseButtonOffersNo0_wht.png' class='respPic'></div></div>","null","1","Ethan","7","Shared","0.8,0.35","13","0.8","trustrating_stim/white_mw063.bmp","5.5","17","2"
"html-keyboard-response","143","186143","0.0-19.0-1.2","633fa968afc8d3d2c0d8745c","bdp_trlrn","Fri Mar 10 2023 21:50:47 GMT-0800 (Pacific Standard Time)","486630","Trustworthy,Untrustworthy","","158","","","","decision","","<div class='trialDiv'><img src='trustrating_stim/white_mw089.bmp'><br><font class='baseline'><strong>Benjamin</strong><p>Choose number of points to send.</font><div class='respPicDiv'><img src='img/responseButtonOffersNo0L.png' class='respPic'></div></div>","3","1","Benjamin","11","Kept","0.35,0.8","9","0.35","trustrating_stim/white_mw089.bmp","7","22","3"
"html-keyboard-response","144","186396","0.0-19.0-2.2","633fa968afc8d3d2c0d8745c","bdp_trlrn","Fri Mar 10 2023 21:50:47 GMT-0800 (Pacific Standard Time)","486630","Trustworthy,Untrustworthy","","null","","","","decisionFB","","<div class='trialDiv'><img src='trustrating_stim/white_mw089.bmp'><br><font class='baseline'><strong>Benjamin</strong><p>Choose number of points to send.</font><div class='respPicDiv'><img src='img/responseButtonOffersNo0L3.png' class='respPic'></div></div>","null","1","Benjamin","11","Kept","0.35,0.8","9","0.35","trustrating_stim/white_mw089.bmp","7","19","3"
"html-keyboard-response","145","187410","0.0-19.0-3.2","633fa968afc8d3d2c0d8745c","bdp_trlrn","Fri Mar 10 2023 21:50:47 GMT-0800 (Pacific Standard Time)","486630","Trustworthy,Untrustworthy","","null","","","","feedback","","<div class='trialDiv'><img src='trustrating_stim/white_mw089.bmp'><br><font class='baseline'><strong>Benjamin</strong><p>Received: <strong>12</strong></font> &nbsp; &nbsp; &nbsp; &nbsp; &nbsp; &nbsp;<font class='negOutcome'>Shared back: <strong>0</strong></font></font><div class='respPicDiv'><img src='img/responseButtonOffersNo0_wht.png' class='respPic'></div></div>","null","1","Benjamin","11","Kept","0.35,0.8","9","0.35","trustrating_stim/white_mw089.bmp","7","19","3"
"html-keyboard-response","146","187458","0.0-19.0-1.3","633fa968afc8d3d2c0d8745c","bdp_trlrn","Fri Mar 10 2023 21:50:47 GMT-0800 (Pacific Standard Time)","486630","Trustworthy,Untrustworthy","","47","","","","decision","","<div class='trialDiv'><img src='trustrating_stim/white_mw063.bmp'><br><font class='baseline'><strong>Ethan</strong><p>Choose number of points to send.</font><div class='respPicDiv'><img src='img/responseButtonOffersNo0L.png' class='respPic'></div></div>","5","2","Ethan","7","Shared","0.8,0.35","13","0.8","trustrating_stim/white_mw063.bmp","5.5","24","4"
"html-keyboard-response","147","187711","0.0-19.0-2.3","633fa968afc8d3d2c0d8745c","bdp_trlrn","Fri Mar 10 2023 21:50:47 GMT-0800 (Pacific Standard Time)","486630","Trustworthy,Untrustworthy","","null","","","","decisionFB","","<div class='trialDiv'><img src='trustrating_stim/white_mw063.bmp'><br><font class='baseline'><strong>Ethan</strong><p>Choose number of points to send.</font><div class='respPicDiv'><img src='img/responseButtonOffersNo0L5.png' class='respPic'></div></div>","null","2","Ethan","7","Shared","0.8,0.35","13","0.8","trustrating_stim/white_mw063.bmp","5.5","19","4"
"html-keyboard-response","148","188728","0.0-19.0-3.3","633fa968afc8d3d2c0d8745c","bdp_trlrn","Fri Mar 10 2023 21:50:47 GMT-0800 (Pacific Standard Time)","486630","Trustworthy,Untrustworthy","","null","","","","feedback","","<div class='trialDiv'><img src='trustrating_stim/white_mw063.bmp'><br><font class='baseline'><strong>Ethan</strong><p>Received: <strong>20</strong></font> &nbsp; &nbsp; &nbsp; &nbsp; &nbsp; &nbsp;<font class='posOutcome'>Shared back: <strong>10</strong></font></font><div class='respPicDiv'><img src='img/responseButtonOffersNo0_wht.png' class='respPic'></div></div>","null","2","Ethan","7","Shared","0.8,0.35","13","0.8","trustrating_stim/white_mw063.bmp","5.5","29","4"
"html-keyboard-response","149","189259","0.0-19.0-1.4","633fa968afc8d3d2c0d8745c","bdp_trlrn","Fri Mar 10 2023 21:50:47 GMT-0800 (Pacific Standard Time)","486630","Trustworthy,Untrustworthy","","529","","","","decision","","<div class='trialDiv'><img src='trustrating_stim/white_mw089.bmp'><br><font class='baseline'><strong>Benjamin</strong><p>Choose number of points to send.</font><div class='respPicDiv'><img src='img/responseButtonOffersNo0L.png' class='respPic'></div></div>","4","2","Benjamin","11","Kept","0.35,0.8","9","0.35","trustrating_stim/white_mw089.bmp","7","34","5"
"html-keyboard-response","150","189524","0.0-19.0-2.4","633fa968afc8d3d2c0d8745c","bdp_trlrn","Fri Mar 10 2023 21:50:47 GMT-0800 (Pacific Standard Time)","486630","Trustworthy,Untrustworthy","","null","","","","decisionFB","","<div class='trialDiv'><img src='trustrating_stim/white_mw089.bmp'><br><font class='baseline'><strong>Benjamin</strong><p>Choose number of points to send.</font><div class='respPicDiv'><img src='img/responseButtonOffersNo0L4.png' class='respPic'></div></div>","null","2","Benjamin","11","Kept","0.35,0.8","9","0.35","trustrating_stim/white_mw089.bmp","7","30","5"
"html-keyboard-response","151","190537","0.0-19.0-3.4","633fa968afc8d3d2c0d8745c","bdp_trlrn","Fri Mar 10 2023 21:50:47 GMT-0800 (Pacific Standard Time)","486630","Trustworthy,Untrustworthy","","null","","","","feedback","","<div class='trialDiv'><img src='trustrating_stim/white_mw089.bmp'><br><font class='baseline'><strong>Benjamin</strong><p>Received: <strong>16</strong></font> &nbsp; &nbsp; &nbsp; &nbsp; &nbsp; &nbsp;<font class='negOutcome'>Shared back: <strong>0</strong></font></font><div class='respPicDiv'><img src='img/responseButtonOffersNo0_wht.png' class='respPic'></div></div>","null","2","Benjamin","11","Kept","0.35,0.8","9","0.35","trustrating_stim/white_mw089.bmp","7","30","5"
"html-keyboard-response","152","190568","0.0-19.0-1.5","633fa968afc8d3d2c0d8745c","bdp_trlrn","Fri Mar 10 2023 21:50:47 GMT-0800 (Pacific Standard Time)","486630","Trustworthy,Untrustworthy","","29","","","","decision","","<div class='trialDiv'><img src='trustrating_stim/white_00785_941205_fb_edt.bmp'><br><font class='baseline'><strong>Anthony</strong><p>Choose number of points to send.</font><div class='respPicDiv'><img src='img/responseButtonOffersNo0L.png' class='respPic'></div></div>","5","2","Anthony","3","Kept","0.35,0.65","12","0.35","trustrating_stim/white_00785_941205_fb_edt.bmp","5","35","6"
"html-keyboard-response","153","190835","0.0-19.0-2.5","633fa968afc8d3d2c0d8745c","bdp_trlrn","Fri Mar 10 2023 21:50:47 GMT-0800 (Pacific Standard Time)","486630","Trustworthy,Untrustworthy","","null","","","","decisionFB","","<div class='trialDiv'><img src='trustrating_stim/white_00785_941205_fb_edt.bmp'><br><font class='baseline'><strong>Anthony</strong><p>Choose number of points to send.</font><div class='respPicDiv'><img src='img/responseButtonOffersNo0L5.png' class='respPic'></div></div>","null","2","Anthony","3","Kept","0.35,0.65","12","0.35","trustrating_stim/white_00785_941205_fb_edt.bmp","5","30","6"
"html-keyboard-response","154","191843","0.0-19.0-3.5","633fa968afc8d3d2c0d8745c","bdp_trlrn","Fri Mar 10 2023 21:50:47 GMT-0800 (Pacific Standard Time)","486630","Trustworthy,Untrustworthy","","null","","","","feedback","","<div class='trialDiv'><img src='trustrating_stim/white_00785_941205_fb_edt.bmp'><br><font class='baseline'><strong>Anthony</strong><p>Received: <strong>20</strong></font> &nbsp; &nbsp; &nbsp; &nbsp; &nbsp; &nbsp;<font class='negOutcome'>Shared back: <strong>0</strong></font></font><div class='respPicDiv'><img src='img/responseButtonOffersNo0_wht.png' class='respPic'></div></div>","null","2","Anthony","3","Kept","0.35,0.65","12","0.35","trustrating_stim/white_00785_941205_fb_edt.bmp","5","30","6"
"html-keyboard-response","155","192098","0.0-19.0-1.6","633fa968afc8d3d2c0d8745c","bdp_trlrn","Fri Mar 10 2023 21:50:47 GMT-0800 (Pacific Standard Time)","486630","Trustworthy,Untrustworthy","","253","","","","decision","","<div class='trialDiv'><img src='trustrating_stim/white_mw063.bmp'><br><font class='baseline'><strong>Ethan</strong><p>Choose number of points to send.</font><div class='respPicDiv'><img src='img/responseButtonOffersNo0L.png' class='respPic'></div></div>","3","3","Ethan","7","Kept","0.8,0.35","13","0.8","trustrating_stim/white_mw063.bmp","5.5","35","7"
"html-keyboard-response","156","192361","0.0-19.0-2.6","633fa968afc8d3d2c0d8745c","bdp_trlrn","Fri Mar 10 2023 21:50:47 GMT-0800 (Pacific Standard Time)","486630","Trustworthy,Untrustworthy","","null","","","","decisionFB","","<div class='trialDiv'><img src='trustrating_stim/white_mw063.bmp'><br><font class='baseline'><strong>Ethan</strong><p>Choose number of points to send.</font><div class='respPicDiv'><img src='img/responseButtonOffersNo0L3.png' class='respPic'></div></div>","null","3","Ethan","7","Kept","0.8,0.35","13","0.8","trustrating_stim/white_mw063.bmp","5.5","32","7"
"html-keyboard-response","157","193376","0.0-19.0-3.6","633fa968afc8d3d2c0d8745c","bdp_trlrn","Fri Mar 10 2023 21:50:47 GMT-0800 (Pacific Standard Time)","486630","Trustworthy,Untrustworthy","","null","","","","feedback","","<div class='trialDiv'><img src='trustrating_stim/white_mw063.bmp'><br><font class='baseline'><strong>Ethan</strong><p>Received: <strong>12</strong></font> &nbsp; &nbsp; &nbsp; &nbsp; &nbsp; &nbsp;<font class='negOutcome'>Shared back: <strong>0</strong></font></font><div class='respPicDiv'><img src='img/responseButtonOffersNo0_wht.png' class='respPic'></div></div>","null","3","Ethan","7","Kept","0.8,0.35","13","0.8","trustrating_stim/white_mw063.bmp","5.5","32","7"
"html-keyboard-response","158","193538","0.0-19.0-1.7","633fa968afc8d3d2c0d8745c","bdp_trlrn","Fri Mar 10 2023 21:50:47 GMT-0800 (Pacific Standard Time)","486630","Trustworthy,Untrustworthy","","160","","","","decision","","<div class='trialDiv'><img src='trustrating_stim/white_mw089.bmp'><br><font class='baseline'><strong>Benjamin</strong><p>Choose number of points to send.</font><div class='respPicDiv'><img src='img/responseButtonOffersNo0L.png' class='respPic'></div></div>","1","3","Benjamin","11","Kept","0.35,0.8","9","0.35","trustrating_stim/white_mw089.bmp","7","37","8"
"html-keyboard-response","159","193802","0.0-19.0-2.7","633fa968afc8d3d2c0d8745c","bdp_trlrn","Fri Mar 10 2023 21:50:47 GMT-0800 (Pacific Standard Time)","486630","Trustworthy,Untrustworthy","","null","","","","decisionFB","","<div class='trialDiv'><img src='trustrating_stim/white_mw089.bmp'><br><font class='baseline'><strong>Benjamin</strong><p>Choose number of points to send.</font><div class='respPicDiv'><img src='img/responseButtonOffersNo0L1.png' class='respPic'></div></div>","null","3","Benjamin","11","Kept","0.35,0.8","9","0.35","trustrating_stim/white_mw089.bmp","7","36","8"
"html-keyboard-response","160","194821","0.0-19.0-3.7","633fa968afc8d3d2c0d8745c","bdp_trlrn","Fri Mar 10 2023 21:50:47 GMT-0800 (Pacific Standard Time)","486630","Trustworthy,Untrustworthy","","null","","","","feedback","","<div class='trialDiv'><img src='trustrating_stim/white_mw089.bmp'><br><font class='baseline'><strong>Benjamin</strong><p>Received: <strong>4</strong></font> &nbsp; &nbsp; &nbsp; &nbsp; &nbsp; &nbsp;<font class='negOutcome'>Shared back: <strong>0</strong></font></font><div class='respPicDiv'><img src='img/responseButtonOffersNo0_wht.png' class='respPic'></div></div>","null","3","Benjamin","11","Kept","0.35,0.8","9","0.35","trustrating_stim/white_mw089.bmp","7","36","8"
"html-keyboard-response","161","195033","0.0-19.0-1.8","633fa968afc8d3d2c0d8745c","bdp_trlrn","Fri Mar 10 2023 21:50:47 GMT-0800 (Pacific Standard Time)","486630","Trustworthy,Untrustworthy","","211","","","","decision","","<div class='trialDiv'><img src='trustrating_stim/white_00785_941205_fb_edt.bmp'><br><font class='baseline'><strong>Anthony</strong><p>Choose number of points to send.</font><div class='respPicDiv'><img src='img/responseButtonOffersNo0L.png' class='respPic'></div></div>","1","3","Anthony","3","Kept","0.35,0.65","12","0.35","trustrating_stim/white_00785_941205_fb_edt.bmp","5","41","9"
"html-keyboard-response","162","195296","0.0-19.0-2.8","633fa968afc8d3d2c0d8745c","bdp_trlrn","Fri Mar 10 2023 21:50:47 GMT-0800 (Pacific Standard Time)","486630","Trustworthy,Untrustworthy","","null","","","","decisionFB","","<div class='trialDiv'><img src='trustrating_stim/white_00785_941205_fb_edt.bmp'><br><font class='baseline'><strong>Anthony</strong><p>Choose number of points to send.</font><div class='respPicDiv'><img src='img/responseButtonOffersNo0L1.png' class='respPic'></div></div>","null","3","Anthony","3","Kept","0.35,0.65","12","0.35","trustrating_stim/white_00785_941205_fb_edt.bmp","5","40","9"
"html-keyboard-response","163","196309","0.0-19.0-3.8","633fa968afc8d3d2c0d8745c","bdp_trlrn","Fri Mar 10 2023 21:50:47 GMT-0800 (Pacific Standard Time)","486630","Trustworthy,Untrustworthy","","null","","","","feedback","","<div class='trialDiv'><img src='trustrating_stim/white_00785_941205_fb_edt.bmp'><br><font class='baseline'><strong>Anthony</strong><p>Received: <strong>4</strong></font> &nbsp; &nbsp; &nbsp; &nbsp; &nbsp; &nbsp;<font class='negOutcome'>Shared back: <strong>0</strong></font></font><div class='respPicDiv'><img src='img/responseButtonOffersNo0_wht.png' class='respPic'></div></div>","null","3","Anthony","3","Kept","0.35,0.65","12","0.35","trustrating_stim/white_00785_941205_fb_edt.bmp","5","40","9"
"html-keyboard-response","164","196411","0.0-19.0-1.9","633fa968afc8d3d2c0d8745c","bdp_trlrn","Fri Mar 10 2023 21:50:47 GMT-0800 (Pacific Standard Time)","486630","Trustworthy,Untrustworthy","","100","","","","decision","","<div class='trialDiv'><img src='trustrating_stim/white_mw063.bmp'><br><font class='baseline'><strong>Ethan</strong><p>Choose number of points to send.</font><div class='respPicDiv'><img src='img/responseButtonOffersNo0L.png' class='respPic'></div></div>","5","4","Ethan","7","Shared","0.8,0.35","13","0.8","trustrating_stim/white_mw063.bmp","5.5","45","10"
"html-keyboard-response","165","196672","0.0-19.0-2.9","633fa968afc8d3d2c0d8745c","bdp_trlrn","Fri Mar 10 2023 21:50:47 GMT-0800 (Pacific Standard Time)","486630","Trustworthy,Untrustworthy","","null","","","","decisionFB","","<div class='trialDiv'><img src='trustrating_stim/white_mw063.bmp'><br><font class='baseline'><strong>Ethan</strong><p>Choose number of points to send.</font><div class='respPicDiv'><img src='img/responseButtonOffersNo0L5.png' class='respPic'></div></div>","null","4","Ethan","7","Shared","0.8,0.35","13","0.8","trustrating_stim/white_mw063.bmp","5.5","40","10"
"html-keyboard-response","166","197685","0.0-19.0-3.9","633fa968afc8d3d2c0d8745c","bdp_trlrn","Fri Mar 10 2023 21:50:47 GMT-0800 (Pacific Standard Time)","486630","Trustworthy,Untrustworthy","","null","","","","feedback","","<div class='trialDiv'><img src='trustrating_stim/white_mw063.bmp'><br><font class='baseline'><strong>Ethan</strong><p>Received: <strong>20</strong></font> &nbsp; &nbsp; &nbsp; &nbsp; &nbsp; &nbsp;<font class='posOutcome'>Shared back: <strong>10</strong></font></font><div class='respPicDiv'><img src='img/responseButtonOffersNo0_wht.png' class='respPic'></div></div>","null","4","Ethan","7","Shared","0.8,0.35","13","0.8","trustrating_stim/white_mw063.bmp","5.5","50","10"
"html-keyboard-response","167","198123","0.0-19.0-1.10","633fa968afc8d3d2c0d8745c","bdp_trlrn","Fri Mar 10 2023 21:50:47 GMT-0800 (Pacific Standard Time)","486630","Trustworthy,Untrustworthy","","437","","","","decision","","<div class='trialDiv'><img src='trustrating_stim/white_00785_941205_fb_edt.bmp'><br><font class='baseline'><strong>Anthony</strong><p>Choose number of points to send.</font><div class='respPicDiv'><img src='img/responseButtonOffersNo0L.png' class='respPic'></div></div>","4","4","Anthony","3","Shared","0.35,0.65","12","0.35","trustrating_stim/white_00785_941205_fb_edt.bmp","5","55","11"
"html-keyboard-response","168","198387","0.0-19.0-2.10","633fa968afc8d3d2c0d8745c","bdp_trlrn","Fri Mar 10 2023 21:50:47 GMT-0800 (Pacific Standard Time)","486630","Trustworthy,Untrustworthy","","null","","","","decisionFB","","<div class='trialDiv'><img src='trustrating_stim/white_00785_941205_fb_edt.bmp'><br><font class='baseline'><strong>Anthony</strong><p>Choose number of points to send.</font><div class='respPicDiv'><img src='img/responseButtonOffersNo0L4.png' class='respPic'></div></div>","null","4","Anthony","3","Shared","0.35,0.65","12","0.35","trustrating_stim/white_00785_941205_fb_edt.bmp","5","51","11"
"html-keyboard-response","169","199402","0.0-19.0-3.10","633fa968afc8d3d2c0d8745c","bdp_trlrn","Fri Mar 10 2023 21:50:47 GMT-0800 (Pacific Standard Time)","486630","Trustworthy,Untrustworthy","","null","","","","feedback","","<div class='trialDiv'><img src='trustrating_stim/white_00785_941205_fb_edt.bmp'><br><font class='baseline'><strong>Anthony</strong><p>Received: <strong>16</strong></font> &nbsp; &nbsp; &nbsp; &nbsp; &nbsp; &nbsp;<font class='posOutcome'>Shared back: <strong>8</strong></font></font><div class='respPicDiv'><img src='img/responseButtonOffersNo0_wht.png' class='respPic'></div></div>","null","4","Anthony","3","Shared","0.35,0.65","12","0.35","trustrating_stim/white_00785_941205_fb_edt.bmp","5","59","11"
"html-keyboard-response","170","199618","0.0-19.0-1.11","633fa968afc8d3d2c0d8745c","bdp_trlrn","Fri Mar 10 2023 21:50:47 GMT-0800 (Pacific Standard Time)","486630","Trustworthy,Untrustworthy","","214","","","","decision","","<div class='trialDiv'><img src='trustrating_stim/white_mw089.bmp'><br><font class='baseline'><strong>Benjamin</strong><p>Choose number of points to send.</font><div class='respPicDiv'><img src='img/responseButtonOffersNo0L.png' class='respPic'></div></div>","2","4","Benjamin","11","Kept","0.35,0.8","9","0.35","trustrating_stim/white_mw089.bmp","7","64","12"
"html-keyboard-response","171","199882","0.0-19.0-2.11","633fa968afc8d3d2c0d8745c","bdp_trlrn","Fri Mar 10 2023 21:50:47 GMT-0800 (Pacific Standard Time)","486630","Trustworthy,Untrustworthy","","null","","","","decisionFB","","<div class='trialDiv'><img src='trustrating_stim/white_mw089.bmp'><br><font class='baseline'><strong>Benjamin</strong><p>Choose number of points to send.</font><div class='respPicDiv'><img src='img/responseButtonOffersNo0L2.png' class='respPic'></div></div>","null","4","Benjamin","11","Kept","0.35,0.8","9","0.35","trustrating_stim/white_mw089.bmp","7","62","12"
"html-keyboard-response","172","200898","0.0-19.0-3.11","633fa968afc8d3d2c0d8745c","bdp_trlrn","Fri Mar 10 2023 21:50:47 GMT-0800 (Pacific Standard Time)","486630","Trustworthy,Untrustworthy","","null","","","","feedback","","<div class='trialDiv'><img src='trustrating_stim/white_mw089.bmp'><br><font class='baseline'><strong>Benjamin</strong><p>Received: <strong>8</strong></font> &nbsp; &nbsp; &nbsp; &nbsp; &nbsp; &nbsp;<font class='negOutcome'>Shared back: <strong>0</strong></font></font><div class='respPicDiv'><img src='img/responseButtonOffersNo0_wht.png' class='respPic'></div></div>","null","4","Benjamin","11","Kept","0.35,0.8","9","0.35","trustrating_stim/white_mw089.bmp","7","62","12"
"html-keyboard-response","173","201063","0.0-19.0-1.12","633fa968afc8d3d2c0d8745c","bdp_trlrn","Fri Mar 10 2023 21:50:47 GMT-0800 (Pacific Standard Time)","486630","Trustworthy,Untrustworthy","","163","","","","decision","","<div class='trialDiv'><img src='trustrating_stim/white_mw063.bmp'><br><font class='baseline'><strong>Ethan</strong><p>Choose number of points to send.</font><div class='respPicDiv'><img src='img/responseButtonOffersNo0L.png' class='respPic'></div></div>","3","5","Ethan","7","Shared","0.8,0.35","13","0.8","trustrating_stim/white_mw063.bmp","5.5","67","13"
"html-keyboard-response","174","201327","0.0-19.0-2.12","633fa968afc8d3d2c0d8745c","bdp_trlrn","Fri Mar 10 2023 21:50:47 GMT-0800 (Pacific Standard Time)","486630","Trustworthy,Untrustworthy","","null","","","","decisionFB","","<div class='trialDiv'><img src='trustrating_stim/white_mw063.bmp'><br><font class='baseline'><strong>Ethan</strong><p>Choose number of points to send.</font><div class='respPicDiv'><img src='img/responseButtonOffersNo0L3.png' class='respPic'></div></div>","null","5","Ethan","7","Shared","0.8,0.35","13","0.8","trustrating_stim/white_mw063.bmp","5.5","64","13"
"html-keyboard-response","175","202340","0.0-19.0-3.12","633fa968afc8d3d2c0d8745c","bdp_trlrn","Fri Mar 10 2023 21:50:47 GMT-0800 (Pacific Standard Time)","486630","Trustworthy,Untrustworthy","","null","","","","feedback","","<div class='trialDiv'><img src='trustrating_stim/white_mw063.bmp'><br><font class='baseline'><strong>Ethan</strong><p>Received: <strong>12</strong></font> &nbsp; &nbsp; &nbsp; &nbsp; &nbsp; &nbsp;<font class='posOutcome'>Shared back: <strong>6</strong></font></font><div class='respPicDiv'><img src='img/responseButtonOffersNo0_wht.png' class='respPic'></div></div>","null","5","Ethan","7","Shared","0.8,0.35","13","0.8","trustrating_stim/white_mw063.bmp","5.5","70","13"
"html-keyboard-response","176","202543","0.0-19.0-1.13","633fa968afc8d3d2c0d8745c","bdp_trlrn","Fri Mar 10 2023 21:50:47 GMT-0800 (Pacific Standard Time)","486630","Trustworthy,Untrustworthy","","202","","","","decision","","<div class='trialDiv'><img src='trustrating_stim/white_00785_941205_fb_edt.bmp'><br><font class='baseline'><strong>Anthony</strong><p>Choose number of points to send.</font><div class='respPicDiv'><img src='img/responseButtonOffersNo0L.png' class='respPic'></div></div>","4","5","Anthony","3","Kept","0.35,0.65","12","0.35","trustrating_stim/white_00785_941205_fb_edt.bmp","5","75","14"
"html-keyboard-response","177","202806","0.0-19.0-2.13","633fa968afc8d3d2c0d8745c","bdp_trlrn","Fri Mar 10 2023 21:50:47 GMT-0800 (Pacific Standard Time)","486630","Trustworthy,Untrustworthy","","null","","","","decisionFB","","<div class='trialDiv'><img src='trustrating_stim/white_00785_941205_fb_edt.bmp'><br><font class='baseline'><strong>Anthony</strong><p>Choose number of points to send.</font><div class='respPicDiv'><img src='img/responseButtonOffersNo0L4.png' class='respPic'></div></div>","null","5","Anthony","3","Kept","0.35,0.65","12","0.35","trustrating_stim/white_00785_941205_fb_edt.bmp","5","71","14"
"html-keyboard-response","178","203813","0.0-19.0-3.13","633fa968afc8d3d2c0d8745c","bdp_trlrn","Fri Mar 10 2023 21:50:47 GMT-0800 (Pacific Standard Time)","486630","Trustworthy,Untrustworthy","","null","","","","feedback","","<div class='trialDiv'><img src='trustrating_stim/white_00785_941205_fb_edt.bmp'><br><font class='baseline'><strong>Anthony</strong><p>Received: <strong>16</strong></font> &nbsp; &nbsp; &nbsp; &nbsp; &nbsp; &nbsp;<font class='negOutcome'>Shared back: <strong>0</strong></font></font><div class='respPicDiv'><img src='img/responseButtonOffersNo0_wht.png' class='respPic'></div></div>","null","5","Anthony","3","Kept","0.35,0.65","12","0.35","trustrating_stim/white_00785_941205_fb_edt.bmp","5","71","14"
"html-keyboard-response","179","205335","0.0-19.0-1.14","633fa968afc8d3d2c0d8745c","bdp_trlrn","Fri Mar 10 2023 21:50:47 GMT-0800 (Pacific Standard Time)","486630","Trustworthy,Untrustworthy","","1520","","","","decision","","<div class='trialDiv'><img src='trustrating_stim/white_mw089.bmp'><br><font class='baseline'><strong>Benjamin</strong><p>Choose number of points to send.</font><div class='respPicDiv'><img src='img/responseButtonOffersNo0L.png' class='respPic'></div></div>","5","5","Benjamin","11","Shared","0.35,0.8","9","0.35","trustrating_stim/white_mw089.bmp","7","76","15"
"html-keyboard-response","180","205598","0.0-19.0-2.14","633fa968afc8d3d2c0d8745c","bdp_trlrn","Fri Mar 10 2023 21:50:47 GMT-0800 (Pacific Standard Time)","486630","Trustworthy,Untrustworthy","","null","","","","decisionFB","","<div class='trialDiv'><img src='trustrating_stim/white_mw089.bmp'><br><font class='baseline'><strong>Benjamin</strong><p>Choose number of points to send.</font><div class='respPicDiv'><img src='img/responseButtonOffersNo0L5.png' class='respPic'></div></div>","null","5","Benjamin","11","Shared","0.35,0.8","9","0.35","trustrating_stim/white_mw089.bmp","7","71","15"
"html-keyboard-response","181","206610","0.0-19.0-3.14","633fa968afc8d3d2c0d8745c","bdp_trlrn","Fri Mar 10 2023 21:50:47 GMT-0800 (Pacific Standard Time)","486630","Trustworthy,Untrustworthy","","null","","","","feedback","","<div class='trialDiv'><img src='trustrating_stim/white_mw089.bmp'><br><font class='baseline'><strong>Benjamin</strong><p>Received: <strong>20</strong></font> &nbsp; &nbsp; &nbsp; &nbsp; &nbsp; &nbsp;<font class='posOutcome'>Shared back: <strong>10</strong></font></font><div class='respPicDiv'><img src='img/responseButtonOffersNo0_wht.png' class='respPic'></div></div>","null","5","Benjamin","11","Shared","0.35,0.8","9","0.35","trustrating_stim/white_mw089.bmp","7","81","15"
"html-keyboard-response","182","207508","0.0-19.0-1.15","633fa968afc8d3d2c0d8745c","bdp_trlrn","Fri Mar 10 2023 21:50:47 GMT-0800 (Pacific Standard Time)","486630","Trustworthy,Untrustworthy","","896","","","","decision","","<div class='trialDiv'><img src='trustrating_stim/white_mw063.bmp'><br><font class='baseline'><strong>Ethan</strong><p>Choose number of points to send.</font><div class='respPicDiv'><img src='img/responseButtonOffersNo0L.png' class='respPic'></div></div>","1","6","Ethan","7","Kept","0.8,0.35","13","0.8","trustrating_stim/white_mw063.bmp","5.5","86","16"
"html-keyboard-response","183","207765","0.0-19.0-2.15","633fa968afc8d3d2c0d8745c","bdp_trlrn","Fri Mar 10 2023 21:50:47 GMT-0800 (Pacific Standard Time)","486630","Trustworthy,Untrustworthy","","null","","","","decisionFB","","<div class='trialDiv'><img src='trustrating_stim/white_mw063.bmp'><br><font class='baseline'><strong>Ethan</strong><p>Choose number of points to send.</font><div class='respPicDiv'><img src='img/responseButtonOffersNo0L1.png' class='respPic'></div></div>","null","6","Ethan","7","Kept","0.8,0.35","13","0.8","trustrating_stim/white_mw063.bmp","5.5","85","16"
"html-keyboard-response","184","208774","0.0-19.0-3.15","633fa968afc8d3d2c0d8745c","bdp_trlrn","Fri Mar 10 2023 21:50:47 GMT-0800 (Pacific Standard Time)","486630","Trustworthy,Untrustworthy","","null","","","","feedback","","<div class='trialDiv'><img src='trustrating_stim/white_mw063.bmp'><br><font class='baseline'><strong>Ethan</strong><p>Received: <strong>4</strong></font> &nbsp; &nbsp; &nbsp; &nbsp; &nbsp; &nbsp;<font class='negOutcome'>Shared back: <strong>0</strong></font></font><div class='respPicDiv'><img src='img/responseButtonOffersNo0_wht.png' class='respPic'></div></div>","null","6","Ethan","7","Kept","0.8,0.35","13","0.8","trustrating_stim/white_mw063.bmp","5.5","85","16"
"html-keyboard-response","185","208796","0.0-19.0-1.16","633fa968afc8d3d2c0d8745c","bdp_trlrn","Fri Mar 10 2023 21:50:47 GMT-0800 (Pacific Standard Time)","486630","Trustworthy,Untrustworthy","","20","","","","decision","","<div class='trialDiv'><img src='trustrating_stim/white_mw089.bmp'><br><font class='baseline'><strong>Benjamin</strong><p>Choose number of points to send.</font><div class='respPicDiv'><img src='img/responseButtonOffersNo0L.png' class='respPic'></div></div>","4","6","Benjamin","11","Kept","0.35,0.8","9","0.35","trustrating_stim/white_mw089.bmp","7","90","17"
"html-keyboard-response","186","209056","0.0-19.0-2.16","633fa968afc8d3d2c0d8745c","bdp_trlrn","Fri Mar 10 2023 21:50:47 GMT-0800 (Pacific Standard Time)","486630","Trustworthy,Untrustworthy","","null","","","","decisionFB","","<div class='trialDiv'><img src='trustrating_stim/white_mw089.bmp'><br><font class='baseline'><strong>Benjamin</strong><p>Choose number of points to send.</font><div class='respPicDiv'><img src='img/responseButtonOffersNo0L4.png' class='respPic'></div></div>","null","6","Benjamin","11","Kept","0.35,0.8","9","0.35","trustrating_stim/white_mw089.bmp","7","86","17"
"html-keyboard-response","187","210068","0.0-19.0-3.16","633fa968afc8d3d2c0d8745c","bdp_trlrn","Fri Mar 10 2023 21:50:47 GMT-0800 (Pacific Standard Time)","486630","Trustworthy,Untrustworthy","","null","","","","feedback","","<div class='trialDiv'><img src='trustrating_stim/white_mw089.bmp'><br><font class='baseline'><strong>Benjamin</strong><p>Received: <strong>16</strong></font> &nbsp; &nbsp; &nbsp; &nbsp; &nbsp; &nbsp;<font class='negOutcome'>Shared back: <strong>0</strong></font></font><div class='respPicDiv'><img src='img/responseButtonOffersNo0_wht.png' class='respPic'></div></div>","null","6","Benjamin","11","Kept","0.35,0.8","9","0.35","trustrating_stim/white_mw089.bmp","7","86","17"
"html-keyboard-response","188","210253","0.0-19.0-1.17","633fa968afc8d3d2c0d8745c","bdp_trlrn","Fri Mar 10 2023 21:50:47 GMT-0800 (Pacific Standard Time)","486630","Trustworthy,Untrustworthy","","184","","","","decision","","<div class='trialDiv'><img src='trustrating_stim/white_00785_941205_fb_edt.bmp'><br><font class='baseline'><strong>Anthony</strong><p>Choose number of points to send.</font><div class='respPicDiv'><img src='img/responseButtonOffersNo0L.png' class='respPic'></div></div>","4","6","Anthony","3","Kept","0.35,0.65","12","0.35","trustrating_stim/white_00785_941205_fb_edt.bmp","5","91","18"
"html-keyboard-response","189","210517","0.0-19.0-2.17","633fa968afc8d3d2c0d8745c","bdp_trlrn","Fri Mar 10 2023 21:50:47 GMT-0800 (Pacific Standard Time)","486630","Trustworthy,Untrustworthy","","null","","","","decisionFB","","<div class='trialDiv'><img src='trustrating_stim/white_00785_941205_fb_edt.bmp'><br><font class='baseline'><strong>Anthony</strong><p>Choose number of points to send.</font><div class='respPicDiv'><img src='img/responseButtonOffersNo0L4.png' class='respPic'></div></div>","null","6","Anthony","3","Kept","0.35,0.65","12","0.35","trustrating_stim/white_00785_941205_fb_edt.bmp","5","87","18"
"html-keyboard-response","190","211527","0.0-19.0-3.17","633fa968afc8d3d2c0d8745c","bdp_trlrn","Fri Mar 10 2023 21:50:47 GMT-0800 (Pacific Standard Time)","486630","Trustworthy,Untrustworthy","","null","","","","feedback","","<div class='trialDiv'><img src='trustrating_stim/white_00785_941205_fb_edt.bmp'><br><font class='baseline'><strong>Anthony</strong><p>Received: <strong>16</strong></font> &nbsp; &nbsp; &nbsp; &nbsp; &nbsp; &nbsp;<font class='negOutcome'>Shared back: <strong>0</strong></font></font><div class='respPicDiv'><img src='img/responseButtonOffersNo0_wht.png' class='respPic'></div></div>","null","6","Anthony","3","Kept","0.35,0.65","12","0.35","trustrating_stim/white_00785_941205_fb_edt.bmp","5","87","18"
"html-keyboard-response","191","211788","0.0-19.0-1.18","633fa968afc8d3d2c0d8745c","bdp_trlrn","Fri Mar 10 2023 21:50:47 GMT-0800 (Pacific Standard Time)","486630","Trustworthy,Untrustworthy","","260","","","","decision","","<div class='trialDiv'><img src='trustrating_stim/white_mw089.bmp'><br><font class='baseline'><strong>Benjamin</strong><p>Choose number of points to send.</font><div class='respPicDiv'><img src='img/responseButtonOffersNo0L.png' class='respPic'></div></div>","5","7","Benjamin","11","Kept","0.35,0.8","9","0.35","trustrating_stim/white_mw089.bmp","7","92","19"
"html-keyboard-response","192","212052","0.0-19.0-2.18","633fa968afc8d3d2c0d8745c","bdp_trlrn","Fri Mar 10 2023 21:50:47 GMT-0800 (Pacific Standard Time)","486630","Trustworthy,Untrustworthy","","null","","","","decisionFB","","<div class='trialDiv'><img src='trustrating_stim/white_mw089.bmp'><br><font class='baseline'><strong>Benjamin</strong><p>Choose number of points to send.</font><div class='respPicDiv'><img src='img/responseButtonOffersNo0L5.png' class='respPic'></div></div>","null","7","Benjamin","11","Kept","0.35,0.8","9","0.35","trustrating_stim/white_mw089.bmp","7","87","19"
"html-keyboard-response","193","213065","0.0-19.0-3.18","633fa968afc8d3d2c0d8745c","bdp_trlrn","Fri Mar 10 2023 21:50:47 GMT-0800 (Pacific Standard Time)","486630","Trustworthy,Untrustworthy","","null","","","","feedback","","<div class='trialDiv'><img src='trustrating_stim/white_mw089.bmp'><br><font class='baseline'><strong>Benjamin</strong><p>Received: <strong>20</strong></font> &nbsp; &nbsp; &nbsp; &nbsp; &nbsp; &nbsp;<font class='negOutcome'>Shared back: <strong>0</strong></font></font><div class='respPicDiv'><img src='img/responseButtonOffersNo0_wht.png' class='respPic'></div></div>","null","7","Benjamin","11","Kept","0.35,0.8","9","0.35","trustrating_stim/white_mw089.bmp","7","87","19"
"html-keyboard-response","194","213589","0.0-19.0-1.19","633fa968afc8d3d2c0d8745c","bdp_trlrn","Fri Mar 10 2023 21:50:47 GMT-0800 (Pacific Standard Time)","486630","Trustworthy,Untrustworthy","","522","","","","decision","","<div class='trialDiv'><img src='trustrating_stim/white_mw063.bmp'><br><font class='baseline'><strong>Ethan</strong><p>Choose number of points to send.</font><div class='respPicDiv'><img src='img/responseButtonOffersNo0L.png' class='respPic'></div></div>","5","7","Ethan","7","Kept","0.8,0.35","13","0.8","trustrating_stim/white_mw063.bmp","5.5","92","20"
"html-keyboard-response","195","213852","0.0-19.0-2.19","633fa968afc8d3d2c0d8745c","bdp_trlrn","Fri Mar 10 2023 21:50:47 GMT-0800 (Pacific Standard Time)","486630","Trustworthy,Untrustworthy","","null","","","","decisionFB","","<div class='trialDiv'><img src='trustrating_stim/white_mw063.bmp'><br><font class='baseline'><strong>Ethan</strong><p>Choose number of points to send.</font><div class='respPicDiv'><img src='img/responseButtonOffersNo0L5.png' class='respPic'></div></div>","null","7","Ethan","7","Kept","0.8,0.35","13","0.8","trustrating_stim/white_mw063.bmp","5.5","87","20"
"html-keyboard-response","196","214854","0.0-19.0-3.19","633fa968afc8d3d2c0d8745c","bdp_trlrn","Fri Mar 10 2023 21:50:47 GMT-0800 (Pacific Standard Time)","486630","Trustworthy,Untrustworthy","","null","","","","feedback","","<div class='trialDiv'><img src='trustrating_stim/white_mw063.bmp'><br><font class='baseline'><strong>Ethan</strong><p>Received: <strong>20</strong></font> &nbsp; &nbsp; &nbsp; &nbsp; &nbsp; &nbsp;<font class='negOutcome'>Shared back: <strong>0</strong></font></font><div class='respPicDiv'><img src='img/responseButtonOffersNo0_wht.png' class='respPic'></div></div>","null","7","Ethan","7","Kept","0.8,0.35","13","0.8","trustrating_stim/white_mw063.bmp","5.5","87","20"
"html-keyboard-response","197","214927","0.0-19.0-1.20","633fa968afc8d3d2c0d8745c","bdp_trlrn","Fri Mar 10 2023 21:50:47 GMT-0800 (Pacific Standard Time)","486630","Trustworthy,Untrustworthy","","72","","","","decision","","<div class='trialDiv'><img src='trustrating_stim/white_00785_941205_fb_edt.bmp'><br><font class='baseline'><strong>Anthony</strong><p>Choose number of points to send.</font><div class='respPicDiv'><img src='img/responseButtonOffersNo0L.png' class='respPic'></div></div>","5","7","Anthony","3","Kept","0.35,0.65","12","0.35","trustrating_stim/white_00785_941205_fb_edt.bmp","5","92","21"
"html-keyboard-response","198","215188","0.0-19.0-2.20","633fa968afc8d3d2c0d8745c","bdp_trlrn","Fri Mar 10 2023 21:50:47 GMT-0800 (Pacific Standard Time)","486630","Trustworthy,Untrustworthy","","null","","","","decisionFB","","<div class='trialDiv'><img src='trustrating_stim/white_00785_941205_fb_edt.bmp'><br><font class='baseline'><strong>Anthony</strong><p>Choose number of points to send.</font><div class='respPicDiv'><img src='img/responseButtonOffersNo0L5.png' class='respPic'></div></div>","null","7","Anthony","3","Kept","0.35,0.65","12","0.35","trustrating_stim/white_00785_941205_fb_edt.bmp","5","87","21"
"html-keyboard-response","199","216205","0.0-19.0-3.20","633fa968afc8d3d2c0d8745c","bdp_trlrn","Fri Mar 10 2023 21:50:47 GMT-0800 (Pacific Standard Time)","486630","Trustworthy,Untrustworthy","","null","","","","feedback","","<div class='trialDiv'><img src='trustrating_stim/white_00785_941205_fb_edt.bmp'><br><font class='baseline'><strong>Anthony</strong><p>Received: <strong>20</strong></font> &nbsp; &nbsp; &nbsp; &nbsp; &nbsp; &nbsp;<font class='negOutcome'>Shared back: <strong>0</strong></font></font><div class='respPicDiv'><img src='img/responseButtonOffersNo0_wht.png' class='respPic'></div></div>","null","7","Anthony","3","Kept","0.35,0.65","12","0.35","trustrating_stim/white_00785_941205_fb_edt.bmp","5","87","21"
"html-keyboard-response","200","216384","0.0-19.0-1.21","633fa968afc8d3d2c0d8745c","bdp_trlrn","Fri Mar 10 2023 21:50:47 GMT-0800 (Pacific Standard Time)","486630","Trustworthy,Untrustworthy","","177","","","","decision","","<div class='trialDiv'><img src='trustrating_stim/white_mw089.bmp'><br><font class='baseline'><strong>Benjamin</strong><p>Choose number of points to send.</font><div class='respPicDiv'><img src='img/responseButtonOffersNo0L.png' class='respPic'></div></div>","4","8","Benjamin","11","Kept","0.35,0.8","9","0.35","trustrating_stim/white_mw089.bmp","7","92","22"
"html-keyboard-response","201","216648","0.0-19.0-2.21","633fa968afc8d3d2c0d8745c","bdp_trlrn","Fri Mar 10 2023 21:50:47 GMT-0800 (Pacific Standard Time)","486630","Trustworthy,Untrustworthy","","null","","","","decisionFB","","<div class='trialDiv'><img src='trustrating_stim/white_mw089.bmp'><br><font class='baseline'><strong>Benjamin</strong><p>Choose number of points to send.</font><div class='respPicDiv'><img src='img/responseButtonOffersNo0L4.png' class='respPic'></div></div>","null","8","Benjamin","11","Kept","0.35,0.8","9","0.35","trustrating_stim/white_mw089.bmp","7","88","22"
"html-keyboard-response","202","217662","0.0-19.0-3.21","633fa968afc8d3d2c0d8745c","bdp_trlrn","Fri Mar 10 2023 21:50:47 GMT-0800 (Pacific Standard Time)","486630","Trustworthy,Untrustworthy","","null","","","","feedback","","<div class='trialDiv'><img src='trustrating_stim/white_mw089.bmp'><br><font class='baseline'><strong>Benjamin</strong><p>Received: <strong>16</strong></font> &nbsp; &nbsp; &nbsp; &nbsp; &nbsp; &nbsp;<font class='negOutcome'>Shared back: <strong>0</strong></font></font><div class='respPicDiv'><img src='img/responseButtonOffersNo0_wht.png' class='respPic'></div></div>","null","8","Benjamin","11","Kept","0.35,0.8","9","0.35","trustrating_stim/white_mw089.bmp","7","88","22"
"html-keyboard-response","203","217790","0.0-19.0-1.22","633fa968afc8d3d2c0d8745c","bdp_trlrn","Fri Mar 10 2023 21:50:47 GMT-0800 (Pacific Standard Time)","486630","Trustworthy,Untrustworthy","","125","","","","decision","","<div class='trialDiv'><img src='trustrating_stim/white_00785_941205_fb_edt.bmp'><br><font class='baseline'><strong>Anthony</strong><p>Choose number of points to send.</font><div class='respPicDiv'><img src='img/responseButtonOffersNo0L.png' class='respPic'></div></div>","2","8","Anthony","3","Kept","0.35,0.65","12","0.35","trustrating_stim/white_00785_941205_fb_edt.bmp","5","93","23"
"html-keyboard-response","204","218045","0.0-19.0-2.22","633fa968afc8d3d2c0d8745c","bdp_trlrn","Fri Mar 10 2023 21:50:47 GMT-0800 (Pacific Standard Time)","486630","Trustworthy,Untrustworthy","","null","","","","decisionFB","","<div class='trialDiv'><img src='trustrating_stim/white_00785_941205_fb_edt.bmp'><br><font class='baseline'><strong>Anthony</strong><p>Choose number of points to send.</font><div class='respPicDiv'><img src='img/responseButtonOffersNo0L2.png' class='respPic'></div></div>","null","8","Anthony","3","Kept","0.35,0.65","12","0.35","trustrating_stim/white_00785_941205_fb_edt.bmp","5","91","23"
"html-keyboard-response","205","219058","0.0-19.0-3.22","633fa968afc8d3d2c0d8745c","bdp_trlrn","Fri Mar 10 2023 21:50:47 GMT-0800 (Pacific Standard Time)","486630","Trustworthy,Untrustworthy","","null","","","","feedback","","<div class='trialDiv'><img src='trustrating_stim/white_00785_941205_fb_edt.bmp'><br><font class='baseline'><strong>Anthony</strong><p>Received: <strong>8</strong></font> &nbsp; &nbsp; &nbsp; &nbsp; &nbsp; &nbsp;<font class='negOutcome'>Shared back: <strong>0</strong></font></font><div class='respPicDiv'><img src='img/responseButtonOffersNo0_wht.png' class='respPic'></div></div>","null","8","Anthony","3","Kept","0.35,0.65","12","0.35","trustrating_stim/white_00785_941205_fb_edt.bmp","5","91","23"
"html-keyboard-response","206","219235","0.0-19.0-1.23","633fa968afc8d3d2c0d8745c","bdp_trlrn","Fri Mar 10 2023 21:50:47 GMT-0800 (Pacific Standard Time)","486630","Trustworthy,Untrustworthy","","176","","","","decision","","<div class='trialDiv'><img src='trustrating_stim/white_mw063.bmp'><br><font class='baseline'><strong>Ethan</strong><p>Choose number of points to send.</font><div class='respPicDiv'><img src='img/responseButtonOffersNo0L.png' class='respPic'></div></div>","4","8","Ethan","7","Shared","0.8,0.35","13","0.8","trustrating_stim/white_mw063.bmp","5.5","96","24"
"html-keyboard-response","207","219502","0.0-19.0-2.23","633fa968afc8d3d2c0d8745c","bdp_trlrn","Fri Mar 10 2023 21:50:47 GMT-0800 (Pacific Standard Time)","486630","Trustworthy,Untrustworthy","","null","","","","decisionFB","","<div class='trialDiv'><img src='trustrating_stim/white_mw063.bmp'><br><font class='baseline'><strong>Ethan</strong><p>Choose number of points to send.</font><div class='respPicDiv'><img src='img/responseButtonOffersNo0L4.png' class='respPic'></div></div>","null","8","Ethan","7","Shared","0.8,0.35","13","0.8","trustrating_stim/white_mw063.bmp","5.5","92","24"
"html-keyboard-response","208","220516","0.0-19.0-3.23","633fa968afc8d3d2c0d8745c","bdp_trlrn","Fri Mar 10 2023 21:50:47 GMT-0800 (Pacific Standard Time)","486630","Trustworthy,Untrustworthy","","null","","","","feedback","","<div class='trialDiv'><img src='trustrating_stim/white_mw063.bmp'><br><font class='baseline'><strong>Ethan</strong><p>Received: <strong>16</strong></font> &nbsp; &nbsp; &nbsp; &nbsp; &nbsp; &nbsp;<font class='posOutcome'>Shared back: <strong>8</strong></font></font><div class='respPicDiv'><img src='img/responseButtonOffersNo0_wht.png' class='respPic'></div></div>","null","8","Ethan","7","Shared","0.8,0.35","13","0.8","trustrating_stim/white_mw063.bmp","5.5","100","24"
"html-keyboard-response","209","220715","0.0-19.0-1.24","633fa968afc8d3d2c0d8745c","bdp_trlrn","Fri Mar 10 2023 21:50:47 GMT-0800 (Pacific Standard Time)","486630","Trustworthy,Untrustworthy","","197","","","","decision","","<div class='trialDiv'><img src='trustrating_stim/white_00785_941205_fb_edt.bmp'><br><font class='baseline'><strong>Anthony</strong><p>Choose number of points to send.</font><div class='respPicDiv'><img src='img/responseButtonOffersNo0L.png' class='respPic'></div></div>","3","9","Anthony","3","Kept","0.35,0.65","12","0.35","trustrating_stim/white_00785_941205_fb_edt.bmp","5","105","25"
"html-keyboard-response","210","220979","0.0-19.0-2.24","633fa968afc8d3d2c0d8745c","bdp_trlrn","Fri Mar 10 2023 21:50:47 GMT-0800 (Pacific Standard Time)","486630","Trustworthy,Untrustworthy","","null","","","","decisionFB","","<div class='trialDiv'><img src='trustrating_stim/white_00785_941205_fb_edt.bmp'><br><font class='baseline'><strong>Anthony</strong><p>Choose number of points to send.</font><div class='respPicDiv'><img src='img/responseButtonOffersNo0L3.png' class='respPic'></div></div>","null","9","Anthony","3","Kept","0.35,0.65","12","0.35","trustrating_stim/white_00785_941205_fb_edt.bmp","5","102","25"
"html-keyboard-response","211","221983","0.0-19.0-3.24","633fa968afc8d3d2c0d8745c","bdp_trlrn","Fri Mar 10 2023 21:50:47 GMT-0800 (Pacific Standard Time)","486630","Trustworthy,Untrustworthy","","null","","","","feedback","","<div class='trialDiv'><img src='trustrating_stim/white_00785_941205_fb_edt.bmp'><br><font class='baseline'><strong>Anthony</strong><p>Received: <strong>12</strong></font> &nbsp; &nbsp; &nbsp; &nbsp; &nbsp; &nbsp;<font class='negOutcome'>Shared back: <strong>0</strong></font></font><div class='respPicDiv'><img src='img/responseButtonOffersNo0_wht.png' class='respPic'></div></div>","null","9","Anthony","3","Kept","0.35,0.65","12","0.35","trustrating_stim/white_00785_941205_fb_edt.bmp","5","102","25"
"html-keyboard-response","212","223313","0.0-19.0-1.25","633fa968afc8d3d2c0d8745c","bdp_trlrn","Fri Mar 10 2023 21:50:47 GMT-0800 (Pacific Standard Time)","486630","Trustworthy,Untrustworthy","","1328","","","","decision","","<div class='trialDiv'><img src='trustrating_stim/white_mw089.bmp'><br><font class='baseline'><strong>Benjamin</strong><p>Choose number of points to send.</font><div class='respPicDiv'><img src='img/responseButtonOffersNo0L.png' class='respPic'></div></div>","4","9","Benjamin","11","Shared","0.35,0.8","9","0.35","trustrating_stim/white_mw089.bmp","7","107","26"
"html-keyboard-response","213","223579","0.0-19.0-2.25","633fa968afc8d3d2c0d8745c","bdp_trlrn","Fri Mar 10 2023 21:50:47 GMT-0800 (Pacific Standard Time)","486630","Trustworthy,Untrustworthy","","null","","","","decisionFB","","<div class='trialDiv'><img src='trustrating_stim/white_mw089.bmp'><br><font class='baseline'><strong>Benjamin</strong><p>Choose number of points to send.</font><div class='respPicDiv'><img src='img/responseButtonOffersNo0L4.png' class='respPic'></div></div>","null","9","Benjamin","11","Shared","0.35,0.8","9","0.35","trustrating_stim/white_mw089.bmp","7","103","26"
"html-keyboard-response","214","224589","0.0-19.0-3.25","633fa968afc8d3d2c0d8745c","bdp_trlrn","Fri Mar 10 2023 21:50:47 GMT-0800 (Pacific Standard Time)","486630","Trustworthy,Untrustworthy","","null","","","","feedback","","<div class='trialDiv'><img src='trustrating_stim/white_mw089.bmp'><br><font class='baseline'><strong>Benjamin</strong><p>Received: <strong>16</strong></font> &nbsp; &nbsp; &nbsp; &nbsp; &nbsp; &nbsp;<font class='posOutcome'>Shared back: <strong>8</strong></font></font><div class='respPicDiv'><img src='img/responseButtonOffersNo0_wht.png' class='respPic'></div></div>","null","9","Benjamin","11","Shared","0.35,0.8","9","0.35","trustrating_stim/white_mw089.bmp","7","111","26"
"html-keyboard-response","215","225434","0.0-19.0-1.26","633fa968afc8d3d2c0d8745c","bdp_trlrn","Fri Mar 10 2023 21:50:47 GMT-0800 (Pacific Standard Time)","486630","Trustworthy,Untrustworthy","","843","","","","decision","","<div class='trialDiv'><img src='trustrating_stim/white_mw063.bmp'><br><font class='baseline'><strong>Ethan</strong><p>Choose number of points to send.</font><div class='respPicDiv'><img src='img/responseButtonOffersNo0L.png' class='respPic'></div></div>","3","9","Ethan","7","Shared","0.8,0.35","13","0.8","trustrating_stim/white_mw063.bmp","5.5","116","27"
"html-keyboard-response","216","225699","0.0-19.0-2.26","633fa968afc8d3d2c0d8745c","bdp_trlrn","Fri Mar 10 2023 21:50:47 GMT-0800 (Pacific Standard Time)","486630","Trustworthy,Untrustworthy","","null","","","","decisionFB","","<div class='trialDiv'><img src='trustrating_stim/white_mw063.bmp'><br><font class='baseline'><strong>Ethan</strong><p>Choose number of points to send.</font><div class='respPicDiv'><img src='img/responseButtonOffersNo0L3.png' class='respPic'></div></div>","null","9","Ethan","7","Shared","0.8,0.35","13","0.8","trustrating_stim/white_mw063.bmp","5.5","113","27"
"html-keyboard-response","217","226714","0.0-19.0-3.26","633fa968afc8d3d2c0d8745c","bdp_trlrn","Fri Mar 10 2023 21:50:47 GMT-0800 (Pacific Standard Time)","486630","Trustworthy,Untrustworthy","","null","","","","feedback","","<div class='trialDiv'><img src='trustrating_stim/white_mw063.bmp'><br><font class='baseline'><strong>Ethan</strong><p>Received: <strong>12</strong></font> &nbsp; &nbsp; &nbsp; &nbsp; &nbsp; &nbsp;<font class='posOutcome'>Shared back: <strong>6</strong></font></font><div class='respPicDiv'><img src='img/responseButtonOffersNo0_wht.png' class='respPic'></div></div>","null","9","Ethan","7","Shared","0.8,0.35","13","0.8","trustrating_stim/white_mw063.bmp","5.5","119","27"
"html-keyboard-response","218","227261","0.0-19.0-1.27","633fa968afc8d3d2c0d8745c","bdp_trlrn","Fri Mar 10 2023 21:50:47 GMT-0800 (Pacific Standard Time)","486630","Trustworthy,Untrustworthy","","545","","","","decision","","<div class='trialDiv'><img src='trustrating_stim/white_00785_941205_fb_edt.bmp'><br><font class='baseline'><strong>Anthony</strong><p>Choose number of points to send.</font><div class='respPicDiv'><img src='img/responseButtonOffersNo0L.png' class='respPic'></div></div>","3","10","Anthony","3","Kept","0.35,0.65","12","0.35","trustrating_stim/white_00785_941205_fb_edt.bmp","5","124","28"
"html-keyboard-response","219","227526","0.0-19.0-2.27","633fa968afc8d3d2c0d8745c","bdp_trlrn","Fri Mar 10 2023 21:50:47 GMT-0800 (Pacific Standard Time)","486630","Trustworthy,Untrustworthy","","null","","","","decisionFB","","<div class='trialDiv'><img src='trustrating_stim/white_00785_941205_fb_edt.bmp'><br><font class='baseline'><strong>Anthony</strong><p>Choose number of points to send.</font><div class='respPicDiv'><img src='img/responseButtonOffersNo0L3.png' class='respPic'></div></div>","null","10","Anthony","3","Kept","0.35,0.65","12","0.35","trustrating_stim/white_00785_941205_fb_edt.bmp","5","121","28"
"html-keyboard-response","220","228539","0.0-19.0-3.27","633fa968afc8d3d2c0d8745c","bdp_trlrn","Fri Mar 10 2023 21:50:47 GMT-0800 (Pacific Standard Time)","486630","Trustworthy,Untrustworthy","","null","","","","feedback","","<div class='trialDiv'><img src='trustrating_stim/white_00785_941205_fb_edt.bmp'><br><font class='baseline'><strong>Anthony</strong><p>Received: <strong>12</strong></font> &nbsp; &nbsp; &nbsp; &nbsp; &nbsp; &nbsp;<font class='negOutcome'>Shared back: <strong>0</strong></font></font><div class='respPicDiv'><img src='img/responseButtonOffersNo0_wht.png' class='respPic'></div></div>","null","10","Anthony","3","Kept","0.35,0.65","12","0.35","trustrating_stim/white_00785_941205_fb_edt.bmp","5","121","28"
"html-keyboard-response","221","228680","0.0-19.0-1.28","633fa968afc8d3d2c0d8745c","bdp_trlrn","Fri Mar 10 2023 21:50:47 GMT-0800 (Pacific Standard Time)","486630","Trustworthy,Untrustworthy","","138","","","","decision","","<div class='trialDiv'><img src='trustrating_stim/white_mw063.bmp'><br><font class='baseline'><strong>Ethan</strong><p>Choose number of points to send.</font><div class='respPicDiv'><img src='img/responseButtonOffersNo0L.png' class='respPic'></div></div>","4","10","Ethan","7","Shared","0.8,0.35","13","0.8","trustrating_stim/white_mw063.bmp","5.5","126","29"
