"trial_type","trial_index","time_elapsed","internal_node_id","subject_id","task","startTime","totalTime","labels","view_history","rt","event","trial","time","trialtype","numBlurs","success","stimulus","key_press","aground","name","faceID","outcome","agenttype","agentswpt","agentcurrpshare","face","avgRating","point_total","round"
"pavlovia","0","3","0.0-0.0","6400d9235287137e7b62fd29","bdp_trlrn","Sat Apr 08 2023 08:40:17 GMT-0700 (Pacific Daylight Time)","1277717","Trustworthy,Untrustworthy","","","","","","","","","","","","","","","","","","","","",""
"instructions","1","19031","0.0-1.0","6400d9235287137e7b62fd29","bdp_trlrn","Sat Apr 08 2023 08:40:17 GMT-0700 (Pacific Daylight Time)","1277717","Trustworthy,Untrustworthy","[{""page_index"":0,""viewing_time"":19028}]","19028","","","","","","","","","","","","","","","","","","",""
"","","","","6400d9235287137e7b62fd29","bdp_trlrn","Sat Apr 08 2023 08:40:17 GMT-0700 (Pacific Daylight Time)","1277717","Trustworthy,Untrustworthy","","","blur","2","139621","blurevent","1","","","","","","","","","","","","","",""
"","","","","6400d9235287137e7b62fd29","bdp_trlrn","Sat Apr 08 2023 08:40:17 GMT-0700 (Pacific Daylight Time)","1277717","Trustworthy,Untrustworthy","","","focus","2","154401","focusevent","","","","","","","","","","","","","","",""
"","","","","6400d9235287137e7b62fd29","bdp_trlrn","Sat Apr 08 2023 08:40:17 GMT-0700 (Pacific Daylight Time)","1277717","Trustworthy,Untrustworthy","","","blur","2","513858","blurevent","","","","","","","","","","","","","","",""
"","","","","6400d9235287137e7b62fd29","bdp_trlrn","Sat Apr 08 2023 08:40:17 GMT-0700 (Pacific Daylight Time)","1277717","Trustworthy,Untrustworthy","","","focus","2","528240","focusevent","","","","","","","","","","","","","","",""
"","","","","6400d9235287137e7b62fd29","bdp_trlrn","Sat Apr 08 2023 08:40:17 GMT-0700 (Pacific Daylight Time)","1277717","Trustworthy,Untrustworthy","","","fullscreenenter","2","529774","fullscreenenter","","","","","","","","","","","","","","",""
"fullscreen","2","530725","0.0-2.0","6400d9235287137e7b62fd29","bdp_trlrn","Sat Apr 08 2023 08:40:17 GMT-0700 (Pacific Daylight Time)","1277717","Trustworthy,Untrustworthy","","","","","","","","true","","","","","","","","","","","","",""
"instructions","3","538544","0.0-4.0","6400d9235287137e7b62fd29","bdp_trlrn","Sat Apr 08 2023 08:40:17 GMT-0700 (Pacific Daylight Time)","1277717","Trustworthy,Untrustworthy","[{""page_index"":0,""viewing_time"":4014},{""page_index"":1,""viewing_time"":3802}]","7817","","","","","","","","","","","","","","","","","","",""
"instructions","4","539743","0.0-5.0","6400d9235287137e7b62fd29","bdp_trlrn","Sat Apr 08 2023 08:40:17 GMT-0700 (Pacific Daylight Time)","1277717","Trustworthy,Untrustworthy","[{""page_index"":0,""viewing_time"":1197}]","1198","","","","","","","","","","","","","","","","","","",""
"image-keyboard-response","5","544239","0.0-6.0-1.0","6400d9235287137e7b62fd29","bdp_trlrn","Sat Apr 08 2023 08:40:17 GMT-0700 (Pacific Daylight Time)","1277717","Trustworthy,Untrustworthy","","4389","","","","rating","","","trustrating_stim/white_mw060.bmp","4","","","","","","","","","","",""
"image-keyboard-response","6","544456","0.0-6.0-2.0","6400d9235287137e7b62fd29","bdp_trlrn","Sat Apr 08 2023 08:40:17 GMT-0700 (Pacific Daylight Time)","1277717","Trustworthy,Untrustworthy","","null","","","","ratingFB","","","trustrating_stim/white_mw060.bmp","null","","","","","","","","","","",""
"image-keyboard-response","7","546709","0.0-6.0-1.1","6400d9235287137e7b62fd29","bdp_trlrn","Sat Apr 08 2023 08:40:17 GMT-0700 (Pacific Daylight Time)","1277717","Trustworthy,Untrustworthy","","2141","","","","rating","","","trustrating_stim/white_00120_931230_fa_edt.bmp","7","","","","","","","","","","",""
"image-keyboard-response","8","546926","0.0-6.0-2.1","6400d9235287137e7b62fd29","bdp_trlrn","Sat Apr 08 2023 08:40:17 GMT-0700 (Pacific Daylight Time)","1277717","Trustworthy,Untrustworthy","","null","","","","ratingFB","","","trustrating_stim/white_00120_931230_fa_edt.bmp","null","","","","","","","","","","",""
"image-keyboard-response","9","548745","0.0-6.0-1.2","6400d9235287137e7b62fd29","bdp_trlrn","Sat Apr 08 2023 08:40:17 GMT-0700 (Pacific Daylight Time)","1277717","Trustworthy,Untrustworthy","","1710","","","","rating","","","trustrating_stim/white_00602_940928_fb_edt.bmp","8","","","","","","","","","","",""
"image-keyboard-response","10","548954","0.0-6.0-2.2","6400d9235287137e7b62fd29","bdp_trlrn","Sat Apr 08 2023 08:40:17 GMT-0700 (Pacific Daylight Time)","1277717","Trustworthy,Untrustworthy","","null","","","","ratingFB","","","trustrating_stim/white_00602_940928_fb_edt.bmp","null","","","","","","","","","","",""
"image-keyboard-response","11","551126","0.0-6.0-1.3","6400d9235287137e7b62fd29","bdp_trlrn","Sat Apr 08 2023 08:40:17 GMT-0700 (Pacific Daylight Time)","1277717","Trustworthy,Untrustworthy","","2067","","","","rating","","","trustrating_stim/white_mw056.bmp","4","","","","","","","","","","",""
"image-keyboard-response","12","551329","0.0-6.0-2.3","6400d9235287137e7b62fd29","bdp_trlrn","Sat Apr 08 2023 08:40:17 GMT-0700 (Pacific Daylight Time)","1277717","Trustworthy,Untrustworthy","","null","","","","ratingFB","","","trustrating_stim/white_mw056.bmp","null","","","","","","","","","","",""
"image-keyboard-response","13","552846","0.0-6.0-1.4","6400d9235287137e7b62fd29","bdp_trlrn","Sat Apr 08 2023 08:40:17 GMT-0700 (Pacific Daylight Time)","1277717","Trustworthy,Untrustworthy","","1412","","","","rating","","","trustrating_stim/white_00129_931230_fb_edt.bmp","4","","","","","","","","","","",""
"image-keyboard-response","14","553054","0.0-6.0-2.4","6400d9235287137e7b62fd29","bdp_trlrn","Sat Apr 08 2023 08:40:17 GMT-0700 (Pacific Daylight Time)","1277717","Trustworthy,Untrustworthy","","null","","","","ratingFB","","","trustrating_stim/white_00129_931230_fb_edt.bmp","null","","","","","","","","","","",""
"image-keyboard-response","15","556414","0.0-6.0-1.5","6400d9235287137e7b62fd29","bdp_trlrn","Sat Apr 08 2023 08:40:17 GMT-0700 (Pacific Daylight Time)","1277717","Trustworthy,Untrustworthy","","3256","","","","rating","","","trustrating_stim/white_00898_960530_fa_edt.bmp","4","","","","","","","","","","",""
"image-keyboard-response","16","556618","0.0-6.0-2.5","6400d9235287137e7b62fd29","bdp_trlrn","Sat Apr 08 2023 08:40:17 GMT-0700 (Pacific Daylight Time)","1277717","Trustworthy,Untrustworthy","","null","","","","ratingFB","","","trustrating_stim/white_00898_960530_fa_edt.bmp","null","","","","","","","","","","",""
"image-keyboard-response","17","557950","0.0-6.0-1.6","6400d9235287137e7b62fd29","bdp_trlrn","Sat Apr 08 2023 08:40:17 GMT-0700 (Pacific Daylight Time)","1277717","Trustworthy,Untrustworthy","","1218","","","","rating","","","trustrating_stim/white_mw089.bmp","4","","","","","","","","","","",""
"image-keyboard-response","18","558161","0.0-6.0-2.6","6400d9235287137e7b62fd29","bdp_trlrn","Sat Apr 08 2023 08:40:17 GMT-0700 (Pacific Daylight Time)","1277717","Trustworthy,Untrustworthy","","null","","","","ratingFB","","","trustrating_stim/white_mw089.bmp","null","","","","","","","","","","",""
"image-keyboard-response","19","559482","0.0-6.0-1.7","6400d9235287137e7b62fd29","bdp_trlrn","Sat Apr 08 2023 08:40:17 GMT-0700 (Pacific Daylight Time)","1277717","Trustworthy,Untrustworthy","","1211","","","","rating","","","trustrating_stim/white_mw071.bmp","4","","","","","","","","","","",""
"image-keyboard-response","20","559684","0.0-6.0-2.7","6400d9235287137e7b62fd29","bdp_trlrn","Sat Apr 08 2023 08:40:17 GMT-0700 (Pacific Daylight Time)","1277717","Trustworthy,Untrustworthy","","null","","","","ratingFB","","","trustrating_stim/white_mw071.bmp","null","","","","","","","","","","",""
"image-keyboard-response","21","560905","0.0-6.0-1.8","6400d9235287137e7b62fd29","bdp_trlrn","Sat Apr 08 2023 08:40:17 GMT-0700 (Pacific Daylight Time)","1277717","Trustworthy,Untrustworthy","","1106","","","","rating","","","trustrating_stim/white_00757_941201_fa_edt.bmp","4","","","","","","","","","","",""
"image-keyboard-response","22","561109","0.0-6.0-2.8","6400d9235287137e7b62fd29","bdp_trlrn","Sat Apr 08 2023 08:40:17 GMT-0700 (Pacific Daylight Time)","1277717","Trustworthy,Untrustworthy","","null","","","","ratingFB","","","trustrating_stim/white_00757_941201_fa_edt.bmp","null","","","","","","","","","","",""
"image-keyboard-response","23","562071","0.0-6.0-1.9","6400d9235287137e7b62fd29","bdp_trlrn","Sat Apr 08 2023 08:40:17 GMT-0700 (Pacific Daylight Time)","1277717","Trustworthy,Untrustworthy","","847","","","","rating","","","trustrating_stim/white_mw046.bmp","4","","","","","","","","","","",""
"image-keyboard-response","24","562276","0.0-6.0-2.9","6400d9235287137e7b62fd29","bdp_trlrn","Sat Apr 08 2023 08:40:17 GMT-0700 (Pacific Daylight Time)","1277717","Trustworthy,Untrustworthy","","null","","","","ratingFB","","","trustrating_stim/white_mw046.bmp","null","","","","","","","","","","",""
"image-keyboard-response","25","563482","0.0-6.0-1.10","6400d9235287137e7b62fd29","bdp_trlrn","Sat Apr 08 2023 08:40:17 GMT-0700 (Pacific Daylight Time)","1277717","Trustworthy,Untrustworthy","","1098","","","","rating","","","trustrating_stim/white_00299_940422_fa_edt.bmp","4","","","","","","","","","","",""
"image-keyboard-response","26","563691","0.0-6.0-2.10","6400d9235287137e7b62fd29","bdp_trlrn","Sat Apr 08 2023 08:40:17 GMT-0700 (Pacific Daylight Time)","1277717","Trustworthy,Untrustworthy","","null","","","","ratingFB","","","trustrating_stim/white_00299_940422_fa_edt.bmp","null","","","","","","","","","","",""
"image-keyboard-response","27","565658","0.0-6.0-1.11","6400d9235287137e7b62fd29","bdp_trlrn","Sat Apr 08 2023 08:40:17 GMT-0700 (Pacific Daylight Time)","1277717","Trustworthy,Untrustworthy","","1863","","","","rating","","","trustrating_stim/white_mw033.bmp","5","","","","","","","","","","",""
"image-keyboard-response","28","565860","0.0-6.0-2.11","6400d9235287137e7b62fd29","bdp_trlrn","Sat Apr 08 2023 08:40:17 GMT-0700 (Pacific Daylight Time)","1277717","Trustworthy,Untrustworthy","","null","","","","ratingFB","","","trustrating_stim/white_mw033.bmp","null","","","","","","","","","","",""
"image-keyboard-response","29","567688","0.0-6.0-1.12","6400d9235287137e7b62fd29","bdp_trlrn","Sat Apr 08 2023 08:40:17 GMT-0700 (Pacific Daylight Time)","1277717","Trustworthy,Untrustworthy","","1722","","","","rating","","","trustrating_stim/white_00519_940519_fb_edt.bmp","3","","","","","","","","","","",""
"image-keyboard-response","30","567900","0.0-6.0-2.12","6400d9235287137e7b62fd29","bdp_trlrn","Sat Apr 08 2023 08:40:17 GMT-0700 (Pacific Daylight Time)","1277717","Trustworthy,Untrustworthy","","null","","","","ratingFB","","","trustrating_stim/white_00519_940519_fb_edt.bmp","null","","","","","","","","","","",""
"image-keyboard-response","31","569652","0.0-6.0-1.13","6400d9235287137e7b62fd29","bdp_trlrn","Sat Apr 08 2023 08:40:17 GMT-0700 (Pacific Daylight Time)","1277717","Trustworthy,Untrustworthy","","1635","","","","rating","","","trustrating_stim/white_mw049.bmp","6","","","","","","","","","","",""
"image-keyboard-response","32","569859","0.0-6.0-2.13","6400d9235287137e7b62fd29","bdp_trlrn","Sat Apr 08 2023 08:40:17 GMT-0700 (Pacific Daylight Time)","1277717","Trustworthy,Untrustworthy","","null","","","","ratingFB","","","trustrating_stim/white_mw049.bmp","null","","","","","","","","","","",""
"image-keyboard-response","33","571083","0.0-6.0-1.14","6400d9235287137e7b62fd29","bdp_trlrn","Sat Apr 08 2023 08:40:17 GMT-0700 (Pacific Daylight Time)","1277717","Trustworthy,Untrustworthy","","1118","","","","rating","","","trustrating_stim/white_00785_941205_fb_edt.bmp","3","","","","","","","","","","",""
"image-keyboard-response","34","571285","0.0-6.0-2.14","6400d9235287137e7b62fd29","bdp_trlrn","Sat Apr 08 2023 08:40:17 GMT-0700 (Pacific Daylight Time)","1277717","Trustworthy,Untrustworthy","","null","","","","ratingFB","","","trustrating_stim/white_00785_941205_fb_edt.bmp","null","","","","","","","","","","",""
"image-keyboard-response","35","572574","0.0-6.0-1.15","6400d9235287137e7b62fd29","bdp_trlrn","Sat Apr 08 2023 08:40:17 GMT-0700 (Pacific Daylight Time)","1277717","Trustworthy,Untrustworthy","","1176","","","","rating","","","trustrating_stim/white_00109_931230_fa_edt.bmp","6","","","","","","","","","","",""
"image-keyboard-response","36","572791","0.0-6.0-2.15","6400d9235287137e7b62fd29","bdp_trlrn","Sat Apr 08 2023 08:40:17 GMT-0700 (Pacific Daylight Time)","1277717","Trustworthy,Untrustworthy","","null","","","","ratingFB","","","trustrating_stim/white_00109_931230_fa_edt.bmp","null","","","","","","","","","","",""
"image-keyboard-response","37","574014","0.0-6.0-1.16","6400d9235287137e7b62fd29","bdp_trlrn","Sat Apr 08 2023 08:40:17 GMT-0700 (Pacific Daylight Time)","1277717","Trustworthy,Untrustworthy","","1114","","","","rating","","","trustrating_stim/white_00577_940928_fa_edt.bmp","3","","","","","","","","","","",""
"image-keyboard-response","38","574217","0.0-6.0-2.16","6400d9235287137e7b62fd29","bdp_trlrn","Sat Apr 08 2023 08:40:17 GMT-0700 (Pacific Daylight Time)","1277717","Trustworthy,Untrustworthy","","null","","","","ratingFB","","","trustrating_stim/white_00577_940928_fa_edt.bmp","null","","","","","","","","","","",""
"image-keyboard-response","39","575473","0.0-6.0-1.17","6400d9235287137e7b62fd29","bdp_trlrn","Sat Apr 08 2023 08:40:17 GMT-0700 (Pacific Daylight Time)","1277717","Trustworthy,Untrustworthy","","1144","","","","rating","","","trustrating_stim/white_mw063.bmp","3","","","","","","","","","","",""
"image-keyboard-response","40","575687","0.0-6.0-2.17","6400d9235287137e7b62fd29","bdp_trlrn","Sat Apr 08 2023 08:40:17 GMT-0700 (Pacific Daylight Time)","1277717","Trustworthy,Untrustworthy","","null","","","","ratingFB","","","trustrating_stim/white_mw063.bmp","null","","","","","","","","","","",""
"image-keyboard-response","41","577474","0.0-6.0-1.18","6400d9235287137e7b62fd29","bdp_trlrn","Sat Apr 08 2023 08:40:17 GMT-0700 (Pacific Daylight Time)","1277717","Trustworthy,Untrustworthy","","1677","","","","rating","","","trustrating_stim/white_00659_941121_fa_edt.bmp","3","","","","","","","","","","",""
"image-keyboard-response","42","577683","0.0-6.0-2.18","6400d9235287137e7b62fd29","bdp_trlrn","Sat Apr 08 2023 08:40:17 GMT-0700 (Pacific Daylight Time)","1277717","Trustworthy,Untrustworthy","","null","","","","ratingFB","","","trustrating_stim/white_00659_941121_fa_edt.bmp","null","","","","","","","","","","",""
"image-keyboard-response","43","580333","0.0-6.0-1.19","6400d9235287137e7b62fd29","bdp_trlrn","Sat Apr 08 2023 08:40:17 GMT-0700 (Pacific Daylight Time)","1277717","Trustworthy,Untrustworthy","","2538","","","","rating","","","trustrating_stim/white_mw066.bmp","5","","","","","","","","","","",""
"image-keyboard-response","44","580538","0.0-6.0-2.19","6400d9235287137e7b62fd29","bdp_trlrn","Sat Apr 08 2023 08:40:17 GMT-0700 (Pacific Daylight Time)","1277717","Trustworthy,Untrustworthy","","null","","","","ratingFB","","","trustrating_stim/white_mw066.bmp","null","","","","","","","","","","",""
"image-keyboard-response","45","582654","0.0-6.0-1.20","6400d9235287137e7b62fd29","bdp_trlrn","Sat Apr 08 2023 08:40:17 GMT-0700 (Pacific Daylight Time)","1277717","Trustworthy,Untrustworthy","","2009","","","","rating","","","trustrating_stim/white_mw053.bmp","4","","","","","","","","","","",""
"image-keyboard-response","46","582869","0.0-6.0-2.20","6400d9235287137e7b62fd29","bdp_trlrn","Sat Apr 08 2023 08:40:17 GMT-0700 (Pacific Daylight Time)","1277717","Trustworthy,Untrustworthy","","null","","","","ratingFB","","","trustrating_stim/white_mw053.bmp","null","","","","","","","","","","",""
"image-keyboard-response","47","583752","0.0-6.0-1.21","6400d9235287137e7b62fd29","bdp_trlrn","Sat Apr 08 2023 08:40:17 GMT-0700 (Pacific Daylight Time)","1277717","Trustworthy,Untrustworthy","","772","","","","rating","","","trustrating_stim/white_mw035.bmp","4","","","","","","","","","","",""
"image-keyboard-response","48","583955","0.0-6.0-2.21","6400d9235287137e7b62fd29","bdp_trlrn","Sat Apr 08 2023 08:40:17 GMT-0700 (Pacific Daylight Time)","1277717","Trustworthy,Untrustworthy","","null","","","","ratingFB","","","trustrating_stim/white_mw035.bmp","null","","","","","","","","","","",""
"image-keyboard-response","49","590977","0.0-6.0-1.22","6400d9235287137e7b62fd29","bdp_trlrn","Sat Apr 08 2023 08:40:17 GMT-0700 (Pacific Daylight Time)","1277717","Trustworthy,Untrustworthy","","6914","","","","rating","","","trustrating_stim/white_00223_940128_fb_edt.bmp","2","","","","","","","","","","",""
"image-keyboard-response","50","591195","0.0-6.0-2.22","6400d9235287137e7b62fd29","bdp_trlrn","Sat Apr 08 2023 08:40:17 GMT-0700 (Pacific Daylight Time)","1277717","Trustworthy,Untrustworthy","","null","","","","ratingFB","","","trustrating_stim/white_00223_940128_fb_edt.bmp","null","","","","","","","","","","",""
"image-keyboard-response","51","592664","0.0-6.0-1.23","6400d9235287137e7b62fd29","bdp_trlrn","Sat Apr 08 2023 08:40:17 GMT-0700 (Pacific Daylight Time)","1277717","Trustworthy,Untrustworthy","","1361","","","","rating","","","trustrating_stim/white_mw097.bmp","2","","","","","","","","","","",""
"image-keyboard-response","52","592869","0.0-6.0-2.23","6400d9235287137e7b62fd29","bdp_trlrn","Sat Apr 08 2023 08:40:17 GMT-0700 (Pacific Daylight Time)","1277717","Trustworthy,Untrustworthy","","null","","","","ratingFB","","","trustrating_stim/white_mw097.bmp","null","","","","","","","","","","",""
"image-keyboard-response","53","593733","0.0-6.0-1.24","6400d9235287137e7b62fd29","bdp_trlrn","Sat Apr 08 2023 08:40:17 GMT-0700 (Pacific Daylight Time)","1277717","Trustworthy,Untrustworthy","","757","","","","rating","","","trustrating_stim/white_mw048.bmp","2","","","","","","","","","","",""
"image-keyboard-response","54","593945","0.0-6.0-2.24","6400d9235287137e7b62fd29","bdp_trlrn","Sat Apr 08 2023 08:40:17 GMT-0700 (Pacific Daylight Time)","1277717","Trustworthy,Untrustworthy","","null","","","","ratingFB","","","trustrating_stim/white_mw048.bmp","null","","","","","","","","","","",""
"image-keyboard-response","55","595415","0.0-6.0-1.25","6400d9235287137e7b62fd29","bdp_trlrn","Sat Apr 08 2023 08:40:17 GMT-0700 (Pacific Daylight Time)","1277717","Trustworthy,Untrustworthy","","1359","","","","rating","","","trustrating_stim/white_mw084.bmp","3","","","","","","","","","","",""
"image-keyboard-response","56","595619","0.0-6.0-2.25","6400d9235287137e7b62fd29","bdp_trlrn","Sat Apr 08 2023 08:40:17 GMT-0700 (Pacific Daylight Time)","1277717","Trustworthy,Untrustworthy","","null","","","","ratingFB","","","trustrating_stim/white_mw084.bmp","null","","","","","","","","","","",""
"image-keyboard-response","57","596959","0.0-6.0-1.26","6400d9235287137e7b62fd29","bdp_trlrn","Sat Apr 08 2023 08:40:17 GMT-0700 (Pacific Daylight Time)","1277717","Trustworthy,Untrustworthy","","1233","","","","rating","","","trustrating_stim/white_00761_941201_fb_edt.bmp","3","","","","","","","","","","",""
"image-keyboard-response","58","597173","0.0-6.0-2.26","6400d9235287137e7b62fd29","bdp_trlrn","Sat Apr 08 2023 08:40:17 GMT-0700 (Pacific Daylight Time)","1277717","Trustworthy,Untrustworthy","","null","","","","ratingFB","","","trustrating_stim/white_00761_941201_fb_edt.bmp","null","","","","","","","","","","",""
"image-keyboard-response","59","597950","0.0-6.0-1.27","6400d9235287137e7b62fd29","bdp_trlrn","Sat Apr 08 2023 08:40:17 GMT-0700 (Pacific Daylight Time)","1277717","Trustworthy,Untrustworthy","","666","","","","rating","","","trustrating_stim/white_00340_940422_fa_edt.bmp","3","","","","","","","","","","",""
"image-keyboard-response","60","598162","0.0-6.0-2.27","6400d9235287137e7b62fd29","bdp_trlrn","Sat Apr 08 2023 08:40:17 GMT-0700 (Pacific Daylight Time)","1277717","Trustworthy,Untrustworthy","","null","","","","ratingFB","","","trustrating_stim/white_00340_940422_fa_edt.bmp","null","","","","","","","","","","",""
"image-keyboard-response","61","598852","0.0-6.0-1.28","6400d9235287137e7b62fd29","bdp_trlrn","Sat Apr 08 2023 08:40:17 GMT-0700 (Pacific Daylight Time)","1277717","Trustworthy,Untrustworthy","","575","","","","rating","","","trustrating_stim/white_mw099.bmp","3","","","","","","","","","","",""
"image-keyboard-response","62","599070","0.0-6.0-2.28","6400d9235287137e7b62fd29","bdp_trlrn","Sat Apr 08 2023 08:40:17 GMT-0700 (Pacific Daylight Time)","1277717","Trustworthy,Untrustworthy","","null","","","","ratingFB","","","trustrating_stim/white_mw099.bmp","null","","","","","","","","","","",""
"image-keyboard-response","63","601666","0.0-6.0-1.29","6400d9235287137e7b62fd29","bdp_trlrn","Sat Apr 08 2023 08:40:17 GMT-0700 (Pacific Daylight Time)","1277717","Trustworthy,Untrustworthy","","2490","","","","rating","","","trustrating_stim/white_00807_941205_fb_edt.bmp","3","","","","","","","","","","",""
"image-keyboard-response","64","601870","0.0-6.0-2.29","6400d9235287137e7b62fd29","bdp_trlrn","Sat Apr 08 2023 08:40:17 GMT-0700 (Pacific Daylight Time)","1277717","Trustworthy,Untrustworthy","","null","","","","ratingFB","","","trustrating_stim/white_00807_941205_fb_edt.bmp","null","","","","","","","","","","",""
"image-keyboard-response","65","603773","0.0-6.0-1.30","6400d9235287137e7b62fd29","bdp_trlrn","Sat Apr 08 2023 08:40:17 GMT-0700 (Pacific Daylight Time)","1277717","Trustworthy,Untrustworthy","","1797","","","","rating","","","trustrating_stim/white_mw089.bmp","5","","","","","","","","","","",""
"image-keyboard-response","66","603984","0.0-6.0-2.30","6400d9235287137e7b62fd29","bdp_trlrn","Sat Apr 08 2023 08:40:17 GMT-0700 (Pacific Daylight Time)","1277717","Trustworthy,Untrustworthy","","null","","","","ratingFB","","","trustrating_stim/white_mw089.bmp","null","","","","","","","","","","",""
"image-keyboard-response","67","606455","0.0-6.0-1.31","6400d9235287137e7b62fd29","bdp_trlrn","Sat Apr 08 2023 08:40:17 GMT-0700 (Pacific Daylight Time)","1277717","Trustworthy,Untrustworthy","","2364","","","","rating","","","trustrating_stim/white_mw035.bmp","5","","","","","","","","","","",""
"image-keyboard-response","68","606668","0.0-6.0-2.31","6400d9235287137e7b62fd29","bdp_trlrn","Sat Apr 08 2023 08:40:17 GMT-0700 (Pacific Daylight Time)","1277717","Trustworthy,Untrustworthy","","null","","","","ratingFB","","","trustrating_stim/white_mw035.bmp","null","","","","","","","","","","",""
"image-keyboard-response","69","608205","0.0-6.0-1.32","6400d9235287137e7b62fd29","bdp_trlrn","Sat Apr 08 2023 08:40:17 GMT-0700 (Pacific Daylight Time)","1277717","Trustworthy,Untrustworthy","","1430","","","","rating","","","trustrating_stim/white_mw060.bmp","4","","","","","","","","","","",""
"image-keyboard-response","70","608413","0.0-6.0-2.32","6400d9235287137e7b62fd29","bdp_trlrn","Sat Apr 08 2023 08:40:17 GMT-0700 (Pacific Daylight Time)","1277717","Trustworthy,Untrustworthy","","null","","","","ratingFB","","","trustrating_stim/white_mw060.bmp","null","","","","","","","","","","",""
"image-keyboard-response","71","612149","0.0-6.0-1.33","6400d9235287137e7b62fd29","bdp_trlrn","Sat Apr 08 2023 08:40:17 GMT-0700 (Pacific Daylight Time)","1277717","Trustworthy,Untrustworthy","","3624","","","","rating","","","trustrating_stim/white_mw099.bmp","3","","","","","","","","","","",""
"image-keyboard-response","72","612367","0.0-6.0-2.33","6400d9235287137e7b62fd29","bdp_trlrn","Sat Apr 08 2023 08:40:17 GMT-0700 (Pacific Daylight Time)","1277717","Trustworthy,Untrustworthy","","null","","","","ratingFB","","","trustrating_stim/white_mw099.bmp","null","","","","","","","","","","",""
"image-keyboard-response","73","613232","0.0-6.0-1.34","6400d9235287137e7b62fd29","bdp_trlrn","Sat Apr 08 2023 08:40:17 GMT-0700 (Pacific Daylight Time)","1277717","Trustworthy,Untrustworthy","","758","","","","rating","","","trustrating_stim/white_00519_940519_fb_edt.bmp","3","","","","","","","","","","",""
"image-keyboard-response","74","613434","0.0-6.0-2.34","6400d9235287137e7b62fd29","bdp_trlrn","Sat Apr 08 2023 08:40:17 GMT-0700 (Pacific Daylight Time)","1277717","Trustworthy,Untrustworthy","","null","","","","ratingFB","","","trustrating_stim/white_00519_940519_fb_edt.bmp","null","","","","","","","","","","",""
"image-keyboard-response","75","615354","0.0-6.0-1.35","6400d9235287137e7b62fd29","bdp_trlrn","Sat Apr 08 2023 08:40:17 GMT-0700 (Pacific Daylight Time)","1277717","Trustworthy,Untrustworthy","","1813","","","","rating","","","trustrating_stim/white_mw071.bmp","3","","","","","","","","","","",""
"image-keyboard-response","76","615560","0.0-6.0-2.35","6400d9235287137e7b62fd29","bdp_trlrn","Sat Apr 08 2023 08:40:17 GMT-0700 (Pacific Daylight Time)","1277717","Trustworthy,Untrustworthy","","null","","","","ratingFB","","","trustrating_stim/white_mw071.bmp","null","","","","","","","","","","",""
"image-keyboard-response","77","617922","0.0-6.0-1.36","6400d9235287137e7b62fd29","bdp_trlrn","Sat Apr 08 2023 08:40:17 GMT-0700 (Pacific Daylight Time)","1277717","Trustworthy,Untrustworthy","","2257","","","","rating","","","trustrating_stim/white_00898_960530_fa_edt.bmp","4","","","","","","","","","","",""
"image-keyboard-response","78","618130","0.0-6.0-2.36","6400d9235287137e7b62fd29","bdp_trlrn","Sat Apr 08 2023 08:40:17 GMT-0700 (Pacific Daylight Time)","1277717","Trustworthy,Untrustworthy","","null","","","","ratingFB","","","trustrating_stim/white_00898_960530_fa_edt.bmp","null","","","","","","","","","","",""
"image-keyboard-response","79","621330","0.0-6.0-1.37","6400d9235287137e7b62fd29","bdp_trlrn","Sat Apr 08 2023 08:40:17 GMT-0700 (Pacific Daylight Time)","1277717","Trustworthy,Untrustworthy","","3090","","","","rating","","","trustrating_stim/white_mw066.bmp","6","","","","","","","","","","",""
"image-keyboard-response","80","621546","0.0-6.0-2.37","6400d9235287137e7b62fd29","bdp_trlrn","Sat Apr 08 2023 08:40:17 GMT-0700 (Pacific Daylight Time)","1277717","Trustworthy,Untrustworthy","","null","","","","ratingFB","","","trustrating_stim/white_mw066.bmp","null","","","","","","","","","","",""
"image-keyboard-response","81","623874","0.0-6.0-1.38","6400d9235287137e7b62fd29","bdp_trlrn","Sat Apr 08 2023 08:40:17 GMT-0700 (Pacific Daylight Time)","1277717","Trustworthy,Untrustworthy","","2218","","","","rating","","","trustrating_stim/white_mw056.bmp","4","","","","","","","","","","",""
"image-keyboard-response","82","624082","0.0-6.0-2.38","6400d9235287137e7b62fd29","bdp_trlrn","Sat Apr 08 2023 08:40:17 GMT-0700 (Pacific Daylight Time)","1277717","Trustworthy,Untrustworthy","","null","","","","ratingFB","","","trustrating_stim/white_mw056.bmp","null","","","","","","","","","","",""
"image-keyboard-response","83","626385","0.0-6.0-1.39","6400d9235287137e7b62fd29","bdp_trlrn","Sat Apr 08 2023 08:40:17 GMT-0700 (Pacific Daylight Time)","1277717","Trustworthy,Untrustworthy","","2196","","","","rating","","","trustrating_stim/white_mw097.bmp","2","","","","","","","","","","",""
"image-keyboard-response","84","626590","0.0-6.0-2.39","6400d9235287137e7b62fd29","bdp_trlrn","Sat Apr 08 2023 08:40:17 GMT-0700 (Pacific Daylight Time)","1277717","Trustworthy,Untrustworthy","","null","","","","ratingFB","","","trustrating_stim/white_mw097.bmp","null","","","","","","","","","","",""
"image-keyboard-response","85","629046","0.0-6.0-1.40","6400d9235287137e7b62fd29","bdp_trlrn","Sat Apr 08 2023 08:40:17 GMT-0700 (Pacific Daylight Time)","1277717","Trustworthy,Untrustworthy","","2338","","","","rating","","","trustrating_stim/white_00120_931230_fa_edt.bmp","6","","","","","","","","","","",""
"image-keyboard-response","86","629249","0.0-6.0-2.40","6400d9235287137e7b62fd29","bdp_trlrn","Sat Apr 08 2023 08:40:17 GMT-0700 (Pacific Daylight Time)","1277717","Trustworthy,Untrustworthy","","null","","","","ratingFB","","","trustrating_stim/white_00120_931230_fa_edt.bmp","null","","","","","","","","","","",""
"image-keyboard-response","87","632149","0.0-6.0-1.41","6400d9235287137e7b62fd29","bdp_trlrn","Sat Apr 08 2023 08:40:17 GMT-0700 (Pacific Daylight Time)","1277717","Trustworthy,Untrustworthy","","2781","","","","rating","","","trustrating_stim/white_mw046.bmp","5","","","","","","","","","","",""
"image-keyboard-response","88","632363","0.0-6.0-2.41","6400d9235287137e7b62fd29","bdp_trlrn","Sat Apr 08 2023 08:40:17 GMT-0700 (Pacific Daylight Time)","1277717","Trustworthy,Untrustworthy","","null","","","","ratingFB","","","trustrating_stim/white_mw046.bmp","null","","","","","","","","","","",""
"image-keyboard-response","89","634208","0.0-6.0-1.42","6400d9235287137e7b62fd29","bdp_trlrn","Sat Apr 08 2023 08:40:17 GMT-0700 (Pacific Daylight Time)","1277717","Trustworthy,Untrustworthy","","1737","","","","rating","","","trustrating_stim/white_00340_940422_fa_edt.bmp","3","","","","","","","","","","",""
"image-keyboard-response","90","634417","0.0-6.0-2.42","6400d9235287137e7b62fd29","bdp_trlrn","Sat Apr 08 2023 08:40:17 GMT-0700 (Pacific Daylight Time)","1277717","Trustworthy,Untrustworthy","","null","","","","ratingFB","","","trustrating_stim/white_00340_940422_fa_edt.bmp","null","","","","","","","","","","",""
"image-keyboard-response","91","636586","0.0-6.0-1.43","6400d9235287137e7b62fd29","bdp_trlrn","Sat Apr 08 2023 08:40:17 GMT-0700 (Pacific Daylight Time)","1277717","Trustworthy,Untrustworthy","","2063","","","","rating","","","trustrating_stim/white_mw084.bmp","4","","","","","","","","","","",""
"image-keyboard-response","92","636795","0.0-6.0-2.43","6400d9235287137e7b62fd29","bdp_trlrn","Sat Apr 08 2023 08:40:17 GMT-0700 (Pacific Daylight Time)","1277717","Trustworthy,Untrustworthy","","null","","","","ratingFB","","","trustrating_stim/white_mw084.bmp","null","","","","","","","","","","",""
"image-keyboard-response","93","639505","0.0-6.0-1.44","6400d9235287137e7b62fd29","bdp_trlrn","Sat Apr 08 2023 08:40:17 GMT-0700 (Pacific Daylight Time)","1277717","Trustworthy,Untrustworthy","","2599","","","","rating","","","trustrating_stim/white_00299_940422_fa_edt.bmp","4","","","","","","","","","","",""
"image-keyboard-response","94","639710","0.0-6.0-2.44","6400d9235287137e7b62fd29","bdp_trlrn","Sat Apr 08 2023 08:40:17 GMT-0700 (Pacific Daylight Time)","1277717","Trustworthy,Untrustworthy","","null","","","","ratingFB","","","trustrating_stim/white_00299_940422_fa_edt.bmp","null","","","","","","","","","","",""
"image-keyboard-response","95","641357","0.0-6.0-1.45","6400d9235287137e7b62fd29","bdp_trlrn","Sat Apr 08 2023 08:40:17 GMT-0700 (Pacific Daylight Time)","1277717","Trustworthy,Untrustworthy","","1534","","","","rating","","","trustrating_stim/white_mw033.bmp","4","","","","","","","","","","",""
"image-keyboard-response","96","641573","0.0-6.0-2.45","6400d9235287137e7b62fd29","bdp_trlrn","Sat Apr 08 2023 08:40:17 GMT-0700 (Pacific Daylight Time)","1277717","Trustworthy,Untrustworthy","","null","","","","ratingFB","","","trustrating_stim/white_mw033.bmp","null","","","","","","","","","","",""
"image-keyboard-response","97","642465","0.0-6.0-1.46","6400d9235287137e7b62fd29","bdp_trlrn","Sat Apr 08 2023 08:40:17 GMT-0700 (Pacific Daylight Time)","1277717","Trustworthy,Untrustworthy","","780","","","","rating","","","trustrating_stim/white_mw048.bmp","4","","","","","","","","","","",""
"image-keyboard-response","98","642670","0.0-6.0-2.46","6400d9235287137e7b62fd29","bdp_trlrn","Sat Apr 08 2023 08:40:17 GMT-0700 (Pacific Daylight Time)","1277717","Trustworthy,Untrustworthy","","null","","","","ratingFB","","","trustrating_stim/white_mw048.bmp","null","","","","","","","","","","",""
"image-keyboard-response","99","643890","0.0-6.0-1.47","6400d9235287137e7b62fd29","bdp_trlrn","Sat Apr 08 2023 08:40:17 GMT-0700 (Pacific Daylight Time)","1277717","Trustworthy,Untrustworthy","","1110","","","","rating","","","trustrating_stim/white_00785_941205_fb_edt.bmp","4","","","","","","","","","","",""
"image-keyboard-response","100","644097","0.0-6.0-2.47","6400d9235287137e7b62fd29","bdp_trlrn","Sat Apr 08 2023 08:40:17 GMT-0700 (Pacific Daylight Time)","1277717","Trustworthy,Untrustworthy","","null","","","","ratingFB","","","trustrating_stim/white_00785_941205_fb_edt.bmp","null","","","","","","","","","","",""
"image-keyboard-response","101","645265","0.0-6.0-1.48","6400d9235287137e7b62fd29","bdp_trlrn","Sat Apr 08 2023 08:40:17 GMT-0700 (Pacific Daylight Time)","1277717","Trustworthy,Untrustworthy","","1061","","","","rating","","","trustrating_stim/white_00577_940928_fa_edt.bmp","4","","","","","","","","","","",""
"image-keyboard-response","102","645479","0.0-6.0-2.48","6400d9235287137e7b62fd29","bdp_trlrn","Sat Apr 08 2023 08:40:17 GMT-0700 (Pacific Daylight Time)","1277717","Trustworthy,Untrustworthy","","null","","","","ratingFB","","","trustrating_stim/white_00577_940928_fa_edt.bmp","null","","","","","","","","","","",""
"image-keyboard-response","103","647434","0.0-6.0-1.49","6400d9235287137e7b62fd29","bdp_trlrn","Sat Apr 08 2023 08:40:17 GMT-0700 (Pacific Daylight Time)","1277717","Trustworthy,Untrustworthy","","1846","","","","rating","","","trustrating_stim/white_mw049.bmp","5","","","","","","","","","","",""
"image-keyboard-response","104","647643","0.0-6.0-2.49","6400d9235287137e7b62fd29","bdp_trlrn","Sat Apr 08 2023 08:40:17 GMT-0700 (Pacific Daylight Time)","1277717","Trustworthy,Untrustworthy","","null","","","","ratingFB","","","trustrating_stim/white_mw049.bmp","null","","","","","","","","","","",""
"image-keyboard-response","105","650831","0.0-6.0-1.50","6400d9235287137e7b62fd29","bdp_trlrn","Sat Apr 08 2023 08:40:17 GMT-0700 (Pacific Daylight Time)","1277717","Trustworthy,Untrustworthy","","3083","","","","rating","","","trustrating_stim/white_mw053.bmp","5","","","","","","","","","","",""
"image-keyboard-response","106","651046","0.0-6.0-2.50","6400d9235287137e7b62fd29","bdp_trlrn","Sat Apr 08 2023 08:40:17 GMT-0700 (Pacific Daylight Time)","1277717","Trustworthy,Untrustworthy","","null","","","","ratingFB","","","trustrating_stim/white_mw053.bmp","null","","","","","","","","","","",""
"image-keyboard-response","107","652766","0.0-6.0-1.51","6400d9235287137e7b62fd29","bdp_trlrn","Sat Apr 08 2023 08:40:17 GMT-0700 (Pacific Daylight Time)","1277717","Trustworthy,Untrustworthy","","1613","","","","rating","","","trustrating_stim/white_00659_941121_fa_edt.bmp","3","","","","","","","","","","",""
"image-keyboard-response","108","652975","0.0-6.0-2.51","6400d9235287137e7b62fd29","bdp_trlrn","Sat Apr 08 2023 08:40:17 GMT-0700 (Pacific Daylight Time)","1277717","Trustworthy,Untrustworthy","","null","","","","ratingFB","","","trustrating_stim/white_00659_941121_fa_edt.bmp","null","","","","","","","","","","",""
"image-keyboard-response","109","654268","0.0-6.0-1.52","6400d9235287137e7b62fd29","bdp_trlrn","Sat Apr 08 2023 08:40:17 GMT-0700 (Pacific Daylight Time)","1277717","Trustworthy,Untrustworthy","","1181","","","","rating","","","trustrating_stim/white_mw063.bmp","3","","","","","","","","","","",""
"image-keyboard-response","110","654473","0.0-6.0-2.52","6400d9235287137e7b62fd29","bdp_trlrn","Sat Apr 08 2023 08:40:17 GMT-0700 (Pacific Daylight Time)","1277717","Trustworthy,Untrustworthy","","null","","","","ratingFB","","","trustrating_stim/white_mw063.bmp","null","","","","","","","","","","",""
"image-keyboard-response","111","655774","0.0-6.0-1.53","6400d9235287137e7b62fd29","bdp_trlrn","Sat Apr 08 2023 08:40:17 GMT-0700 (Pacific Daylight Time)","1277717","Trustworthy,Untrustworthy","","1183","","","","rating","","","trustrating_stim/white_00129_931230_fb_edt.bmp","3","","","","","","","","","","",""
"image-keyboard-response","112","655979","0.0-6.0-2.53","6400d9235287137e7b62fd29","bdp_trlrn","Sat Apr 08 2023 08:40:17 GMT-0700 (Pacific Daylight Time)","1277717","Trustworthy,Untrustworthy","","null","","","","ratingFB","","","trustrating_stim/white_00129_931230_fb_edt.bmp","null","","","","","","","","","","",""
"image-keyboard-response","113","658634","0.0-6.0-1.54","6400d9235287137e7b62fd29","bdp_trlrn","Sat Apr 08 2023 08:40:17 GMT-0700 (Pacific Daylight Time)","1277717","Trustworthy,Untrustworthy","","2546","","","","rating","","","trustrating_stim/white_00109_931230_fa_edt.bmp","5","","","","","","","","","","",""
"image-keyboard-response","114","658844","0.0-6.0-2.54","6400d9235287137e7b62fd29","bdp_trlrn","Sat Apr 08 2023 08:40:17 GMT-0700 (Pacific Daylight Time)","1277717","Trustworthy,Untrustworthy","","null","","","","ratingFB","","","trustrating_stim/white_00109_931230_fa_edt.bmp","null","","","","","","","","","","",""
"image-keyboard-response","115","659937","0.0-6.0-1.55","6400d9235287137e7b62fd29","bdp_trlrn","Sat Apr 08 2023 08:40:17 GMT-0700 (Pacific Daylight Time)","1277717","Trustworthy,Untrustworthy","","984","","","","rating","","","trustrating_stim/white_00602_940928_fb_edt.bmp","5","","","","","","","","","","",""
"image-keyboard-response","116","660139","0.0-6.0-2.55","6400d9235287137e7b62fd29","bdp_trlrn","Sat Apr 08 2023 08:40:17 GMT-0700 (Pacific Daylight Time)","1277717","Trustworthy,Untrustworthy","","null","","","","ratingFB","","","trustrating_stim/white_00602_940928_fb_edt.bmp","null","","","","","","","","","","",""
"image-keyboard-response","117","662019","0.0-6.0-1.56","6400d9235287137e7b62fd29","bdp_trlrn","Sat Apr 08 2023 08:40:17 GMT-0700 (Pacific Daylight Time)","1277717","Trustworthy,Untrustworthy","","1767","","","","rating","","","trustrating_stim/white_00807_941205_fb_edt.bmp","2","","","","","","","","","","",""
"image-keyboard-response","118","662225","0.0-6.0-2.56","6400d9235287137e7b62fd29","bdp_trlrn","Sat Apr 08 2023 08:40:17 GMT-0700 (Pacific Daylight Time)","1277717","Trustworthy,Untrustworthy","","null","","","","ratingFB","","","trustrating_stim/white_00807_941205_fb_edt.bmp","null","","","","","","","","","","",""
"image-keyboard-response","119","664043","0.0-6.0-1.57","6400d9235287137e7b62fd29","bdp_trlrn","Sat Apr 08 2023 08:40:17 GMT-0700 (Pacific Daylight Time)","1277717","Trustworthy,Untrustworthy","","1700","","","","rating","","","trustrating_stim/white_00757_941201_fa_edt.bmp","3","","","","","","","","","","",""
"image-keyboard-response","120","664246","0.0-6.0-2.57","6400d9235287137e7b62fd29","bdp_trlrn","Sat Apr 08 2023 08:40:17 GMT-0700 (Pacific Daylight Time)","1277717","Trustworthy,Untrustworthy","","null","","","","ratingFB","","","trustrating_stim/white_00757_941201_fa_edt.bmp","null","","","","","","","","","","",""
"image-keyboard-response","121","665290","0.0-6.0-1.58","6400d9235287137e7b62fd29","bdp_trlrn","Sat Apr 08 2023 08:40:17 GMT-0700 (Pacific Daylight Time)","1277717","Trustworthy,Untrustworthy","","938","","","","rating","","","trustrating_stim/white_00761_941201_fb_edt.bmp","3","","","","","","","","","","",""
"image-keyboard-response","122","665495","0.0-6.0-2.58","6400d9235287137e7b62fd29","bdp_trlrn","Sat Apr 08 2023 08:40:17 GMT-0700 (Pacific Daylight Time)","1277717","Trustworthy,Untrustworthy","","null","","","","ratingFB","","","trustrating_stim/white_00761_941201_fb_edt.bmp","null","","","","","","","","","","",""
"image-keyboard-response","123","666883","0.0-6.0-1.59","6400d9235287137e7b62fd29","bdp_trlrn","Sat Apr 08 2023 08:40:17 GMT-0700 (Pacific Daylight Time)","1277717","Trustworthy,Untrustworthy","","1282","","","","rating","","","trustrating_stim/white_00223_940128_fb_edt.bmp","3","","","","","","","","","","",""
"image-keyboard-response","124","667087","0.0-6.0-2.59","6400d9235287137e7b62fd29","bdp_trlrn","Sat Apr 08 2023 08:40:17 GMT-0700 (Pacific Daylight Time)","1277717","Trustworthy,Untrustworthy","","null","","","","ratingFB","","","trustrating_stim/white_00223_940128_fb_edt.bmp","null","","","","","","","","","","",""
"instructions","125","675101","0.0-7.0","6400d9235287137e7b62fd29","bdp_trlrn","Sat Apr 08 2023 08:40:17 GMT-0700 (Pacific Daylight Time)","1277717","Trustworthy,Untrustworthy","[{""page_index"":0,""viewing_time"":7900}]","7901","","","","","","","","","","","","","","","","","","",""
"instructions","126","741140","0.0-8.0","6400d9235287137e7b62fd29","bdp_trlrn","Sat Apr 08 2023 08:40:17 GMT-0700 (Pacific Daylight Time)","1277717","Trustworthy,Untrustworthy","[{""page_index"":0,""viewing_time"":23486},{""page_index"":1,""viewing_time"":5105},{""page_index"":2,""viewing_time"":6238},{""page_index"":3,""viewing_time"":4167},{""page_index"":4,""viewing_time"":5086},{""page_index"":5,""viewing_time"":7165},{""page_index"":6,""viewing_time"":9164},{""page_index"":7,""viewing_time"":5513}]","65924","","","","","","","","","","","","","","","","","","",""
"html-keyboard-response","127","747134","0.0-9.0","6400d9235287137e7b62fd29","bdp_trlrn","Sat Apr 08 2023 08:40:17 GMT-0700 (Pacific Daylight Time)","1277717","Trustworthy,Untrustworthy","","5991","","","","","","","<div class='header' style='text-align:left; position: absolute; top: 5%; left: 5%;'><small>Task 2 of 5</small></div><div class='instruxDiv'><p><strong>1) What is the minimum number of points you can choose to send to your partner?</strong></p><p>a) 0</p><p>b) 1</p><p>c) 5</p>","B","","","","","","","","","","",""
"html-keyboard-response","128","779322","0.0-10.0","6400d9235287137e7b62fd29","bdp_trlrn","Sat Apr 08 2023 08:40:17 GMT-0700 (Pacific Daylight Time)","1277717","Trustworthy,Untrustworthy","","32080","","","","","","","<div class='header' style='text-align:left; position: absolute; top: 5%; left: 5%;'><small>Task 2 of 5</small></div><div class='instruxDiv'><p><strong>1) What is the minimum number of points you can choose to send to your partner?</strong></p><p>a) 0</p><p style='color:#00FF00'>b) 1</p><p>c) 5</p><h3 style='color:#00FF00'>Correct!</h3><h3 class='center-content'>The correct response is b).</h3><h3 class='center-content'>The minimum number of points you can choose to send to your partner is 1 point.</h3><p><em>Press SPACEBAR to continue</em></p></div>"," ","","","","","","","","","","",""
"html-keyboard-response","129","783368","0.0-11.0","6400d9235287137e7b62fd29","bdp_trlrn","Sat Apr 08 2023 08:40:17 GMT-0700 (Pacific Daylight Time)","1277717","Trustworthy,Untrustworthy","","3937","","","","","","","<div class='header' style='text-align:left; position: absolute; top: 5%; left: 5%;'><small>Task 2 of 5</small></div><div class='instruxDiv'><p><strong>2) What is the maximum number of points you can choose to send to your partner?</strong></p><p>a) 8</p><p>b) 5</p><p>c) 3</p>","A","","","","","","","","","","",""
"html-keyboard-response","130","785694","0.0-12.0","6400d9235287137e7b62fd29","bdp_trlrn","Sat Apr 08 2023 08:40:17 GMT-0700 (Pacific Daylight Time)","1277717","Trustworthy,Untrustworthy","","2214","","","","","","","<div class='header' style='text-align:left; position: absolute; top: 5%; left: 5%;'><small>Task 2 of 5</small></div><div class='instruxDiv'><p><strong>2) What is the maximum number of points you can choose to send to your partner?</strong></p><p style='color:#FF0000'>a) 8</p><p>b) 5</p><p>c) 3</p><h3 style='color:#FF0000'>Incorrect!</h3><h3 class='center-content'>The correct response is b).</h3><h3 class='center-content'>The maximum number of points you can choose to send to your partner is 5 points.</h3><p><em>Press SPACEBAR to continue</em></p></div>"," ","","","","","","","","","","",""
"html-keyboard-response","131","791426","0.0-13.0","6400d9235287137e7b62fd29","bdp_trlrn","Sat Apr 08 2023 08:40:17 GMT-0700 (Pacific Daylight Time)","1277717","Trustworthy,Untrustworthy","","5629","","","","","","","<div class='header' style='text-align:left; position: absolute; top: 5%; left: 5%;'><small>Task 2 of 5</small></div><div class='instruxDiv'><p><strong>3) What happens to the amount of points you send to your partner?</strong></p><p>a) Nothing</p><p>b) It doubles</p><p>c) It quadruples</p>","B","","","","","","","","","","",""
"html-keyboard-response","132","792582","0.0-14.0","6400d9235287137e7b62fd29","bdp_trlrn","Sat Apr 08 2023 08:40:17 GMT-0700 (Pacific Daylight Time)","1277717","Trustworthy,Untrustworthy","","1051","","","","","","","<div class='header' style='text-align:left; position: absolute; top: 5%; left: 5%;'><small>Task 2 of 5</small></div><div class='instruxDiv'><p><strong>3) What happens to the amount of points you send to your partner?</strong></p><p>a) Nothing</p><p style='color:#FF0000'>b) It doubles</p><p>c) It quadruples</p><h3 style='color:#FF0000'>Incorrect!</h3><h3 class='center-content'>The correct response is c).</h3><h3 class='center-content'>The amount of points you send to your partner quadruples.</h3><p><em>Press SPACEBAR to continue</em></p></div>"," ","","","","","","","","","","",""
"html-keyboard-response","133","799338","0.0-15.0","6400d9235287137e7b62fd29","bdp_trlrn","Sat Apr 08 2023 08:40:17 GMT-0700 (Pacific Daylight Time)","1277717","Trustworthy,Untrustworthy","","6641","","","","","","","<div class='header' style='text-align:left; position: absolute; top: 5%; left: 5%;'><small>Task 2 of 5</small></div><div class='instruxDiv'><p><strong>4) If you decided to share 4 out of 5 points with your partner, and they decided to share half of the amount they received with you, how many points would you receive back from them on this round?</strong></p><p>a) 16</p><p>b) 0</p><p>c) 8</p>","C","","","","","","","","","","",""
"html-keyboard-response","134","800416","0.0-16.0","6400d9235287137e7b62fd29","bdp_trlrn","Sat Apr 08 2023 08:40:17 GMT-0700 (Pacific Daylight Time)","1277717","Trustworthy,Untrustworthy","","970","","","","","","","<div class='header' style='text-align:left; position: absolute; top: 5%; left: 5%;'><small>Task 2 of 5</small></div><div class='instruxDiv'><p><strong>4) If you decided to share 4 out of 5 points with your partner, and they decided to share half of the amount they received with you, how many points would you receive back from them on this round?</strong></p><p>a) 16</p><p>b) 0</p><p style='color:#00FF00'>c) 8</p><h3 style='color:#00FF00'>Correct!</h3><h3 class='center-content'>The correct response is c).</h3><h3 class='center-content'>If you shared 4 out of 5 points with your partner and they decided to share half of the amount they received with you, you would receive 8 points back (i.e. (4 x 4)/2 = 8).</h3><p><em>Press SPACEBAR to continue</em></p></div>"," ","","","","","","","","","","",""
"html-keyboard-response","135","805531","0.0-17.0","6400d9235287137e7b62fd29","bdp_trlrn","Sat Apr 08 2023 08:40:17 GMT-0700 (Pacific Daylight Time)","1277717","Trustworthy,Untrustworthy","","null","","","","","","","<div class='header' style='text-align:left; position: absolute; top: 5%; left: 5%;'><small>Task 2 of 5</small></div><div class='instruxDiv'><p>Thank you for completing the quiz<p>These are the actual partners you will be interacting with in the next block:<p><div class='tc' align='center'><img class='introPic' src='trustrating_stim/white_00340_940422_fa_edt.bmp'><br><strong>Nathan</strong></div><div class='bl' align='center'><img class='introPic' src='trustrating_stim/white_00129_931230_fb_edt.bmp'><br><strong>David</strong></div><div class='br' align='center'><img class='introPic' src='trustrating_stim/white_mw049.bmp'><br><strong>Marcus</strong></div></div><p>Across <strong>66 rounds</strong> you will interact with each partner <strong>22 times</strong> (in random order).<p style='align:center; color:white'><font <em>Press SPACEBAR to continue</em></p>","null","","","","","","","","","","",""
"instructions","136","808491","0.0-18.0","6400d9235287137e7b62fd29","bdp_trlrn","Sat Apr 08 2023 08:40:17 GMT-0700 (Pacific Daylight Time)","1277717","Trustworthy,Untrustworthy","[{""page_index"":0,""viewing_time"":651},{""page_index"":1,""viewing_time"":2307}]","2959","","","","","","","","","","","","","","","","","","",""
"html-keyboard-response","137","810984","0.0-19.0-1.0","6400d9235287137e7b62fd29","bdp_trlrn","Sat Apr 08 2023 08:40:17 GMT-0700 (Pacific Daylight Time)","1277717","Trustworthy,Untrustworthy","","2387","","","","decision","","","<div class='trialDiv'><img src='trustrating_stim/white_00129_931230_fb_edt.bmp'><br><font class='baseline'><strong>David</strong><p>Choose number of points to send.</font><div class='respPicDiv'><img src='img/responseButtonOffersNo0L.png' class='respPic'></div></div>","2","1","David","6","Shared","0.35,0.8","12","0.35","trustrating_stim/white_00129_931230_fb_edt.bmp","3.5","5","1"
"html-keyboard-response","138","811237","0.0-19.0-2.0","6400d9235287137e7b62fd29","bdp_trlrn","Sat Apr 08 2023 08:40:17 GMT-0700 (Pacific Daylight Time)","1277717","Trustworthy,Untrustworthy","","null","","","","decisionFB","","","<div class='trialDiv'><img src='trustrating_stim/white_00129_931230_fb_edt.bmp'><br><font class='baseline'><strong>David</strong><p>Choose number of points to send.</font><div class='respPicDiv'><img src='img/responseButtonOffersNo0L2.png' class='respPic'></div></div>","null","1","David","6","Shared","0.35,0.8","12","0.35","trustrating_stim/white_00129_931230_fb_edt.bmp","3.5","3","1"
"html-keyboard-response","139","812251","0.0-19.0-3.0","6400d9235287137e7b62fd29","bdp_trlrn","Sat Apr 08 2023 08:40:17 GMT-0700 (Pacific Daylight Time)","1277717","Trustworthy,Untrustworthy","","null","","","","feedback","","","<div class='trialDiv'><img src='trustrating_stim/white_00129_931230_fb_edt.bmp'><br><font class='baseline'><strong>David</strong><p>Received: <strong>8</strong></font> &nbsp; &nbsp; &nbsp; &nbsp; &nbsp; &nbsp;<font class='posOutcome'>Shared back: <strong>4</strong></font></font><div class='respPicDiv'><img src='img/responseButtonOffersNo0_wht.png' class='respPic'></div></div>","null","1","David","6","Shared","0.35,0.8","12","0.35","trustrating_stim/white_00129_931230_fb_edt.bmp","3.5","7","1"
"html-keyboard-response","140","814723","0.0-19.0-1.1","6400d9235287137e7b62fd29","bdp_trlrn","Sat Apr 08 2023 08:40:17 GMT-0700 (Pacific Daylight Time)","1277717","Trustworthy,Untrustworthy","","2469","","","","decision","","","<div class='trialDiv'><img src='trustrating_stim/white_mw049.bmp'><br><font class='baseline'><strong>Marcus</strong><p>Choose number of points to send.</font><div class='respPicDiv'><img src='img/responseButtonOffersNo0L.png' class='respPic'></div></div>","3","1","Marcus","8","Kept","0.2,0.8","14","0.2","trustrating_stim/white_mw049.bmp","5.5","12","2"
"html-keyboard-response","141","814982","0.0-19.0-2.1","6400d9235287137e7b62fd29","bdp_trlrn","Sat Apr 08 2023 08:40:17 GMT-0700 (Pacific Daylight Time)","1277717","Trustworthy,Untrustworthy","","null","","","","decisionFB","","","<div class='trialDiv'><img src='trustrating_stim/white_mw049.bmp'><br><font class='baseline'><strong>Marcus</strong><p>Choose number of points to send.</font><div class='respPicDiv'><img src='img/responseButtonOffersNo0L3.png' class='respPic'></div></div>","null","1","Marcus","8","Kept","0.2,0.8","14","0.2","trustrating_stim/white_mw049.bmp","5.5","9","2"
"html-keyboard-response","142","815989","0.0-19.0-3.1","6400d9235287137e7b62fd29","bdp_trlrn","Sat Apr 08 2023 08:40:17 GMT-0700 (Pacific Daylight Time)","1277717","Trustworthy,Untrustworthy","","null","","","","feedback","","","<div class='trialDiv'><img src='trustrating_stim/white_mw049.bmp'><br><font class='baseline'><strong>Marcus</strong><p>Received: <strong>12</strong></font> &nbsp; &nbsp; &nbsp; &nbsp; &nbsp; &nbsp;<font class='negOutcome'>Shared back: <strong>0</strong></font></font><div class='respPicDiv'><img src='img/responseButtonOffersNo0_wht.png' class='respPic'></div></div>","null","1","Marcus","8","Kept","0.2,0.8","14","0.2","trustrating_stim/white_mw049.bmp","5.5","9","2"
"html-keyboard-response","143","817512","0.0-19.0-1.2","6400d9235287137e7b62fd29","bdp_trlrn","Sat Apr 08 2023 08:40:17 GMT-0700 (Pacific Daylight Time)","1277717","Trustworthy,Untrustworthy","","1521","","","","decision","","","<div class='trialDiv'><img src='trustrating_stim/white_00340_940422_fa_edt.bmp'><br><font class='baseline'><strong>Nathan</strong><p>Choose number of points to send.</font><div class='respPicDiv'><img src='img/responseButtonOffersNo0L.png' class='respPic'></div></div>","3","1","Nathan","3","Shared","0.65,0.2","14","0.65","trustrating_stim/white_00340_940422_fa_edt.bmp","3","14","3"
"html-keyboard-response","144","817781","0.0-19.0-2.2","6400d9235287137e7b62fd29","bdp_trlrn","Sat Apr 08 2023 08:40:17 GMT-0700 (Pacific Daylight Time)","1277717","Trustworthy,Untrustworthy","","null","","","","decisionFB","","","<div class='trialDiv'><img src='trustrating_stim/white_00340_940422_fa_edt.bmp'><br><font class='baseline'><strong>Nathan</strong><p>Choose number of points to send.</font><div class='respPicDiv'><img src='img/responseButtonOffersNo0L3.png' class='respPic'></div></div>","null","1","Nathan","3","Shared","0.65,0.2","14","0.65","trustrating_stim/white_00340_940422_fa_edt.bmp","3","11","3"
"html-keyboard-response","145","818789","0.0-19.0-3.2","6400d9235287137e7b62fd29","bdp_trlrn","Sat Apr 08 2023 08:40:17 GMT-0700 (Pacific Daylight Time)","1277717","Trustworthy,Untrustworthy","","null","","","","feedback","","","<div class='trialDiv'><img src='trustrating_stim/white_00340_940422_fa_edt.bmp'><br><font class='baseline'><strong>Nathan</strong><p>Received: <strong>12</strong></font> &nbsp; &nbsp; &nbsp; &nbsp; &nbsp; &nbsp;<font class='posOutcome'>Shared back: <strong>6</strong></font></font><div class='respPicDiv'><img src='img/responseButtonOffersNo0_wht.png' class='respPic'></div></div>","null","1","Nathan","3","Shared","0.65,0.2","14","0.65","trustrating_stim/white_00340_940422_fa_edt.bmp","3","17","3"
"html-keyboard-response","146","819427","0.0-19.0-1.3","6400d9235287137e7b62fd29","bdp_trlrn","Sat Apr 08 2023 08:40:17 GMT-0700 (Pacific Daylight Time)","1277717","Trustworthy,Untrustworthy","","634","","","","decision","","","<div class='trialDiv'><img src='trustrating_stim/white_mw049.bmp'><br><font class='baseline'><strong>Marcus</strong><p>Choose number of points to send.</font><div class='respPicDiv'><img src='img/responseButtonOffersNo0L.png' class='respPic'></div></div>","4","2","Marcus","8","Kept","0.2,0.8","14","0.2","trustrating_stim/white_mw049.bmp","5.5","22","4"
"html-keyboard-response","147","819680","0.0-19.0-2.3","6400d9235287137e7b62fd29","bdp_trlrn","Sat Apr 08 2023 08:40:17 GMT-0700 (Pacific Daylight Time)","1277717","Trustworthy,Untrustworthy","","null","","","","decisionFB","","","<div class='trialDiv'><img src='trustrating_stim/white_mw049.bmp'><br><font class='baseline'><strong>Marcus</strong><p>Choose number of points to send.</font><div class='respPicDiv'><img src='img/responseButtonOffersNo0L4.png' class='respPic'></div></div>","null","2","Marcus","8","Kept","0.2,0.8","14","0.2","trustrating_stim/white_mw049.bmp","5.5","18","4"
"html-keyboard-response","148","820687","0.0-19.0-3.3","6400d9235287137e7b62fd29","bdp_trlrn","Sat Apr 08 2023 08:40:17 GMT-0700 (Pacific Daylight Time)","1277717","Trustworthy,Untrustworthy","","null","","","","feedback","","","<div class='trialDiv'><img src='trustrating_stim/white_mw049.bmp'><br><font class='baseline'><strong>Marcus</strong><p>Received: <strong>16</strong></font> &nbsp; &nbsp; &nbsp; &nbsp; &nbsp; &nbsp;<font class='negOutcome'>Shared back: <strong>0</strong></font></font><div class='respPicDiv'><img src='img/responseButtonOffersNo0_wht.png' class='respPic'></div></div>","null","2","Marcus","8","Kept","0.2,0.8","14","0.2","trustrating_stim/white_mw049.bmp","5.5","18","4"
"html-keyboard-response","149","821663","0.0-19.0-1.4","6400d9235287137e7b62fd29","bdp_trlrn","Sat Apr 08 2023 08:40:17 GMT-0700 (Pacific Daylight Time)","1277717","Trustworthy,Untrustworthy","","974","","","","decision","","","<div class='trialDiv'><img src='trustrating_stim/white_00129_931230_fb_edt.bmp'><br><font class='baseline'><strong>David</strong><p>Choose number of points to send.</font><div class='respPicDiv'><img src='img/responseButtonOffersNo0L.png' class='respPic'></div></div>","4","2","David","6","Kept","0.35,0.8","12","0.35","trustrating_stim/white_00129_931230_fb_edt.bmp","3.5","23","5"
"html-keyboard-response","150","821915","0.0-19.0-2.4","6400d9235287137e7b62fd29","bdp_trlrn","Sat Apr 08 2023 08:40:17 GMT-0700 (Pacific Daylight Time)","1277717","Trustworthy,Untrustworthy","","null","","","","decisionFB","","","<div class='trialDiv'><img src='trustrating_stim/white_00129_931230_fb_edt.bmp'><br><font class='baseline'><strong>David</strong><p>Choose number of points to send.</font><div class='respPicDiv'><img src='img/responseButtonOffersNo0L4.png' class='respPic'></div></div>","null","2","David","6","Kept","0.35,0.8","12","0.35","trustrating_stim/white_00129_931230_fb_edt.bmp","3.5","19","5"
"html-keyboard-response","151","822918","0.0-19.0-3.4","6400d9235287137e7b62fd29","bdp_trlrn","Sat Apr 08 2023 08:40:17 GMT-0700 (Pacific Daylight Time)","1277717","Trustworthy,Untrustworthy","","null","","","","feedback","","","<div class='trialDiv'><img src='trustrating_stim/white_00129_931230_fb_edt.bmp'><br><font class='baseline'><strong>David</strong><p>Received: <strong>16</strong></font> &nbsp; &nbsp; &nbsp; &nbsp; &nbsp; &nbsp;<font class='negOutcome'>Shared back: <strong>0</strong></font></font><div class='respPicDiv'><img src='img/responseButtonOffersNo0_wht.png' class='respPic'></div></div>","null","2","David","6","Kept","0.35,0.8","12","0.35","trustrating_stim/white_00129_931230_fb_edt.bmp","3.5","19","5"
"html-keyboard-response","152","824356","0.0-19.0-1.5","6400d9235287137e7b62fd29","bdp_trlrn","Sat Apr 08 2023 08:40:17 GMT-0700 (Pacific Daylight Time)","1277717","Trustworthy,Untrustworthy","","1436","","","","decision","","","<div class='trialDiv'><img src='trustrating_stim/white_00340_940422_fa_edt.bmp'><br><font class='baseline'><strong>Nathan</strong><p>Choose number of points to send.</font><div class='respPicDiv'><img src='img/responseButtonOffersNo0L.png' class='respPic'></div></div>","4","2","Nathan","3","Shared","0.65,0.2","14","0.65","trustrating_stim/white_00340_940422_fa_edt.bmp","3","24","6"
"html-keyboard-response","153","824619","0.0-19.0-2.5","6400d9235287137e7b62fd29","bdp_trlrn","Sat Apr 08 2023 08:40:17 GMT-0700 (Pacific Daylight Time)","1277717","Trustworthy,Untrustworthy","","null","","","","decisionFB","","","<div class='trialDiv'><img src='trustrating_stim/white_00340_940422_fa_edt.bmp'><br><font class='baseline'><strong>Nathan</strong><p>Choose number of points to send.</font><div class='respPicDiv'><img src='img/responseButtonOffersNo0L4.png' class='respPic'></div></div>","null","2","Nathan","3","Shared","0.65,0.2","14","0.65","trustrating_stim/white_00340_940422_fa_edt.bmp","3","20","6"
"html-keyboard-response","154","825632","0.0-19.0-3.5","6400d9235287137e7b62fd29","bdp_trlrn","Sat Apr 08 2023 08:40:17 GMT-0700 (Pacific Daylight Time)","1277717","Trustworthy,Untrustworthy","","null","","","","feedback","","","<div class='trialDiv'><img src='trustrating_stim/white_00340_940422_fa_edt.bmp'><br><font class='baseline'><strong>Nathan</strong><p>Received: <strong>16</strong></font> &nbsp; &nbsp; &nbsp; &nbsp; &nbsp; &nbsp;<font class='posOutcome'>Shared back: <strong>8</strong></font></font><div class='respPicDiv'><img src='img/responseButtonOffersNo0_wht.png' class='respPic'></div></div>","null","2","Nathan","3","Shared","0.65,0.2","14","0.65","trustrating_stim/white_00340_940422_fa_edt.bmp","3","28","6"
"html-keyboard-response","155","828141","0.0-19.0-1.6","6400d9235287137e7b62fd29","bdp_trlrn","Sat Apr 08 2023 08:40:17 GMT-0700 (Pacific Daylight Time)","1277717","Trustworthy,Untrustworthy","","2507","","","","decision","","","<div class='trialDiv'><img src='trustrating_stim/white_mw049.bmp'><br><font class='baseline'><strong>Marcus</strong><p>Choose number of points to send.</font><div class='respPicDiv'><img src='img/responseButtonOffersNo0L.png' class='respPic'></div></div>","5","3","Marcus","8","Kept","0.2,0.8","14","0.2","trustrating_stim/white_mw049.bmp","5.5","33","7"
"html-keyboard-response","156","828394","0.0-19.0-2.6","6400d9235287137e7b62fd29","bdp_trlrn","Sat Apr 08 2023 08:40:17 GMT-0700 (Pacific Daylight Time)","1277717","Trustworthy,Untrustworthy","","null","","","","decisionFB","","","<div class='trialDiv'><img src='trustrating_stim/white_mw049.bmp'><br><font class='baseline'><strong>Marcus</strong><p>Choose number of points to send.</font><div class='respPicDiv'><img src='img/responseButtonOffersNo0L5.png' class='respPic'></div></div>","null","3","Marcus","8","Kept","0.2,0.8","14","0.2","trustrating_stim/white_mw049.bmp","5.5","28","7"
"html-keyboard-response","157","829407","0.0-19.0-3.6","6400d9235287137e7b62fd29","bdp_trlrn","Sat Apr 08 2023 08:40:17 GMT-0700 (Pacific Daylight Time)","1277717","Trustworthy,Untrustworthy","","null","","","","feedback","","","<div class='trialDiv'><img src='trustrating_stim/white_mw049.bmp'><br><font class='baseline'><strong>Marcus</strong><p>Received: <strong>20</strong></font> &nbsp; &nbsp; &nbsp; &nbsp; &nbsp; &nbsp;<font class='negOutcome'>Shared back: <strong>0</strong></font></font><div class='respPicDiv'><img src='img/responseButtonOffersNo0_wht.png' class='respPic'></div></div>","null","3","Marcus","8","Kept","0.2,0.8","14","0.2","trustrating_stim/white_mw049.bmp","5.5","28","7"
"html-keyboard-response","158","830750","0.0-19.0-1.7","6400d9235287137e7b62fd29","bdp_trlrn","Sat Apr 08 2023 08:40:17 GMT-0700 (Pacific Daylight Time)","1277717","Trustworthy,Untrustworthy","","1340","","","","decision","","","<div class='trialDiv'><img src='trustrating_stim/white_00340_940422_fa_edt.bmp'><br><font class='baseline'><strong>Nathan</strong><p>Choose number of points to send.</font><div class='respPicDiv'><img src='img/responseButtonOffersNo0L.png' class='respPic'></div></div>","1","3","Nathan","3","Shared","0.65,0.2","14","0.65","trustrating_stim/white_00340_940422_fa_edt.bmp","3","33","8"
"html-keyboard-response","159","831010","0.0-19.0-2.7","6400d9235287137e7b62fd29","bdp_trlrn","Sat Apr 08 2023 08:40:17 GMT-0700 (Pacific Daylight Time)","1277717","Trustworthy,Untrustworthy","","null","","","","decisionFB","","","<div class='trialDiv'><img src='trustrating_stim/white_00340_940422_fa_edt.bmp'><br><font class='baseline'><strong>Nathan</strong><p>Choose number of points to send.</font><div class='respPicDiv'><img src='img/responseButtonOffersNo0L1.png' class='respPic'></div></div>","null","3","Nathan","3","Shared","0.65,0.2","14","0.65","trustrating_stim/white_00340_940422_fa_edt.bmp","3","32","8"
"html-keyboard-response","160","832017","0.0-19.0-3.7","6400d9235287137e7b62fd29","bdp_trlrn","Sat Apr 08 2023 08:40:17 GMT-0700 (Pacific Daylight Time)","1277717","Trustworthy,Untrustworthy","","null","","","","feedback","","","<div class='trialDiv'><img src='trustrating_stim/white_00340_940422_fa_edt.bmp'><br><font class='baseline'><strong>Nathan</strong><p>Received: <strong>4</strong></font> &nbsp; &nbsp; &nbsp; &nbsp; &nbsp; &nbsp;<font class='posOutcome'>Shared back: <strong>2</strong></font></font><div class='respPicDiv'><img src='img/responseButtonOffersNo0_wht.png' class='respPic'></div></div>","null","3","Nathan","3","Shared","0.65,0.2","14","0.65","trustrating_stim/white_00340_940422_fa_edt.bmp","3","34","8"
"html-keyboard-response","161","832789","0.0-19.0-1.8","6400d9235287137e7b62fd29","bdp_trlrn","Sat Apr 08 2023 08:40:17 GMT-0700 (Pacific Daylight Time)","1277717","Trustworthy,Untrustworthy","","770","","","","decision","","","<div class='trialDiv'><img src='trustrating_stim/white_00129_931230_fb_edt.bmp'><br><font class='baseline'><strong>David</strong><p>Choose number of points to send.</font><div class='respPicDiv'><img src='img/responseButtonOffersNo0L.png' class='respPic'></div></div>","2","3","David","6","Shared","0.35,0.8","12","0.35","trustrating_stim/white_00129_931230_fb_edt.bmp","3.5","39","9"
"html-keyboard-response","162","833048","0.0-19.0-2.8","6400d9235287137e7b62fd29","bdp_trlrn","Sat Apr 08 2023 08:40:17 GMT-0700 (Pacific Daylight Time)","1277717","Trustworthy,Untrustworthy","","null","","","","decisionFB","","","<div class='trialDiv'><img src='trustrating_stim/white_00129_931230_fb_edt.bmp'><br><font class='baseline'><strong>David</strong><p>Choose number of points to send.</font><div class='respPicDiv'><img src='img/responseButtonOffersNo0L2.png' class='respPic'></div></div>","null","3","David","6","Shared","0.35,0.8","12","0.35","trustrating_stim/white_00129_931230_fb_edt.bmp","3.5","37","9"
"html-keyboard-response","163","834057","0.0-19.0-3.8","6400d9235287137e7b62fd29","bdp_trlrn","Sat Apr 08 2023 08:40:17 GMT-0700 (Pacific Daylight Time)","1277717","Trustworthy,Untrustworthy","","null","","","","feedback","","","<div class='trialDiv'><img src='trustrating_stim/white_00129_931230_fb_edt.bmp'><br><font class='baseline'><strong>David</strong><p>Received: <strong>8</strong></font> &nbsp; &nbsp; &nbsp; &nbsp; &nbsp; &nbsp;<font class='posOutcome'>Shared back: <strong>4</strong></font></font><div class='respPicDiv'><img src='img/responseButtonOffersNo0_wht.png' class='respPic'></div></div>","null","3","David","6","Shared","0.35,0.8","12","0.35","trustrating_stim/white_00129_931230_fb_edt.bmp","3.5","41","9"
"html-keyboard-response","164","835381","0.0-19.0-1.9","6400d9235287137e7b62fd29","bdp_trlrn","Sat Apr 08 2023 08:40:17 GMT-0700 (Pacific Daylight Time)","1277717","Trustworthy,Untrustworthy","","1322","","","","decision","","","<div class='trialDiv'><img src='trustrating_stim/white_mw049.bmp'><br><font class='baseline'><strong>Marcus</strong><p>Choose number of points to send.</font><div class='respPicDiv'><img src='img/responseButtonOffersNo0L.png' class='respPic'></div></div>","5","4","Marcus","8","Kept","0.2,0.8","14","0.2","trustrating_stim/white_mw049.bmp","5.5","46","10"
"html-keyboard-response","165","835646","0.0-19.0-2.9","6400d9235287137e7b62fd29","bdp_trlrn","Sat Apr 08 2023 08:40:17 GMT-0700 (Pacific Daylight Time)","1277717","Trustworthy,Untrustworthy","","null","","","","decisionFB","","","<div class='trialDiv'><img src='trustrating_stim/white_mw049.bmp'><br><font class='baseline'><strong>Marcus</strong><p>Choose number of points to send.</font><div class='respPicDiv'><img src='img/responseButtonOffersNo0L5.png' class='respPic'></div></div>","null","4","Marcus","8","Kept","0.2,0.8","14","0.2","trustrating_stim/white_mw049.bmp","5.5","41","10"
"html-keyboard-response","166","836657","0.0-19.0-3.9","6400d9235287137e7b62fd29","bdp_trlrn","Sat Apr 08 2023 08:40:17 GMT-0700 (Pacific Daylight Time)","1277717","Trustworthy,Untrustworthy","","null","","","","feedback","","","<div class='trialDiv'><img src='trustrating_stim/white_mw049.bmp'><br><font class='baseline'><strong>Marcus</strong><p>Received: <strong>20</strong></font> &nbsp; &nbsp; &nbsp; &nbsp; &nbsp; &nbsp;<font class='negOutcome'>Shared back: <strong>0</strong></font></font><div class='respPicDiv'><img src='img/responseButtonOffersNo0_wht.png' class='respPic'></div></div>","null","4","Marcus","8","Kept","0.2,0.8","14","0.2","trustrating_stim/white_mw049.bmp","5.5","41","10"
"html-keyboard-response","167","837862","0.0-19.0-1.10","6400d9235287137e7b62fd29","bdp_trlrn","Sat Apr 08 2023 08:40:17 GMT-0700 (Pacific Daylight Time)","1277717","Trustworthy,Untrustworthy","","1203","","","","decision","","","<div class='trialDiv'><img src='trustrating_stim/white_00340_940422_fa_edt.bmp'><br><font class='baseline'><strong>Nathan</strong><p>Choose number of points to send.</font><div class='respPicDiv'><img src='img/responseButtonOffersNo0L.png' class='respPic'></div></div>","4","4","Nathan","3","Kept","0.65,0.2","14","0.65","trustrating_stim/white_00340_940422_fa_edt.bmp","3","46","11"
"html-keyboard-response","168","838129","0.0-19.0-2.10","6400d9235287137e7b62fd29","bdp_trlrn","Sat Apr 08 2023 08:40:17 GMT-0700 (Pacific Daylight Time)","1277717","Trustworthy,Untrustworthy","","null","","","","decisionFB","","","<div class='trialDiv'><img src='trustrating_stim/white_00340_940422_fa_edt.bmp'><br><font class='baseline'><strong>Nathan</strong><p>Choose number of points to send.</font><div class='respPicDiv'><img src='img/responseButtonOffersNo0L4.png' class='respPic'></div></div>","null","4","Nathan","3","Kept","0.65,0.2","14","0.65","trustrating_stim/white_00340_940422_fa_edt.bmp","3","42","11"
"html-keyboard-response","169","839144","0.0-19.0-3.10","6400d9235287137e7b62fd29","bdp_trlrn","Sat Apr 08 2023 08:40:17 GMT-0700 (Pacific Daylight Time)","1277717","Trustworthy,Untrustworthy","","null","","","","feedback","","","<div class='trialDiv'><img src='trustrating_stim/white_00340_940422_fa_edt.bmp'><br><font class='baseline'><strong>Nathan</strong><p>Received: <strong>16</strong></font> &nbsp; &nbsp; &nbsp; &nbsp; &nbsp; &nbsp;<font class='negOutcome'>Shared back: <strong>0</strong></font></font><div class='respPicDiv'><img src='img/responseButtonOffersNo0_wht.png' class='respPic'></div></div>","null","4","Nathan","3","Kept","0.65,0.2","14","0.65","trustrating_stim/white_00340_940422_fa_edt.bmp","3","42","11"
"html-keyboard-response","170","841481","0.0-19.0-1.11","6400d9235287137e7b62fd29","bdp_trlrn","Sat Apr 08 2023 08:40:17 GMT-0700 (Pacific Daylight Time)","1277717","Trustworthy,Untrustworthy","","2336","","","","decision","","","<div class='trialDiv'><img src='trustrating_stim/white_00129_931230_fb_edt.bmp'><br><font class='baseline'><strong>David</strong><p>Choose number of points to send.</font><div class='respPicDiv'><img src='img/responseButtonOffersNo0L.png' class='respPic'></div></div>","3","4","David","6","Kept","0.35,0.8","12","0.35","trustrating_stim/white_00129_931230_fb_edt.bmp","3.5","47","12"
"html-keyboard-response","171","841741","0.0-19.0-2.11","6400d9235287137e7b62fd29","bdp_trlrn","Sat Apr 08 2023 08:40:17 GMT-0700 (Pacific Daylight Time)","1277717","Trustworthy,Untrustworthy","","null","","","","decisionFB","","","<div class='trialDiv'><img src='trustrating_stim/white_00129_931230_fb_edt.bmp'><br><font class='baseline'><strong>David</strong><p>Choose number of points to send.</font><div class='respPicDiv'><img src='img/responseButtonOffersNo0L3.png' class='respPic'></div></div>","null","4","David","6","Kept","0.35,0.8","12","0.35","trustrating_stim/white_00129_931230_fb_edt.bmp","3.5","44","12"
"html-keyboard-response","172","842757","0.0-19.0-3.11","6400d9235287137e7b62fd29","bdp_trlrn","Sat Apr 08 2023 08:40:17 GMT-0700 (Pacific Daylight Time)","1277717","Trustworthy,Untrustworthy","","null","","","","feedback","","","<div class='trialDiv'><img src='trustrating_stim/white_00129_931230_fb_edt.bmp'><br><font class='baseline'><strong>David</strong><p>Received: <strong>12</strong></font> &nbsp; &nbsp; &nbsp; &nbsp; &nbsp; &nbsp;<font class='negOutcome'>Shared back: <strong>0</strong></font></font><div class='respPicDiv'><img src='img/responseButtonOffersNo0_wht.png' class='respPic'></div></div>","null","4","David","6","Kept","0.35,0.8","12","0.35","trustrating_stim/white_00129_931230_fb_edt.bmp","3.5","44","12"
"html-keyboard-response","173","843249","0.0-19.0-1.12","6400d9235287137e7b62fd29","bdp_trlrn","Sat Apr 08 2023 08:40:17 GMT-0700 (Pacific Daylight Time)","1277717","Trustworthy,Untrustworthy","","491","","","","decision","","","<div class='trialDiv'><img src='trustrating_stim/white_00340_940422_fa_edt.bmp'><br><font class='baseline'><strong>Nathan</strong><p>Choose number of points to send.</font><div class='respPicDiv'><img src='img/responseButtonOffersNo0L.png' class='respPic'></div></div>","2","5","Nathan","3","Shared","0.65,0.2","14","0.65","trustrating_stim/white_00340_940422_fa_edt.bmp","3","49","13"
"html-keyboard-response","174","843503","0.0-19.0-2.12","6400d9235287137e7b62fd29","bdp_trlrn","Sat Apr 08 2023 08:40:17 GMT-0700 (Pacific Daylight Time)","1277717","Trustworthy,Untrustworthy","","null","","","","decisionFB","","","<div class='trialDiv'><img src='trustrating_stim/white_00340_940422_fa_edt.bmp'><br><font class='baseline'><strong>Nathan</strong><p>Choose number of points to send.</font><div class='respPicDiv'><img src='img/responseButtonOffersNo0L2.png' class='respPic'></div></div>","null","5","Nathan","3","Shared","0.65,0.2","14","0.65","trustrating_stim/white_00340_940422_fa_edt.bmp","3","47","13"
"html-keyboard-response","175","844509","0.0-19.0-3.12","6400d9235287137e7b62fd29","bdp_trlrn","Sat Apr 08 2023 08:40:17 GMT-0700 (Pacific Daylight Time)","1277717","Trustworthy,Untrustworthy","","null","","","","feedback","","","<div class='trialDiv'><img src='trustrating_stim/white_00340_940422_fa_edt.bmp'><br><font class='baseline'><strong>Nathan</strong><p>Received: <strong>8</strong></font> &nbsp; &nbsp; &nbsp; &nbsp; &nbsp; &nbsp;<font class='posOutcome'>Shared back: <strong>4</strong></font></font><div class='respPicDiv'><img src='img/responseButtonOffersNo0_wht.png' class='respPic'></div></div>","null","5","Nathan","3","Shared","0.65,0.2","14","0.65","trustrating_stim/white_00340_940422_fa_edt.bmp","3","51","13"
"html-keyboard-response","176","845255","0.0-19.0-1.13","6400d9235287137e7b62fd29","bdp_trlrn","Sat Apr 08 2023 08:40:17 GMT-0700 (Pacific Daylight Time)","1277717","Trustworthy,Untrustworthy","","744","","","","decision","","","<div class='trialDiv'><img src='trustrating_stim/white_00129_931230_fb_edt.bmp'><br><font class='baseline'><strong>David</strong><p>Choose number of points to send.</font><div class='respPicDiv'><img src='img/responseButtonOffersNo0L.png' class='respPic'></div></div>","2","5","David","6","Shared","0.35,0.8","12","0.35","trustrating_stim/white_00129_931230_fb_edt.bmp","3.5","56","14"
"html-keyboard-response","177","845518","0.0-19.0-2.13","6400d9235287137e7b62fd29","bdp_trlrn","Sat Apr 08 2023 08:40:17 GMT-0700 (Pacific Daylight Time)","1277717","Trustworthy,Untrustworthy","","null","","","","decisionFB","","","<div class='trialDiv'><img src='trustrating_stim/white_00129_931230_fb_edt.bmp'><br><font class='baseline'><strong>David</strong><p>Choose number of points to send.</font><div class='respPicDiv'><img src='img/responseButtonOffersNo0L2.png' class='respPic'></div></div>","null","5","David","6","Shared","0.35,0.8","12","0.35","trustrating_stim/white_00129_931230_fb_edt.bmp","3.5","54","14"
"html-keyboard-response","178","846522","0.0-19.0-3.13","6400d9235287137e7b62fd29","bdp_trlrn","Sat Apr 08 2023 08:40:17 GMT-0700 (Pacific Daylight Time)","1277717","Trustworthy,Untrustworthy","","null","","","","feedback","","","<div class='trialDiv'><img src='trustrating_stim/white_00129_931230_fb_edt.bmp'><br><font class='baseline'><strong>David</strong><p>Received: <strong>8</strong></font> &nbsp; &nbsp; &nbsp; &nbsp; &nbsp; &nbsp;<font class='posOutcome'>Shared back: <strong>4</strong></font></font><div class='respPicDiv'><img src='img/responseButtonOffersNo0_wht.png' class='respPic'></div></div>","null","5","David","6","Shared","0.35,0.8","12","0.35","trustrating_stim/white_00129_931230_fb_edt.bmp","3.5","58","14"
"html-keyboard-response","179","847181","0.0-19.0-1.14","6400d9235287137e7b62fd29","bdp_trlrn","Sat Apr 08 2023 08:40:17 GMT-0700 (Pacific Daylight Time)","1277717","Trustworthy,Untrustworthy","","657","","","","decision","","","<div class='trialDiv'><img src='trustrating_stim/white_mw049.bmp'><br><font class='baseline'><strong>Marcus</strong><p>Choose number of points to send.</font><div class='respPicDiv'><img src='img/responseButtonOffersNo0L.png' class='respPic'></div></div>","2","5","Marcus","8","Kept","0.2,0.8","14","0.2","trustrating_stim/white_mw049.bmp","5.5","63","15"
"html-keyboard-response","180","847434","0.0-19.0-2.14","6400d9235287137e7b62fd29","bdp_trlrn","Sat Apr 08 2023 08:40:17 GMT-0700 (Pacific Daylight Time)","1277717","Trustworthy,Untrustworthy","","null","","","","decisionFB","","","<div class='trialDiv'><img src='trustrating_stim/white_mw049.bmp'><br><font class='baseline'><strong>Marcus</strong><p>Choose number of points to send.</font><div class='respPicDiv'><img src='img/responseButtonOffersNo0L2.png' class='respPic'></div></div>","null","5","Marcus","8","Kept","0.2,0.8","14","0.2","trustrating_stim/white_mw049.bmp","5.5","61","15"
"html-keyboard-response","181","848438","0.0-19.0-3.14","6400d9235287137e7b62fd29","bdp_trlrn","Sat Apr 08 2023 08:40:17 GMT-0700 (Pacific Daylight Time)","1277717","Trustworthy,Untrustworthy","","null","","","","feedback","","","<div class='trialDiv'><img src='trustrating_stim/white_mw049.bmp'><br><font class='baseline'><strong>Marcus</strong><p>Received: <strong>8</strong></font> &nbsp; &nbsp; &nbsp; &nbsp; &nbsp; &nbsp;<font class='negOutcome'>Shared back: <strong>0</strong></font></font><div class='respPicDiv'><img src='img/responseButtonOffersNo0_wht.png' class='respPic'></div></div>","null","5","Marcus","8","Kept","0.2,0.8","14","0.2","trustrating_stim/white_mw049.bmp","5.5","61","15"
"html-keyboard-response","182","850506","0.0-19.0-1.15","6400d9235287137e7b62fd29","bdp_trlrn","Sat Apr 08 2023 08:40:17 GMT-0700 (Pacific Daylight Time)","1277717","Trustworthy,Untrustworthy","","2066","","","","decision","","","<div class='trialDiv'><img src='trustrating_stim/white_00129_931230_fb_edt.bmp'><br><font class='baseline'><strong>David</strong><p>Choose number of points to send.</font><div class='respPicDiv'><img src='img/responseButtonOffersNo0L.png' class='respPic'></div></div>","5","6","David","6","Shared","0.35,0.8","12","0.35","trustrating_stim/white_00129_931230_fb_edt.bmp","3.5","66","16"
"html-keyboard-response","183","850765","0.0-19.0-2.15","6400d9235287137e7b62fd29","bdp_trlrn","Sat Apr 08 2023 08:40:17 GMT-0700 (Pacific Daylight Time)","1277717","Trustworthy,Untrustworthy","","null","","","","decisionFB","","","<div class='trialDiv'><img src='trustrating_stim/white_00129_931230_fb_edt.bmp'><br><font class='baseline'><strong>David</strong><p>Choose number of points to send.</font><div class='respPicDiv'><img src='img/responseButtonOffersNo0L5.png' class='respPic'></div></div>","null","6","David","6","Shared","0.35,0.8","12","0.35","trustrating_stim/white_00129_931230_fb_edt.bmp","3.5","61","16"
"html-keyboard-response","184","851770","0.0-19.0-3.15","6400d9235287137e7b62fd29","bdp_trlrn","Sat Apr 08 2023 08:40:17 GMT-0700 (Pacific Daylight Time)","1277717","Trustworthy,Untrustworthy","","null","","","","feedback","","","<div class='trialDiv'><img src='trustrating_stim/white_00129_931230_fb_edt.bmp'><br><font class='baseline'><strong>David</strong><p>Received: <strong>20</strong></font> &nbsp; &nbsp; &nbsp; &nbsp; &nbsp; &nbsp;<font class='posOutcome'>Shared back: <strong>10</strong></font></font><div class='respPicDiv'><img src='img/responseButtonOffersNo0_wht.png' class='respPic'></div></div>","null","6","David","6","Shared","0.35,0.8","12","0.35","trustrating_stim/white_00129_931230_fb_edt.bmp","3.5","71","16"
"html-keyboard-response","185","852721","0.0-19.0-1.16","6400d9235287137e7b62fd29","bdp_trlrn","Sat Apr 08 2023 08:40:17 GMT-0700 (Pacific Daylight Time)","1277717","Trustworthy,Untrustworthy","","949","","","","decision","","","<div class='trialDiv'><img src='trustrating_stim/white_mw049.bmp'><br><font class='baseline'><strong>Marcus</strong><p>Choose number of points to send.</font><div class='respPicDiv'><img src='img/responseButtonOffersNo0L.png' class='respPic'></div></div>","5","6","Marcus","8","Kept","0.2,0.8","14","0.2","trustrating_stim/white_mw049.bmp","5.5","76","17"
"html-keyboard-response","186","852983","0.0-19.0-2.16","6400d9235287137e7b62fd29","bdp_trlrn","Sat Apr 08 2023 08:40:17 GMT-0700 (Pacific Daylight Time)","1277717","Trustworthy,Untrustworthy","","null","","","","decisionFB","","","<div class='trialDiv'><img src='trustrating_stim/white_mw049.bmp'><br><font class='baseline'><strong>Marcus</strong><p>Choose number of points to send.</font><div class='respPicDiv'><img src='img/responseButtonOffersNo0L5.png' class='respPic'></div></div>","null","6","Marcus","8","Kept","0.2,0.8","14","0.2","trustrating_stim/white_mw049.bmp","5.5","71","17"
"html-keyboard-response","187","853997","0.0-19.0-3.16","6400d9235287137e7b62fd29","bdp_trlrn","Sat Apr 08 2023 08:40:17 GMT-0700 (Pacific Daylight Time)","1277717","Trustworthy,Untrustworthy","","null","","","","feedback","","","<div class='trialDiv'><img src='trustrating_stim/white_mw049.bmp'><br><font class='baseline'><strong>Marcus</strong><p>Received: <strong>20</strong></font> &nbsp; &nbsp; &nbsp; &nbsp; &nbsp; &nbsp;<font class='negOutcome'>Shared back: <strong>0</strong></font></font><div class='respPicDiv'><img src='img/responseButtonOffersNo0_wht.png' class='respPic'></div></div>","null","6","Marcus","8","Kept","0.2,0.8","14","0.2","trustrating_stim/white_mw049.bmp","5.5","71","17"
"html-keyboard-response","188","855500","0.0-19.0-1.17","6400d9235287137e7b62fd29","bdp_trlrn","Sat Apr 08 2023 08:40:17 GMT-0700 (Pacific Daylight Time)","1277717","Trustworthy,Untrustworthy","","1501","","","","decision","","","<div class='trialDiv'><img src='trustrating_stim/white_00340_940422_fa_edt.bmp'><br><font class='baseline'><strong>Nathan</strong><p>Choose number of points to send.</font><div class='respPicDiv'><img src='img/responseButtonOffersNo0L.png' class='respPic'></div></div>","4","6","Nathan","3","Shared","0.65,0.2","14","0.65","trustrating_stim/white_00340_940422_fa_edt.bmp","3","76","18"
"html-keyboard-response","189","855766","0.0-19.0-2.17","6400d9235287137e7b62fd29","bdp_trlrn","Sat Apr 08 2023 08:40:17 GMT-0700 (Pacific Daylight Time)","1277717","Trustworthy,Untrustworthy","","null","","","","decisionFB","","","<div class='trialDiv'><img src='trustrating_stim/white_00340_940422_fa_edt.bmp'><br><font class='baseline'><strong>Nathan</strong><p>Choose number of points to send.</font><div class='respPicDiv'><img src='img/responseButtonOffersNo0L4.png' class='respPic'></div></div>","null","6","Nathan","3","Shared","0.65,0.2","14","0.65","trustrating_stim/white_00340_940422_fa_edt.bmp","3","72","18"
"html-keyboard-response","190","856780","0.0-19.0-3.17","6400d9235287137e7b62fd29","bdp_trlrn","Sat Apr 08 2023 08:40:17 GMT-0700 (Pacific Daylight Time)","1277717","Trustworthy,Untrustworthy","","null","","","","feedback","","","<div class='trialDiv'><img src='trustrating_stim/white_00340_940422_fa_edt.bmp'><br><font class='baseline'><strong>Nathan</strong><p>Received: <strong>16</strong></font> &nbsp; &nbsp; &nbsp; &nbsp; &nbsp; &nbsp;<font class='posOutcome'>Shared back: <strong>8</strong></font></font><div class='respPicDiv'><img src='img/responseButtonOffersNo0_wht.png' class='respPic'></div></div>","null","6","Nathan","3","Shared","0.65,0.2","14","0.65","trustrating_stim/white_00340_940422_fa_edt.bmp","3","80","18"
"html-keyboard-response","191","883582","0.0-19.0-1.18","6400d9235287137e7b62fd29","bdp_trlrn","Sat Apr 08 2023 08:40:17 GMT-0700 (Pacific Daylight Time)","1277717","Trustworthy,Untrustworthy","","26801","","","","decision","","","<div class='trialDiv'><img src='trustrating_stim/white_00129_931230_fb_edt.bmp'><br><font class='baseline'><strong>David</strong><p>Choose number of points to send.</font><div class='respPicDiv'><img src='img/responseButtonOffersNo0L.png' class='respPic'></div></div>","2","7","David","6","Shared","0.35,0.8","12","0.35","trustrating_stim/white_00129_931230_fb_edt.bmp","3.5","85","19"
"html-keyboard-response","192","883848","0.0-19.0-2.18","6400d9235287137e7b62fd29","bdp_trlrn","Sat Apr 08 2023 08:40:17 GMT-0700 (Pacific Daylight Time)","1277717","Trustworthy,Untrustworthy","","null","","","","decisionFB","","","<div class='trialDiv'><img src='trustrating_stim/white_00129_931230_fb_edt.bmp'><br><font class='baseline'><strong>David</strong><p>Choose number of points to send.</font><div class='respPicDiv'><img src='img/responseButtonOffersNo0L2.png' class='respPic'></div></div>","null","7","David","6","Shared","0.35,0.8","12","0.35","trustrating_stim/white_00129_931230_fb_edt.bmp","3.5","83","19"
"html-keyboard-response","193","884865","0.0-19.0-3.18","6400d9235287137e7b62fd29","bdp_trlrn","Sat Apr 08 2023 08:40:17 GMT-0700 (Pacific Daylight Time)","1277717","Trustworthy,Untrustworthy","","null","","","","feedback","","","<div class='trialDiv'><img src='trustrating_stim/white_00129_931230_fb_edt.bmp'><br><font class='baseline'><strong>David</strong><p>Received: <strong>8</strong></font> &nbsp; &nbsp; &nbsp; &nbsp; &nbsp; &nbsp;<font class='posOutcome'>Shared back: <strong>4</strong></font></font><div class='respPicDiv'><img src='img/responseButtonOffersNo0_wht.png' class='respPic'></div></div>","null","7","David","6","Shared","0.35,0.8","12","0.35","trustrating_stim/white_00129_931230_fb_edt.bmp","3.5","87","19"
"html-keyboard-response","194","886565","0.0-19.0-1.19","6400d9235287137e7b62fd29","bdp_trlrn","Sat Apr 08 2023 08:40:17 GMT-0700 (Pacific Daylight Time)","1277717","Trustworthy,Untrustworthy","","1697","","","","decision","","","<div class='trialDiv'><img src='trustrating_stim/white_00340_940422_fa_edt.bmp'><br><font class='baseline'><strong>Nathan</strong><p>Choose number of points to send.</font><div class='respPicDiv'><img src='img/responseButtonOffersNo0L.png' class='respPic'></div></div>","3","7","Nathan","3","Shared","0.65,0.2","14","0.65","trustrating_stim/white_00340_940422_fa_edt.bmp","3","92","20"
"html-keyboard-response","195","886824","0.0-19.0-2.19","6400d9235287137e7b62fd29","bdp_trlrn","Sat Apr 08 2023 08:40:17 GMT-0700 (Pacific Daylight Time)","1277717","Trustworthy,Untrustworthy","","null","","","","decisionFB","","","<div class='trialDiv'><img src='trustrating_stim/white_00340_940422_fa_edt.bmp'><br><font class='baseline'><strong>Nathan</strong><p>Choose number of points to send.</font><div class='respPicDiv'><img src='img/responseButtonOffersNo0L3.png' class='respPic'></div></div>","null","7","Nathan","3","Shared","0.65,0.2","14","0.65","trustrating_stim/white_00340_940422_fa_edt.bmp","3","89","20"
"html-keyboard-response","196","887834","0.0-19.0-3.19","6400d9235287137e7b62fd29","bdp_trlrn","Sat Apr 08 2023 08:40:17 GMT-0700 (Pacific Daylight Time)","1277717","Trustworthy,Untrustworthy","","null","","","","feedback","","","<div class='trialDiv'><img src='trustrating_stim/white_00340_940422_fa_edt.bmp'><br><font class='baseline'><strong>Nathan</strong><p>Received: <strong>12</strong></font> &nbsp; &nbsp; &nbsp; &nbsp; &nbsp; &nbsp;<font class='posOutcome'>Shared back: <strong>6</strong></font></font><div class='respPicDiv'><img src='img/responseButtonOffersNo0_wht.png' class='respPic'></div></div>","null","7","Nathan","3","Shared","0.65,0.2","14","0.65","trustrating_stim/white_00340_940422_fa_edt.bmp","3","95","20"
"html-keyboard-response","197","889386","0.0-19.0-1.20","6400d9235287137e7b62fd29","bdp_trlrn","Sat Apr 08 2023 08:40:17 GMT-0700 (Pacific Daylight Time)","1277717","Trustworthy,Untrustworthy","","1550","","","","decision","","","<div class='trialDiv'><img src='trustrating_stim/white_mw049.bmp'><br><font class='baseline'><strong>Marcus</strong><p>Choose number of points to send.</font><div class='respPicDiv'><img src='img/responseButtonOffersNo0L.png' class='respPic'></div></div>","5","7","Marcus","8","Shared","0.2,0.8","14","0.2","trustrating_stim/white_mw049.bmp","5.5","100","21"
"html-keyboard-response","198","889646","0.0-19.0-2.20","6400d9235287137e7b62fd29","bdp_trlrn","Sat Apr 08 2023 08:40:17 GMT-0700 (Pacific Daylight Time)","1277717","Trustworthy,Untrustworthy","","null","","","","decisionFB","","","<div class='trialDiv'><img src='trustrating_stim/white_mw049.bmp'><br><font class='baseline'><strong>Marcus</strong><p>Choose number of points to send.</font><div class='respPicDiv'><img src='img/responseButtonOffersNo0L5.png' class='respPic'></div></div>","null","7","Marcus","8","Shared","0.2,0.8","14","0.2","trustrating_stim/white_mw049.bmp","5.5","95","21"
"html-keyboard-response","199","890662","0.0-19.0-3.20","6400d9235287137e7b62fd29","bdp_trlrn","Sat Apr 08 2023 08:40:17 GMT-0700 (Pacific Daylight Time)","1277717","Trustworthy,Untrustworthy","","null","","","","feedback","","","<div class='trialDiv'><img src='trustrating_stim/white_mw049.bmp'><br><font class='baseline'><strong>Marcus</strong><p>Received: <strong>20</strong></font> &nbsp; &nbsp; &nbsp; &nbsp; &nbsp; &nbsp;<font class='posOutcome'>Shared back: <strong>10</strong></font></font><div class='respPicDiv'><img src='img/responseButtonOffersNo0_wht.png' class='respPic'></div></div>","null","7","Marcus","8","Shared","0.2,0.8","14","0.2","trustrating_stim/white_mw049.bmp","5.5","105","21"
"html-keyboard-response","200","891283","0.0-19.0-1.21","6400d9235287137e7b62fd29","bdp_trlrn","Sat Apr 08 2023 08:40:17 GMT-0700 (Pacific Daylight Time)","1277717","Trustworthy,Untrustworthy","","619","","","","decision","","","<div class='trialDiv'><img src='trustrating_stim/white_00129_931230_fb_edt.bmp'><br><font class='baseline'><strong>David</strong><p>Choose number of points to send.</font><div class='respPicDiv'><img src='img/responseButtonOffersNo0L.png' class='respPic'></div></div>","2","8","David","6","Kept","0.35,0.8","12","0.35","trustrating_stim/white_00129_931230_fb_edt.bmp","3.5","110","22"
"html-keyboard-response","201","891545","0.0-19.0-2.21","6400d9235287137e7b62fd29","bdp_trlrn","Sat Apr 08 2023 08:40:17 GMT-0700 (Pacific Daylight Time)","1277717","Trustworthy,Untrustworthy","","null","","","","decisionFB","","","<div class='trialDiv'><img src='trustrating_stim/white_00129_931230_fb_edt.bmp'><br><font class='baseline'><strong>David</strong><p>Choose number of points to send.</font><div class='respPicDiv'><img src='img/responseButtonOffersNo0L2.png' class='respPic'></div></div>","null","8","David","6","Kept","0.35,0.8","12","0.35","trustrating_stim/white_00129_931230_fb_edt.bmp","3.5","108","22"
"html-keyboard-response","202","892555","0.0-19.0-3.21","6400d9235287137e7b62fd29","bdp_trlrn","Sat Apr 08 2023 08:40:17 GMT-0700 (Pacific Daylight Time)","1277717","Trustworthy,Untrustworthy","","null","","","","feedback","","","<div class='trialDiv'><img src='trustrating_stim/white_00129_931230_fb_edt.bmp'><br><font class='baseline'><strong>David</strong><p>Received: <strong>8</strong></font> &nbsp; &nbsp; &nbsp; &nbsp; &nbsp; &nbsp;<font class='negOutcome'>Shared back: <strong>0</strong></font></font><div class='respPicDiv'><img src='img/responseButtonOffersNo0_wht.png' class='respPic'></div></div>","null","8","David","6","Kept","0.35,0.8","12","0.35","trustrating_stim/white_00129_931230_fb_edt.bmp","3.5","108","22"
"html-keyboard-response","203","892924","0.0-19.0-1.22","6400d9235287137e7b62fd29","bdp_trlrn","Sat Apr 08 2023 08:40:17 GMT-0700 (Pacific Daylight Time)","1277717","Trustworthy,Untrustworthy","","366","","","","decision","","","<div class='trialDiv'><img src='trustrating_stim/white_mw049.bmp'><br><font class='baseline'><strong>Marcus</strong><p>Choose number of points to send.</font><div class='respPicDiv'><img src='img/responseButtonOffersNo0L.png' class='respPic'></div></div>","3","8","Marcus","8","Kept","0.2,0.8","14","0.2","trustrating_stim/white_mw049.bmp","5.5","113","23"
"html-keyboard-response","204","893180","0.0-19.0-2.22","6400d9235287137e7b62fd29","bdp_trlrn","Sat Apr 08 2023 08:40:17 GMT-0700 (Pacific Daylight Time)","1277717","Trustworthy,Untrustworthy","","null","","","","decisionFB","","","<div class='trialDiv'><img src='trustrating_stim/white_mw049.bmp'><br><font class='baseline'><strong>Marcus</strong><p>Choose number of points to send.</font><div class='respPicDiv'><img src='img/responseButtonOffersNo0L3.png' class='respPic'></div></div>","null","8","Marcus","8","Kept","0.2,0.8","14","0.2","trustrating_stim/white_mw049.bmp","5.5","110","23"
"html-keyboard-response","205","894196","0.0-19.0-3.22","6400d9235287137e7b62fd29","bdp_trlrn","Sat Apr 08 2023 08:40:17 GMT-0700 (Pacific Daylight Time)","1277717","Trustworthy,Untrustworthy","","null","","","","feedback","","","<div class='trialDiv'><img src='trustrating_stim/white_mw049.bmp'><br><font class='baseline'><strong>Marcus</strong><p>Received: <strong>12</strong></font> &nbsp; &nbsp; &nbsp; &nbsp; &nbsp; &nbsp;<font class='negOutcome'>Shared back: <strong>0</strong></font></font><div class='respPicDiv'><img src='img/responseButtonOffersNo0_wht.png' class='respPic'></div></div>","null","8","Marcus","8","Kept","0.2,0.8","14","0.2","trustrating_stim/white_mw049.bmp","5.5","110","23"
"html-keyboard-response","206","894954","0.0-19.0-1.23","6400d9235287137e7b62fd29","bdp_trlrn","Sat Apr 08 2023 08:40:17 GMT-0700 (Pacific Daylight Time)","1277717","Trustworthy,Untrustworthy","","755","","","","decision","","","<div class='trialDiv'><img src='trustrating_stim/white_00340_940422_fa_edt.bmp'><br><font class='baseline'><strong>Nathan</strong><p>Choose number of points to send.</font><div class='respPicDiv'><img src='img/responseButtonOffersNo0L.png' class='respPic'></div></div>","3","8","Nathan","3","Kept","0.65,0.2","14","0.65","trustrating_stim/white_00340_940422_fa_edt.bmp","3","115","24"
"html-keyboard-response","207","895220","0.0-19.0-2.23","6400d9235287137e7b62fd29","bdp_trlrn","Sat Apr 08 2023 08:40:17 GMT-0700 (Pacific Daylight Time)","1277717","Trustworthy,Untrustworthy","","null","","","","decisionFB","","","<div class='trialDiv'><img src='trustrating_stim/white_00340_940422_fa_edt.bmp'><br><font class='baseline'><strong>Nathan</strong><p>Choose number of points to send.</font><div class='respPicDiv'><img src='img/responseButtonOffersNo0L3.png' class='respPic'></div></div>","null","8","Nathan","3","Kept","0.65,0.2","14","0.65","trustrating_stim/white_00340_940422_fa_edt.bmp","3","112","24"
"html-keyboard-response","208","896232","0.0-19.0-3.23","6400d9235287137e7b62fd29","bdp_trlrn","Sat Apr 08 2023 08:40:17 GMT-0700 (Pacific Daylight Time)","1277717","Trustworthy,Untrustworthy","","null","","","","feedback","","","<div class='trialDiv'><img src='trustrating_stim/white_00340_940422_fa_edt.bmp'><br><font class='baseline'><strong>Nathan</strong><p>Received: <strong>12</strong></font> &nbsp; &nbsp; &nbsp; &nbsp; &nbsp; &nbsp;<font class='negOutcome'>Shared back: <strong>0</strong></font></font><div class='respPicDiv'><img src='img/responseButtonOffersNo0_wht.png' class='respPic'></div></div>","null","8","Nathan","3","Kept","0.65,0.2","14","0.65","trustrating_stim/white_00340_940422_fa_edt.bmp","3","112","24"
"html-keyboard-response","209","896892","0.0-19.0-1.24","6400d9235287137e7b62fd29","bdp_trlrn","Sat Apr 08 2023 08:40:17 GMT-0700 (Pacific Daylight Time)","1277717","Trustworthy,Untrustworthy","","658","","","","decision","","","<div class='trialDiv'><img src='trustrating_stim/white_mw049.bmp'><br><font class='baseline'><strong>Marcus</strong><p>Choose number of points to send.</font><div class='respPicDiv'><img src='img/responseButtonOffersNo0L.png' class='respPic'></div></div>","3","9","Marcus","8","Kept","0.2,0.8","14","0.2","trustrating_stim/white_mw049.bmp","5.5","117","25"
"html-keyboard-response","210","897144","0.0-19.0-2.24","6400d9235287137e7b62fd29","bdp_trlrn","Sat Apr 08 2023 08:40:17 GMT-0700 (Pacific Daylight Time)","1277717","Trustworthy,Untrustworthy","","null","","","","decisionFB","","","<div class='trialDiv'><img src='trustrating_stim/white_mw049.bmp'><br><font class='baseline'><strong>Marcus</strong><p>Choose number of points to send.</font><div class='respPicDiv'><img src='img/responseButtonOffersNo0L3.png' class='respPic'></div></div>","null","9","Marcus","8","Kept","0.2,0.8","14","0.2","trustrating_stim/white_mw049.bmp","5.5","114","25"
"html-keyboard-response","211","898158","0.0-19.0-3.24","6400d9235287137e7b62fd29","bdp_trlrn","Sat Apr 08 2023 08:40:17 GMT-0700 (Pacific Daylight Time)","1277717","Trustworthy,Untrustworthy","","null","","","","feedback","","","<div class='trialDiv'><img src='trustrating_stim/white_mw049.bmp'><br><font class='baseline'><strong>Marcus</strong><p>Received: <strong>12</strong></font> &nbsp; &nbsp; &nbsp; &nbsp; &nbsp; &nbsp;<font class='negOutcome'>Shared back: <strong>0</strong></font></font><div class='respPicDiv'><img src='img/responseButtonOffersNo0_wht.png' class='respPic'></div></div>","null","9","Marcus","8","Kept","0.2,0.8","14","0.2","trustrating_stim/white_mw049.bmp","5.5","114","25"
"html-keyboard-response","212","898458","0.0-19.0-1.25","6400d9235287137e7b62fd29","bdp_trlrn","Sat Apr 08 2023 08:40:17 GMT-0700 (Pacific Daylight Time)","1277717","Trustworthy,Untrustworthy","","298","","","","decision","","","<div class='trialDiv'><img src='trustrating_stim/white_00340_940422_fa_edt.bmp'><br><font class='baseline'><strong>Nathan</strong><p>Choose number of points to send.</font><div class='respPicDiv'><img src='img/responseButtonOffersNo0L.png' class='respPic'></div></div>","2","9","Nathan","3","Shared","0.65,0.2","14","0.65","trustrating_stim/white_00340_940422_fa_edt.bmp","3","119","26"
"html-keyboard-response","213","898713","0.0-19.0-2.25","6400d9235287137e7b62fd29","bdp_trlrn","Sat Apr 08 2023 08:40:17 GMT-0700 (Pacific Daylight Time)","1277717","Trustworthy,Untrustworthy","","null","","","","decisionFB","","","<div class='trialDiv'><img src='trustrating_stim/white_00340_940422_fa_edt.bmp'><br><font class='baseline'><strong>Nathan</strong><p>Choose number of points to send.</font><div class='respPicDiv'><img src='img/responseButtonOffersNo0L2.png' class='respPic'></div></div>","null","9","Nathan","3","Shared","0.65,0.2","14","0.65","trustrating_stim/white_00340_940422_fa_edt.bmp","3","117","26"
"html-keyboard-response","214","899729","0.0-19.0-3.25","6400d9235287137e7b62fd29","bdp_trlrn","Sat Apr 08 2023 08:40:17 GMT-0700 (Pacific Daylight Time)","1277717","Trustworthy,Untrustworthy","","null","","","","feedback","","","<div class='trialDiv'><img src='trustrating_stim/white_00340_940422_fa_edt.bmp'><br><font class='baseline'><strong>Nathan</strong><p>Received: <strong>8</strong></font> &nbsp; &nbsp; &nbsp; &nbsp; &nbsp; &nbsp;<font class='posOutcome'>Shared back: <strong>4</strong></font></font><div class='respPicDiv'><img src='img/responseButtonOffersNo0_wht.png' class='respPic'></div></div>","null","9","Nathan","3","Shared","0.65,0.2","14","0.65","trustrating_stim/white_00340_940422_fa_edt.bmp","3","121","26"
"html-keyboard-response","215","900046","0.0-19.0-1.26","6400d9235287137e7b62fd29","bdp_trlrn","Sat Apr 08 2023 08:40:17 GMT-0700 (Pacific Daylight Time)","1277717","Trustworthy,Untrustworthy","","314","","","","decision","","","<div class='trialDiv'><img src='trustrating_stim/white_00129_931230_fb_edt.bmp'><br><font class='baseline'><strong>David</strong><p>Choose number of points to send.</font><div class='respPicDiv'><img src='img/responseButtonOffersNo0L.png' class='respPic'></div></div>","2","9","David","6","Kept","0.35,0.8","12","0.35","trustrating_stim/white_00129_931230_fb_edt.bmp","3.5","126","27"
"html-keyboard-response","216","900311","0.0-19.0-2.26","6400d9235287137e7b62fd29","bdp_trlrn","Sat Apr 08 2023 08:40:17 GMT-0700 (Pacific Daylight Time)","1277717","Trustworthy,Untrustworthy","","null","","","","decisionFB","","","<div class='trialDiv'><img src='trustrating_stim/white_00129_931230_fb_edt.bmp'><br><font class='baseline'><strong>David</strong><p>Choose number of points to send.</font><div class='respPicDiv'><img src='img/responseButtonOffersNo0L2.png' class='respPic'></div></div>","null","9","David","6","Kept","0.35,0.8","12","0.35","trustrating_stim/white_00129_931230_fb_edt.bmp","3.5","124","27"
