"event","trial","time","trialtype","subject_id","task","startTime","totalTime","labels","trial_type","trial_index","time_elapsed","internal_node_id","numBlurs","view_history","rt","success","stimulus","key_press","aground","name","faceID","outcome","agenttype","agentswpt","agentcurrpshare","face","avgRating","point_total","round"
"focus","0","0","focusevent","636212999d9d4a04989c95e9","bdp_trlrn","Mon Mar 13 2023 12:22:27 GMT-0500 (Central Daylight Time)","1075031","Trustworthy,Untrustworthy","","","","","","","","","","","","","","","","","","","","",""
"","","","","636212999d9d4a04989c95e9","bdp_trlrn","Mon Mar 13 2023 12:22:27 GMT-0500 (Central Daylight Time)","1075031","Trustworthy,Untrustworthy","pavlovia","0","17","0.0-0.0","","","","","","","","","","","","","","","","",""
"blur","1","25880","blurevent","636212999d9d4a04989c95e9","bdp_trlrn","Mon Mar 13 2023 12:22:27 GMT-0500 (Central Daylight Time)","1075031","Trustworthy,Untrustworthy","","","","","1","","","","","","","","","","","","","","","",""
"focus","1","26059","focusevent","636212999d9d4a04989c95e9","bdp_trlrn","Mon Mar 13 2023 12:22:27 GMT-0500 (Central Daylight Time)","1075031","Trustworthy,Untrustworthy","","","","","","","","","","","","","","","","","","","","",""
"blur","1","28509","blurevent","636212999d9d4a04989c95e9","bdp_trlrn","Mon Mar 13 2023 12:22:27 GMT-0500 (Central Daylight Time)","1075031","Trustworthy,Untrustworthy","","","","","","","","","","","","","","","","","","","","",""
"focus","1","57740","focusevent","636212999d9d4a04989c95e9","bdp_trlrn","Mon Mar 13 2023 12:22:27 GMT-0500 (Central Daylight Time)","1075031","Trustworthy,Untrustworthy","","","","","","","","","","","","","","","","","","","","",""
"blur","1","57814","blurevent","636212999d9d4a04989c95e9","bdp_trlrn","Mon Mar 13 2023 12:22:27 GMT-0500 (Central Daylight Time)","1075031","Trustworthy,Untrustworthy","","","","","","","","","","","","","","","","","","","","",""
"focus","1","63378","focusevent","636212999d9d4a04989c95e9","bdp_trlrn","Mon Mar 13 2023 12:22:27 GMT-0500 (Central Daylight Time)","1075031","Trustworthy,Untrustworthy","","","","","","","","","","","","","","","","","","","","",""
"","","","","636212999d9d4a04989c95e9","bdp_trlrn","Mon Mar 13 2023 12:22:27 GMT-0500 (Central Daylight Time)","1075031","Trustworthy,Untrustworthy","instructions","1","68736","0.0-1.0","","[{""page_index"":0,""viewing_time"":68716}]","68717","","","","","","","","","","","","","",""
"blur","2","80799","blurevent","636212999d9d4a04989c95e9","bdp_trlrn","Mon Mar 13 2023 12:22:27 GMT-0500 (Central Daylight Time)","1075031","Trustworthy,Untrustworthy","","","","","2","","","","","","","","","","","","","","","",""
"focus","2","80937","focusevent","636212999d9d4a04989c95e9","bdp_trlrn","Mon Mar 13 2023 12:22:27 GMT-0500 (Central Daylight Time)","1075031","Trustworthy,Untrustworthy","","","","","","","","","","","","","","","","","","","","",""
"","","","","636212999d9d4a04989c95e9","bdp_trlrn","Mon Mar 13 2023 12:22:27 GMT-0500 (Central Daylight Time)","1075031","Trustworthy,Untrustworthy","fullscreen","2","83414","0.0-2.0","","","","true","","","","","","","","","","","","",""
"fullscreenexit","3","83947","fullscreenexit","636212999d9d4a04989c95e9","bdp_trlrn","Mon Mar 13 2023 12:22:27 GMT-0500 (Central Daylight Time)","1075031","Trustworthy,Untrustworthy","","","","","","","","","","","","","","","","","","","","",""
"blur","3","88172","blurevent","636212999d9d4a04989c95e9","bdp_trlrn","Mon Mar 13 2023 12:22:27 GMT-0500 (Central Daylight Time)","1075031","Trustworthy,Untrustworthy","","","","","3","","","","","","","","","","","","","","","",""
"focus","3","123951","focusevent","636212999d9d4a04989c95e9","bdp_trlrn","Mon Mar 13 2023 12:22:27 GMT-0500 (Central Daylight Time)","1075031","Trustworthy,Untrustworthy","","","","","","","","","","","","","","","","","","","","",""
"fullscreenexit","3","148844","fullscreenexit","636212999d9d4a04989c95e9","bdp_trlrn","Mon Mar 13 2023 12:22:27 GMT-0500 (Central Daylight Time)","1075031","Trustworthy,Untrustworthy","","","","","","","","","","","","","","","","","","","","",""
"blur","3","151327","blurevent","636212999d9d4a04989c95e9","bdp_trlrn","Mon Mar 13 2023 12:22:27 GMT-0500 (Central Daylight Time)","1075031","Trustworthy,Untrustworthy","","","","","","","","","","","","","","","","","","","","",""
"focus","3","151467","focusevent","636212999d9d4a04989c95e9","bdp_trlrn","Mon Mar 13 2023 12:22:27 GMT-0500 (Central Daylight Time)","1075031","Trustworthy,Untrustworthy","","","","","","","","","","","","","","","","","","","","",""
"","","","fullscreenfail","636212999d9d4a04989c95e9","bdp_trlrn","Mon Mar 13 2023 12:22:27 GMT-0500 (Central Daylight Time)","1075031","Trustworthy,Untrustworthy","image-keyboard-response","3","153020","0.0-3.0-0.0","","","69598","","","32","","","","","","","","","","",""
"blur","4","155114","blurevent","636212999d9d4a04989c95e9","bdp_trlrn","Mon Mar 13 2023 12:22:27 GMT-0500 (Central Daylight Time)","1075031","Trustworthy,Untrustworthy","","","","","4","","","","","","","","","","","","","","","",""
"focus","4","210316","focusevent","636212999d9d4a04989c95e9","bdp_trlrn","Mon Mar 13 2023 12:22:27 GMT-0500 (Central Daylight Time)","1075031","Trustworthy,Untrustworthy","","","","","","","","","","","","","","","","","","","","",""
"blur","4","212275","blurevent","636212999d9d4a04989c95e9","bdp_trlrn","Mon Mar 13 2023 12:22:27 GMT-0500 (Central Daylight Time)","1075031","Trustworthy,Untrustworthy","","","","","","","","","","","","","","","","","","","","",""
"focus","4","212444","focusevent","636212999d9d4a04989c95e9","bdp_trlrn","Mon Mar 13 2023 12:22:27 GMT-0500 (Central Daylight Time)","1075031","Trustworthy,Untrustworthy","","","","","","","","","","","","","","","","","","","","",""
"blur","4","219280","blurevent","636212999d9d4a04989c95e9","bdp_trlrn","Mon Mar 13 2023 12:22:27 GMT-0500 (Central Daylight Time)","1075031","Trustworthy,Untrustworthy","","","","","","","","","","","","","","","","","","","","",""
"focus","4","245978","focusevent","636212999d9d4a04989c95e9","bdp_trlrn","Mon Mar 13 2023 12:22:27 GMT-0500 (Central Daylight Time)","1075031","Trustworthy,Untrustworthy","","","","","","","","","","","","","","","","","","","","",""
"blur","4","250226","blurevent","636212999d9d4a04989c95e9","bdp_trlrn","Mon Mar 13 2023 12:22:27 GMT-0500 (Central Daylight Time)","1075031","Trustworthy,Untrustworthy","","","","","","","","","","","","","","","","","","","","",""
"focus","4","250375","focusevent","636212999d9d4a04989c95e9","bdp_trlrn","Mon Mar 13 2023 12:22:27 GMT-0500 (Central Daylight Time)","1075031","Trustworthy,Untrustworthy","","","","","","","","","","","","","","","","","","","","",""
"","","","","636212999d9d4a04989c95e9","bdp_trlrn","Mon Mar 13 2023 12:22:27 GMT-0500 (Central Daylight Time)","1075031","Trustworthy,Untrustworthy","instructions","4","256038","0.0-4.0","","[{""page_index"":0,""viewing_time"":60181},{""page_index"":1,""viewing_time"":42573}]","102755","","","","","","","","","","","","","",""
"","","","","636212999d9d4a04989c95e9","bdp_trlrn","Mon Mar 13 2023 12:22:27 GMT-0500 (Central Daylight Time)","1075031","Trustworthy,Untrustworthy","instructions","5","258715","0.0-5.0","","[{""page_index"":0,""viewing_time"":2676}]","2676","","","","","","","","","","","","","",""
"","","","rating","636212999d9d4a04989c95e9","bdp_trlrn","Mon Mar 13 2023 12:22:27 GMT-0500 (Central Daylight Time)","1075031","Trustworthy,Untrustworthy","image-keyboard-response","6","260960","0.0-6.0-1.0","","","2137","","trustrating_stim/white_mw063.bmp","9","","","","","","","","","","",""
"","","","ratingFB","636212999d9d4a04989c95e9","bdp_trlrn","Mon Mar 13 2023 12:22:27 GMT-0500 (Central Daylight Time)","1075031","Trustworthy,Untrustworthy","image-keyboard-response","7","261174","0.0-6.0-2.0","","","null","","trustrating_stim/white_mw063.bmp","null","","","","","","","","","","",""
"","","","rating","636212999d9d4a04989c95e9","bdp_trlrn","Mon Mar 13 2023 12:22:27 GMT-0500 (Central Daylight Time)","1075031","Trustworthy,Untrustworthy","image-keyboard-response","8","263606","0.0-6.0-1.1","","","2314","","trustrating_stim/white_mw033.bmp","6","","","","","","","","","","",""
"","","","ratingFB","636212999d9d4a04989c95e9","bdp_trlrn","Mon Mar 13 2023 12:22:27 GMT-0500 (Central Daylight Time)","1075031","Trustworthy,Untrustworthy","image-keyboard-response","9","263812","0.0-6.0-2.1","","","null","","trustrating_stim/white_mw033.bmp","null","","","","","","","","","","",""
"","","","rating","636212999d9d4a04989c95e9","bdp_trlrn","Mon Mar 13 2023 12:22:27 GMT-0500 (Central Daylight Time)","1075031","Trustworthy,Untrustworthy","image-keyboard-response","10","265397","0.0-6.0-1.2","","","1469","","trustrating_stim/white_mw056.bmp","8","","","","","","","","","","",""
"","","","ratingFB","636212999d9d4a04989c95e9","bdp_trlrn","Mon Mar 13 2023 12:22:27 GMT-0500 (Central Daylight Time)","1075031","Trustworthy,Untrustworthy","image-keyboard-response","11","265608","0.0-6.0-2.2","","","null","","trustrating_stim/white_mw056.bmp","null","","","","","","","","","","",""
"","","","rating","636212999d9d4a04989c95e9","bdp_trlrn","Mon Mar 13 2023 12:22:27 GMT-0500 (Central Daylight Time)","1075031","Trustworthy,Untrustworthy","image-keyboard-response","12","266902","0.0-6.0-1.3","","","1176","","trustrating_stim/white_00757_941201_fa_edt.bmp","4","","","","","","","","","","",""
"","","","ratingFB","636212999d9d4a04989c95e9","bdp_trlrn","Mon Mar 13 2023 12:22:27 GMT-0500 (Central Daylight Time)","1075031","Trustworthy,Untrustworthy","image-keyboard-response","13","267109","0.0-6.0-2.3","","","null","","trustrating_stim/white_00757_941201_fa_edt.bmp","null","","","","","","","","","","",""
"","","","rating","636212999d9d4a04989c95e9","bdp_trlrn","Mon Mar 13 2023 12:22:27 GMT-0500 (Central Daylight Time)","1075031","Trustworthy,Untrustworthy","image-keyboard-response","14","268200","0.0-6.0-1.4","","","986","","trustrating_stim/white_mw046.bmp","3","","","","","","","","","","",""
"","","","ratingFB","636212999d9d4a04989c95e9","bdp_trlrn","Mon Mar 13 2023 12:22:27 GMT-0500 (Central Daylight Time)","1075031","Trustworthy,Untrustworthy","image-keyboard-response","15","268404","0.0-6.0-2.4","","","null","","trustrating_stim/white_mw046.bmp","null","","","","","","","","","","",""
"","","","rating","636212999d9d4a04989c95e9","bdp_trlrn","Mon Mar 13 2023 12:22:27 GMT-0500 (Central Daylight Time)","1075031","Trustworthy,Untrustworthy","image-keyboard-response","16","269688","0.0-6.0-1.5","","","1176","","trustrating_stim/white_00299_940422_fa_edt.bmp","5","","","","","","","","","","",""
"","","","ratingFB","636212999d9d4a04989c95e9","bdp_trlrn","Mon Mar 13 2023 12:22:27 GMT-0500 (Central Daylight Time)","1075031","Trustworthy,Untrustworthy","image-keyboard-response","17","269902","0.0-6.0-2.5","","","null","","trustrating_stim/white_00299_940422_fa_edt.bmp","null","","","","","","","","","","",""
"","","","rating","636212999d9d4a04989c95e9","bdp_trlrn","Mon Mar 13 2023 12:22:27 GMT-0500 (Central Daylight Time)","1075031","Trustworthy,Untrustworthy","image-keyboard-response","18","272469","0.0-6.0-1.6","","","2451","","trustrating_stim/white_00898_960530_fa_edt.bmp","7","","","","","","","","","","",""
"","","","ratingFB","636212999d9d4a04989c95e9","bdp_trlrn","Mon Mar 13 2023 12:22:27 GMT-0500 (Central Daylight Time)","1075031","Trustworthy,Untrustworthy","image-keyboard-response","19","272688","0.0-6.0-2.6","","","null","","trustrating_stim/white_00898_960530_fa_edt.bmp","null","","","","","","","","","","",""
"","","","rating","636212999d9d4a04989c95e9","bdp_trlrn","Mon Mar 13 2023 12:22:27 GMT-0500 (Central Daylight Time)","1075031","Trustworthy,Untrustworthy","image-keyboard-response","20","273346","0.0-6.0-1.7","","","546","","trustrating_stim/white_00519_940519_fb_edt.bmp","8","","","","","","","","","","",""
"","","","ratingFB","636212999d9d4a04989c95e9","bdp_trlrn","Mon Mar 13 2023 12:22:27 GMT-0500 (Central Daylight Time)","1075031","Trustworthy,Untrustworthy","image-keyboard-response","21","273551","0.0-6.0-2.7","","","null","","trustrating_stim/white_00519_940519_fb_edt.bmp","null","","","","","","","","","","",""
"","","","rating","636212999d9d4a04989c95e9","bdp_trlrn","Mon Mar 13 2023 12:22:27 GMT-0500 (Central Daylight Time)","1075031","Trustworthy,Untrustworthy","image-keyboard-response","22","274194","0.0-6.0-1.8","","","532","","trustrating_stim/white_mw089.bmp","6","","","","","","","","","","",""
"","","","ratingFB","636212999d9d4a04989c95e9","bdp_trlrn","Mon Mar 13 2023 12:22:27 GMT-0500 (Central Daylight Time)","1075031","Trustworthy,Untrustworthy","image-keyboard-response","23","274406","0.0-6.0-2.8","","","null","","trustrating_stim/white_mw089.bmp","null","","","","","","","","","","",""
"","","","rating","636212999d9d4a04989c95e9","bdp_trlrn","Mon Mar 13 2023 12:22:27 GMT-0500 (Central Daylight Time)","1075031","Trustworthy,Untrustworthy","image-keyboard-response","24","274932","0.0-6.0-1.9","","","424","","trustrating_stim/white_00129_931230_fb_edt.bmp","8","","","","","","","","","","",""
"","","","ratingFB","636212999d9d4a04989c95e9","bdp_trlrn","Mon Mar 13 2023 12:22:27 GMT-0500 (Central Daylight Time)","1075031","Trustworthy,Untrustworthy","image-keyboard-response","25","275140","0.0-6.0-2.9","","","null","","trustrating_stim/white_00129_931230_fb_edt.bmp","null","","","","","","","","","","",""
"","","","rating","636212999d9d4a04989c95e9","bdp_trlrn","Mon Mar 13 2023 12:22:27 GMT-0500 (Central Daylight Time)","1075031","Trustworthy,Untrustworthy","image-keyboard-response","26","276048","0.0-6.0-1.10","","","789","","trustrating_stim/white_mw097.bmp","5","","","","","","","","","","",""
"","","","ratingFB","636212999d9d4a04989c95e9","bdp_trlrn","Mon Mar 13 2023 12:22:27 GMT-0500 (Central Daylight Time)","1075031","Trustworthy,Untrustworthy","image-keyboard-response","27","276259","0.0-6.0-2.10","","","null","","trustrating_stim/white_mw097.bmp","null","","","","","","","","","","",""
"","","","rating","636212999d9d4a04989c95e9","bdp_trlrn","Mon Mar 13 2023 12:22:27 GMT-0500 (Central Daylight Time)","1075031","Trustworthy,Untrustworthy","image-keyboard-response","28","276986","0.0-6.0-1.11","","","610","","trustrating_stim/white_mw071.bmp","4","","","","","","","","","","",""
"","","","ratingFB","636212999d9d4a04989c95e9","bdp_trlrn","Mon Mar 13 2023 12:22:27 GMT-0500 (Central Daylight Time)","1075031","Trustworthy,Untrustworthy","image-keyboard-response","29","277201","0.0-6.0-2.11","","","null","","trustrating_stim/white_mw071.bmp","null","","","","","","","","","","",""
"","","","rating","636212999d9d4a04989c95e9","bdp_trlrn","Mon Mar 13 2023 12:22:27 GMT-0500 (Central Daylight Time)","1075031","Trustworthy,Untrustworthy","image-keyboard-response","30","277867","0.0-6.0-1.12","","","548","","trustrating_stim/white_00340_940422_fa_edt.bmp","8","","","","","","","","","","",""
"","","","ratingFB","636212999d9d4a04989c95e9","bdp_trlrn","Mon Mar 13 2023 12:22:27 GMT-0500 (Central Daylight Time)","1075031","Trustworthy,Untrustworthy","image-keyboard-response","31","278082","0.0-6.0-2.12","","","null","","trustrating_stim/white_00340_940422_fa_edt.bmp","null","","","","","","","","","","",""
"","","","rating","636212999d9d4a04989c95e9","bdp_trlrn","Mon Mar 13 2023 12:22:27 GMT-0500 (Central Daylight Time)","1075031","Trustworthy,Untrustworthy","image-keyboard-response","32","280187","0.0-6.0-1.13","","","1981","","trustrating_stim/white_mw053.bmp","9","","","","","","","","","","",""
"","","","ratingFB","636212999d9d4a04989c95e9","bdp_trlrn","Mon Mar 13 2023 12:22:27 GMT-0500 (Central Daylight Time)","1075031","Trustworthy,Untrustworthy","image-keyboard-response","33","280392","0.0-6.0-2.13","","","null","","trustrating_stim/white_mw053.bmp","null","","","","","","","","","","",""
"","","","rating","636212999d9d4a04989c95e9","bdp_trlrn","Mon Mar 13 2023 12:22:27 GMT-0500 (Central Daylight Time)","1075031","Trustworthy,Untrustworthy","image-keyboard-response","34","286088","0.0-6.0-1.14","","","5574","","trustrating_stim/white_mw048.bmp","5","","","","","","","","","","",""
"","","","ratingFB","636212999d9d4a04989c95e9","bdp_trlrn","Mon Mar 13 2023 12:22:27 GMT-0500 (Central Daylight Time)","1075031","Trustworthy,Untrustworthy","image-keyboard-response","35","286297","0.0-6.0-2.14","","","null","","trustrating_stim/white_mw048.bmp","null","","","","","","","","","","",""
"","","","rating","636212999d9d4a04989c95e9","bdp_trlrn","Mon Mar 13 2023 12:22:27 GMT-0500 (Central Daylight Time)","1075031","Trustworthy,Untrustworthy","image-keyboard-response","36","287648","0.0-6.0-1.15","","","1234","","trustrating_stim/white_mw084.bmp","6","","","","","","","","","","",""
"","","","ratingFB","636212999d9d4a04989c95e9","bdp_trlrn","Mon Mar 13 2023 12:22:27 GMT-0500 (Central Daylight Time)","1075031","Trustworthy,Untrustworthy","image-keyboard-response","37","287856","0.0-6.0-2.15","","","null","","trustrating_stim/white_mw084.bmp","null","","","","","","","","","","",""
"","","","rating","636212999d9d4a04989c95e9","bdp_trlrn","Mon Mar 13 2023 12:22:27 GMT-0500 (Central Daylight Time)","1075031","Trustworthy,Untrustworthy","image-keyboard-response","38","293281","0.0-6.0-1.16","","","5309","","trustrating_stim/white_00602_940928_fb_edt.bmp","7","","","","","","","","","","",""
"","","","ratingFB","636212999d9d4a04989c95e9","bdp_trlrn","Mon Mar 13 2023 12:22:27 GMT-0500 (Central Daylight Time)","1075031","Trustworthy,Untrustworthy","image-keyboard-response","39","293493","0.0-6.0-2.16","","","null","","trustrating_stim/white_00602_940928_fb_edt.bmp","null","","","","","","","","","","",""
"","","","rating","636212999d9d4a04989c95e9","bdp_trlrn","Mon Mar 13 2023 12:22:27 GMT-0500 (Central Daylight Time)","1075031","Trustworthy,Untrustworthy","image-keyboard-response","40","295945","0.0-6.0-1.17","","","2336","","trustrating_stim/white_mw049.bmp","7","","","","","","","","","","",""
"","","","ratingFB","636212999d9d4a04989c95e9","bdp_trlrn","Mon Mar 13 2023 12:22:27 GMT-0500 (Central Daylight Time)","1075031","Trustworthy,Untrustworthy","image-keyboard-response","41","296148","0.0-6.0-2.17","","","null","","trustrating_stim/white_mw049.bmp","null","","","","","","","","","","",""
"","","","rating","636212999d9d4a04989c95e9","bdp_trlrn","Mon Mar 13 2023 12:22:27 GMT-0500 (Central Daylight Time)","1075031","Trustworthy,Untrustworthy","image-keyboard-response","42","297850","0.0-6.0-1.18","","","1579","","trustrating_stim/white_00761_941201_fb_edt.bmp","5","","","","","","","","","","",""
"","","","ratingFB","636212999d9d4a04989c95e9","bdp_trlrn","Mon Mar 13 2023 12:22:27 GMT-0500 (Central Daylight Time)","1075031","Trustworthy,Untrustworthy","image-keyboard-response","43","298071","0.0-6.0-2.18","","","null","","trustrating_stim/white_00761_941201_fb_edt.bmp","null","","","","","","","","","","",""
"","","","rating","636212999d9d4a04989c95e9","bdp_trlrn","Mon Mar 13 2023 12:22:27 GMT-0500 (Central Daylight Time)","1075031","Trustworthy,Untrustworthy","image-keyboard-response","44","299281","0.0-6.0-1.19","","","1094","","trustrating_stim/white_00785_941205_fb_edt.bmp","3","","","","","","","","","","",""
"","","","ratingFB","636212999d9d4a04989c95e9","bdp_trlrn","Mon Mar 13 2023 12:22:27 GMT-0500 (Central Daylight Time)","1075031","Trustworthy,Untrustworthy","image-keyboard-response","45","299492","0.0-6.0-2.19","","","null","","trustrating_stim/white_00785_941205_fb_edt.bmp","null","","","","","","","","","","",""
"","","","rating","636212999d9d4a04989c95e9","bdp_trlrn","Mon Mar 13 2023 12:22:27 GMT-0500 (Central Daylight Time)","1075031","Trustworthy,Untrustworthy","image-keyboard-response","46","301305","0.0-6.0-1.20","","","1697","","trustrating_stim/white_00223_940128_fb_edt.bmp","8","","","","","","","","","","",""
"","","","ratingFB","636212999d9d4a04989c95e9","bdp_trlrn","Mon Mar 13 2023 12:22:27 GMT-0500 (Central Daylight Time)","1075031","Trustworthy,Untrustworthy","image-keyboard-response","47","301514","0.0-6.0-2.20","","","null","","trustrating_stim/white_00223_940128_fb_edt.bmp","null","","","","","","","","","","",""
"","","","rating","636212999d9d4a04989c95e9","bdp_trlrn","Mon Mar 13 2023 12:22:27 GMT-0500 (Central Daylight Time)","1075031","Trustworthy,Untrustworthy","image-keyboard-response","48","302078","0.0-6.0-1.21","","","447","","trustrating_stim/white_mw060.bmp","8","","","","","","","","","","",""
"","","","ratingFB","636212999d9d4a04989c95e9","bdp_trlrn","Mon Mar 13 2023 12:22:27 GMT-0500 (Central Daylight Time)","1075031","Trustworthy,Untrustworthy","image-keyboard-response","49","302285","0.0-6.0-2.21","","","null","","trustrating_stim/white_mw060.bmp","null","","","","","","","","","","",""
"","","","rating","636212999d9d4a04989c95e9","bdp_trlrn","Mon Mar 13 2023 12:22:27 GMT-0500 (Central Daylight Time)","1075031","Trustworthy,Untrustworthy","image-keyboard-response","50","302956","0.0-6.0-1.22","","","552","","trustrating_stim/white_mw035.bmp","9","","","","","","","","","","",""
"","","","ratingFB","636212999d9d4a04989c95e9","bdp_trlrn","Mon Mar 13 2023 12:22:27 GMT-0500 (Central Daylight Time)","1075031","Trustworthy,Untrustworthy","image-keyboard-response","51","303166","0.0-6.0-2.22","","","null","","trustrating_stim/white_mw035.bmp","null","","","","","","","","","","",""
"","","","rating","636212999d9d4a04989c95e9","bdp_trlrn","Mon Mar 13 2023 12:22:27 GMT-0500 (Central Daylight Time)","1075031","Trustworthy,Untrustworthy","image-keyboard-response","52","304045","0.0-6.0-1.23","","","756","","trustrating_stim/white_00659_941121_fa_edt.bmp","8","","","","","","","","","","",""
"","","","ratingFB","636212999d9d4a04989c95e9","bdp_trlrn","Mon Mar 13 2023 12:22:27 GMT-0500 (Central Daylight Time)","1075031","Trustworthy,Untrustworthy","image-keyboard-response","53","304255","0.0-6.0-2.23","","","null","","trustrating_stim/white_00659_941121_fa_edt.bmp","null","","","","","","","","","","",""
"","","","rating","636212999d9d4a04989c95e9","bdp_trlrn","Mon Mar 13 2023 12:22:27 GMT-0500 (Central Daylight Time)","1075031","Trustworthy,Untrustworthy","image-keyboard-response","54","305064","0.0-6.0-1.24","","","691","","trustrating_stim/white_00577_940928_fa_edt.bmp","5","","","","","","","","","","",""
"","","","ratingFB","636212999d9d4a04989c95e9","bdp_trlrn","Mon Mar 13 2023 12:22:27 GMT-0500 (Central Daylight Time)","1075031","Trustworthy,Untrustworthy","image-keyboard-response","55","305274","0.0-6.0-2.24","","","null","","trustrating_stim/white_00577_940928_fa_edt.bmp","null","","","","","","","","","","",""
"","","","rating","636212999d9d4a04989c95e9","bdp_trlrn","Mon Mar 13 2023 12:22:27 GMT-0500 (Central Daylight Time)","1075031","Trustworthy,Untrustworthy","image-keyboard-response","56","305770","0.0-6.0-1.25","","","374","","trustrating_stim/white_mw099.bmp","8","","","","","","","","","","",""
"","","","ratingFB","636212999d9d4a04989c95e9","bdp_trlrn","Mon Mar 13 2023 12:22:27 GMT-0500 (Central Daylight Time)","1075031","Trustworthy,Untrustworthy","image-keyboard-response","57","305976","0.0-6.0-2.25","","","null","","trustrating_stim/white_mw099.bmp","null","","","","","","","","","","",""
"","","","rating","636212999d9d4a04989c95e9","bdp_trlrn","Mon Mar 13 2023 12:22:27 GMT-0500 (Central Daylight Time)","1075031","Trustworthy,Untrustworthy","image-keyboard-response","58","306137","0.0-6.0-1.26","","","39","","trustrating_stim/white_mw066.bmp","5","","","","","","","","","","",""
"","","","ratingFB","636212999d9d4a04989c95e9","bdp_trlrn","Mon Mar 13 2023 12:22:27 GMT-0500 (Central Daylight Time)","1075031","Trustworthy,Untrustworthy","image-keyboard-response","59","306346","0.0-6.0-2.26","","","null","","trustrating_stim/white_mw066.bmp","null","","","","","","","","","","",""
"","","","rating","636212999d9d4a04989c95e9","bdp_trlrn","Mon Mar 13 2023 12:22:27 GMT-0500 (Central Daylight Time)","1075031","Trustworthy,Untrustworthy","image-keyboard-response","60","307037","0.0-6.0-1.27","","","575","","trustrating_stim/white_00120_931230_fa_edt.bmp","9","","","","","","","","","","",""
"","","","ratingFB","636212999d9d4a04989c95e9","bdp_trlrn","Mon Mar 13 2023 12:22:27 GMT-0500 (Central Daylight Time)","1075031","Trustworthy,Untrustworthy","image-keyboard-response","61","307249","0.0-6.0-2.27","","","null","","trustrating_stim/white_00120_931230_fa_edt.bmp","null","","","","","","","","","","",""
"","","","rating","636212999d9d4a04989c95e9","bdp_trlrn","Mon Mar 13 2023 12:22:27 GMT-0500 (Central Daylight Time)","1075031","Trustworthy,Untrustworthy","image-keyboard-response","62","307869","0.0-6.0-1.28","","","504","","trustrating_stim/white_00109_931230_fa_edt.bmp","9","","","","","","","","","","",""
"","","","ratingFB","636212999d9d4a04989c95e9","bdp_trlrn","Mon Mar 13 2023 12:22:27 GMT-0500 (Central Daylight Time)","1075031","Trustworthy,Untrustworthy","image-keyboard-response","63","308082","0.0-6.0-2.28","","","null","","trustrating_stim/white_00109_931230_fa_edt.bmp","null","","","","","","","","","","",""
"","","","rating","636212999d9d4a04989c95e9","bdp_trlrn","Mon Mar 13 2023 12:22:27 GMT-0500 (Central Daylight Time)","1075031","Trustworthy,Untrustworthy","image-keyboard-response","64","309276","0.0-6.0-1.29","","","1071","","trustrating_stim/white_00807_941205_fb_edt.bmp","8","","","","","","","","","","",""
"","","","ratingFB","636212999d9d4a04989c95e9","bdp_trlrn","Mon Mar 13 2023 12:22:27 GMT-0500 (Central Daylight Time)","1075031","Trustworthy,Untrustworthy","image-keyboard-response","65","309487","0.0-6.0-2.29","","","null","","trustrating_stim/white_00807_941205_fb_edt.bmp","null","","","","","","","","","","",""
"","","","rating","636212999d9d4a04989c95e9","bdp_trlrn","Mon Mar 13 2023 12:22:27 GMT-0500 (Central Daylight Time)","1075031","Trustworthy,Untrustworthy","image-keyboard-response","66","310194","0.0-6.0-1.30","","","583","","trustrating_stim/white_mw056.bmp","9","","","","","","","","","","",""
"","","","ratingFB","636212999d9d4a04989c95e9","bdp_trlrn","Mon Mar 13 2023 12:22:27 GMT-0500 (Central Daylight Time)","1075031","Trustworthy,Untrustworthy","image-keyboard-response","67","310411","0.0-6.0-2.30","","","null","","trustrating_stim/white_mw056.bmp","null","","","","","","","","","","",""
"","","","rating","636212999d9d4a04989c95e9","bdp_trlrn","Mon Mar 13 2023 12:22:27 GMT-0500 (Central Daylight Time)","1075031","Trustworthy,Untrustworthy","image-keyboard-response","68","310958","0.0-6.0-1.31","","","431","","trustrating_stim/white_00519_940519_fb_edt.bmp","8","","","","","","","","","","",""
"","","","ratingFB","636212999d9d4a04989c95e9","bdp_trlrn","Mon Mar 13 2023 12:22:27 GMT-0500 (Central Daylight Time)","1075031","Trustworthy,Untrustworthy","image-keyboard-response","69","311161","0.0-6.0-2.31","","","null","","trustrating_stim/white_00519_940519_fb_edt.bmp","null","","","","","","","","","","",""
"","","","rating","636212999d9d4a04989c95e9","bdp_trlrn","Mon Mar 13 2023 12:22:27 GMT-0500 (Central Daylight Time)","1075031","Trustworthy,Untrustworthy","image-keyboard-response","70","312067","0.0-6.0-1.32","","","790","","trustrating_stim/white_00761_941201_fb_edt.bmp","5","","","","","","","","","","",""
"","","","ratingFB","636212999d9d4a04989c95e9","bdp_trlrn","Mon Mar 13 2023 12:22:27 GMT-0500 (Central Daylight Time)","1075031","Trustworthy,Untrustworthy","image-keyboard-response","71","312279","0.0-6.0-2.32","","","null","","trustrating_stim/white_00761_941201_fb_edt.bmp","null","","","","","","","","","","",""
"","","","rating","636212999d9d4a04989c95e9","bdp_trlrn","Mon Mar 13 2023 12:22:27 GMT-0500 (Central Daylight Time)","1075031","Trustworthy,Untrustworthy","image-keyboard-response","72","312915","0.0-6.0-1.33","","","519","","trustrating_stim/white_mw099.bmp","5","","","","","","","","","","",""
"","","","ratingFB","636212999d9d4a04989c95e9","bdp_trlrn","Mon Mar 13 2023 12:22:27 GMT-0500 (Central Daylight Time)","1075031","Trustworthy,Untrustworthy","image-keyboard-response","73","313120","0.0-6.0-2.33","","","null","","trustrating_stim/white_mw099.bmp","null","","","","","","","","","","",""
"","","","rating","636212999d9d4a04989c95e9","bdp_trlrn","Mon Mar 13 2023 12:22:27 GMT-0500 (Central Daylight Time)","1075031","Trustworthy,Untrustworthy","image-keyboard-response","74","314269","0.0-6.0-1.34","","","1031","","trustrating_stim/white_mw060.bmp","9","","","","","","","","","","",""
"","","","ratingFB","636212999d9d4a04989c95e9","bdp_trlrn","Mon Mar 13 2023 12:22:27 GMT-0500 (Central Daylight Time)","1075031","Trustworthy,Untrustworthy","image-keyboard-response","75","314472","0.0-6.0-2.34","","","null","","trustrating_stim/white_mw060.bmp","null","","","","","","","","","","",""
"","","","rating","636212999d9d4a04989c95e9","bdp_trlrn","Mon Mar 13 2023 12:22:27 GMT-0500 (Central Daylight Time)","1075031","Trustworthy,Untrustworthy","image-keyboard-response","76","315547","0.0-6.0-1.35","","","957","","trustrating_stim/white_00120_931230_fa_edt.bmp","9","","","","","","","","","","",""
"","","","ratingFB","636212999d9d4a04989c95e9","bdp_trlrn","Mon Mar 13 2023 12:22:27 GMT-0500 (Central Daylight Time)","1075031","Trustworthy,Untrustworthy","image-keyboard-response","77","315761","0.0-6.0-2.35","","","null","","trustrating_stim/white_00120_931230_fa_edt.bmp","null","","","","","","","","","","",""
"blur","78","320048","blurevent","636212999d9d4a04989c95e9","bdp_trlrn","Mon Mar 13 2023 12:22:27 GMT-0500 (Central Daylight Time)","1075031","Trustworthy,Untrustworthy","","","","","1","","","","","","","","","","","","","","","",""
"focus","78","338568","focusevent","636212999d9d4a04989c95e9","bdp_trlrn","Mon Mar 13 2023 12:22:27 GMT-0500 (Central Daylight Time)","1075031","Trustworthy,Untrustworthy","","","","","","","","","","","","","","","","","","","","",""
"blur","78","320048","rating","636212999d9d4a04989c95e9","bdp_trlrn","Mon Mar 13 2023 12:22:27 GMT-0500 (Central Daylight Time)","1075031","Trustworthy,Untrustworthy","image-keyboard-response","78","340828","0.0-6.0-1.36","1","","24951","","trustrating_stim/white_mw053.bmp","9","","","","","","","","","","",""
"","","","ratingFB","636212999d9d4a04989c95e9","bdp_trlrn","Mon Mar 13 2023 12:22:27 GMT-0500 (Central Daylight Time)","1075031","Trustworthy,Untrustworthy","image-keyboard-response","79","341033","0.0-6.0-2.36","","","null","","trustrating_stim/white_mw053.bmp","null","","","","","","","","","","",""
"","","","blurwarn","636212999d9d4a04989c95e9","bdp_trlrn","Mon Mar 13 2023 12:22:27 GMT-0500 (Central Daylight Time)","1075031","Trustworthy,Untrustworthy","image-keyboard-response","80","354352","0.0-6.0-0.37-0.37","1","","13201","","","49","","","","","","","","","","",""
"","","","rating","636212999d9d4a04989c95e9","bdp_trlrn","Mon Mar 13 2023 12:22:27 GMT-0500 (Central Daylight Time)","1075031","Trustworthy,Untrustworthy","image-keyboard-response","81","357746","0.0-6.0-1.37","","","3134","","trustrating_stim/white_mw071.bmp","3","","","","","","","","","","",""
"","","","ratingFB","636212999d9d4a04989c95e9","bdp_trlrn","Mon Mar 13 2023 12:22:27 GMT-0500 (Central Daylight Time)","1075031","Trustworthy,Untrustworthy","image-keyboard-response","82","357956","0.0-6.0-2.37","","","null","","trustrating_stim/white_mw071.bmp","null","","","","","","","","","","",""
"","","","rating","636212999d9d4a04989c95e9","bdp_trlrn","Mon Mar 13 2023 12:22:27 GMT-0500 (Central Daylight Time)","1075031","Trustworthy,Untrustworthy","image-keyboard-response","83","358527","0.0-6.0-1.38","","","454","","trustrating_stim/white_mw063.bmp","4","","","","","","","","","","",""
"","","","ratingFB","636212999d9d4a04989c95e9","bdp_trlrn","Mon Mar 13 2023 12:22:27 GMT-0500 (Central Daylight Time)","1075031","Trustworthy,Untrustworthy","image-keyboard-response","84","358733","0.0-6.0-2.38","","","null","","trustrating_stim/white_mw063.bmp","null","","","","","","","","","","",""
"","","","rating","636212999d9d4a04989c95e9","bdp_trlrn","Mon Mar 13 2023 12:22:27 GMT-0500 (Central Daylight Time)","1075031","Trustworthy,Untrustworthy","image-keyboard-response","85","359174","0.0-6.0-1.39","","","325","","trustrating_stim/white_mw084.bmp","4","","","","","","","","","","",""
"","","","ratingFB","636212999d9d4a04989c95e9","bdp_trlrn","Mon Mar 13 2023 12:22:27 GMT-0500 (Central Daylight Time)","1075031","Trustworthy,Untrustworthy","image-keyboard-response","86","359380","0.0-6.0-2.39","","","null","","trustrating_stim/white_mw084.bmp","null","","","","","","","","","","",""
"","","","rating","636212999d9d4a04989c95e9","bdp_trlrn","Mon Mar 13 2023 12:22:27 GMT-0500 (Central Daylight Time)","1075031","Trustworthy,Untrustworthy","image-keyboard-response","87","359898","0.0-6.0-1.40","","","399","","trustrating_stim/white_mw097.bmp","5","","","","","","","","","","",""
"","","","ratingFB","636212999d9d4a04989c95e9","bdp_trlrn","Mon Mar 13 2023 12:22:27 GMT-0500 (Central Daylight Time)","1075031","Trustworthy,Untrustworthy","image-keyboard-response","88","360114","0.0-6.0-2.40","","","null","","trustrating_stim/white_mw097.bmp","null","","","","","","","","","","",""
"","","","rating","636212999d9d4a04989c95e9","bdp_trlrn","Mon Mar 13 2023 12:22:27 GMT-0500 (Central Daylight Time)","1075031","Trustworthy,Untrustworthy","image-keyboard-response","89","361264","0.0-6.0-1.41","","","1027","","trustrating_stim/white_mw089.bmp","8","","","","","","","","","","",""
"","","","ratingFB","636212999d9d4a04989c95e9","bdp_trlrn","Mon Mar 13 2023 12:22:27 GMT-0500 (Central Daylight Time)","1075031","Trustworthy,Untrustworthy","image-keyboard-response","90","361471","0.0-6.0-2.41","","","null","","trustrating_stim/white_mw089.bmp","null","","","","","","","","","","",""
"","","","rating","636212999d9d4a04989c95e9","bdp_trlrn","Mon Mar 13 2023 12:22:27 GMT-0500 (Central Daylight Time)","1075031","Trustworthy,Untrustworthy","image-keyboard-response","91","362024","0.0-6.0-1.42","","","437","","trustrating_stim/white_00785_941205_fb_edt.bmp","8","","","","","","","","","","",""
"","","","ratingFB","636212999d9d4a04989c95e9","bdp_trlrn","Mon Mar 13 2023 12:22:27 GMT-0500 (Central Daylight Time)","1075031","Trustworthy,Untrustworthy","image-keyboard-response","92","362243","0.0-6.0-2.42","","","null","","trustrating_stim/white_00785_941205_fb_edt.bmp","null","","","","","","","","","","",""
"","","","rating","636212999d9d4a04989c95e9","bdp_trlrn","Mon Mar 13 2023 12:22:27 GMT-0500 (Central Daylight Time)","1075031","Trustworthy,Untrustworthy","image-keyboard-response","93","362568","0.0-6.0-1.43","","","208","","trustrating_stim/white_mw049.bmp","7","","","","","","","","","","",""
"","","","ratingFB","636212999d9d4a04989c95e9","bdp_trlrn","Mon Mar 13 2023 12:22:27 GMT-0500 (Central Daylight Time)","1075031","Trustworthy,Untrustworthy","image-keyboard-response","94","362776","0.0-6.0-2.43","","","null","","trustrating_stim/white_mw049.bmp","null","","","","","","","","","","",""
"","","","rating","636212999d9d4a04989c95e9","bdp_trlrn","Mon Mar 13 2023 12:22:27 GMT-0500 (Central Daylight Time)","1075031","Trustworthy,Untrustworthy","image-keyboard-response","95","362986","0.0-6.0-1.44","","","93","","trustrating_stim/white_00898_960530_fa_edt.bmp","8","","","","","","","","","","",""
"","","","ratingFB","636212999d9d4a04989c95e9","bdp_trlrn","Mon Mar 13 2023 12:22:27 GMT-0500 (Central Daylight Time)","1075031","Trustworthy,Untrustworthy","image-keyboard-response","96","363192","0.0-6.0-2.44","","","null","","trustrating_stim/white_00898_960530_fa_edt.bmp","null","","","","","","","","","","",""
"","","","rating","636212999d9d4a04989c95e9","bdp_trlrn","Mon Mar 13 2023 12:22:27 GMT-0500 (Central Daylight Time)","1075031","Trustworthy,Untrustworthy","image-keyboard-response","97","363711","0.0-6.0-1.45","","","402","","trustrating_stim/white_00299_940422_fa_edt.bmp","9","","","","","","","","","","",""
"","","","ratingFB","636212999d9d4a04989c95e9","bdp_trlrn","Mon Mar 13 2023 12:22:27 GMT-0500 (Central Daylight Time)","1075031","Trustworthy,Untrustworthy","image-keyboard-response","98","363926","0.0-6.0-2.45","","","null","","trustrating_stim/white_00299_940422_fa_edt.bmp","null","","","","","","","","","","",""
"","","","rating","636212999d9d4a04989c95e9","bdp_trlrn","Mon Mar 13 2023 12:22:27 GMT-0500 (Central Daylight Time)","1075031","Trustworthy,Untrustworthy","image-keyboard-response","99","364378","0.0-6.0-1.46","","","329","","trustrating_stim/white_mw035.bmp","6","","","","","","","","","","",""
"","","","ratingFB","636212999d9d4a04989c95e9","bdp_trlrn","Mon Mar 13 2023 12:22:27 GMT-0500 (Central Daylight Time)","1075031","Trustworthy,Untrustworthy","image-keyboard-response","100","364581","0.0-6.0-2.46","","","null","","trustrating_stim/white_mw035.bmp","null","","","","","","","","","","",""
"","","","rating","636212999d9d4a04989c95e9","bdp_trlrn","Mon Mar 13 2023 12:22:27 GMT-0500 (Central Daylight Time)","1075031","Trustworthy,Untrustworthy","image-keyboard-response","101","364725","0.0-6.0-1.47","","","26","","trustrating_stim/white_mw048.bmp","8","","","","","","","","","","",""
"","","","ratingFB","636212999d9d4a04989c95e9","bdp_trlrn","Mon Mar 13 2023 12:22:27 GMT-0500 (Central Daylight Time)","1075031","Trustworthy,Untrustworthy","image-keyboard-response","102","364930","0.0-6.0-2.47","","","null","","trustrating_stim/white_mw048.bmp","null","","","","","","","","","","",""
"","","","rating","636212999d9d4a04989c95e9","bdp_trlrn","Mon Mar 13 2023 12:22:27 GMT-0500 (Central Daylight Time)","1075031","Trustworthy,Untrustworthy","image-keyboard-response","103","365162","0.0-6.0-1.48","","","109","","trustrating_stim/white_mw033.bmp","7","","","","","","","","","","",""
"","","","ratingFB","636212999d9d4a04989c95e9","bdp_trlrn","Mon Mar 13 2023 12:22:27 GMT-0500 (Central Daylight Time)","1075031","Trustworthy,Untrustworthy","image-keyboard-response","104","365369","0.0-6.0-2.48","","","null","","trustrating_stim/white_mw033.bmp","null","","","","","","","","","","",""
"","","","rating","636212999d9d4a04989c95e9","bdp_trlrn","Mon Mar 13 2023 12:22:27 GMT-0500 (Central Daylight Time)","1075031","Trustworthy,Untrustworthy","image-keyboard-response","105","365537","0.0-6.0-1.49","","","52","","trustrating_stim/white_00659_941121_fa_edt.bmp","8","","","","","","","","","","",""
"","","","ratingFB","636212999d9d4a04989c95e9","bdp_trlrn","Mon Mar 13 2023 12:22:27 GMT-0500 (Central Daylight Time)","1075031","Trustworthy,Untrustworthy","image-keyboard-response","106","365755","0.0-6.0-2.49","","","null","","trustrating_stim/white_00659_941121_fa_edt.bmp","null","","","","","","","","","","",""
"","","","rating","636212999d9d4a04989c95e9","bdp_trlrn","Mon Mar 13 2023 12:22:27 GMT-0500 (Central Daylight Time)","1075031","Trustworthy,Untrustworthy","image-keyboard-response","107","366158","0.0-6.0-1.50","","","286","","trustrating_stim/white_00602_940928_fb_edt.bmp","8","","","","","","","","","","",""
"","","","ratingFB","636212999d9d4a04989c95e9","bdp_trlrn","Mon Mar 13 2023 12:22:27 GMT-0500 (Central Daylight Time)","1075031","Trustworthy,Untrustworthy","image-keyboard-response","108","366372","0.0-6.0-2.50","","","null","","trustrating_stim/white_00602_940928_fb_edt.bmp","null","","","","","","","","","","",""
"","","","rating","636212999d9d4a04989c95e9","bdp_trlrn","Mon Mar 13 2023 12:22:27 GMT-0500 (Central Daylight Time)","1075031","Trustworthy,Untrustworthy","image-keyboard-response","109","366573","0.0-6.0-1.51","","","85","","trustrating_stim/white_mw046.bmp","5","","","","","","","","","","",""
"","","","ratingFB","636212999d9d4a04989c95e9","bdp_trlrn","Mon Mar 13 2023 12:22:27 GMT-0500 (Central Daylight Time)","1075031","Trustworthy,Untrustworthy","image-keyboard-response","110","366789","0.0-6.0-2.51","","","null","","trustrating_stim/white_mw046.bmp","null","","","","","","","","","","",""
"","","","rating","636212999d9d4a04989c95e9","bdp_trlrn","Mon Mar 13 2023 12:22:27 GMT-0500 (Central Daylight Time)","1075031","Trustworthy,Untrustworthy","image-keyboard-response","111","367977","0.0-6.0-1.52","","","1071","","trustrating_stim/white_mw066.bmp","4","","","","","","","","","","",""
"","","","ratingFB","636212999d9d4a04989c95e9","bdp_trlrn","Mon Mar 13 2023 12:22:27 GMT-0500 (Central Daylight Time)","1075031","Trustworthy,Untrustworthy","image-keyboard-response","112","368180","0.0-6.0-2.52","","","null","","trustrating_stim/white_mw066.bmp","null","","","","","","","","","","",""
"","","","rating","636212999d9d4a04989c95e9","bdp_trlrn","Mon Mar 13 2023 12:22:27 GMT-0500 (Central Daylight Time)","1075031","Trustworthy,Untrustworthy","image-keyboard-response","113","369630","0.0-6.0-1.53","","","1335","","trustrating_stim/white_00223_940128_fb_edt.bmp","9","","","","","","","","","","",""
"","","","ratingFB","636212999d9d4a04989c95e9","bdp_trlrn","Mon Mar 13 2023 12:22:27 GMT-0500 (Central Daylight Time)","1075031","Trustworthy,Untrustworthy","image-keyboard-response","114","369832","0.0-6.0-2.53","","","null","","trustrating_stim/white_00223_940128_fb_edt.bmp","null","","","","","","","","","","",""
"","","","rating","636212999d9d4a04989c95e9","bdp_trlrn","Mon Mar 13 2023 12:22:27 GMT-0500 (Central Daylight Time)","1075031","Trustworthy,Untrustworthy","image-keyboard-response","115","370534","0.0-6.0-1.54","","","584","","trustrating_stim/white_00129_931230_fb_edt.bmp","9","","","","","","","","","","",""
"","","","ratingFB","636212999d9d4a04989c95e9","bdp_trlrn","Mon Mar 13 2023 12:22:27 GMT-0500 (Central Daylight Time)","1075031","Trustworthy,Untrustworthy","image-keyboard-response","116","370735","0.0-6.0-2.54","","","null","","trustrating_stim/white_00129_931230_fb_edt.bmp","null","","","","","","","","","","",""
"","","","rating","636212999d9d4a04989c95e9","bdp_trlrn","Mon Mar 13 2023 12:22:27 GMT-0500 (Central Daylight Time)","1075031","Trustworthy,Untrustworthy","image-keyboard-response","117","371427","0.0-6.0-1.55","","","575","","trustrating_stim/white_00109_931230_fa_edt.bmp","8","","","","","","","","","","",""
"","","","ratingFB","636212999d9d4a04989c95e9","bdp_trlrn","Mon Mar 13 2023 12:22:27 GMT-0500 (Central Daylight Time)","1075031","Trustworthy,Untrustworthy","image-keyboard-response","118","371638","0.0-6.0-2.55","","","null","","trustrating_stim/white_00109_931230_fa_edt.bmp","null","","","","","","","","","","",""
"","","","rating","636212999d9d4a04989c95e9","bdp_trlrn","Mon Mar 13 2023 12:22:27 GMT-0500 (Central Daylight Time)","1075031","Trustworthy,Untrustworthy","image-keyboard-response","119","372031","0.0-6.0-1.56","","","276","","trustrating_stim/white_00807_941205_fb_edt.bmp","9","","","","","","","","","","",""
"","","","ratingFB","636212999d9d4a04989c95e9","bdp_trlrn","Mon Mar 13 2023 12:22:27 GMT-0500 (Central Daylight Time)","1075031","Trustworthy,Untrustworthy","image-keyboard-response","120","372239","0.0-6.0-2.56","","","null","","trustrating_stim/white_00807_941205_fb_edt.bmp","null","","","","","","","","","","",""
"","","","rating","636212999d9d4a04989c95e9","bdp_trlrn","Mon Mar 13 2023 12:22:27 GMT-0500 (Central Daylight Time)","1075031","Trustworthy,Untrustworthy","image-keyboard-response","121","372373","0.0-6.0-1.57","","","16","","trustrating_stim/white_00577_940928_fa_edt.bmp","8","","","","","","","","","","",""
"","","","ratingFB","636212999d9d4a04989c95e9","bdp_trlrn","Mon Mar 13 2023 12:22:27 GMT-0500 (Central Daylight Time)","1075031","Trustworthy,Untrustworthy","image-keyboard-response","122","372578","0.0-6.0-2.57","","","null","","trustrating_stim/white_00577_940928_fa_edt.bmp","null","","","","","","","","","","",""
"","","","rating","636212999d9d4a04989c95e9","bdp_trlrn","Mon Mar 13 2023 12:22:27 GMT-0500 (Central Daylight Time)","1075031","Trustworthy,Untrustworthy","image-keyboard-response","123","372704","0.0-6.0-1.58","","","10","","trustrating_stim/white_00757_941201_fa_edt.bmp","8","","","","","","","","","","",""
"","","","ratingFB","636212999d9d4a04989c95e9","bdp_trlrn","Mon Mar 13 2023 12:22:27 GMT-0500 (Central Daylight Time)","1075031","Trustworthy,Untrustworthy","image-keyboard-response","124","372911","0.0-6.0-2.58","","","null","","trustrating_stim/white_00757_941201_fa_edt.bmp","null","","","","","","","","","","",""
"","","","rating","636212999d9d4a04989c95e9","bdp_trlrn","Mon Mar 13 2023 12:22:27 GMT-0500 (Central Daylight Time)","1075031","Trustworthy,Untrustworthy","image-keyboard-response","125","373371","0.0-6.0-1.59","","","344","","trustrating_stim/white_00340_940422_fa_edt.bmp","7","","","","","","","","","","",""
"","","","ratingFB","636212999d9d4a04989c95e9","bdp_trlrn","Mon Mar 13 2023 12:22:27 GMT-0500 (Central Daylight Time)","1075031","Trustworthy,Untrustworthy","image-keyboard-response","126","373581","0.0-6.0-2.59","","","null","","trustrating_stim/white_00340_940422_fa_edt.bmp","null","","","","","","","","","","",""
"blur","127","399497","blurevent","636212999d9d4a04989c95e9","bdp_trlrn","Mon Mar 13 2023 12:22:27 GMT-0500 (Central Daylight Time)","1075031","Trustworthy,Untrustworthy","","","","","2","","","","","","","","","","","","","","","",""
"focus","127","399653","focusevent","636212999d9d4a04989c95e9","bdp_trlrn","Mon Mar 13 2023 12:22:27 GMT-0500 (Central Daylight Time)","1075031","Trustworthy,Untrustworthy","","","","","","","","","","","","","","","","","","","","",""
"","","","","636212999d9d4a04989c95e9","bdp_trlrn","Mon Mar 13 2023 12:22:27 GMT-0500 (Central Daylight Time)","1075031","Trustworthy,Untrustworthy","instructions","127","401565","0.0-7.0","","[{""page_index"":0,""viewing_time"":27868}]","27868","","","","","","","","","","","","","",""
"blur","128","404307","blurevent","636212999d9d4a04989c95e9","bdp_trlrn","Mon Mar 13 2023 12:22:27 GMT-0500 (Central Daylight Time)","1075031","Trustworthy,Untrustworthy","","","","","1","","","","","","","","","","","","","","","",""
"focus","128","427109","focusevent","636212999d9d4a04989c95e9","bdp_trlrn","Mon Mar 13 2023 12:22:27 GMT-0500 (Central Daylight Time)","1075031","Trustworthy,Untrustworthy","","","","","","","","","","","","","","","","","","","","",""
"blur","128","431855","blurevent","636212999d9d4a04989c95e9","bdp_trlrn","Mon Mar 13 2023 12:22:27 GMT-0500 (Central Daylight Time)","1075031","Trustworthy,Untrustworthy","","","","","","","","","","","","","","","","","","","","",""
"focus","128","432012","focusevent","636212999d9d4a04989c95e9","bdp_trlrn","Mon Mar 13 2023 12:22:27 GMT-0500 (Central Daylight Time)","1075031","Trustworthy,Untrustworthy","","","","","","","","","","","","","","","","","","","","",""
"blur","128","433399","blurevent","636212999d9d4a04989c95e9","bdp_trlrn","Mon Mar 13 2023 12:22:27 GMT-0500 (Central Daylight Time)","1075031","Trustworthy,Untrustworthy","","","","","","","","","","","","","","","","","","","","",""
"focus","128","449181","focusevent","636212999d9d4a04989c95e9","bdp_trlrn","Mon Mar 13 2023 12:22:27 GMT-0500 (Central Daylight Time)","1075031","Trustworthy,Untrustworthy","","","","","","","","","","","","","","","","","","","","",""
"blur","128","450597","blurevent","636212999d9d4a04989c95e9","bdp_trlrn","Mon Mar 13 2023 12:22:27 GMT-0500 (Central Daylight Time)","1075031","Trustworthy,Untrustworthy","","","","","","","","","","","","","","","","","","","","",""
"focus","128","450718","focusevent","636212999d9d4a04989c95e9","bdp_trlrn","Mon Mar 13 2023 12:22:27 GMT-0500 (Central Daylight Time)","1075031","Trustworthy,Untrustworthy","","","","","","","","","","","","","","","","","","","","",""
"blur","128","469297","blurevent","636212999d9d4a04989c95e9","bdp_trlrn","Mon Mar 13 2023 12:22:27 GMT-0500 (Central Daylight Time)","1075031","Trustworthy,Untrustworthy","","","","","","","","","","","","","","","","","","","","",""
"focus","128","478530","focusevent","636212999d9d4a04989c95e9","bdp_trlrn","Mon Mar 13 2023 12:22:27 GMT-0500 (Central Daylight Time)","1075031","Trustworthy,Untrustworthy","","","","","","","","","","","","","","","","","","","","",""
"blur","128","480780","blurevent","636212999d9d4a04989c95e9","bdp_trlrn","Mon Mar 13 2023 12:22:27 GMT-0500 (Central Daylight Time)","1075031","Trustworthy,Untrustworthy","","","","","","","","","","","","","","","","","","","","",""
"focus","128","480917","focusevent","636212999d9d4a04989c95e9","bdp_trlrn","Mon Mar 13 2023 12:22:27 GMT-0500 (Central Daylight Time)","1075031","Trustworthy,Untrustworthy","","","","","","","","","","","","","","","","","","","","",""
"blur","128","484545","blurevent","636212999d9d4a04989c95e9","bdp_trlrn","Mon Mar 13 2023 12:22:27 GMT-0500 (Central Daylight Time)","1075031","Trustworthy,Untrustworthy","","","","","","","","","","","","","","","","","","","","",""
"focus","128","492178","focusevent","636212999d9d4a04989c95e9","bdp_trlrn","Mon Mar 13 2023 12:22:27 GMT-0500 (Central Daylight Time)","1075031","Trustworthy,Untrustworthy","","","","","","","","","","","","","","","","","","","","",""
"blur","128","495904","blurevent","636212999d9d4a04989c95e9","bdp_trlrn","Mon Mar 13 2023 12:22:27 GMT-0500 (Central Daylight Time)","1075031","Trustworthy,Untrustworthy","","","","","","","","","","","","","","","","","","","","",""
"focus","128","496092","focusevent","636212999d9d4a04989c95e9","bdp_trlrn","Mon Mar 13 2023 12:22:27 GMT-0500 (Central Daylight Time)","1075031","Trustworthy,Untrustworthy","","","","","","","","","","","","","","","","","","","","",""
"","","","","636212999d9d4a04989c95e9","bdp_trlrn","Mon Mar 13 2023 12:22:27 GMT-0500 (Central Daylight Time)","1075031","Trustworthy,Untrustworthy","instructions","128","533967","0.0-8.0","","[{""page_index"":0,""viewing_time"":49818},{""page_index"":1,""viewing_time"":14446},{""page_index"":2,""viewing_time"":15981},{""page_index"":3,""viewing_time"":16462},{""page_index"":4,""viewing_time"":21590},{""page_index"":5,""viewing_time"":398},{""page_index"":6,""viewing_time"":10482},{""page_index"":7,""viewing_time"":3111}]","132288","","","","","","","","","","","","","",""
"","","","","636212999d9d4a04989c95e9","bdp_trlrn","Mon Mar 13 2023 12:22:27 GMT-0500 (Central Daylight Time)","1075031","Trustworthy,Untrustworthy","html-keyboard-response","129","548891","0.0-9.0","","","14923","","<div class='header' style='text-align:left; position: absolute; top: 5%; left: 5%;'><small>Task 2 of 5</small></div><div class='instruxDiv'><p><strong>1) What is the minimum number of points you can choose to send to your partner?</strong></p><p>a) 0</p><p>b) 1</p><p>c) 5</p>","C","","","","","","","","","","",""
"blur","130","567962","blurevent","636212999d9d4a04989c95e9","bdp_trlrn","Mon Mar 13 2023 12:22:27 GMT-0500 (Central Daylight Time)","1075031","Trustworthy,Untrustworthy","","","","","2","","","","","","","","","","","","","","","",""
"focus","130","568168","focusevent","636212999d9d4a04989c95e9","bdp_trlrn","Mon Mar 13 2023 12:22:27 GMT-0500 (Central Daylight Time)","1075031","Trustworthy,Untrustworthy","","","","","","","","","","","","","","","","","","","","",""
"blur","130","569417","blurevent","636212999d9d4a04989c95e9","bdp_trlrn","Mon Mar 13 2023 12:22:27 GMT-0500 (Central Daylight Time)","1075031","Trustworthy,Untrustworthy","","","","","","","","","","","","","","","","","","","","",""
"focus","130","577824","focusevent","636212999d9d4a04989c95e9","bdp_trlrn","Mon Mar 13 2023 12:22:27 GMT-0500 (Central Daylight Time)","1075031","Trustworthy,Untrustworthy","","","","","","","","","","","","","","","","","","","","",""
"blur","130","579244","blurevent","636212999d9d4a04989c95e9","bdp_trlrn","Mon Mar 13 2023 12:22:27 GMT-0500 (Central Daylight Time)","1075031","Trustworthy,Untrustworthy","","","","","","","","","","","","","","","","","","","","",""
"focus","130","579403","focusevent","636212999d9d4a04989c95e9","bdp_trlrn","Mon Mar 13 2023 12:22:27 GMT-0500 (Central Daylight Time)","1075031","Trustworthy,Untrustworthy","","","","","","","","","","","","","","","","","","","","",""
"","","","","636212999d9d4a04989c95e9","bdp_trlrn","Mon Mar 13 2023 12:22:27 GMT-0500 (Central Daylight Time)","1075031","Trustworthy,Untrustworthy","html-keyboard-response","130","580869","0.0-10.0","","","31862","","<div class='header' style='text-align:left; position: absolute; top: 5%; left: 5%;'><small>Task 2 of 5</small></div><div class='instruxDiv'><p><strong>1) What is the minimum number of points you can choose to send to your partner?</strong></p><p>a) 1</p><p>b) 1</p><p style='color:#FF0000'>c) 5</p><h3 style='color:#FF0000'>Incorrect!</h3><h3 class='center-content'>The correct response is b).</h3><h3 class='center-content'>The minimum number of points you can choose to send to your partner is 1 point.</h3><p><em>Press SPACEBAR to continue</em></p></div>"," ","","","","","","","","","","",""
"","","","","636212999d9d4a04989c95e9","bdp_trlrn","Mon Mar 13 2023 12:22:27 GMT-0500 (Central Daylight Time)","1075031","Trustworthy,Untrustworthy","html-keyboard-response","131","586073","0.0-11.0","","","5088","","<div class='header' style='text-align:left; position: absolute; top: 5%; left: 5%;'><small>Task 2 of 5</small></div><div class='instruxDiv'><p><strong>2) What is the maximum number of points you can choose to send to your partner?</strong></p><p>a) 8</p><p>b) 5</p><p>c) 3</p>","B","","","","","","","","","","",""
"","","","","636212999d9d4a04989c95e9","bdp_trlrn","Mon Mar 13 2023 12:22:27 GMT-0500 (Central Daylight Time)","1075031","Trustworthy,Untrustworthy","html-keyboard-response","132","589023","0.0-12.0","","","2842","","<div class='header' style='text-align:left; position: absolute; top: 5%; left: 5%;'><small>Task 2 of 5</small></div><div class='instruxDiv'><p><strong>2) What is the maximum number of points you can choose to send to your partner?</strong></p><p>a) 8</p><p style='color:#00FF00'>b) 5</p><p>c) 3</p><h3 style='color:#00FF00'>Correct!</h3><h3 class='center-content'>The correct response is b).</h3><h3 class='center-content'>The maximum number of points you can choose to send to your partner is 5 points.</h3><p><em>Press SPACEBAR to continue</em></p></div>"," ","","","","","","","","","","",""
"","","","","636212999d9d4a04989c95e9","bdp_trlrn","Mon Mar 13 2023 12:22:27 GMT-0500 (Central Daylight Time)","1075031","Trustworthy,Untrustworthy","html-keyboard-response","133","597775","0.0-13.0","","","8650","","<div class='header' style='text-align:left; position: absolute; top: 5%; left: 5%;'><small>Task 2 of 5</small></div><div class='instruxDiv'><p><strong>3) What happens to the amount of points you send to your partner?</strong></p><p>a) Nothing</p><p>b) It doubles</p><p>c) It quadruples</p>","B","","","","","","","","","","",""
"","","","","636212999d9d4a04989c95e9","bdp_trlrn","Mon Mar 13 2023 12:22:27 GMT-0500 (Central Daylight Time)","1075031","Trustworthy,Untrustworthy","html-keyboard-response","134","600672","0.0-14.0","","","2781","","<div class='header' style='text-align:left; position: absolute; top: 5%; left: 5%;'><small>Task 2 of 5</small></div><div class='instruxDiv'><p><strong>3) What happens to the amount of points you send to your partner?</strong></p><p>a) Nothing</p><p style='color:#FF0000'>b) It doubles</p><p>c) It quadruples</p><h3 style='color:#FF0000'>Incorrect!</h3><h3 class='center-content'>The correct response is c).</h3><h3 class='center-content'>The amount of points you send to your partner quadruples.</h3><p><em>Press SPACEBAR to continue</em></p></div>"," ","","","","","","","","","","",""
"","","","","636212999d9d4a04989c95e9","bdp_trlrn","Mon Mar 13 2023 12:22:27 GMT-0500 (Central Daylight Time)","1075031","Trustworthy,Untrustworthy","html-keyboard-response","135","616536","0.0-15.0","","","15750","","<div class='header' style='text-align:left; position: absolute; top: 5%; left: 5%;'><small>Task 2 of 5</small></div><div class='instruxDiv'><p><strong>4) If you decided to share 4 out of 5 points with your partner, and they decided to share half of the amount they received with you, how many points would you receive back from them on this round?</strong></p><p>a) 16</p><p>b) 0</p><p>c) 8</p>","C","","","","","","","","","","",""
"","","","","636212999d9d4a04989c95e9","bdp_trlrn","Mon Mar 13 2023 12:22:27 GMT-0500 (Central Daylight Time)","1075031","Trustworthy,Untrustworthy","html-keyboard-response","136","622333","0.0-16.0","","","5691","","<div class='header' style='text-align:left; position: absolute; top: 5%; left: 5%;'><small>Task 2 of 5</small></div><div class='instruxDiv'><p><strong>4) If you decided to share 4 out of 5 points with your partner, and they decided to share half of the amount they received with you, how many points would you receive back from them on this round?</strong></p><p>a) 16</p><p>b) 0</p><p style='color:#00FF00'>c) 8</p><h3 style='color:#00FF00'>Correct!</h3><h3 class='center-content'>The correct response is c).</h3><h3 class='center-content'>If you shared 4 out of 5 points with your partner and they decided to share half of the amount they received with you, you would receive 8 points back (i.e. (4 x 4)/2 = 8).</h3><p><em>Press SPACEBAR to continue</em></p></div>"," ","","","","","","","","","","",""
"","","","","636212999d9d4a04989c95e9","bdp_trlrn","Mon Mar 13 2023 12:22:27 GMT-0500 (Central Daylight Time)","1075031","Trustworthy,Untrustworthy","html-keyboard-response","137","627453","0.0-17.0","","","null","","<div class='header' style='text-align:left; position: absolute; top: 5%; left: 5%;'><small>Task 2 of 5</small></div><div class='instruxDiv'><p>Thank you for completing the quiz<p>These are the actual partners you will be interacting with in the next block:<p><div class='tc' align='center'><img class='introPic' src='trustrating_stim/white_00761_941201_fb_edt.bmp'><br><strong>Michael</strong></div><div class='bl' align='center'><img class='introPic' src='trustrating_stim/white_mw089.bmp'><br><strong>Anthony</strong></div><div class='br' align='center'><img class='introPic' src='trustrating_stim/white_mw060.bmp'><br><strong>Jacob</strong></div></div><p>Across <strong>66 rounds</strong> you will interact with each partner <strong>22 times</strong> (in random order).<p style='align:center; color:white'><font <em>Press SPACEBAR to continue</em></p>","null","","","","","","","","","","",""
"blur","138","635763","blurevent","636212999d9d4a04989c95e9","bdp_trlrn","Mon Mar 13 2023 12:22:27 GMT-0500 (Central Daylight Time)","1075031","Trustworthy,Untrustworthy","","","","","3","","","","","","","","","","","","","","","",""
"focus","138","635931","focusevent","636212999d9d4a04989c95e9","bdp_trlrn","Mon Mar 13 2023 12:22:27 GMT-0500 (Central Daylight Time)","1075031","Trustworthy,Untrustworthy","","","","","","","","","","","","","","","","","","","","",""
"blur","138","639375","blurevent","636212999d9d4a04989c95e9","bdp_trlrn","Mon Mar 13 2023 12:22:27 GMT-0500 (Central Daylight Time)","1075031","Trustworthy,Untrustworthy","","","","","","","","","","","","","","","","","","","","",""
"focus","138","646069","focusevent","636212999d9d4a04989c95e9","bdp_trlrn","Mon Mar 13 2023 12:22:27 GMT-0500 (Central Daylight Time)","1075031","Trustworthy,Untrustworthy","","","","","","","","","","","","","","","","","","","","",""
"blur","138","647964","blurevent","636212999d9d4a04989c95e9","bdp_trlrn","Mon Mar 13 2023 12:22:27 GMT-0500 (Central Daylight Time)","1075031","Trustworthy,Untrustworthy","","","","","","","","","","","","","","","","","","","","",""
"focus","138","648086","focusevent","636212999d9d4a04989c95e9","bdp_trlrn","Mon Mar 13 2023 12:22:27 GMT-0500 (Central Daylight Time)","1075031","Trustworthy,Untrustworthy","","","","","","","","","","","","","","","","","","","","",""
"","","","","636212999d9d4a04989c95e9","bdp_trlrn","Mon Mar 13 2023 12:22:27 GMT-0500 (Central Daylight Time)","1075031","Trustworthy,Untrustworthy","instructions","138","651701","0.0-18.0","","[{""page_index"":0,""viewing_time"":9231},{""page_index"":1,""viewing_time"":15015}]","24247","","","","","","","","","","","","","",""
"","","","decision","636212999d9d4a04989c95e9","bdp_trlrn","Mon Mar 13 2023 12:22:27 GMT-0500 (Central Daylight Time)","1075031","Trustworthy,Untrustworthy","html-keyboard-response","139","657854","0.0-19.0-1.0","","","6046","","<div class='trialDiv'><img src='trustrating_stim/white_mw089.bmp'><br><font class='baseline'><strong>Anthony</strong><p>Choose number of points to send.</font><div class='respPicDiv'><img src='img/responseButtonOffersNo0L.png' class='respPic'></div></div>","4","1","Anthony","4","Shared","0.8,0.35","9","0.8","trustrating_stim/white_mw089.bmp","7","5","1"
"","","","decisionFB","636212999d9d4a04989c95e9","bdp_trlrn","Mon Mar 13 2023 12:22:27 GMT-0500 (Central Daylight Time)","1075031","Trustworthy,Untrustworthy","html-keyboard-response","140","658117","0.0-19.0-2.0","","","null","","<div class='trialDiv'><img src='trustrating_stim/white_mw089.bmp'><br><font class='baseline'><strong>Anthony</strong><p>Choose number of points to send.</font><div class='respPicDiv'><img src='img/responseButtonOffersNo0L4.png' class='respPic'></div></div>","null","1","Anthony","4","Shared","0.8,0.35","9","0.8","trustrating_stim/white_mw089.bmp","7","1","1"
"","","","feedback","636212999d9d4a04989c95e9","bdp_trlrn","Mon Mar 13 2023 12:22:27 GMT-0500 (Central Daylight Time)","1075031","Trustworthy,Untrustworthy","html-keyboard-response","141","659121","0.0-19.0-3.0","","","null","","<div class='trialDiv'><img src='trustrating_stim/white_mw089.bmp'><br><font class='baseline'><strong>Anthony</strong><p>Received: <strong>16</strong></font> &nbsp; &nbsp; &nbsp; &nbsp; &nbsp; &nbsp;<font class='posOutcome'>Shared back: <strong>8</strong></font></font><div class='respPicDiv'><img src='img/responseButtonOffersNo0_wht.png' class='respPic'></div></div>","null","1","Anthony","4","Shared","0.8,0.35","9","0.8","trustrating_stim/white_mw089.bmp","7","9","1"
"","","","decision","636212999d9d4a04989c95e9","bdp_trlrn","Mon Mar 13 2023 12:22:27 GMT-0500 (Central Daylight Time)","1075031","Trustworthy,Untrustworthy","html-keyboard-response","142","660555","0.0-19.0-1.1","","","1433","","<div class='trialDiv'><img src='trustrating_stim/white_mw060.bmp'><br><font class='baseline'><strong>Jacob</strong><p>Choose number of points to send.</font><div class='respPicDiv'><img src='img/responseButtonOffersNo0L.png' class='respPic'></div></div>","4","1","Jacob","9","Shared","0.8,0.2","10","0.8","trustrating_stim/white_mw060.bmp","8.5","14","2"
"","","","decisionFB","636212999d9d4a04989c95e9","bdp_trlrn","Mon Mar 13 2023 12:22:27 GMT-0500 (Central Daylight Time)","1075031","Trustworthy,Untrustworthy","html-keyboard-response","143","660826","0.0-19.0-2.1","","","null","","<div class='trialDiv'><img src='trustrating_stim/white_mw060.bmp'><br><font class='baseline'><strong>Jacob</strong><p>Choose number of points to send.</font><div class='respPicDiv'><img src='img/responseButtonOffersNo0L4.png' class='respPic'></div></div>","null","1","Jacob","9","Shared","0.8,0.2","10","0.8","trustrating_stim/white_mw060.bmp","8.5","10","2"
"","","","feedback","636212999d9d4a04989c95e9","bdp_trlrn","Mon Mar 13 2023 12:22:27 GMT-0500 (Central Daylight Time)","1075031","Trustworthy,Untrustworthy","html-keyboard-response","144","661828","0.0-19.0-3.1","","","null","","<div class='trialDiv'><img src='trustrating_stim/white_mw060.bmp'><br><font class='baseline'><strong>Jacob</strong><p>Received: <strong>16</strong></font> &nbsp; &nbsp; &nbsp; &nbsp; &nbsp; &nbsp;<font class='posOutcome'>Shared back: <strong>8</strong></font></font><div class='respPicDiv'><img src='img/responseButtonOffersNo0_wht.png' class='respPic'></div></div>","null","1","Jacob","9","Shared","0.8,0.2","10","0.8","trustrating_stim/white_mw060.bmp","8.5","18","2"
"","","","decision","636212999d9d4a04989c95e9","bdp_trlrn","Mon Mar 13 2023 12:22:27 GMT-0500 (Central Daylight Time)","1075031","Trustworthy,Untrustworthy","html-keyboard-response","145","664925","0.0-19.0-1.2","","","3096","","<div class='trialDiv'><img src='trustrating_stim/white_00761_941201_fb_edt.bmp'><br><font class='baseline'><strong>Michael</strong><p>Choose number of points to send.</font><div class='respPicDiv'><img src='img/responseButtonOffersNo0L.png' class='respPic'></div></div>","2","1","Michael","3","Kept","0.2,0.65","9","0.2","trustrating_stim/white_00761_941201_fb_edt.bmp","5","23","3"
"","","","decisionFB","636212999d9d4a04989c95e9","bdp_trlrn","Mon Mar 13 2023 12:22:27 GMT-0500 (Central Daylight Time)","1075031","Trustworthy,Untrustworthy","html-keyboard-response","146","665186","0.0-19.0-2.2","","","null","","<div class='trialDiv'><img src='trustrating_stim/white_00761_941201_fb_edt.bmp'><br><font class='baseline'><strong>Michael</strong><p>Choose number of points to send.</font><div class='respPicDiv'><img src='img/responseButtonOffersNo0L2.png' class='respPic'></div></div>","null","1","Michael","3","Kept","0.2,0.65","9","0.2","trustrating_stim/white_00761_941201_fb_edt.bmp","5","21","3"
"","","","feedback","636212999d9d4a04989c95e9","bdp_trlrn","Mon Mar 13 2023 12:22:27 GMT-0500 (Central Daylight Time)","1075031","Trustworthy,Untrustworthy","html-keyboard-response","147","666189","0.0-19.0-3.2","","","null","","<div class='trialDiv'><img src='trustrating_stim/white_00761_941201_fb_edt.bmp'><br><font class='baseline'><strong>Michael</strong><p>Received: <strong>8</strong></font> &nbsp; &nbsp; &nbsp; &nbsp; &nbsp; &nbsp;<font class='negOutcome'>Shared back: <strong>0</strong></font></font><div class='respPicDiv'><img src='img/responseButtonOffersNo0_wht.png' class='respPic'></div></div>","null","1","Michael","3","Kept","0.2,0.65","9","0.2","trustrating_stim/white_00761_941201_fb_edt.bmp","5","21","3"
"","","","decision","636212999d9d4a04989c95e9","bdp_trlrn","Mon Mar 13 2023 12:22:27 GMT-0500 (Central Daylight Time)","1075031","Trustworthy,Untrustworthy","html-keyboard-response","148","672087","0.0-19.0-1.3","","","5896","","<div class='trialDiv'><img src='trustrating_stim/white_mw060.bmp'><br><font class='baseline'><strong>Jacob</strong><p>Choose number of points to send.</font><div class='respPicDiv'><img src='img/responseButtonOffersNo0L.png' class='respPic'></div></div>","4","2","Jacob","9","Shared","0.8,0.2","10","0.8","trustrating_stim/white_mw060.bmp","8.5","26","4"
"","","","decisionFB","636212999d9d4a04989c95e9","bdp_trlrn","Mon Mar 13 2023 12:22:27 GMT-0500 (Central Daylight Time)","1075031","Trustworthy,Untrustworthy","html-keyboard-response","149","672339","0.0-19.0-2.3","","","null","","<div class='trialDiv'><img src='trustrating_stim/white_mw060.bmp'><br><font class='baseline'><strong>Jacob</strong><p>Choose number of points to send.</font><div class='respPicDiv'><img src='img/responseButtonOffersNo0L4.png' class='respPic'></div></div>","null","2","Jacob","9","Shared","0.8,0.2","10","0.8","trustrating_stim/white_mw060.bmp","8.5","22","4"
"","","","feedback","636212999d9d4a04989c95e9","bdp_trlrn","Mon Mar 13 2023 12:22:27 GMT-0500 (Central Daylight Time)","1075031","Trustworthy,Untrustworthy","html-keyboard-response","150","673342","0.0-19.0-3.3","","","null","","<div class='trialDiv'><img src='trustrating_stim/white_mw060.bmp'><br><font class='baseline'><strong>Jacob</strong><p>Received: <strong>16</strong></font> &nbsp; &nbsp; &nbsp; &nbsp; &nbsp; &nbsp;<font class='posOutcome'>Shared back: <strong>8</strong></font></font><div class='respPicDiv'><img src='img/responseButtonOffersNo0_wht.png' class='respPic'></div></div>","null","2","Jacob","9","Shared","0.8,0.2","10","0.8","trustrating_stim/white_mw060.bmp","8.5","30","4"
"","","","decision","636212999d9d4a04989c95e9","bdp_trlrn","Mon Mar 13 2023 12:22:27 GMT-0500 (Central Daylight Time)","1075031","Trustworthy,Untrustworthy","html-keyboard-response","151","676535","0.0-19.0-1.4","","","3191","","<div class='trialDiv'><img src='trustrating_stim/white_00761_941201_fb_edt.bmp'><br><font class='baseline'><strong>Michael</strong><p>Choose number of points to send.</font><div class='respPicDiv'><img src='img/responseButtonOffersNo0L.png' class='respPic'></div></div>","2","2","Michael","3","Shared","0.2,0.65","9","0.2","trustrating_stim/white_00761_941201_fb_edt.bmp","5","35","5"
"","","","decisionFB","636212999d9d4a04989c95e9","bdp_trlrn","Mon Mar 13 2023 12:22:27 GMT-0500 (Central Daylight Time)","1075031","Trustworthy,Untrustworthy","html-keyboard-response","152","676791","0.0-19.0-2.4","","","null","","<div class='trialDiv'><img src='trustrating_stim/white_00761_941201_fb_edt.bmp'><br><font class='baseline'><strong>Michael</strong><p>Choose number of points to send.</font><div class='respPicDiv'><img src='img/responseButtonOffersNo0L2.png' class='respPic'></div></div>","null","2","Michael","3","Shared","0.2,0.65","9","0.2","trustrating_stim/white_00761_941201_fb_edt.bmp","5","33","5"
"","","","feedback","636212999d9d4a04989c95e9","bdp_trlrn","Mon Mar 13 2023 12:22:27 GMT-0500 (Central Daylight Time)","1075031","Trustworthy,Untrustworthy","html-keyboard-response","153","677794","0.0-19.0-3.4","","","null","","<div class='trialDiv'><img src='trustrating_stim/white_00761_941201_fb_edt.bmp'><br><font class='baseline'><strong>Michael</strong><p>Received: <strong>8</strong></font> &nbsp; &nbsp; &nbsp; &nbsp; &nbsp; &nbsp;<font class='posOutcome'>Shared back: <strong>4</strong></font></font><div class='respPicDiv'><img src='img/responseButtonOffersNo0_wht.png' class='respPic'></div></div>","null","2","Michael","3","Shared","0.2,0.65","9","0.2","trustrating_stim/white_00761_941201_fb_edt.bmp","5","37","5"
"","","","decision","636212999d9d4a04989c95e9","bdp_trlrn","Mon Mar 13 2023 12:22:27 GMT-0500 (Central Daylight Time)","1075031","Trustworthy,Untrustworthy","html-keyboard-response","154","679500","0.0-19.0-1.5","","","1705","","<div class='trialDiv'><img src='trustrating_stim/white_mw089.bmp'><br><font class='baseline'><strong>Anthony</strong><p>Choose number of points to send.</font><div class='respPicDiv'><img src='img/responseButtonOffersNo0L.png' class='respPic'></div></div>","4","2","Anthony","4","Shared","0.8,0.35","9","0.8","trustrating_stim/white_mw089.bmp","7","42","6"
"","","","decisionFB","636212999d9d4a04989c95e9","bdp_trlrn","Mon Mar 13 2023 12:22:27 GMT-0500 (Central Daylight Time)","1075031","Trustworthy,Untrustworthy","html-keyboard-response","155","679762","0.0-19.0-2.5","","","null","","<div class='trialDiv'><img src='trustrating_stim/white_mw089.bmp'><br><font class='baseline'><strong>Anthony</strong><p>Choose number of points to send.</font><div class='respPicDiv'><img src='img/responseButtonOffersNo0L4.png' class='respPic'></div></div>","null","2","Anthony","4","Shared","0.8,0.35","9","0.8","trustrating_stim/white_mw089.bmp","7","38","6"
"","","","feedback","636212999d9d4a04989c95e9","bdp_trlrn","Mon Mar 13 2023 12:22:27 GMT-0500 (Central Daylight Time)","1075031","Trustworthy,Untrustworthy","html-keyboard-response","156","680764","0.0-19.0-3.5","","","null","","<div class='trialDiv'><img src='trustrating_stim/white_mw089.bmp'><br><font class='baseline'><strong>Anthony</strong><p>Received: <strong>16</strong></font> &nbsp; &nbsp; &nbsp; &nbsp; &nbsp; &nbsp;<font class='posOutcome'>Shared back: <strong>8</strong></font></font><div class='respPicDiv'><img src='img/responseButtonOffersNo0_wht.png' class='respPic'></div></div>","null","2","Anthony","4","Shared","0.8,0.35","9","0.8","trustrating_stim/white_mw089.bmp","7","46","6"
"","","","decision","636212999d9d4a04989c95e9","bdp_trlrn","Mon Mar 13 2023 12:22:27 GMT-0500 (Central Daylight Time)","1075031","Trustworthy,Untrustworthy","html-keyboard-response","157","682726","0.0-19.0-1.6","","","1961","","<div class='trialDiv'><img src='trustrating_stim/white_00761_941201_fb_edt.bmp'><br><font class='baseline'><strong>Michael</strong><p>Choose number of points to send.</font><div class='respPicDiv'><img src='img/responseButtonOffersNo0L.png' class='respPic'></div></div>","3","3","Michael","3","Shared","0.2,0.65","9","0.2","trustrating_stim/white_00761_941201_fb_edt.bmp","5","51","7"
"","","","decisionFB","636212999d9d4a04989c95e9","bdp_trlrn","Mon Mar 13 2023 12:22:27 GMT-0500 (Central Daylight Time)","1075031","Trustworthy,Untrustworthy","html-keyboard-response","158","682992","0.0-19.0-2.6","","","null","","<div class='trialDiv'><img src='trustrating_stim/white_00761_941201_fb_edt.bmp'><br><font class='baseline'><strong>Michael</strong><p>Choose number of points to send.</font><div class='respPicDiv'><img src='img/responseButtonOffersNo0L3.png' class='respPic'></div></div>","null","3","Michael","3","Shared","0.2,0.65","9","0.2","trustrating_stim/white_00761_941201_fb_edt.bmp","5","48","7"
"","","","feedback","636212999d9d4a04989c95e9","bdp_trlrn","Mon Mar 13 2023 12:22:27 GMT-0500 (Central Daylight Time)","1075031","Trustworthy,Untrustworthy","html-keyboard-response","159","683998","0.0-19.0-3.6","","","null","","<div class='trialDiv'><img src='trustrating_stim/white_00761_941201_fb_edt.bmp'><br><font class='baseline'><strong>Michael</strong><p>Received: <strong>12</strong></font> &nbsp; &nbsp; &nbsp; &nbsp; &nbsp; &nbsp;<font class='posOutcome'>Shared back: <strong>6</strong></font></font><div class='respPicDiv'><img src='img/responseButtonOffersNo0_wht.png' class='respPic'></div></div>","null","3","Michael","3","Shared","0.2,0.65","9","0.2","trustrating_stim/white_00761_941201_fb_edt.bmp","5","54","7"
"","","","decision","636212999d9d4a04989c95e9","bdp_trlrn","Mon Mar 13 2023 12:22:27 GMT-0500 (Central Daylight Time)","1075031","Trustworthy,Untrustworthy","html-keyboard-response","160","686148","0.0-19.0-1.7","","","2147","","<div class='trialDiv'><img src='trustrating_stim/white_mw060.bmp'><br><font class='baseline'><strong>Jacob</strong><p>Choose number of points to send.</font><div class='respPicDiv'><img src='img/responseButtonOffersNo0L.png' class='respPic'></div></div>","4","3","Jacob","9","Shared","0.8,0.2","10","0.8","trustrating_stim/white_mw060.bmp","8.5","59","8"
"","","","decisionFB","636212999d9d4a04989c95e9","bdp_trlrn","Mon Mar 13 2023 12:22:27 GMT-0500 (Central Daylight Time)","1075031","Trustworthy,Untrustworthy","html-keyboard-response","161","686407","0.0-19.0-2.7","","","null","","<div class='trialDiv'><img src='trustrating_stim/white_mw060.bmp'><br><font class='baseline'><strong>Jacob</strong><p>Choose number of points to send.</font><div class='respPicDiv'><img src='img/responseButtonOffersNo0L4.png' class='respPic'></div></div>","null","3","Jacob","9","Shared","0.8,0.2","10","0.8","trustrating_stim/white_mw060.bmp","8.5","55","8"
"","","","feedback","636212999d9d4a04989c95e9","bdp_trlrn","Mon Mar 13 2023 12:22:27 GMT-0500 (Central Daylight Time)","1075031","Trustworthy,Untrustworthy","html-keyboard-response","162","687410","0.0-19.0-3.7","","","null","","<div class='trialDiv'><img src='trustrating_stim/white_mw060.bmp'><br><font class='baseline'><strong>Jacob</strong><p>Received: <strong>16</strong></font> &nbsp; &nbsp; &nbsp; &nbsp; &nbsp; &nbsp;<font class='posOutcome'>Shared back: <strong>8</strong></font></font><div class='respPicDiv'><img src='img/responseButtonOffersNo0_wht.png' class='respPic'></div></div>","null","3","Jacob","9","Shared","0.8,0.2","10","0.8","trustrating_stim/white_mw060.bmp","8.5","63","8"
"","","","decision","636212999d9d4a04989c95e9","bdp_trlrn","Mon Mar 13 2023 12:22:27 GMT-0500 (Central Daylight Time)","1075031","Trustworthy,Untrustworthy","html-keyboard-response","163","688554","0.0-19.0-1.8","","","1142","","<div class='trialDiv'><img src='trustrating_stim/white_mw089.bmp'><br><font class='baseline'><strong>Anthony</strong><p>Choose number of points to send.</font><div class='respPicDiv'><img src='img/responseButtonOffersNo0L.png' class='respPic'></div></div>","4","3","Anthony","4","Shared","0.8,0.35","9","0.8","trustrating_stim/white_mw089.bmp","7","68","9"
"","","","decisionFB","636212999d9d4a04989c95e9","bdp_trlrn","Mon Mar 13 2023 12:22:27 GMT-0500 (Central Daylight Time)","1075031","Trustworthy,Untrustworthy","html-keyboard-response","164","688815","0.0-19.0-2.8","","","null","","<div class='trialDiv'><img src='trustrating_stim/white_mw089.bmp'><br><font class='baseline'><strong>Anthony</strong><p>Choose number of points to send.</font><div class='respPicDiv'><img src='img/responseButtonOffersNo0L4.png' class='respPic'></div></div>","null","3","Anthony","4","Shared","0.8,0.35","9","0.8","trustrating_stim/white_mw089.bmp","7","64","9"
"","","","feedback","636212999d9d4a04989c95e9","bdp_trlrn","Mon Mar 13 2023 12:22:27 GMT-0500 (Central Daylight Time)","1075031","Trustworthy,Untrustworthy","html-keyboard-response","165","689818","0.0-19.0-3.8","","","null","","<div class='trialDiv'><img src='trustrating_stim/white_mw089.bmp'><br><font class='baseline'><strong>Anthony</strong><p>Received: <strong>16</strong></font> &nbsp; &nbsp; &nbsp; &nbsp; &nbsp; &nbsp;<font class='posOutcome'>Shared back: <strong>8</strong></font></font><div class='respPicDiv'><img src='img/responseButtonOffersNo0_wht.png' class='respPic'></div></div>","null","3","Anthony","4","Shared","0.8,0.35","9","0.8","trustrating_stim/white_mw089.bmp","7","72","9"
"","","","decision","636212999d9d4a04989c95e9","bdp_trlrn","Mon Mar 13 2023 12:22:27 GMT-0500 (Central Daylight Time)","1075031","Trustworthy,Untrustworthy","html-keyboard-response","166","691854","0.0-19.0-1.9","","","2035","","<div class='trialDiv'><img src='trustrating_stim/white_mw060.bmp'><br><font class='baseline'><strong>Jacob</strong><p>Choose number of points to send.</font><div class='respPicDiv'><img src='img/responseButtonOffersNo0L.png' class='respPic'></div></div>","4","4","Jacob","9","Shared","0.8,0.2","10","0.8","trustrating_stim/white_mw060.bmp","8.5","77","10"
"","","","decisionFB","636212999d9d4a04989c95e9","bdp_trlrn","Mon Mar 13 2023 12:22:27 GMT-0500 (Central Daylight Time)","1075031","Trustworthy,Untrustworthy","html-keyboard-response","167","692107","0.0-19.0-2.9","","","null","","<div class='trialDiv'><img src='trustrating_stim/white_mw060.bmp'><br><font class='baseline'><strong>Jacob</strong><p>Choose number of points to send.</font><div class='respPicDiv'><img src='img/responseButtonOffersNo0L4.png' class='respPic'></div></div>","null","4","Jacob","9","Shared","0.8,0.2","10","0.8","trustrating_stim/white_mw060.bmp","8.5","73","10"
"","","","feedback","636212999d9d4a04989c95e9","bdp_trlrn","Mon Mar 13 2023 12:22:27 GMT-0500 (Central Daylight Time)","1075031","Trustworthy,Untrustworthy","html-keyboard-response","168","693111","0.0-19.0-3.9","","","null","","<div class='trialDiv'><img src='trustrating_stim/white_mw060.bmp'><br><font class='baseline'><strong>Jacob</strong><p>Received: <strong>16</strong></font> &nbsp; &nbsp; &nbsp; &nbsp; &nbsp; &nbsp;<font class='posOutcome'>Shared back: <strong>8</strong></font></font><div class='respPicDiv'><img src='img/responseButtonOffersNo0_wht.png' class='respPic'></div></div>","null","4","Jacob","9","Shared","0.8,0.2","10","0.8","trustrating_stim/white_mw060.bmp","8.5","81","10"
"","","","decision","636212999d9d4a04989c95e9","bdp_trlrn","Mon Mar 13 2023 12:22:27 GMT-0500 (Central Daylight Time)","1075031","Trustworthy,Untrustworthy","html-keyboard-response","169","693476","0.0-19.0-1.10","","","363","","<div class='trialDiv'><img src='trustrating_stim/white_mw089.bmp'><br><font class='baseline'><strong>Anthony</strong><p>Choose number of points to send.</font><div class='respPicDiv'><img src='img/responseButtonOffersNo0L.png' class='respPic'></div></div>","3","4","Anthony","4","Shared","0.8,0.35","9","0.8","trustrating_stim/white_mw089.bmp","7","86","11"
"","","","decisionFB","636212999d9d4a04989c95e9","bdp_trlrn","Mon Mar 13 2023 12:22:27 GMT-0500 (Central Daylight Time)","1075031","Trustworthy,Untrustworthy","html-keyboard-response","170","693728","0.0-19.0-2.10","","","null","","<div class='trialDiv'><img src='trustrating_stim/white_mw089.bmp'><br><font class='baseline'><strong>Anthony</strong><p>Choose number of points to send.</font><div class='respPicDiv'><img src='img/responseButtonOffersNo0L3.png' class='respPic'></div></div>","null","4","Anthony","4","Shared","0.8,0.35","9","0.8","trustrating_stim/white_mw089.bmp","7","83","11"
"","","","feedback","636212999d9d4a04989c95e9","bdp_trlrn","Mon Mar 13 2023 12:22:27 GMT-0500 (Central Daylight Time)","1075031","Trustworthy,Untrustworthy","html-keyboard-response","171","694732","0.0-19.0-3.10","","","null","","<div class='trialDiv'><img src='trustrating_stim/white_mw089.bmp'><br><font class='baseline'><strong>Anthony</strong><p>Received: <strong>12</strong></font> &nbsp; &nbsp; &nbsp; &nbsp; &nbsp; &nbsp;<font class='posOutcome'>Shared back: <strong>6</strong></font></font><div class='respPicDiv'><img src='img/responseButtonOffersNo0_wht.png' class='respPic'></div></div>","null","4","Anthony","4","Shared","0.8,0.35","9","0.8","trustrating_stim/white_mw089.bmp","7","89","11"
"","","","decision","636212999d9d4a04989c95e9","bdp_trlrn","Mon Mar 13 2023 12:22:27 GMT-0500 (Central Daylight Time)","1075031","Trustworthy,Untrustworthy","html-keyboard-response","172","695797","0.0-19.0-1.11","","","1063","","<div class='trialDiv'><img src='trustrating_stim/white_00761_941201_fb_edt.bmp'><br><font class='baseline'><strong>Michael</strong><p>Choose number of points to send.</font><div class='respPicDiv'><img src='img/responseButtonOffersNo0L.png' class='respPic'></div></div>","3","4","Michael","3","Kept","0.2,0.65","9","0.2","trustrating_stim/white_00761_941201_fb_edt.bmp","5","94","12"
"","","","decisionFB","636212999d9d4a04989c95e9","bdp_trlrn","Mon Mar 13 2023 12:22:27 GMT-0500 (Central Daylight Time)","1075031","Trustworthy,Untrustworthy","html-keyboard-response","173","696050","0.0-19.0-2.11","","","null","","<div class='trialDiv'><img src='trustrating_stim/white_00761_941201_fb_edt.bmp'><br><font class='baseline'><strong>Michael</strong><p>Choose number of points to send.</font><div class='respPicDiv'><img src='img/responseButtonOffersNo0L3.png' class='respPic'></div></div>","null","4","Michael","3","Kept","0.2,0.65","9","0.2","trustrating_stim/white_00761_941201_fb_edt.bmp","5","91","12"
"","","","feedback","636212999d9d4a04989c95e9","bdp_trlrn","Mon Mar 13 2023 12:22:27 GMT-0500 (Central Daylight Time)","1075031","Trustworthy,Untrustworthy","html-keyboard-response","174","697074","0.0-19.0-3.11","","","null","","<div class='trialDiv'><img src='trustrating_stim/white_00761_941201_fb_edt.bmp'><br><font class='baseline'><strong>Michael</strong><p>Received: <strong>12</strong></font> &nbsp; &nbsp; &nbsp; &nbsp; &nbsp; &nbsp;<font class='negOutcome'>Shared back: <strong>0</strong></font></font><div class='respPicDiv'><img src='img/responseButtonOffersNo0_wht.png' class='respPic'></div></div>","null","4","Michael","3","Kept","0.2,0.65","9","0.2","trustrating_stim/white_00761_941201_fb_edt.bmp","5","91","12"
"","","","decision","636212999d9d4a04989c95e9","bdp_trlrn","Mon Mar 13 2023 12:22:27 GMT-0500 (Central Daylight Time)","1075031","Trustworthy,Untrustworthy","html-keyboard-response","175","697420","0.0-19.0-1.12","","","342","","<div class='trialDiv'><img src='trustrating_stim/white_mw060.bmp'><br><font class='baseline'><strong>Jacob</strong><p>Choose number of points to send.</font><div class='respPicDiv'><img src='img/responseButtonOffersNo0L.png' class='respPic'></div></div>","4","5","Jacob","9","Shared","0.8,0.2","10","0.8","trustrating_stim/white_mw060.bmp","8.5","96","13"
"","","","decisionFB","636212999d9d4a04989c95e9","bdp_trlrn","Mon Mar 13 2023 12:22:27 GMT-0500 (Central Daylight Time)","1075031","Trustworthy,Untrustworthy","html-keyboard-response","176","697676","0.0-19.0-2.12","","","null","","<div class='trialDiv'><img src='trustrating_stim/white_mw060.bmp'><br><font class='baseline'><strong>Jacob</strong><p>Choose number of points to send.</font><div class='respPicDiv'><img src='img/responseButtonOffersNo0L4.png' class='respPic'></div></div>","null","5","Jacob","9","Shared","0.8,0.2","10","0.8","trustrating_stim/white_mw060.bmp","8.5","92","13"
"","","","feedback","636212999d9d4a04989c95e9","bdp_trlrn","Mon Mar 13 2023 12:22:27 GMT-0500 (Central Daylight Time)","1075031","Trustworthy,Untrustworthy","html-keyboard-response","177","698680","0.0-19.0-3.12","","","null","","<div class='trialDiv'><img src='trustrating_stim/white_mw060.bmp'><br><font class='baseline'><strong>Jacob</strong><p>Received: <strong>16</strong></font> &nbsp; &nbsp; &nbsp; &nbsp; &nbsp; &nbsp;<font class='posOutcome'>Shared back: <strong>8</strong></font></font><div class='respPicDiv'><img src='img/responseButtonOffersNo0_wht.png' class='respPic'></div></div>","null","5","Jacob","9","Shared","0.8,0.2","10","0.8","trustrating_stim/white_mw060.bmp","8.5","100","13"
"","","","decision","636212999d9d4a04989c95e9","bdp_trlrn","Mon Mar 13 2023 12:22:27 GMT-0500 (Central Daylight Time)","1075031","Trustworthy,Untrustworthy","html-keyboard-response","178","698990","0.0-19.0-1.13","","","308","","<div class='trialDiv'><img src='trustrating_stim/white_mw089.bmp'><br><font class='baseline'><strong>Anthony</strong><p>Choose number of points to send.</font><div class='respPicDiv'><img src='img/responseButtonOffersNo0L.png' class='respPic'></div></div>","4","5","Anthony","4","Shared","0.8,0.35","9","0.8","trustrating_stim/white_mw089.bmp","7","105","14"
"","","","decisionFB","636212999d9d4a04989c95e9","bdp_trlrn","Mon Mar 13 2023 12:22:27 GMT-0500 (Central Daylight Time)","1075031","Trustworthy,Untrustworthy","html-keyboard-response","179","699243","0.0-19.0-2.13","","","null","","<div class='trialDiv'><img src='trustrating_stim/white_mw089.bmp'><br><font class='baseline'><strong>Anthony</strong><p>Choose number of points to send.</font><div class='respPicDiv'><img src='img/responseButtonOffersNo0L4.png' class='respPic'></div></div>","null","5","Anthony","4","Shared","0.8,0.35","9","0.8","trustrating_stim/white_mw089.bmp","7","101","14"
"","","","feedback","636212999d9d4a04989c95e9","bdp_trlrn","Mon Mar 13 2023 12:22:27 GMT-0500 (Central Daylight Time)","1075031","Trustworthy,Untrustworthy","html-keyboard-response","180","700246","0.0-19.0-3.13","","","null","","<div class='trialDiv'><img src='trustrating_stim/white_mw089.bmp'><br><font class='baseline'><strong>Anthony</strong><p>Received: <strong>16</strong></font> &nbsp; &nbsp; &nbsp; &nbsp; &nbsp; &nbsp;<font class='posOutcome'>Shared back: <strong>8</strong></font></font><div class='respPicDiv'><img src='img/responseButtonOffersNo0_wht.png' class='respPic'></div></div>","null","5","Anthony","4","Shared","0.8,0.35","9","0.8","trustrating_stim/white_mw089.bmp","7","109","14"
"","","","decision","636212999d9d4a04989c95e9","bdp_trlrn","Mon Mar 13 2023 12:22:27 GMT-0500 (Central Daylight Time)","1075031","Trustworthy,Untrustworthy","html-keyboard-response","181","700760","0.0-19.0-1.14","","","513","","<div class='trialDiv'><img src='trustrating_stim/white_00761_941201_fb_edt.bmp'><br><font class='baseline'><strong>Michael</strong><p>Choose number of points to send.</font><div class='respPicDiv'><img src='img/responseButtonOffersNo0L.png' class='respPic'></div></div>","4","5","Michael","3","Kept","0.2,0.65","9","0.2","trustrating_stim/white_00761_941201_fb_edt.bmp","5","114","15"
"","","","decisionFB","636212999d9d4a04989c95e9","bdp_trlrn","Mon Mar 13 2023 12:22:27 GMT-0500 (Central Daylight Time)","1075031","Trustworthy,Untrustworthy","html-keyboard-response","182","701018","0.0-19.0-2.14","","","null","","<div class='trialDiv'><img src='trustrating_stim/white_00761_941201_fb_edt.bmp'><br><font class='baseline'><strong>Michael</strong><p>Choose number of points to send.</font><div class='respPicDiv'><img src='img/responseButtonOffersNo0L4.png' class='respPic'></div></div>","null","5","Michael","3","Kept","0.2,0.65","9","0.2","trustrating_stim/white_00761_941201_fb_edt.bmp","5","110","15"
"","","","feedback","636212999d9d4a04989c95e9","bdp_trlrn","Mon Mar 13 2023 12:22:27 GMT-0500 (Central Daylight Time)","1075031","Trustworthy,Untrustworthy","html-keyboard-response","183","702022","0.0-19.0-3.14","","","null","","<div class='trialDiv'><img src='trustrating_stim/white_00761_941201_fb_edt.bmp'><br><font class='baseline'><strong>Michael</strong><p>Received: <strong>16</strong></font> &nbsp; &nbsp; &nbsp; &nbsp; &nbsp; &nbsp;<font class='negOutcome'>Shared back: <strong>0</strong></font></font><div class='respPicDiv'><img src='img/responseButtonOffersNo0_wht.png' class='respPic'></div></div>","null","5","Michael","3","Kept","0.2,0.65","9","0.2","trustrating_stim/white_00761_941201_fb_edt.bmp","5","110","15"
"","","","decision","636212999d9d4a04989c95e9","bdp_trlrn","Mon Mar 13 2023 12:22:27 GMT-0500 (Central Daylight Time)","1075031","Trustworthy,Untrustworthy","html-keyboard-response","184","702548","0.0-19.0-1.15","","","523","","<div class='trialDiv'><img src='trustrating_stim/white_mw089.bmp'><br><font class='baseline'><strong>Anthony</strong><p>Choose number of points to send.</font><div class='respPicDiv'><img src='img/responseButtonOffersNo0L.png' class='respPic'></div></div>","4","6","Anthony","4","Shared","0.8,0.35","9","0.8","trustrating_stim/white_mw089.bmp","7","115","16"
"","","","decisionFB","636212999d9d4a04989c95e9","bdp_trlrn","Mon Mar 13 2023 12:22:27 GMT-0500 (Central Daylight Time)","1075031","Trustworthy,Untrustworthy","html-keyboard-response","185","702809","0.0-19.0-2.15","","","null","","<div class='trialDiv'><img src='trustrating_stim/white_mw089.bmp'><br><font class='baseline'><strong>Anthony</strong><p>Choose number of points to send.</font><div class='respPicDiv'><img src='img/responseButtonOffersNo0L4.png' class='respPic'></div></div>","null","6","Anthony","4","Shared","0.8,0.35","9","0.8","trustrating_stim/white_mw089.bmp","7","111","16"
"","","","feedback","636212999d9d4a04989c95e9","bdp_trlrn","Mon Mar 13 2023 12:22:27 GMT-0500 (Central Daylight Time)","1075031","Trustworthy,Untrustworthy","html-keyboard-response","186","703813","0.0-19.0-3.15","","","null","","<div class='trialDiv'><img src='trustrating_stim/white_mw089.bmp'><br><font class='baseline'><strong>Anthony</strong><p>Received: <strong>16</strong></font> &nbsp; &nbsp; &nbsp; &nbsp; &nbsp; &nbsp;<font class='posOutcome'>Shared back: <strong>8</strong></font></font><div class='respPicDiv'><img src='img/responseButtonOffersNo0_wht.png' class='respPic'></div></div>","null","6","Anthony","4","Shared","0.8,0.35","9","0.8","trustrating_stim/white_mw089.bmp","7","119","16"
"","","","decision","636212999d9d4a04989c95e9","bdp_trlrn","Mon Mar 13 2023 12:22:27 GMT-0500 (Central Daylight Time)","1075031","Trustworthy,Untrustworthy","html-keyboard-response","187","704785","0.0-19.0-1.16","","","970","","<div class='trialDiv'><img src='trustrating_stim/white_00761_941201_fb_edt.bmp'><br><font class='baseline'><strong>Michael</strong><p>Choose number of points to send.</font><div class='respPicDiv'><img src='img/responseButtonOffersNo0L.png' class='respPic'></div></div>","3","6","Michael","3","Kept","0.2,0.65","9","0.2","trustrating_stim/white_00761_941201_fb_edt.bmp","5","124","17"
"","","","decisionFB","636212999d9d4a04989c95e9","bdp_trlrn","Mon Mar 13 2023 12:22:27 GMT-0500 (Central Daylight Time)","1075031","Trustworthy,Untrustworthy","html-keyboard-response","188","705048","0.0-19.0-2.16","","","null","","<div class='trialDiv'><img src='trustrating_stim/white_00761_941201_fb_edt.bmp'><br><font class='baseline'><strong>Michael</strong><p>Choose number of points to send.</font><div class='respPicDiv'><img src='img/responseButtonOffersNo0L3.png' class='respPic'></div></div>","null","6","Michael","3","Kept","0.2,0.65","9","0.2","trustrating_stim/white_00761_941201_fb_edt.bmp","5","121","17"
"","","","feedback","636212999d9d4a04989c95e9","bdp_trlrn","Mon Mar 13 2023 12:22:27 GMT-0500 (Central Daylight Time)","1075031","Trustworthy,Untrustworthy","html-keyboard-response","189","706050","0.0-19.0-3.16","","","null","","<div class='trialDiv'><img src='trustrating_stim/white_00761_941201_fb_edt.bmp'><br><font class='baseline'><strong>Michael</strong><p>Received: <strong>12</strong></font> &nbsp; &nbsp; &nbsp; &nbsp; &nbsp; &nbsp;<font class='negOutcome'>Shared back: <strong>0</strong></font></font><div class='respPicDiv'><img src='img/responseButtonOffersNo0_wht.png' class='respPic'></div></div>","null","6","Michael","3","Kept","0.2,0.65","9","0.2","trustrating_stim/white_00761_941201_fb_edt.bmp","5","121","17"
"","","","decision","636212999d9d4a04989c95e9","bdp_trlrn","Mon Mar 13 2023 12:22:27 GMT-0500 (Central Daylight Time)","1075031","Trustworthy,Untrustworthy","html-keyboard-response","190","709026","0.0-19.0-1.17","","","2974","","<div class='trialDiv'><img src='trustrating_stim/white_mw060.bmp'><br><font class='baseline'><strong>Jacob</strong><p>Choose number of points to send.</font><div class='respPicDiv'><img src='img/responseButtonOffersNo0L.png' class='respPic'></div></div>","3","6","Jacob","9","Kept","0.8,0.2","10","0.8","trustrating_stim/white_mw060.bmp","8.5","126","18"
"","","","decisionFB","636212999d9d4a04989c95e9","bdp_trlrn","Mon Mar 13 2023 12:22:27 GMT-0500 (Central Daylight Time)","1075031","Trustworthy,Untrustworthy","html-keyboard-response","191","709292","0.0-19.0-2.17","","","null","","<div class='trialDiv'><img src='trustrating_stim/white_mw060.bmp'><br><font class='baseline'><strong>Jacob</strong><p>Choose number of points to send.</font><div class='respPicDiv'><img src='img/responseButtonOffersNo0L3.png' class='respPic'></div></div>","null","6","Jacob","9","Kept","0.8,0.2","10","0.8","trustrating_stim/white_mw060.bmp","8.5","123","18"
"","","","feedback","636212999d9d4a04989c95e9","bdp_trlrn","Mon Mar 13 2023 12:22:27 GMT-0500 (Central Daylight Time)","1075031","Trustworthy,Untrustworthy","html-keyboard-response","192","710294","0.0-19.0-3.17","","","null","","<div class='trialDiv'><img src='trustrating_stim/white_mw060.bmp'><br><font class='baseline'><strong>Jacob</strong><p>Received: <strong>12</strong></font> &nbsp; &nbsp; &nbsp; &nbsp; &nbsp; &nbsp;<font class='negOutcome'>Shared back: <strong>0</strong></font></font><div class='respPicDiv'><img src='img/responseButtonOffersNo0_wht.png' class='respPic'></div></div>","null","6","Jacob","9","Kept","0.8,0.2","10","0.8","trustrating_stim/white_mw060.bmp","8.5","123","18"
"","","","decision","636212999d9d4a04989c95e9","bdp_trlrn","Mon Mar 13 2023 12:22:27 GMT-0500 (Central Daylight Time)","1075031","Trustworthy,Untrustworthy","html-keyboard-response","193","712311","0.0-19.0-1.18","","","2015","","<div class='trialDiv'><img src='trustrating_stim/white_00761_941201_fb_edt.bmp'><br><font class='baseline'><strong>Michael</strong><p>Choose number of points to send.</font><div class='respPicDiv'><img src='img/responseButtonOffersNo0L.png' class='respPic'></div></div>","2","7","Michael","3","Kept","0.2,0.65","9","0.2","trustrating_stim/white_00761_941201_fb_edt.bmp","5","128","19"
"","","","decisionFB","636212999d9d4a04989c95e9","bdp_trlrn","Mon Mar 13 2023 12:22:27 GMT-0500 (Central Daylight Time)","1075031","Trustworthy,Untrustworthy","html-keyboard-response","194","712569","0.0-19.0-2.18","","","null","","<div class='trialDiv'><img src='trustrating_stim/white_00761_941201_fb_edt.bmp'><br><font class='baseline'><strong>Michael</strong><p>Choose number of points to send.</font><div class='respPicDiv'><img src='img/responseButtonOffersNo0L2.png' class='respPic'></div></div>","null","7","Michael","3","Kept","0.2,0.65","9","0.2","trustrating_stim/white_00761_941201_fb_edt.bmp","5","126","19"
"","","","feedback","636212999d9d4a04989c95e9","bdp_trlrn","Mon Mar 13 2023 12:22:27 GMT-0500 (Central Daylight Time)","1075031","Trustworthy,Untrustworthy","html-keyboard-response","195","713572","0.0-19.0-3.18","","","null","","<div class='trialDiv'><img src='trustrating_stim/white_00761_941201_fb_edt.bmp'><br><font class='baseline'><strong>Michael</strong><p>Received: <strong>8</strong></font> &nbsp; &nbsp; &nbsp; &nbsp; &nbsp; &nbsp;<font class='negOutcome'>Shared back: <strong>0</strong></font></font><div class='respPicDiv'><img src='img/responseButtonOffersNo0_wht.png' class='respPic'></div></div>","null","7","Michael","3","Kept","0.2,0.65","9","0.2","trustrating_stim/white_00761_941201_fb_edt.bmp","5","126","19"
"","","","decision","636212999d9d4a04989c95e9","bdp_trlrn","Mon Mar 13 2023 12:22:27 GMT-0500 (Central Daylight Time)","1075031","Trustworthy,Untrustworthy","html-keyboard-response","196","713663","0.0-19.0-1.19","","","91","","<div class='trialDiv'><img src='trustrating_stim/white_mw089.bmp'><br><font class='baseline'><strong>Anthony</strong><p>Choose number of points to send.</font><div class='respPicDiv'><img src='img/responseButtonOffersNo0L.png' class='respPic'></div></div>","3","7","Anthony","4","Shared","0.8,0.35","9","0.8","trustrating_stim/white_mw089.bmp","7","131","20"
"","","","decisionFB","636212999d9d4a04989c95e9","bdp_trlrn","Mon Mar 13 2023 12:22:27 GMT-0500 (Central Daylight Time)","1075031","Trustworthy,Untrustworthy","html-keyboard-response","197","713921","0.0-19.0-2.19","","","null","","<div class='trialDiv'><img src='trustrating_stim/white_mw089.bmp'><br><font class='baseline'><strong>Anthony</strong><p>Choose number of points to send.</font><div class='respPicDiv'><img src='img/responseButtonOffersNo0L3.png' class='respPic'></div></div>","null","7","Anthony","4","Shared","0.8,0.35","9","0.8","trustrating_stim/white_mw089.bmp","7","128","20"
"","","","feedback","636212999d9d4a04989c95e9","bdp_trlrn","Mon Mar 13 2023 12:22:27 GMT-0500 (Central Daylight Time)","1075031","Trustworthy,Untrustworthy","html-keyboard-response","198","714924","0.0-19.0-3.19","","","null","","<div class='trialDiv'><img src='trustrating_stim/white_mw089.bmp'><br><font class='baseline'><strong>Anthony</strong><p>Received: <strong>12</strong></font> &nbsp; &nbsp; &nbsp; &nbsp; &nbsp; &nbsp;<font class='posOutcome'>Shared back: <strong>6</strong></font></font><div class='respPicDiv'><img src='img/responseButtonOffersNo0_wht.png' class='respPic'></div></div>","null","7","Anthony","4","Shared","0.8,0.35","9","0.8","trustrating_stim/white_mw089.bmp","7","134","20"
"","","","decision","636212999d9d4a04989c95e9","bdp_trlrn","Mon Mar 13 2023 12:22:27 GMT-0500 (Central Daylight Time)","1075031","Trustworthy,Untrustworthy","html-keyboard-response","199","715348","0.0-19.0-1.20","","","422","","<div class='trialDiv'><img src='trustrating_stim/white_mw060.bmp'><br><font class='baseline'><strong>Jacob</strong><p>Choose number of points to send.</font><div class='respPicDiv'><img src='img/responseButtonOffersNo0L.png' class='respPic'></div></div>","4","7","Jacob","9","Kept","0.8,0.2","10","0.8","trustrating_stim/white_mw060.bmp","8.5","139","21"
"","","","decisionFB","636212999d9d4a04989c95e9","bdp_trlrn","Mon Mar 13 2023 12:22:27 GMT-0500 (Central Daylight Time)","1075031","Trustworthy,Untrustworthy","html-keyboard-response","200","715610","0.0-19.0-2.20","","","null","","<div class='trialDiv'><img src='trustrating_stim/white_mw060.bmp'><br><font class='baseline'><strong>Jacob</strong><p>Choose number of points to send.</font><div class='respPicDiv'><img src='img/responseButtonOffersNo0L4.png' class='respPic'></div></div>","null","7","Jacob","9","Kept","0.8,0.2","10","0.8","trustrating_stim/white_mw060.bmp","8.5","135","21"
