"event","trial","time","trialtype","numBlurs","subject_id","task","startTime","totalTime","labels","trial_type","trial_index","time_elapsed","internal_node_id","view_history","rt","success","stimulus","key_press","aground","name","faceID","outcome","agenttype","agentswpt","agentcurrpshare","face","avgRating","point_total","round"
"blur","0","0","blurevent","1","62fd76d3f0824c29d4b1e6bd","bdp_trlrn","Wed Mar 15 2023 14:43:25 GMT-0400 (Eastern Daylight Time)","495467","Untrustworthy,Trustworthy","","","","","","","","","","","","","","","","","","","",""
"","","","","","62fd76d3f0824c29d4b1e6bd","bdp_trlrn","Wed Mar 15 2023 14:43:25 GMT-0400 (Eastern Daylight Time)","495467","Untrustworthy,Trustworthy","pavlovia","0","10","0.0-0.0","","","","","","","","","","","","","","","",""
"focus","1","744","focusevent","","62fd76d3f0824c29d4b1e6bd","bdp_trlrn","Wed Mar 15 2023 14:43:25 GMT-0400 (Eastern Daylight Time)","495467","Untrustworthy,Trustworthy","","","","","","","","","","","","","","","","","","","",""
"","","","","","62fd76d3f0824c29d4b1e6bd","bdp_trlrn","Wed Mar 15 2023 14:43:25 GMT-0400 (Eastern Daylight Time)","495467","Untrustworthy,Trustworthy","instructions","1","2907","0.0-1.0","[{""page_index"":0,""viewing_time"":2896}]","2896","","","","","","","","","","","","","",""
"fullscreenenter","2","7619","fullscreenenter","","62fd76d3f0824c29d4b1e6bd","bdp_trlrn","Wed Mar 15 2023 14:43:25 GMT-0400 (Eastern Daylight Time)","495467","Untrustworthy,Trustworthy","","","","","","","","","","","","","","","","","","","",""
"","","","","","62fd76d3f0824c29d4b1e6bd","bdp_trlrn","Wed Mar 15 2023 14:43:25 GMT-0400 (Eastern Daylight Time)","495467","Untrustworthy,Trustworthy","fullscreen","2","8571","0.0-2.0","","","true","","","","","","","","","","","","",""
"","","","","","62fd76d3f0824c29d4b1e6bd","bdp_trlrn","Wed Mar 15 2023 14:43:25 GMT-0400 (Eastern Daylight Time)","495467","Untrustworthy,Trustworthy","instructions","3","13216","0.0-4.0","[{""page_index"":0,""viewing_time"":3621},{""page_index"":1,""viewing_time"":1022}]","4643","","","","","","","","","","","","","",""
"","","","","","62fd76d3f0824c29d4b1e6bd","bdp_trlrn","Wed Mar 15 2023 14:43:25 GMT-0400 (Eastern Daylight Time)","495467","Untrustworthy,Trustworthy","instructions","4","13869","0.0-5.0","[{""page_index"":0,""viewing_time"":650}]","650","","","","","","","","","","","","","",""
"","","","rating","","62fd76d3f0824c29d4b1e6bd","bdp_trlrn","Wed Mar 15 2023 14:43:25 GMT-0400 (Eastern Daylight Time)","495467","Untrustworthy,Trustworthy","image-keyboard-response","5","16369","0.0-6.0-1.0","","2376","","trustrating_stim/white_mw035.bmp","7","","","","","","","","","","",""
"","","","ratingFB","","62fd76d3f0824c29d4b1e6bd","bdp_trlrn","Wed Mar 15 2023 14:43:25 GMT-0400 (Eastern Daylight Time)","495467","Untrustworthy,Trustworthy","image-keyboard-response","6","16582","0.0-6.0-2.0","","null","","trustrating_stim/white_mw035.bmp","null","","","","","","","","","","",""
"","","","rating","","62fd76d3f0824c29d4b1e6bd","bdp_trlrn","Wed Mar 15 2023 14:43:25 GMT-0400 (Eastern Daylight Time)","495467","Untrustworthy,Trustworthy","image-keyboard-response","7","17619","0.0-6.0-1.1","","919","","trustrating_stim/white_00898_960530_fa_edt.bmp","7","","","","","","","","","","",""
"","","","ratingFB","","62fd76d3f0824c29d4b1e6bd","bdp_trlrn","Wed Mar 15 2023 14:43:25 GMT-0400 (Eastern Daylight Time)","495467","Untrustworthy,Trustworthy","image-keyboard-response","8","17851","0.0-6.0-2.1","","null","","trustrating_stim/white_00898_960530_fa_edt.bmp","null","","","","","","","","","","",""
"","","","rating","","62fd76d3f0824c29d4b1e6bd","bdp_trlrn","Wed Mar 15 2023 14:43:25 GMT-0400 (Eastern Daylight Time)","495467","Untrustworthy,Trustworthy","image-keyboard-response","9","18632","0.0-6.0-1.2","","663","","trustrating_stim/white_00299_940422_fa_edt.bmp","7","","","","","","","","","","",""
"","","","ratingFB","","62fd76d3f0824c29d4b1e6bd","bdp_trlrn","Wed Mar 15 2023 14:43:25 GMT-0400 (Eastern Daylight Time)","495467","Untrustworthy,Trustworthy","image-keyboard-response","10","18853","0.0-6.0-2.2","","null","","trustrating_stim/white_00299_940422_fa_edt.bmp","null","","","","","","","","","","",""
"","","","rating","","62fd76d3f0824c29d4b1e6bd","bdp_trlrn","Wed Mar 15 2023 14:43:25 GMT-0400 (Eastern Daylight Time)","495467","Untrustworthy,Trustworthy","image-keyboard-response","11","20220","0.0-6.0-1.3","","1260","","trustrating_stim/white_00519_940519_fb_edt.bmp","7","","","","","","","","","","",""
"","","","ratingFB","","62fd76d3f0824c29d4b1e6bd","bdp_trlrn","Wed Mar 15 2023 14:43:25 GMT-0400 (Eastern Daylight Time)","495467","Untrustworthy,Trustworthy","image-keyboard-response","12","20431","0.0-6.0-2.3","","null","","trustrating_stim/white_00519_940519_fb_edt.bmp","null","","","","","","","","","","",""
"","","","rating","","62fd76d3f0824c29d4b1e6bd","bdp_trlrn","Wed Mar 15 2023 14:43:25 GMT-0400 (Eastern Daylight Time)","495467","Untrustworthy,Trustworthy","image-keyboard-response","13","21065","0.0-6.0-1.4","","521","","trustrating_stim/white_mw033.bmp","7","","","","","","","","","","",""
"","","","ratingFB","","62fd76d3f0824c29d4b1e6bd","bdp_trlrn","Wed Mar 15 2023 14:43:25 GMT-0400 (Eastern Daylight Time)","495467","Untrustworthy,Trustworthy","image-keyboard-response","14","21284","0.0-6.0-2.4","","null","","trustrating_stim/white_mw033.bmp","null","","","","","","","","","","",""
"","","","rating","","62fd76d3f0824c29d4b1e6bd","bdp_trlrn","Wed Mar 15 2023 14:43:25 GMT-0400 (Eastern Daylight Time)","495467","Untrustworthy,Trustworthy","image-keyboard-response","15","21906","0.0-6.0-1.5","","504","","trustrating_stim/white_00761_941201_fb_edt.bmp","7","","","","","","","","","","",""
"","","","ratingFB","","62fd76d3f0824c29d4b1e6bd","bdp_trlrn","Wed Mar 15 2023 14:43:25 GMT-0400 (Eastern Daylight Time)","495467","Untrustworthy,Trustworthy","image-keyboard-response","16","22128","0.0-6.0-2.5","","null","","trustrating_stim/white_00761_941201_fb_edt.bmp","null","","","","","","","","","","",""
"","","","rating","","62fd76d3f0824c29d4b1e6bd","bdp_trlrn","Wed Mar 15 2023 14:43:25 GMT-0400 (Eastern Daylight Time)","495467","Untrustworthy,Trustworthy","image-keyboard-response","17","22764","0.0-6.0-1.6","","530","","trustrating_stim/white_mw099.bmp","7","","","","","","","","","","",""
"","","","ratingFB","","62fd76d3f0824c29d4b1e6bd","bdp_trlrn","Wed Mar 15 2023 14:43:25 GMT-0400 (Eastern Daylight Time)","495467","Untrustworthy,Trustworthy","image-keyboard-response","18","22970","0.0-6.0-2.6","","null","","trustrating_stim/white_mw099.bmp","null","","","","","","","","","","",""
"","","","rating","","62fd76d3f0824c29d4b1e6bd","bdp_trlrn","Wed Mar 15 2023 14:43:25 GMT-0400 (Eastern Daylight Time)","495467","Untrustworthy,Trustworthy","image-keyboard-response","19","24011","0.0-6.0-1.7","","922","","trustrating_stim/white_00807_941205_fb_edt.bmp","7","","","","","","","","","","",""
"","","","ratingFB","","62fd76d3f0824c29d4b1e6bd","bdp_trlrn","Wed Mar 15 2023 14:43:25 GMT-0400 (Eastern Daylight Time)","495467","Untrustworthy,Trustworthy","image-keyboard-response","20","24218","0.0-6.0-2.7","","null","","trustrating_stim/white_00807_941205_fb_edt.bmp","null","","","","","","","","","","",""
"","","","rating","","62fd76d3f0824c29d4b1e6bd","bdp_trlrn","Wed Mar 15 2023 14:43:25 GMT-0400 (Eastern Daylight Time)","495467","Untrustworthy,Trustworthy","image-keyboard-response","21","24786","0.0-6.0-1.8","","449","","trustrating_stim/white_mw097.bmp","7","","","","","","","","","","",""
"","","","ratingFB","","62fd76d3f0824c29d4b1e6bd","bdp_trlrn","Wed Mar 15 2023 14:43:25 GMT-0400 (Eastern Daylight Time)","495467","Untrustworthy,Trustworthy","image-keyboard-response","22","25007","0.0-6.0-2.8","","null","","trustrating_stim/white_mw097.bmp","null","","","","","","","","","","",""
"","","","rating","","62fd76d3f0824c29d4b1e6bd","bdp_trlrn","Wed Mar 15 2023 14:43:25 GMT-0400 (Eastern Daylight Time)","495467","Untrustworthy,Trustworthy","image-keyboard-response","23","26224","0.0-6.0-1.9","","1099","","trustrating_stim/white_00109_931230_fa_edt.bmp","8","","","","","","","","","","",""
"","","","ratingFB","","62fd76d3f0824c29d4b1e6bd","bdp_trlrn","Wed Mar 15 2023 14:43:25 GMT-0400 (Eastern Daylight Time)","495467","Untrustworthy,Trustworthy","image-keyboard-response","24","26437","0.0-6.0-2.9","","null","","trustrating_stim/white_00109_931230_fa_edt.bmp","null","","","","","","","","","","",""
"","","","rating","","62fd76d3f0824c29d4b1e6bd","bdp_trlrn","Wed Mar 15 2023 14:43:25 GMT-0400 (Eastern Daylight Time)","495467","Untrustworthy,Trustworthy","image-keyboard-response","25","27146","0.0-6.0-1.10","","602","","trustrating_stim/white_00785_941205_fb_edt.bmp","7","","","","","","","","","","",""
"","","","ratingFB","","62fd76d3f0824c29d4b1e6bd","bdp_trlrn","Wed Mar 15 2023 14:43:25 GMT-0400 (Eastern Daylight Time)","495467","Untrustworthy,Trustworthy","image-keyboard-response","26","27365","0.0-6.0-2.10","","null","","trustrating_stim/white_00785_941205_fb_edt.bmp","null","","","","","","","","","","",""
"","","","rating","","62fd76d3f0824c29d4b1e6bd","bdp_trlrn","Wed Mar 15 2023 14:43:25 GMT-0400 (Eastern Daylight Time)","495467","Untrustworthy,Trustworthy","image-keyboard-response","27","28150","0.0-6.0-1.11","","666","","trustrating_stim/white_mw071.bmp","7","","","","","","","","","","",""
"","","","ratingFB","","62fd76d3f0824c29d4b1e6bd","bdp_trlrn","Wed Mar 15 2023 14:43:25 GMT-0400 (Eastern Daylight Time)","495467","Untrustworthy,Trustworthy","image-keyboard-response","28","28353","0.0-6.0-2.11","","null","","trustrating_stim/white_mw071.bmp","null","","","","","","","","","","",""
"","","","rating","","62fd76d3f0824c29d4b1e6bd","bdp_trlrn","Wed Mar 15 2023 14:43:25 GMT-0400 (Eastern Daylight Time)","495467","Untrustworthy,Trustworthy","image-keyboard-response","29","29099","0.0-6.0-1.12","","643","","trustrating_stim/white_mw046.bmp","7","","","","","","","","","","",""
"","","","ratingFB","","62fd76d3f0824c29d4b1e6bd","bdp_trlrn","Wed Mar 15 2023 14:43:25 GMT-0400 (Eastern Daylight Time)","495467","Untrustworthy,Trustworthy","image-keyboard-response","30","29311","0.0-6.0-2.12","","null","","trustrating_stim/white_mw046.bmp","null","","","","","","","","","","",""
"","","","rating","","62fd76d3f0824c29d4b1e6bd","bdp_trlrn","Wed Mar 15 2023 14:43:25 GMT-0400 (Eastern Daylight Time)","495467","Untrustworthy,Trustworthy","image-keyboard-response","31","29977","0.0-6.0-1.13","","560","","trustrating_stim/white_mw053.bmp","7","","","","","","","","","","",""
"","","","ratingFB","","62fd76d3f0824c29d4b1e6bd","bdp_trlrn","Wed Mar 15 2023 14:43:25 GMT-0400 (Eastern Daylight Time)","495467","Untrustworthy,Trustworthy","image-keyboard-response","32","30183","0.0-6.0-2.13","","null","","trustrating_stim/white_mw053.bmp","null","","","","","","","","","","",""
"","","","rating","","62fd76d3f0824c29d4b1e6bd","bdp_trlrn","Wed Mar 15 2023 14:43:25 GMT-0400 (Eastern Daylight Time)","495467","Untrustworthy,Trustworthy","image-keyboard-response","33","31953","0.0-6.0-1.14","","1664","","trustrating_stim/white_mw066.bmp","9","","","","","","","","","","",""
"","","","ratingFB","","62fd76d3f0824c29d4b1e6bd","bdp_trlrn","Wed Mar 15 2023 14:43:25 GMT-0400 (Eastern Daylight Time)","495467","Untrustworthy,Trustworthy","image-keyboard-response","34","32163","0.0-6.0-2.14","","null","","trustrating_stim/white_mw066.bmp","null","","","","","","","","","","",""
"","","","rating","","62fd76d3f0824c29d4b1e6bd","bdp_trlrn","Wed Mar 15 2023 14:43:25 GMT-0400 (Eastern Daylight Time)","495467","Untrustworthy,Trustworthy","image-keyboard-response","35","32914","0.0-6.0-1.15","","643","","trustrating_stim/white_mw084.bmp","7","","","","","","","","","","",""
"","","","ratingFB","","62fd76d3f0824c29d4b1e6bd","bdp_trlrn","Wed Mar 15 2023 14:43:25 GMT-0400 (Eastern Daylight Time)","495467","Untrustworthy,Trustworthy","image-keyboard-response","36","33117","0.0-6.0-2.15","","null","","trustrating_stim/white_mw084.bmp","null","","","","","","","","","","",""
"","","","rating","","62fd76d3f0824c29d4b1e6bd","bdp_trlrn","Wed Mar 15 2023 14:43:25 GMT-0400 (Eastern Daylight Time)","495467","Untrustworthy,Trustworthy","image-keyboard-response","37","34657","0.0-6.0-1.16","","1430","","trustrating_stim/white_00129_931230_fb_edt.bmp","8","","","","","","","","","","",""
"","","","ratingFB","","62fd76d3f0824c29d4b1e6bd","bdp_trlrn","Wed Mar 15 2023 14:43:25 GMT-0400 (Eastern Daylight Time)","495467","Untrustworthy,Trustworthy","image-keyboard-response","38","34867","0.0-6.0-2.16","","null","","trustrating_stim/white_00129_931230_fb_edt.bmp","null","","","","","","","","","","",""
"","","","rating","","62fd76d3f0824c29d4b1e6bd","bdp_trlrn","Wed Mar 15 2023 14:43:25 GMT-0400 (Eastern Daylight Time)","495467","Untrustworthy,Trustworthy","image-keyboard-response","39","35411","0.0-6.0-1.17","","434","","trustrating_stim/white_mw063.bmp","7","","","","","","","","","","",""
"","","","ratingFB","","62fd76d3f0824c29d4b1e6bd","bdp_trlrn","Wed Mar 15 2023 14:43:25 GMT-0400 (Eastern Daylight Time)","495467","Untrustworthy,Trustworthy","image-keyboard-response","40","35630","0.0-6.0-2.17","","null","","trustrating_stim/white_mw063.bmp","null","","","","","","","","","","",""
"","","","rating","","62fd76d3f0824c29d4b1e6bd","bdp_trlrn","Wed Mar 15 2023 14:43:25 GMT-0400 (Eastern Daylight Time)","495467","Untrustworthy,Trustworthy","image-keyboard-response","41","36210","0.0-6.0-1.18","","478","","trustrating_stim/white_00120_931230_fa_edt.bmp","7","","","","","","","","","","",""
"","","","ratingFB","","62fd76d3f0824c29d4b1e6bd","bdp_trlrn","Wed Mar 15 2023 14:43:25 GMT-0400 (Eastern Daylight Time)","495467","Untrustworthy,Trustworthy","image-keyboard-response","42","36413","0.0-6.0-2.18","","null","","trustrating_stim/white_00120_931230_fa_edt.bmp","null","","","","","","","","","","",""
"","","","rating","","62fd76d3f0824c29d4b1e6bd","bdp_trlrn","Wed Mar 15 2023 14:43:25 GMT-0400 (Eastern Daylight Time)","495467","Untrustworthy,Trustworthy","image-keyboard-response","43","37236","0.0-6.0-1.19","","712","","trustrating_stim/white_mw049.bmp","9","","","","","","","","","","",""
"","","","ratingFB","","62fd76d3f0824c29d4b1e6bd","bdp_trlrn","Wed Mar 15 2023 14:43:25 GMT-0400 (Eastern Daylight Time)","495467","Untrustworthy,Trustworthy","image-keyboard-response","44","37445","0.0-6.0-2.19","","null","","trustrating_stim/white_mw049.bmp","null","","","","","","","","","","",""
"","","","rating","","62fd76d3f0824c29d4b1e6bd","bdp_trlrn","Wed Mar 15 2023 14:43:25 GMT-0400 (Eastern Daylight Time)","495467","Untrustworthy,Trustworthy","image-keyboard-response","45","37905","0.0-6.0-1.20","","357","","trustrating_stim/white_00223_940128_fb_edt.bmp","7","","","","","","","","","","",""
"","","","ratingFB","","62fd76d3f0824c29d4b1e6bd","bdp_trlrn","Wed Mar 15 2023 14:43:25 GMT-0400 (Eastern Daylight Time)","495467","Untrustworthy,Trustworthy","image-keyboard-response","46","38114","0.0-6.0-2.20","","null","","trustrating_stim/white_00223_940128_fb_edt.bmp","null","","","","","","","","","","",""
"","","","rating","","62fd76d3f0824c29d4b1e6bd","bdp_trlrn","Wed Mar 15 2023 14:43:25 GMT-0400 (Eastern Daylight Time)","495467","Untrustworthy,Trustworthy","image-keyboard-response","47","38764","0.0-6.0-1.21","","540","","trustrating_stim/white_mw056.bmp","7","","","","","","","","","","",""
"","","","ratingFB","","62fd76d3f0824c29d4b1e6bd","bdp_trlrn","Wed Mar 15 2023 14:43:25 GMT-0400 (Eastern Daylight Time)","495467","Untrustworthy,Trustworthy","image-keyboard-response","48","38970","0.0-6.0-2.21","","null","","trustrating_stim/white_mw056.bmp","null","","","","","","","","","","",""
"","","","rating","","62fd76d3f0824c29d4b1e6bd","bdp_trlrn","Wed Mar 15 2023 14:43:25 GMT-0400 (Eastern Daylight Time)","495467","Untrustworthy,Trustworthy","image-keyboard-response","49","39568","0.0-6.0-1.22","","486","","trustrating_stim/white_mw048.bmp","7","","","","","","","","","","",""
"","","","ratingFB","","62fd76d3f0824c29d4b1e6bd","bdp_trlrn","Wed Mar 15 2023 14:43:25 GMT-0400 (Eastern Daylight Time)","495467","Untrustworthy,Trustworthy","image-keyboard-response","50","39770","0.0-6.0-2.22","","null","","trustrating_stim/white_mw048.bmp","null","","","","","","","","","","",""
"","","","rating","","62fd76d3f0824c29d4b1e6bd","bdp_trlrn","Wed Mar 15 2023 14:43:25 GMT-0400 (Eastern Daylight Time)","495467","Untrustworthy,Trustworthy","image-keyboard-response","51","40350","0.0-6.0-1.23","","469","","trustrating_stim/white_00340_940422_fa_edt.bmp","9","","","","","","","","","","",""
"","","","ratingFB","","62fd76d3f0824c29d4b1e6bd","bdp_trlrn","Wed Mar 15 2023 14:43:25 GMT-0400 (Eastern Daylight Time)","495467","Untrustworthy,Trustworthy","image-keyboard-response","52","40556","0.0-6.0-2.23","","null","","trustrating_stim/white_00340_940422_fa_edt.bmp","null","","","","","","","","","","",""
"","","","rating","","62fd76d3f0824c29d4b1e6bd","bdp_trlrn","Wed Mar 15 2023 14:43:25 GMT-0400 (Eastern Daylight Time)","495467","Untrustworthy,Trustworthy","image-keyboard-response","53","41050","0.0-6.0-1.24","","389","","trustrating_stim/white_00602_940928_fb_edt.bmp","7","","","","","","","","","","",""
"","","","ratingFB","","62fd76d3f0824c29d4b1e6bd","bdp_trlrn","Wed Mar 15 2023 14:43:25 GMT-0400 (Eastern Daylight Time)","495467","Untrustworthy,Trustworthy","image-keyboard-response","54","41261","0.0-6.0-2.24","","null","","trustrating_stim/white_00602_940928_fb_edt.bmp","null","","","","","","","","","","",""
"","","","rating","","62fd76d3f0824c29d4b1e6bd","bdp_trlrn","Wed Mar 15 2023 14:43:25 GMT-0400 (Eastern Daylight Time)","495467","Untrustworthy,Trustworthy","image-keyboard-response","55","41768","0.0-6.0-1.25","","398","","trustrating_stim/white_00659_941121_fa_edt.bmp","8","","","","","","","","","","",""
"","","","ratingFB","","62fd76d3f0824c29d4b1e6bd","bdp_trlrn","Wed Mar 15 2023 14:43:25 GMT-0400 (Eastern Daylight Time)","495467","Untrustworthy,Trustworthy","image-keyboard-response","56","41973","0.0-6.0-2.25","","null","","trustrating_stim/white_00659_941121_fa_edt.bmp","null","","","","","","","","","","",""
"","","","rating","","62fd76d3f0824c29d4b1e6bd","bdp_trlrn","Wed Mar 15 2023 14:43:25 GMT-0400 (Eastern Daylight Time)","495467","Untrustworthy,Trustworthy","image-keyboard-response","57","43167","0.0-6.0-1.26","","1085","","trustrating_stim/white_mw089.bmp","7","","","","","","","","","","",""
"","","","ratingFB","","62fd76d3f0824c29d4b1e6bd","bdp_trlrn","Wed Mar 15 2023 14:43:25 GMT-0400 (Eastern Daylight Time)","495467","Untrustworthy,Trustworthy","image-keyboard-response","58","43376","0.0-6.0-2.26","","null","","trustrating_stim/white_mw089.bmp","null","","","","","","","","","","",""
"","","","rating","","62fd76d3f0824c29d4b1e6bd","bdp_trlrn","Wed Mar 15 2023 14:43:25 GMT-0400 (Eastern Daylight Time)","495467","Untrustworthy,Trustworthy","image-keyboard-response","59","44278","0.0-6.0-1.27","","799","","trustrating_stim/white_mw060.bmp","7","","","","","","","","","","",""
"","","","ratingFB","","62fd76d3f0824c29d4b1e6bd","bdp_trlrn","Wed Mar 15 2023 14:43:25 GMT-0400 (Eastern Daylight Time)","495467","Untrustworthy,Trustworthy","image-keyboard-response","60","44482","0.0-6.0-2.27","","null","","trustrating_stim/white_mw060.bmp","null","","","","","","","","","","",""
"","","","rating","","62fd76d3f0824c29d4b1e6bd","bdp_trlrn","Wed Mar 15 2023 14:43:25 GMT-0400 (Eastern Daylight Time)","495467","Untrustworthy,Trustworthy","image-keyboard-response","61","45465","0.0-6.0-1.28","","873","","trustrating_stim/white_00577_940928_fa_edt.bmp","7","","","","","","","","","","",""
"","","","ratingFB","","62fd76d3f0824c29d4b1e6bd","bdp_trlrn","Wed Mar 15 2023 14:43:25 GMT-0400 (Eastern Daylight Time)","495467","Untrustworthy,Trustworthy","image-keyboard-response","62","45678","0.0-6.0-2.28","","null","","trustrating_stim/white_00577_940928_fa_edt.bmp","null","","","","","","","","","","",""
"","","","rating","","62fd76d3f0824c29d4b1e6bd","bdp_trlrn","Wed Mar 15 2023 14:43:25 GMT-0400 (Eastern Daylight Time)","495467","Untrustworthy,Trustworthy","image-keyboard-response","63","46937","0.0-6.0-1.29","","1149","","trustrating_stim/white_00757_941201_fa_edt.bmp","9","","","","","","","","","","",""
"","","","ratingFB","","62fd76d3f0824c29d4b1e6bd","bdp_trlrn","Wed Mar 15 2023 14:43:25 GMT-0400 (Eastern Daylight Time)","495467","Untrustworthy,Trustworthy","image-keyboard-response","64","47140","0.0-6.0-2.29","","null","","trustrating_stim/white_00757_941201_fa_edt.bmp","null","","","","","","","","","","",""
"","","","rating","","62fd76d3f0824c29d4b1e6bd","bdp_trlrn","Wed Mar 15 2023 14:43:25 GMT-0400 (Eastern Daylight Time)","495467","Untrustworthy,Trustworthy","image-keyboard-response","65","48041","0.0-6.0-1.30","","789","","trustrating_stim/white_mw066.bmp","7","","","","","","","","","","",""
"","","","ratingFB","","62fd76d3f0824c29d4b1e6bd","bdp_trlrn","Wed Mar 15 2023 14:43:25 GMT-0400 (Eastern Daylight Time)","495467","Untrustworthy,Trustworthy","image-keyboard-response","66","48248","0.0-6.0-2.30","","null","","trustrating_stim/white_mw066.bmp","null","","","","","","","","","","",""
"","","","rating","","62fd76d3f0824c29d4b1e6bd","bdp_trlrn","Wed Mar 15 2023 14:43:25 GMT-0400 (Eastern Daylight Time)","495467","Untrustworthy,Trustworthy","image-keyboard-response","67","49064","0.0-6.0-1.31","","706","","trustrating_stim/white_mw033.bmp","7","","","","","","","","","","",""
"","","","ratingFB","","62fd76d3f0824c29d4b1e6bd","bdp_trlrn","Wed Mar 15 2023 14:43:25 GMT-0400 (Eastern Daylight Time)","495467","Untrustworthy,Trustworthy","image-keyboard-response","68","49273","0.0-6.0-2.31","","null","","trustrating_stim/white_mw033.bmp","null","","","","","","","","","","",""
"","","","rating","","62fd76d3f0824c29d4b1e6bd","bdp_trlrn","Wed Mar 15 2023 14:43:25 GMT-0400 (Eastern Daylight Time)","495467","Untrustworthy,Trustworthy","image-keyboard-response","69","50123","0.0-6.0-1.32","","737","","trustrating_stim/white_00898_960530_fa_edt.bmp","9","","","","","","","","","","",""
"","","","ratingFB","","62fd76d3f0824c29d4b1e6bd","bdp_trlrn","Wed Mar 15 2023 14:43:25 GMT-0400 (Eastern Daylight Time)","495467","Untrustworthy,Trustworthy","image-keyboard-response","70","50325","0.0-6.0-2.32","","null","","trustrating_stim/white_00898_960530_fa_edt.bmp","null","","","","","","","","","","",""
"","","","rating","","62fd76d3f0824c29d4b1e6bd","bdp_trlrn","Wed Mar 15 2023 14:43:25 GMT-0400 (Eastern Daylight Time)","495467","Untrustworthy,Trustworthy","image-keyboard-response","71","51159","0.0-6.0-1.33","","727","","trustrating_stim/white_00807_941205_fb_edt.bmp","8","","","","","","","","","","",""
"","","","ratingFB","","62fd76d3f0824c29d4b1e6bd","bdp_trlrn","Wed Mar 15 2023 14:43:25 GMT-0400 (Eastern Daylight Time)","495467","Untrustworthy,Trustworthy","image-keyboard-response","72","51362","0.0-6.0-2.33","","null","","trustrating_stim/white_00807_941205_fb_edt.bmp","null","","","","","","","","","","",""
"","","","rating","","62fd76d3f0824c29d4b1e6bd","bdp_trlrn","Wed Mar 15 2023 14:43:25 GMT-0400 (Eastern Daylight Time)","495467","Untrustworthy,Trustworthy","image-keyboard-response","73","52059","0.0-6.0-1.34","","593","","trustrating_stim/white_00340_940422_fa_edt.bmp","7","","","","","","","","","","",""
"","","","ratingFB","","62fd76d3f0824c29d4b1e6bd","bdp_trlrn","Wed Mar 15 2023 14:43:25 GMT-0400 (Eastern Daylight Time)","495467","Untrustworthy,Trustworthy","image-keyboard-response","74","52267","0.0-6.0-2.34","","null","","trustrating_stim/white_00340_940422_fa_edt.bmp","null","","","","","","","","","","",""
"","","","rating","","62fd76d3f0824c29d4b1e6bd","bdp_trlrn","Wed Mar 15 2023 14:43:25 GMT-0400 (Eastern Daylight Time)","495467","Untrustworthy,Trustworthy","image-keyboard-response","75","53010","0.0-6.0-1.35","","632","","trustrating_stim/white_00757_941201_fa_edt.bmp","7","","","","","","","","","","",""
"","","","ratingFB","","62fd76d3f0824c29d4b1e6bd","bdp_trlrn","Wed Mar 15 2023 14:43:25 GMT-0400 (Eastern Daylight Time)","495467","Untrustworthy,Trustworthy","image-keyboard-response","76","53218","0.0-6.0-2.35","","null","","trustrating_stim/white_00757_941201_fa_edt.bmp","null","","","","","","","","","","",""
"","","","rating","","62fd76d3f0824c29d4b1e6bd","bdp_trlrn","Wed Mar 15 2023 14:43:25 GMT-0400 (Eastern Daylight Time)","495467","Untrustworthy,Trustworthy","image-keyboard-response","77","54245","0.0-6.0-1.36","","917","","trustrating_stim/white_mw049.bmp","7","","","","","","","","","","",""
"","","","ratingFB","","62fd76d3f0824c29d4b1e6bd","bdp_trlrn","Wed Mar 15 2023 14:43:25 GMT-0400 (Eastern Daylight Time)","495467","Untrustworthy,Trustworthy","image-keyboard-response","78","54453","0.0-6.0-2.36","","null","","trustrating_stim/white_mw049.bmp","null","","","","","","","","","","",""
"","","","rating","","62fd76d3f0824c29d4b1e6bd","bdp_trlrn","Wed Mar 15 2023 14:43:25 GMT-0400 (Eastern Daylight Time)","495467","Untrustworthy,Trustworthy","image-keyboard-response","79","56005","0.0-6.0-1.37","","1440","","trustrating_stim/white_mw056.bmp","6","","","","","","","","","","",""
"","","","ratingFB","","62fd76d3f0824c29d4b1e6bd","bdp_trlrn","Wed Mar 15 2023 14:43:25 GMT-0400 (Eastern Daylight Time)","495467","Untrustworthy,Trustworthy","image-keyboard-response","80","56215","0.0-6.0-2.37","","null","","trustrating_stim/white_mw056.bmp","null","","","","","","","","","","",""
"","","","rating","","62fd76d3f0824c29d4b1e6bd","bdp_trlrn","Wed Mar 15 2023 14:43:25 GMT-0400 (Eastern Daylight Time)","495467","Untrustworthy,Trustworthy","image-keyboard-response","81","57005","0.0-6.0-1.38","","687","","trustrating_stim/white_mw060.bmp","8","","","","","","","","","","",""
"","","","ratingFB","","62fd76d3f0824c29d4b1e6bd","bdp_trlrn","Wed Mar 15 2023 14:43:25 GMT-0400 (Eastern Daylight Time)","495467","Untrustworthy,Trustworthy","image-keyboard-response","82","57214","0.0-6.0-2.38","","null","","trustrating_stim/white_mw060.bmp","null","","","","","","","","","","",""
"","","","rating","","62fd76d3f0824c29d4b1e6bd","bdp_trlrn","Wed Mar 15 2023 14:43:25 GMT-0400 (Eastern Daylight Time)","495467","Untrustworthy,Trustworthy","image-keyboard-response","83","58752","0.0-6.0-1.39","","1428","","trustrating_stim/white_mw097.bmp","6","","","","","","","","","","",""
"","","","ratingFB","","62fd76d3f0824c29d4b1e6bd","bdp_trlrn","Wed Mar 15 2023 14:43:25 GMT-0400 (Eastern Daylight Time)","495467","Untrustworthy,Trustworthy","image-keyboard-response","84","58955","0.0-6.0-2.39","","null","","trustrating_stim/white_mw097.bmp","null","","","","","","","","","","",""
"","","","rating","","62fd76d3f0824c29d4b1e6bd","bdp_trlrn","Wed Mar 15 2023 14:43:25 GMT-0400 (Eastern Daylight Time)","495467","Untrustworthy,Trustworthy","image-keyboard-response","85","59534","0.0-6.0-1.40","","468","","trustrating_stim/white_00120_931230_fa_edt.bmp","7","","","","","","","","","","",""
"","","","ratingFB","","62fd76d3f0824c29d4b1e6bd","bdp_trlrn","Wed Mar 15 2023 14:43:25 GMT-0400 (Eastern Daylight Time)","495467","Untrustworthy,Trustworthy","image-keyboard-response","86","59738","0.0-6.0-2.40","","null","","trustrating_stim/white_00120_931230_fa_edt.bmp","null","","","","","","","","","","",""
"","","","rating","","62fd76d3f0824c29d4b1e6bd","bdp_trlrn","Wed Mar 15 2023 14:43:25 GMT-0400 (Eastern Daylight Time)","495467","Untrustworthy,Trustworthy","image-keyboard-response","87","60349","0.0-6.0-1.41","","508","","trustrating_stim/white_00109_931230_fa_edt.bmp","8","","","","","","","","","","",""
"","","","ratingFB","","62fd76d3f0824c29d4b1e6bd","bdp_trlrn","Wed Mar 15 2023 14:43:25 GMT-0400 (Eastern Daylight Time)","495467","Untrustworthy,Trustworthy","image-keyboard-response","88","60558","0.0-6.0-2.41","","null","","trustrating_stim/white_00109_931230_fa_edt.bmp","null","","","","","","","","","","",""
"","","","rating","","62fd76d3f0824c29d4b1e6bd","bdp_trlrn","Wed Mar 15 2023 14:43:25 GMT-0400 (Eastern Daylight Time)","495467","Untrustworthy,Trustworthy","image-keyboard-response","89","61870","0.0-6.0-1.42","","1208","","trustrating_stim/white_00785_941205_fb_edt.bmp","6","","","","","","","","","","",""
"","","","ratingFB","","62fd76d3f0824c29d4b1e6bd","bdp_trlrn","Wed Mar 15 2023 14:43:25 GMT-0400 (Eastern Daylight Time)","495467","Untrustworthy,Trustworthy","image-keyboard-response","90","62077","0.0-6.0-2.42","","null","","trustrating_stim/white_00785_941205_fb_edt.bmp","null","","","","","","","","","","",""
"","","","rating","","62fd76d3f0824c29d4b1e6bd","bdp_trlrn","Wed Mar 15 2023 14:43:25 GMT-0400 (Eastern Daylight Time)","495467","Untrustworthy,Trustworthy","image-keyboard-response","91","62852","0.0-6.0-1.43","","657","","trustrating_stim/white_mw035.bmp","7","","","","","","","","","","",""
"","","","ratingFB","","62fd76d3f0824c29d4b1e6bd","bdp_trlrn","Wed Mar 15 2023 14:43:25 GMT-0400 (Eastern Daylight Time)","495467","Untrustworthy,Trustworthy","image-keyboard-response","92","63057","0.0-6.0-2.43","","null","","trustrating_stim/white_mw035.bmp","null","","","","","","","","","","",""
"","","","rating","","62fd76d3f0824c29d4b1e6bd","bdp_trlrn","Wed Mar 15 2023 14:43:25 GMT-0400 (Eastern Daylight Time)","495467","Untrustworthy,Trustworthy","image-keyboard-response","93","64752","0.0-6.0-1.44","","1591","","trustrating_stim/white_00659_941121_fa_edt.bmp","8","","","","","","","","","","",""
"","","","ratingFB","","62fd76d3f0824c29d4b1e6bd","bdp_trlrn","Wed Mar 15 2023 14:43:25 GMT-0400 (Eastern Daylight Time)","495467","Untrustworthy,Trustworthy","image-keyboard-response","94","64954","0.0-6.0-2.44","","null","","trustrating_stim/white_00659_941121_fa_edt.bmp","null","","","","","","","","","","",""
"","","","rating","","62fd76d3f0824c29d4b1e6bd","bdp_trlrn","Wed Mar 15 2023 14:43:25 GMT-0400 (Eastern Daylight Time)","495467","Untrustworthy,Trustworthy","image-keyboard-response","95","65877","0.0-6.0-1.45","","814","","trustrating_stim/white_mw084.bmp","7","","","","","","","","","","",""
"","","","ratingFB","","62fd76d3f0824c29d4b1e6bd","bdp_trlrn","Wed Mar 15 2023 14:43:25 GMT-0400 (Eastern Daylight Time)","495467","Untrustworthy,Trustworthy","image-keyboard-response","96","66092","0.0-6.0-2.45","","null","","trustrating_stim/white_mw084.bmp","null","","","","","","","","","","",""
"","","","rating","","62fd76d3f0824c29d4b1e6bd","bdp_trlrn","Wed Mar 15 2023 14:43:25 GMT-0400 (Eastern Daylight Time)","495467","Untrustworthy,Trustworthy","image-keyboard-response","97","68011","0.0-6.0-1.46","","1813","","trustrating_stim/white_00129_931230_fb_edt.bmp","9","","","","","","","","","","",""
"","","","ratingFB","","62fd76d3f0824c29d4b1e6bd","bdp_trlrn","Wed Mar 15 2023 14:43:25 GMT-0400 (Eastern Daylight Time)","495467","Untrustworthy,Trustworthy","image-keyboard-response","98","68227","0.0-6.0-2.46","","null","","trustrating_stim/white_00129_931230_fb_edt.bmp","null","","","","","","","","","","",""
"","","","rating","","62fd76d3f0824c29d4b1e6bd","bdp_trlrn","Wed Mar 15 2023 14:43:25 GMT-0400 (Eastern Daylight Time)","495467","Untrustworthy,Trustworthy","image-keyboard-response","99","69855","0.0-6.0-1.47","","1514","","trustrating_stim/white_00577_940928_fa_edt.bmp","6","","","","","","","","","","",""
"","","","ratingFB","","62fd76d3f0824c29d4b1e6bd","bdp_trlrn","Wed Mar 15 2023 14:43:25 GMT-0400 (Eastern Daylight Time)","495467","Untrustworthy,Trustworthy","image-keyboard-response","100","70062","0.0-6.0-2.47","","null","","trustrating_stim/white_00577_940928_fa_edt.bmp","null","","","","","","","","","","",""
"","","","rating","","62fd76d3f0824c29d4b1e6bd","bdp_trlrn","Wed Mar 15 2023 14:43:25 GMT-0400 (Eastern Daylight Time)","495467","Untrustworthy,Trustworthy","image-keyboard-response","101","70858","0.0-6.0-1.48","","691","","trustrating_stim/white_00602_940928_fb_edt.bmp","7","","","","","","","","","","",""
"","","","ratingFB","","62fd76d3f0824c29d4b1e6bd","bdp_trlrn","Wed Mar 15 2023 14:43:25 GMT-0400 (Eastern Daylight Time)","495467","Untrustworthy,Trustworthy","image-keyboard-response","102","71062","0.0-6.0-2.48","","null","","trustrating_stim/white_00602_940928_fb_edt.bmp","null","","","","","","","","","","",""
"","","","rating","","62fd76d3f0824c29d4b1e6bd","bdp_trlrn","Wed Mar 15 2023 14:43:25 GMT-0400 (Eastern Daylight Time)","495467","Untrustworthy,Trustworthy","image-keyboard-response","103","72037","0.0-6.0-1.49","","856","","trustrating_stim/white_mw063.bmp","8","","","","","","","","","","",""
"","","","ratingFB","","62fd76d3f0824c29d4b1e6bd","bdp_trlrn","Wed Mar 15 2023 14:43:25 GMT-0400 (Eastern Daylight Time)","495467","Untrustworthy,Trustworthy","image-keyboard-response","104","72241","0.0-6.0-2.49","","null","","trustrating_stim/white_mw063.bmp","null","","","","","","","","","","",""
"","","","rating","","62fd76d3f0824c29d4b1e6bd","bdp_trlrn","Wed Mar 15 2023 14:43:25 GMT-0400 (Eastern Daylight Time)","495467","Untrustworthy,Trustworthy","image-keyboard-response","105","73530","0.0-6.0-1.50","","1185","","trustrating_stim/white_mw071.bmp","7","","","","","","","","","","",""
"","","","ratingFB","","62fd76d3f0824c29d4b1e6bd","bdp_trlrn","Wed Mar 15 2023 14:43:25 GMT-0400 (Eastern Daylight Time)","495467","Untrustworthy,Trustworthy","image-keyboard-response","106","73742","0.0-6.0-2.50","","null","","trustrating_stim/white_mw071.bmp","null","","","","","","","","","","",""
"","","","rating","","62fd76d3f0824c29d4b1e6bd","bdp_trlrn","Wed Mar 15 2023 14:43:25 GMT-0400 (Eastern Daylight Time)","495467","Untrustworthy,Trustworthy","image-keyboard-response","107","74881","0.0-6.0-1.51","","1026","","trustrating_stim/white_mw053.bmp","8","","","","","","","","","","",""
"","","","ratingFB","","62fd76d3f0824c29d4b1e6bd","bdp_trlrn","Wed Mar 15 2023 14:43:25 GMT-0400 (Eastern Daylight Time)","495467","Untrustworthy,Trustworthy","image-keyboard-response","108","75088","0.0-6.0-2.51","","null","","trustrating_stim/white_mw053.bmp","null","","","","","","","","","","",""
"","","","rating","","62fd76d3f0824c29d4b1e6bd","bdp_trlrn","Wed Mar 15 2023 14:43:25 GMT-0400 (Eastern Daylight Time)","495467","Untrustworthy,Trustworthy","image-keyboard-response","109","76320","0.0-6.0-1.52","","1123","","trustrating_stim/white_00519_940519_fb_edt.bmp","9","","","","","","","","","","",""
"","","","ratingFB","","62fd76d3f0824c29d4b1e6bd","bdp_trlrn","Wed Mar 15 2023 14:43:25 GMT-0400 (Eastern Daylight Time)","495467","Untrustworthy,Trustworthy","image-keyboard-response","110","76530","0.0-6.0-2.52","","null","","trustrating_stim/white_00519_940519_fb_edt.bmp","null","","","","","","","","","","",""
"","","","rating","","62fd76d3f0824c29d4b1e6bd","bdp_trlrn","Wed Mar 15 2023 14:43:25 GMT-0400 (Eastern Daylight Time)","495467","Untrustworthy,Trustworthy","image-keyboard-response","111","78191","0.0-6.0-1.53","","1549","","trustrating_stim/white_mw089.bmp","7","","","","","","","","","","",""
"","","","ratingFB","","62fd76d3f0824c29d4b1e6bd","bdp_trlrn","Wed Mar 15 2023 14:43:25 GMT-0400 (Eastern Daylight Time)","495467","Untrustworthy,Trustworthy","image-keyboard-response","112","78399","0.0-6.0-2.53","","null","","trustrating_stim/white_mw089.bmp","null","","","","","","","","","","",""
"","","","rating","","62fd76d3f0824c29d4b1e6bd","bdp_trlrn","Wed Mar 15 2023 14:43:25 GMT-0400 (Eastern Daylight Time)","495467","Untrustworthy,Trustworthy","image-keyboard-response","113","79741","0.0-6.0-1.54","","1232","","trustrating_stim/white_00223_940128_fb_edt.bmp","6","","","","","","","","","","",""
"","","","ratingFB","","62fd76d3f0824c29d4b1e6bd","bdp_trlrn","Wed Mar 15 2023 14:43:25 GMT-0400 (Eastern Daylight Time)","495467","Untrustworthy,Trustworthy","image-keyboard-response","114","79945","0.0-6.0-2.54","","null","","trustrating_stim/white_00223_940128_fb_edt.bmp","null","","","","","","","","","","",""
"","","","rating","","62fd76d3f0824c29d4b1e6bd","bdp_trlrn","Wed Mar 15 2023 14:43:25 GMT-0400 (Eastern Daylight Time)","495467","Untrustworthy,Trustworthy","image-keyboard-response","115","82261","0.0-6.0-1.55","","2210","","trustrating_stim/white_00299_940422_fa_edt.bmp","6","","","","","","","","","","",""
"","","","ratingFB","","62fd76d3f0824c29d4b1e6bd","bdp_trlrn","Wed Mar 15 2023 14:43:25 GMT-0400 (Eastern Daylight Time)","495467","Untrustworthy,Trustworthy","image-keyboard-response","116","82473","0.0-6.0-2.55","","null","","trustrating_stim/white_00299_940422_fa_edt.bmp","null","","","","","","","","","","",""
"","","","rating","","62fd76d3f0824c29d4b1e6bd","bdp_trlrn","Wed Mar 15 2023 14:43:25 GMT-0400 (Eastern Daylight Time)","495467","Untrustworthy,Trustworthy","image-keyboard-response","117","83921","0.0-6.0-1.56","","1340","","trustrating_stim/white_mw099.bmp","7","","","","","","","","","","",""
"","","","ratingFB","","62fd76d3f0824c29d4b1e6bd","bdp_trlrn","Wed Mar 15 2023 14:43:25 GMT-0400 (Eastern Daylight Time)","495467","Untrustworthy,Trustworthy","image-keyboard-response","118","84132","0.0-6.0-2.56","","null","","trustrating_stim/white_mw099.bmp","null","","","","","","","","","","",""
"","","","rating","","62fd76d3f0824c29d4b1e6bd","bdp_trlrn","Wed Mar 15 2023 14:43:25 GMT-0400 (Eastern Daylight Time)","495467","Untrustworthy,Trustworthy","image-keyboard-response","119","85327","0.0-6.0-1.57","","1083","","trustrating_stim/white_mw046.bmp","6","","","","","","","","","","",""
"","","","ratingFB","","62fd76d3f0824c29d4b1e6bd","bdp_trlrn","Wed Mar 15 2023 14:43:25 GMT-0400 (Eastern Daylight Time)","495467","Untrustworthy,Trustworthy","image-keyboard-response","120","85535","0.0-6.0-2.57","","null","","trustrating_stim/white_mw046.bmp","null","","","","","","","","","","",""
"","","","rating","","62fd76d3f0824c29d4b1e6bd","bdp_trlrn","Wed Mar 15 2023 14:43:25 GMT-0400 (Eastern Daylight Time)","495467","Untrustworthy,Trustworthy","image-keyboard-response","121","86732","0.0-6.0-1.58","","1093","","trustrating_stim/white_00761_941201_fb_edt.bmp","8","","","","","","","","","","",""
"","","","ratingFB","","62fd76d3f0824c29d4b1e6bd","bdp_trlrn","Wed Mar 15 2023 14:43:25 GMT-0400 (Eastern Daylight Time)","495467","Untrustworthy,Trustworthy","image-keyboard-response","122","86935","0.0-6.0-2.58","","null","","trustrating_stim/white_00761_941201_fb_edt.bmp","null","","","","","","","","","","",""
"","","","rating","","62fd76d3f0824c29d4b1e6bd","bdp_trlrn","Wed Mar 15 2023 14:43:25 GMT-0400 (Eastern Daylight Time)","495467","Untrustworthy,Trustworthy","image-keyboard-response","123","88982","0.0-6.0-1.59","","1936","","trustrating_stim/white_mw048.bmp","6","","","","","","","","","","",""
"","","","ratingFB","","62fd76d3f0824c29d4b1e6bd","bdp_trlrn","Wed Mar 15 2023 14:43:25 GMT-0400 (Eastern Daylight Time)","495467","Untrustworthy,Trustworthy","image-keyboard-response","124","89187","0.0-6.0-2.59","","null","","trustrating_stim/white_mw048.bmp","null","","","","","","","","","","",""
"","","","","","62fd76d3f0824c29d4b1e6bd","bdp_trlrn","Wed Mar 15 2023 14:43:25 GMT-0400 (Eastern Daylight Time)","495467","Untrustworthy,Trustworthy","instructions","125","90647","0.0-7.0","[{""page_index"":0,""viewing_time"":1351}]","1351","","","","","","","","","","","","","",""
"","","","","","62fd76d3f0824c29d4b1e6bd","bdp_trlrn","Wed Mar 15 2023 14:43:25 GMT-0400 (Eastern Daylight Time)","495467","Untrustworthy,Trustworthy","instructions","126","151104","0.0-8.0","[{""page_index"":0,""viewing_time"":12497},{""page_index"":1,""viewing_time"":7797},{""page_index"":2,""viewing_time"":6539},{""page_index"":3,""viewing_time"":5903},{""page_index"":4,""viewing_time"":1642},{""page_index"":5,""viewing_time"":8851},{""page_index"":6,""viewing_time"":15929},{""page_index"":7,""viewing_time"":1195}]","60353","","","","","","","","","","","","","",""
"","","","","","62fd76d3f0824c29d4b1e6bd","bdp_trlrn","Wed Mar 15 2023 14:43:25 GMT-0400 (Eastern Daylight Time)","495467","Untrustworthy,Trustworthy","html-keyboard-response","127","158029","0.0-9.0","","6922","","<div class='header' style='text-align:left; position: absolute; top: 5%; left: 5%;'><small>Task 3 of 5</small></div><div class='instruxDiv'><p><strong>1) What is the minimum number of points you can choose to send to your partner?</strong></p><p>a) 0</p><p>b) 1</p><p>c) 5</p>","A","","","","","","","","","","",""
"","","","","","62fd76d3f0824c29d4b1e6bd","bdp_trlrn","Wed Mar 15 2023 14:43:25 GMT-0400 (Eastern Daylight Time)","495467","Untrustworthy,Trustworthy","html-keyboard-response","128","160483","0.0-10.0","","2349","","<div class='header' style='text-align:left; position: absolute; top: 5%; left: 5%;'><small>Task 3 of 5</small></div><div class='instruxDiv'><p><strong>1) What is the minimum number of points you can choose to send to your partner?</strong></p><p style='color:#FF0000'>a) 0</p><p>b) 1</p><p>c) 5</p><h3 style='color:#FF0000'>Incorrect!</h3><h3 class='center-content'>The correct response is b).</h3><h3 class='center-content'>The minimum number of points you can choose to send to your partner is 1 point.</h3><p><em>Press SPACEBAR to continue</em></p></div>"," ","","","","","","","","","","",""
"","","","","","62fd76d3f0824c29d4b1e6bd","bdp_trlrn","Wed Mar 15 2023 14:43:25 GMT-0400 (Eastern Daylight Time)","495467","Untrustworthy,Trustworthy","html-keyboard-response","129","163066","0.0-11.0","","2478","","<div class='header' style='text-align:left; position: absolute; top: 5%; left: 5%;'><small>Task 3 of 5</small></div><div class='instruxDiv'><p><strong>2) What is the maximum number of points you can choose to send to your partner?</strong></p><p>a) 8</p><p>b) 5</p><p>c) 3</p>","B","","","","","","","","","","",""
"","","","","","62fd76d3f0824c29d4b1e6bd","bdp_trlrn","Wed Mar 15 2023 14:43:25 GMT-0400 (Eastern Daylight Time)","495467","Untrustworthy,Trustworthy","html-keyboard-response","130","164064","0.0-12.0","","893","","<div class='header' style='text-align:left; position: absolute; top: 5%; left: 5%;'><small>Task 3 of 5</small></div><div class='instruxDiv'><p><strong>2) What is the maximum number of points you can choose to send to your partner?</strong></p><p>a) 8</p><p style='color:#00FF00'>b) 5</p><p>c) 3</p><h3 style='color:#00FF00'>Correct!</h3><h3 class='center-content'>The correct response is b).</h3><h3 class='center-content'>The maximum number of points you can choose to send to your partner is 5 points.</h3><p><em>Press SPACEBAR to continue</em></p></div>"," ","","","","","","","","","","",""
"","","","","","62fd76d3f0824c29d4b1e6bd","bdp_trlrn","Wed Mar 15 2023 14:43:25 GMT-0400 (Eastern Daylight Time)","495467","Untrustworthy,Trustworthy","html-keyboard-response","131","168548","0.0-13.0","","4382","","<div class='header' style='text-align:left; position: absolute; top: 5%; left: 5%;'><small>Task 3 of 5</small></div><div class='instruxDiv'><p><strong>3) What happens to the amount of points you send to your partner?</strong></p><p>a) Nothing</p><p>b) It doubles</p><p>c) It quadruples</p>","B","","","","","","","","","","",""
"","","","","","62fd76d3f0824c29d4b1e6bd","bdp_trlrn","Wed Mar 15 2023 14:43:25 GMT-0400 (Eastern Daylight Time)","495467","Untrustworthy,Trustworthy","html-keyboard-response","132","170987","0.0-14.0","","2329","","<div class='header' style='text-align:left; position: absolute; top: 5%; left: 5%;'><small>Task 3 of 5</small></div><div class='instruxDiv'><p><strong>3) What happens to the amount of points you send to your partner?</strong></p><p>a) Nothing</p><p style='color:#FF0000'>b) It doubles</p><p>c) It quadruples</p><h3 style='color:#FF0000'>Incorrect!</h3><h3 class='center-content'>The correct response is c).</h3><h3 class='center-content'>The amount of points you send to your partner quadruples.</h3><p><em>Press SPACEBAR to continue</em></p></div>"," ","","","","","","","","","","",""
"","","","","","62fd76d3f0824c29d4b1e6bd","bdp_trlrn","Wed Mar 15 2023 14:43:25 GMT-0400 (Eastern Daylight Time)","495467","Untrustworthy,Trustworthy","html-keyboard-response","133","184957","0.0-15.0","","13854","","<div class='header' style='text-align:left; position: absolute; top: 5%; left: 5%;'><small>Task 3 of 5</small></div><div class='instruxDiv'><p><strong>4) If you decided to share 4 out of 5 points with your partner, and they decided to share half of the amount they received with you, how many points would you receive back from them on this round?</strong></p><p>a) 16</p><p>b) 0</p><p>c) 8</p>","C","","","","","","","","","","",""
"","","","","","62fd76d3f0824c29d4b1e6bd","bdp_trlrn","Wed Mar 15 2023 14:43:25 GMT-0400 (Eastern Daylight Time)","495467","Untrustworthy,Trustworthy","html-keyboard-response","134","185788","0.0-16.0","","726","","<div class='header' style='text-align:left; position: absolute; top: 5%; left: 5%;'><small>Task 3 of 5</small></div><div class='instruxDiv'><p><strong>4) If you decided to share 4 out of 5 points with your partner, and they decided to share half of the amount they received with you, how many points would you receive back from them on this round?</strong></p><p>a) 16</p><p>b) 0</p><p style='color:#00FF00'>c) 8</p><h3 style='color:#00FF00'>Correct!</h3><h3 class='center-content'>The correct response is c).</h3><h3 class='center-content'>If you shared 4 out of 5 points with your partner and they decided to share half of the amount they received with you, you would receive 8 points back (i.e. (4 x 4)/2 = 8).</h3><p><em>Press SPACEBAR to continue</em></p></div>"," ","","","","","","","","","","",""
"","","","","","62fd76d3f0824c29d4b1e6bd","bdp_trlrn","Wed Mar 15 2023 14:43:25 GMT-0400 (Eastern Daylight Time)","495467","Untrustworthy,Trustworthy","html-keyboard-response","135","190901","0.0-17.0","","null","","<div class='header' style='text-align:left; position: absolute; top: 5%; left: 5%;'><small>Task 3 of 5</small></div><div class='instruxDiv'><p>Thank you for completing the quiz<p>These are the actual partners you will be interacting with in the next block:<p><div class='tc' align='center'><img class='introPic' src='trustrating_stim/white_mw056.bmp'><br><strong>Sebastian</strong></div><div class='bl' align='center'><img class='introPic' src='trustrating_stim/white_mw099.bmp'><br><strong>Michael</strong></div><div class='br' align='center'><img class='introPic' src='trustrating_stim/white_mw066.bmp'><br><strong>Benjamin</strong></div></div><p>Across <strong>66 rounds</strong> you will interact with each partner <strong>22 times</strong> (in random order).<p style='align:center; color:white'><font <em>Press SPACEBAR to continue</em></p>","null","","","","","","","","","","",""
"","","","","","62fd76d3f0824c29d4b1e6bd","bdp_trlrn","Wed Mar 15 2023 14:43:25 GMT-0400 (Eastern Daylight Time)","495467","Untrustworthy,Trustworthy","instructions","136","193532","0.0-18.0","[{""page_index"":0,""viewing_time"":256},{""page_index"":1,""viewing_time"":2374}]","2630","","","","","","","","","","","","","",""
"","","","decision","","62fd76d3f0824c29d4b1e6bd","bdp_trlrn","Wed Mar 15 2023 14:43:25 GMT-0400 (Eastern Daylight Time)","495467","Untrustworthy,Trustworthy","html-keyboard-response","137","196477","0.0-19.0-1.0","","2840","","<div class='trialDiv'><img src='trustrating_stim/white_mw099.bmp'><br><font class='baseline'><strong>Michael</strong><p>Choose number of points to send.</font><div class='respPicDiv'><img src='img/responseButtonOffersNo0L.png' class='respPic'></div></div>","4","1","Michael","6","Kept","0.35,0.8","9","0.35","trustrating_stim/white_mw099.bmp","7","5","1"
"","","","decisionFB","","62fd76d3f0824c29d4b1e6bd","bdp_trlrn","Wed Mar 15 2023 14:43:25 GMT-0400 (Eastern Daylight Time)","495467","Untrustworthy,Trustworthy","html-keyboard-response","138","196734","0.0-19.0-2.0","","null","","<div class='trialDiv'><img src='trustrating_stim/white_mw099.bmp'><br><font class='baseline'><strong>Michael</strong><p>Choose number of points to send.</font><div class='respPicDiv'><img src='img/responseButtonOffersNo0L4.png' class='respPic'></div></div>","null","1","Michael","6","Kept","0.35,0.8","9","0.35","trustrating_stim/white_mw099.bmp","7","1","1"
"","","","feedback","","62fd76d3f0824c29d4b1e6bd","bdp_trlrn","Wed Mar 15 2023 14:43:25 GMT-0400 (Eastern Daylight Time)","495467","Untrustworthy,Trustworthy","html-keyboard-response","139","197738","0.0-19.0-3.0","","null","","<div class='trialDiv'><img src='trustrating_stim/white_mw099.bmp'><br><font class='baseline'><strong>Michael</strong><p>Received: <strong>16</strong></font> &nbsp; &nbsp; &nbsp; &nbsp; &nbsp; &nbsp;<font class='negOutcome'>Shared back: <strong>0</strong></font></font><div class='respPicDiv'><img src='img/responseButtonOffersNo0_wht.png' class='respPic'></div></div>","null","1","Michael","6","Kept","0.35,0.8","9","0.35","trustrating_stim/white_mw099.bmp","7","1","1"
"","","","decision","","62fd76d3f0824c29d4b1e6bd","bdp_trlrn","Wed Mar 15 2023 14:43:25 GMT-0400 (Eastern Daylight Time)","495467","Untrustworthy,Trustworthy","html-keyboard-response","140","199214","0.0-19.0-1.1","","1474","","<div class='trialDiv'><img src='trustrating_stim/white_mw066.bmp'><br><font class='baseline'><strong>Benjamin</strong><p>Choose number of points to send.</font><div class='respPicDiv'><img src='img/responseButtonOffersNo0L.png' class='respPic'></div></div>","4","1","Benjamin","9","Shared","0.35,0.65","9","0.35","trustrating_stim/white_mw066.bmp","8","6","2"
"","","","decisionFB","","62fd76d3f0824c29d4b1e6bd","bdp_trlrn","Wed Mar 15 2023 14:43:25 GMT-0400 (Eastern Daylight Time)","495467","Untrustworthy,Trustworthy","html-keyboard-response","141","199472","0.0-19.0-2.1","","null","","<div class='trialDiv'><img src='trustrating_stim/white_mw066.bmp'><br><font class='baseline'><strong>Benjamin</strong><p>Choose number of points to send.</font><div class='respPicDiv'><img src='img/responseButtonOffersNo0L4.png' class='respPic'></div></div>","null","1","Benjamin","9","Shared","0.35,0.65","9","0.35","trustrating_stim/white_mw066.bmp","8","2","2"
"","","","feedback","","62fd76d3f0824c29d4b1e6bd","bdp_trlrn","Wed Mar 15 2023 14:43:25 GMT-0400 (Eastern Daylight Time)","495467","Untrustworthy,Trustworthy","html-keyboard-response","142","200479","0.0-19.0-3.1","","null","","<div class='trialDiv'><img src='trustrating_stim/white_mw066.bmp'><br><font class='baseline'><strong>Benjamin</strong><p>Received: <strong>16</strong></font> &nbsp; &nbsp; &nbsp; &nbsp; &nbsp; &nbsp;<font class='posOutcome'>Shared back: <strong>8</strong></font></font><div class='respPicDiv'><img src='img/responseButtonOffersNo0_wht.png' class='respPic'></div></div>","null","1","Benjamin","9","Shared","0.35,0.65","9","0.35","trustrating_stim/white_mw066.bmp","8","10","2"
"","","","decision","","62fd76d3f0824c29d4b1e6bd","bdp_trlrn","Wed Mar 15 2023 14:43:25 GMT-0400 (Eastern Daylight Time)","495467","Untrustworthy,Trustworthy","html-keyboard-response","143","201609","0.0-19.0-1.2","","1128","","<div class='trialDiv'><img src='trustrating_stim/white_mw056.bmp'><br><font class='baseline'><strong>Sebastian</strong><p>Choose number of points to send.</font><div class='respPicDiv'><img src='img/responseButtonOffersNo0L.png' class='respPic'></div></div>","2","1","Sebastian","1","Shared","0.8,0.35","11","0.8","trustrating_stim/white_mw056.bmp","6.5","15","3"
"","","","decisionFB","","62fd76d3f0824c29d4b1e6bd","bdp_trlrn","Wed Mar 15 2023 14:43:25 GMT-0400 (Eastern Daylight Time)","495467","Untrustworthy,Trustworthy","html-keyboard-response","144","201865","0.0-19.0-2.2","","null","","<div class='trialDiv'><img src='trustrating_stim/white_mw056.bmp'><br><font class='baseline'><strong>Sebastian</strong><p>Choose number of points to send.</font><div class='respPicDiv'><img src='img/responseButtonOffersNo0L2.png' class='respPic'></div></div>","null","1","Sebastian","1","Shared","0.8,0.35","11","0.8","trustrating_stim/white_mw056.bmp","6.5","13","3"
"","","","feedback","","62fd76d3f0824c29d4b1e6bd","bdp_trlrn","Wed Mar 15 2023 14:43:25 GMT-0400 (Eastern Daylight Time)","495467","Untrustworthy,Trustworthy","html-keyboard-response","145","202870","0.0-19.0-3.2","","null","","<div class='trialDiv'><img src='trustrating_stim/white_mw056.bmp'><br><font class='baseline'><strong>Sebastian</strong><p>Received: <strong>8</strong></font> &nbsp; &nbsp; &nbsp; &nbsp; &nbsp; &nbsp;<font class='posOutcome'>Shared back: <strong>4</strong></font></font><div class='respPicDiv'><img src='img/responseButtonOffersNo0_wht.png' class='respPic'></div></div>","null","1","Sebastian","1","Shared","0.8,0.35","11","0.8","trustrating_stim/white_mw056.bmp","6.5","17","3"
"","","","decision","","62fd76d3f0824c29d4b1e6bd","bdp_trlrn","Wed Mar 15 2023 14:43:25 GMT-0400 (Eastern Daylight Time)","495467","Untrustworthy,Trustworthy","html-keyboard-response","146","204317","0.0-19.0-1.3","","1445","","<div class='trialDiv'><img src='trustrating_stim/white_mw066.bmp'><br><font class='baseline'><strong>Benjamin</strong><p>Choose number of points to send.</font><div class='respPicDiv'><img src='img/responseButtonOffersNo0L.png' class='respPic'></div></div>","1","2","Benjamin","9","Shared","0.35,0.65","9","0.35","trustrating_stim/white_mw066.bmp","8","22","4"
"","","","decisionFB","","62fd76d3f0824c29d4b1e6bd","bdp_trlrn","Wed Mar 15 2023 14:43:25 GMT-0400 (Eastern Daylight Time)","495467","Untrustworthy,Trustworthy","html-keyboard-response","147","204574","0.0-19.0-2.3","","null","","<div class='trialDiv'><img src='trustrating_stim/white_mw066.bmp'><br><font class='baseline'><strong>Benjamin</strong><p>Choose number of points to send.</font><div class='respPicDiv'><img src='img/responseButtonOffersNo0L1.png' class='respPic'></div></div>","null","2","Benjamin","9","Shared","0.35,0.65","9","0.35","trustrating_stim/white_mw066.bmp","8","21","4"
"","","","feedback","","62fd76d3f0824c29d4b1e6bd","bdp_trlrn","Wed Mar 15 2023 14:43:25 GMT-0400 (Eastern Daylight Time)","495467","Untrustworthy,Trustworthy","html-keyboard-response","148","205577","0.0-19.0-3.3","","null","","<div class='trialDiv'><img src='trustrating_stim/white_mw066.bmp'><br><font class='baseline'><strong>Benjamin</strong><p>Received: <strong>4</strong></font> &nbsp; &nbsp; &nbsp; &nbsp; &nbsp; &nbsp;<font class='posOutcome'>Shared back: <strong>2</strong></font></font><div class='respPicDiv'><img src='img/responseButtonOffersNo0_wht.png' class='respPic'></div></div>","null","2","Benjamin","9","Shared","0.35,0.65","9","0.35","trustrating_stim/white_mw066.bmp","8","23","4"
"","","","decision","","62fd76d3f0824c29d4b1e6bd","bdp_trlrn","Wed Mar 15 2023 14:43:25 GMT-0400 (Eastern Daylight Time)","495467","Untrustworthy,Trustworthy","html-keyboard-response","149","206502","0.0-19.0-1.4","","924","","<div class='trialDiv'><img src='trustrating_stim/white_mw099.bmp'><br><font class='baseline'><strong>Michael</strong><p>Choose number of points to send.</font><div class='respPicDiv'><img src='img/responseButtonOffersNo0L.png' class='respPic'></div></div>","4","2","Michael","6","Kept","0.35,0.8","9","0.35","trustrating_stim/white_mw099.bmp","7","28","5"
"","","","decisionFB","","62fd76d3f0824c29d4b1e6bd","bdp_trlrn","Wed Mar 15 2023 14:43:25 GMT-0400 (Eastern Daylight Time)","495467","Untrustworthy,Trustworthy","html-keyboard-response","150","206759","0.0-19.0-2.4","","null","","<div class='trialDiv'><img src='trustrating_stim/white_mw099.bmp'><br><font class='baseline'><strong>Michael</strong><p>Choose number of points to send.</font><div class='respPicDiv'><img src='img/responseButtonOffersNo0L4.png' class='respPic'></div></div>","null","2","Michael","6","Kept","0.35,0.8","9","0.35","trustrating_stim/white_mw099.bmp","7","24","5"
"","","","feedback","","62fd76d3f0824c29d4b1e6bd","bdp_trlrn","Wed Mar 15 2023 14:43:25 GMT-0400 (Eastern Daylight Time)","495467","Untrustworthy,Trustworthy","html-keyboard-response","151","207770","0.0-19.0-3.4","","null","","<div class='trialDiv'><img src='trustrating_stim/white_mw099.bmp'><br><font class='baseline'><strong>Michael</strong><p>Received: <strong>16</strong></font> &nbsp; &nbsp; &nbsp; &nbsp; &nbsp; &nbsp;<font class='negOutcome'>Shared back: <strong>0</strong></font></font><div class='respPicDiv'><img src='img/responseButtonOffersNo0_wht.png' class='respPic'></div></div>","null","2","Michael","6","Kept","0.35,0.8","9","0.35","trustrating_stim/white_mw099.bmp","7","24","5"
"","","","decision","","62fd76d3f0824c29d4b1e6bd","bdp_trlrn","Wed Mar 15 2023 14:43:25 GMT-0400 (Eastern Daylight Time)","495467","Untrustworthy,Trustworthy","html-keyboard-response","152","209491","0.0-19.0-1.5","","1719","","<div class='trialDiv'><img src='trustrating_stim/white_mw056.bmp'><br><font class='baseline'><strong>Sebastian</strong><p>Choose number of points to send.</font><div class='respPicDiv'><img src='img/responseButtonOffersNo0L.png' class='respPic'></div></div>","4","2","Sebastian","1","Shared","0.8,0.35","11","0.8","trustrating_stim/white_mw056.bmp","6.5","29","6"
"","","","decisionFB","","62fd76d3f0824c29d4b1e6bd","bdp_trlrn","Wed Mar 15 2023 14:43:25 GMT-0400 (Eastern Daylight Time)","495467","Untrustworthy,Trustworthy","html-keyboard-response","153","209751","0.0-19.0-2.5","","null","","<div class='trialDiv'><img src='trustrating_stim/white_mw056.bmp'><br><font class='baseline'><strong>Sebastian</strong><p>Choose number of points to send.</font><div class='respPicDiv'><img src='img/responseButtonOffersNo0L4.png' class='respPic'></div></div>","null","2","Sebastian","1","Shared","0.8,0.35","11","0.8","trustrating_stim/white_mw056.bmp","6.5","25","6"
"","","","feedback","","62fd76d3f0824c29d4b1e6bd","bdp_trlrn","Wed Mar 15 2023 14:43:25 GMT-0400 (Eastern Daylight Time)","495467","Untrustworthy,Trustworthy","html-keyboard-response","154","210764","0.0-19.0-3.5","","null","","<div class='trialDiv'><img src='trustrating_stim/white_mw056.bmp'><br><font class='baseline'><strong>Sebastian</strong><p>Received: <strong>16</strong></font> &nbsp; &nbsp; &nbsp; &nbsp; &nbsp; &nbsp;<font class='posOutcome'>Shared back: <strong>8</strong></font></font><div class='respPicDiv'><img src='img/responseButtonOffersNo0_wht.png' class='respPic'></div></div>","null","2","Sebastian","1","Shared","0.8,0.35","11","0.8","trustrating_stim/white_mw056.bmp","6.5","33","6"
"","","","decision","","62fd76d3f0824c29d4b1e6bd","bdp_trlrn","Wed Mar 15 2023 14:43:25 GMT-0400 (Eastern Daylight Time)","495467","Untrustworthy,Trustworthy","html-keyboard-response","155","212706","0.0-19.0-1.6","","1941","","<div class='trialDiv'><img src='trustrating_stim/white_mw066.bmp'><br><font class='baseline'><strong>Benjamin</strong><p>Choose number of points to send.</font><div class='respPicDiv'><img src='img/responseButtonOffersNo0L.png' class='respPic'></div></div>","4","3","Benjamin","9","Kept","0.35,0.65","9","0.35","trustrating_stim/white_mw066.bmp","8","38","7"
"","","","decisionFB","","62fd76d3f0824c29d4b1e6bd","bdp_trlrn","Wed Mar 15 2023 14:43:25 GMT-0400 (Eastern Daylight Time)","495467","Untrustworthy,Trustworthy","html-keyboard-response","156","212959","0.0-19.0-2.6","","null","","<div class='trialDiv'><img src='trustrating_stim/white_mw066.bmp'><br><font class='baseline'><strong>Benjamin</strong><p>Choose number of points to send.</font><div class='respPicDiv'><img src='img/responseButtonOffersNo0L4.png' class='respPic'></div></div>","null","3","Benjamin","9","Kept","0.35,0.65","9","0.35","trustrating_stim/white_mw066.bmp","8","34","7"
"","","","feedback","","62fd76d3f0824c29d4b1e6bd","bdp_trlrn","Wed Mar 15 2023 14:43:25 GMT-0400 (Eastern Daylight Time)","495467","Untrustworthy,Trustworthy","html-keyboard-response","157","213961","0.0-19.0-3.6","","null","","<div class='trialDiv'><img src='trustrating_stim/white_mw066.bmp'><br><font class='baseline'><strong>Benjamin</strong><p>Received: <strong>16</strong></font> &nbsp; &nbsp; &nbsp; &nbsp; &nbsp; &nbsp;<font class='negOutcome'>Shared back: <strong>0</strong></font></font><div class='respPicDiv'><img src='img/responseButtonOffersNo0_wht.png' class='respPic'></div></div>","null","3","Benjamin","9","Kept","0.35,0.65","9","0.35","trustrating_stim/white_mw066.bmp","8","34","7"
"","","","decision","","62fd76d3f0824c29d4b1e6bd","bdp_trlrn","Wed Mar 15 2023 14:43:25 GMT-0400 (Eastern Daylight Time)","495467","Untrustworthy,Trustworthy","html-keyboard-response","158","215381","0.0-19.0-1.7","","1418","","<div class='trialDiv'><img src='trustrating_stim/white_mw099.bmp'><br><font class='baseline'><strong>Michael</strong><p>Choose number of points to send.</font><div class='respPicDiv'><img src='img/responseButtonOffersNo0L.png' class='respPic'></div></div>","2","3","Michael","6","Kept","0.35,0.8","9","0.35","trustrating_stim/white_mw099.bmp","7","39","8"
"","","","decisionFB","","62fd76d3f0824c29d4b1e6bd","bdp_trlrn","Wed Mar 15 2023 14:43:25 GMT-0400 (Eastern Daylight Time)","495467","Untrustworthy,Trustworthy","html-keyboard-response","159","215636","0.0-19.0-2.7","","null","","<div class='trialDiv'><img src='trustrating_stim/white_mw099.bmp'><br><font class='baseline'><strong>Michael</strong><p>Choose number of points to send.</font><div class='respPicDiv'><img src='img/responseButtonOffersNo0L2.png' class='respPic'></div></div>","null","3","Michael","6","Kept","0.35,0.8","9","0.35","trustrating_stim/white_mw099.bmp","7","37","8"
"","","","feedback","","62fd76d3f0824c29d4b1e6bd","bdp_trlrn","Wed Mar 15 2023 14:43:25 GMT-0400 (Eastern Daylight Time)","495467","Untrustworthy,Trustworthy","html-keyboard-response","160","216641","0.0-19.0-3.7","","null","","<div class='trialDiv'><img src='trustrating_stim/white_mw099.bmp'><br><font class='baseline'><strong>Michael</strong><p>Received: <strong>8</strong></font> &nbsp; &nbsp; &nbsp; &nbsp; &nbsp; &nbsp;<font class='negOutcome'>Shared back: <strong>0</strong></font></font><div class='respPicDiv'><img src='img/responseButtonOffersNo0_wht.png' class='respPic'></div></div>","null","3","Michael","6","Kept","0.35,0.8","9","0.35","trustrating_stim/white_mw099.bmp","7","37","8"
"","","","decision","","62fd76d3f0824c29d4b1e6bd","bdp_trlrn","Wed Mar 15 2023 14:43:25 GMT-0400 (Eastern Daylight Time)","495467","Untrustworthy,Trustworthy","html-keyboard-response","161","217976","0.0-19.0-1.8","","1332","","<div class='trialDiv'><img src='trustrating_stim/white_mw056.bmp'><br><font class='baseline'><strong>Sebastian</strong><p>Choose number of points to send.</font><div class='respPicDiv'><img src='img/responseButtonOffersNo0L.png' class='respPic'></div></div>","4","3","Sebastian","1","Shared","0.8,0.35","11","0.8","trustrating_stim/white_mw056.bmp","6.5","42","9"
"","","","decisionFB","","62fd76d3f0824c29d4b1e6bd","bdp_trlrn","Wed Mar 15 2023 14:43:25 GMT-0400 (Eastern Daylight Time)","495467","Untrustworthy,Trustworthy","html-keyboard-response","162","218241","0.0-19.0-2.8","","null","","<div class='trialDiv'><img src='trustrating_stim/white_mw056.bmp'><br><font class='baseline'><strong>Sebastian</strong><p>Choose number of points to send.</font><div class='respPicDiv'><img src='img/responseButtonOffersNo0L4.png' class='respPic'></div></div>","null","3","Sebastian","1","Shared","0.8,0.35","11","0.8","trustrating_stim/white_mw056.bmp","6.5","38","9"
"","","","feedback","","62fd76d3f0824c29d4b1e6bd","bdp_trlrn","Wed Mar 15 2023 14:43:25 GMT-0400 (Eastern Daylight Time)","495467","Untrustworthy,Trustworthy","html-keyboard-response","163","219247","0.0-19.0-3.8","","null","","<div class='trialDiv'><img src='trustrating_stim/white_mw056.bmp'><br><font class='baseline'><strong>Sebastian</strong><p>Received: <strong>16</strong></font> &nbsp; &nbsp; &nbsp; &nbsp; &nbsp; &nbsp;<font class='posOutcome'>Shared back: <strong>8</strong></font></font><div class='respPicDiv'><img src='img/responseButtonOffersNo0_wht.png' class='respPic'></div></div>","null","3","Sebastian","1","Shared","0.8,0.35","11","0.8","trustrating_stim/white_mw056.bmp","6.5","46","9"
"","","","decision","","62fd76d3f0824c29d4b1e6bd","bdp_trlrn","Wed Mar 15 2023 14:43:25 GMT-0400 (Eastern Daylight Time)","495467","Untrustworthy,Trustworthy","html-keyboard-response","164","220681","0.0-19.0-1.9","","1431","","<div class='trialDiv'><img src='trustrating_stim/white_mw066.bmp'><br><font class='baseline'><strong>Benjamin</strong><p>Choose number of points to send.</font><div class='respPicDiv'><img src='img/responseButtonOffersNo0L.png' class='respPic'></div></div>","1","4","Benjamin","9","Kept","0.35,0.65","9","0.35","trustrating_stim/white_mw066.bmp","8","51","10"
"","","","decisionFB","","62fd76d3f0824c29d4b1e6bd","bdp_trlrn","Wed Mar 15 2023 14:43:25 GMT-0400 (Eastern Daylight Time)","495467","Untrustworthy,Trustworthy","html-keyboard-response","165","220942","0.0-19.0-2.9","","null","","<div class='trialDiv'><img src='trustrating_stim/white_mw066.bmp'><br><font class='baseline'><strong>Benjamin</strong><p>Choose number of points to send.</font><div class='respPicDiv'><img src='img/responseButtonOffersNo0L1.png' class='respPic'></div></div>","null","4","Benjamin","9","Kept","0.35,0.65","9","0.35","trustrating_stim/white_mw066.bmp","8","50","10"
"","","","feedback","","62fd76d3f0824c29d4b1e6bd","bdp_trlrn","Wed Mar 15 2023 14:43:25 GMT-0400 (Eastern Daylight Time)","495467","Untrustworthy,Trustworthy","html-keyboard-response","166","221946","0.0-19.0-3.9","","null","","<div class='trialDiv'><img src='trustrating_stim/white_mw066.bmp'><br><font class='baseline'><strong>Benjamin</strong><p>Received: <strong>4</strong></font> &nbsp; &nbsp; &nbsp; &nbsp; &nbsp; &nbsp;<font class='negOutcome'>Shared back: <strong>0</strong></font></font><div class='respPicDiv'><img src='img/responseButtonOffersNo0_wht.png' class='respPic'></div></div>","null","4","Benjamin","9","Kept","0.35,0.65","9","0.35","trustrating_stim/white_mw066.bmp","8","50","10"
"","","","decision","","62fd76d3f0824c29d4b1e6bd","bdp_trlrn","Wed Mar 15 2023 14:43:25 GMT-0400 (Eastern Daylight Time)","495467","Untrustworthy,Trustworthy","html-keyboard-response","167","222808","0.0-19.0-1.10","","860","","<div class='trialDiv'><img src='trustrating_stim/white_mw056.bmp'><br><font class='baseline'><strong>Sebastian</strong><p>Choose number of points to send.</font><div class='respPicDiv'><img src='img/responseButtonOffersNo0L.png' class='respPic'></div></div>","4","4","Sebastian","1","Kept","0.8,0.35","11","0.8","trustrating_stim/white_mw056.bmp","6.5","55","11"
"","","","decisionFB","","62fd76d3f0824c29d4b1e6bd","bdp_trlrn","Wed Mar 15 2023 14:43:25 GMT-0400 (Eastern Daylight Time)","495467","Untrustworthy,Trustworthy","html-keyboard-response","168","223071","0.0-19.0-2.10","","null","","<div class='trialDiv'><img src='trustrating_stim/white_mw056.bmp'><br><font class='baseline'><strong>Sebastian</strong><p>Choose number of points to send.</font><div class='respPicDiv'><img src='img/responseButtonOffersNo0L4.png' class='respPic'></div></div>","null","4","Sebastian","1","Kept","0.8,0.35","11","0.8","trustrating_stim/white_mw056.bmp","6.5","51","11"
"","","","feedback","","62fd76d3f0824c29d4b1e6bd","bdp_trlrn","Wed Mar 15 2023 14:43:25 GMT-0400 (Eastern Daylight Time)","495467","Untrustworthy,Trustworthy","html-keyboard-response","169","224082","0.0-19.0-3.10","","null","","<div class='trialDiv'><img src='trustrating_stim/white_mw056.bmp'><br><font class='baseline'><strong>Sebastian</strong><p>Received: <strong>16</strong></font> &nbsp; &nbsp; &nbsp; &nbsp; &nbsp; &nbsp;<font class='negOutcome'>Shared back: <strong>0</strong></font></font><div class='respPicDiv'><img src='img/responseButtonOffersNo0_wht.png' class='respPic'></div></div>","null","4","Sebastian","1","Kept","0.8,0.35","11","0.8","trustrating_stim/white_mw056.bmp","6.5","51","11"
"","","","decision","","62fd76d3f0824c29d4b1e6bd","bdp_trlrn","Wed Mar 15 2023 14:43:25 GMT-0400 (Eastern Daylight Time)","495467","Untrustworthy,Trustworthy","html-keyboard-response","170","225210","0.0-19.0-1.11","","1127","","<div class='trialDiv'><img src='trustrating_stim/white_mw099.bmp'><br><font class='baseline'><strong>Michael</strong><p>Choose number of points to send.</font><div class='respPicDiv'><img src='img/responseButtonOffersNo0L.png' class='respPic'></div></div>","4","4","Michael","6","Kept","0.35,0.8","9","0.35","trustrating_stim/white_mw099.bmp","7","56","12"
"","","","decisionFB","","62fd76d3f0824c29d4b1e6bd","bdp_trlrn","Wed Mar 15 2023 14:43:25 GMT-0400 (Eastern Daylight Time)","495467","Untrustworthy,Trustworthy","html-keyboard-response","171","225470","0.0-19.0-2.11","","null","","<div class='trialDiv'><img src='trustrating_stim/white_mw099.bmp'><br><font class='baseline'><strong>Michael</strong><p>Choose number of points to send.</font><div class='respPicDiv'><img src='img/responseButtonOffersNo0L4.png' class='respPic'></div></div>","null","4","Michael","6","Kept","0.35,0.8","9","0.35","trustrating_stim/white_mw099.bmp","7","52","12"
"","","","feedback","","62fd76d3f0824c29d4b1e6bd","bdp_trlrn","Wed Mar 15 2023 14:43:25 GMT-0400 (Eastern Daylight Time)","495467","Untrustworthy,Trustworthy","html-keyboard-response","172","226475","0.0-19.0-3.11","","null","","<div class='trialDiv'><img src='trustrating_stim/white_mw099.bmp'><br><font class='baseline'><strong>Michael</strong><p>Received: <strong>16</strong></font> &nbsp; &nbsp; &nbsp; &nbsp; &nbsp; &nbsp;<font class='negOutcome'>Shared back: <strong>0</strong></font></font><div class='respPicDiv'><img src='img/responseButtonOffersNo0_wht.png' class='respPic'></div></div>","null","4","Michael","6","Kept","0.35,0.8","9","0.35","trustrating_stim/white_mw099.bmp","7","52","12"
"","","","decision","","62fd76d3f0824c29d4b1e6bd","bdp_trlrn","Wed Mar 15 2023 14:43:25 GMT-0400 (Eastern Daylight Time)","495467","Untrustworthy,Trustworthy","html-keyboard-response","173","227070","0.0-19.0-1.12","","593","","<div class='trialDiv'><img src='trustrating_stim/white_mw056.bmp'><br><font class='baseline'><strong>Sebastian</strong><p>Choose number of points to send.</font><div class='respPicDiv'><img src='img/responseButtonOffersNo0L.png' class='respPic'></div></div>","1","5","Sebastian","1","Shared","0.8,0.35","11","0.8","trustrating_stim/white_mw056.bmp","6.5","57","13"
"","","","decisionFB","","62fd76d3f0824c29d4b1e6bd","bdp_trlrn","Wed Mar 15 2023 14:43:25 GMT-0400 (Eastern Daylight Time)","495467","Untrustworthy,Trustworthy","html-keyboard-response","174","227330","0.0-19.0-2.12","","null","","<div class='trialDiv'><img src='trustrating_stim/white_mw056.bmp'><br><font class='baseline'><strong>Sebastian</strong><p>Choose number of points to send.</font><div class='respPicDiv'><img src='img/responseButtonOffersNo0L1.png' class='respPic'></div></div>","null","5","Sebastian","1","Shared","0.8,0.35","11","0.8","trustrating_stim/white_mw056.bmp","6.5","56","13"
"","","","feedback","","62fd76d3f0824c29d4b1e6bd","bdp_trlrn","Wed Mar 15 2023 14:43:25 GMT-0400 (Eastern Daylight Time)","495467","Untrustworthy,Trustworthy","html-keyboard-response","175","228335","0.0-19.0-3.12","","null","","<div class='trialDiv'><img src='trustrating_stim/white_mw056.bmp'><br><font class='baseline'><strong>Sebastian</strong><p>Received: <strong>4</strong></font> &nbsp; &nbsp; &nbsp; &nbsp; &nbsp; &nbsp;<font class='posOutcome'>Shared back: <strong>2</strong></font></font><div class='respPicDiv'><img src='img/responseButtonOffersNo0_wht.png' class='respPic'></div></div>","null","5","Sebastian","1","Shared","0.8,0.35","11","0.8","trustrating_stim/white_mw056.bmp","6.5","58","13"
"","","","decision","","62fd76d3f0824c29d4b1e6bd","bdp_trlrn","Wed Mar 15 2023 14:43:25 GMT-0400 (Eastern Daylight Time)","495467","Untrustworthy,Trustworthy","html-keyboard-response","176","228615","0.0-19.0-1.13","","277","","<div class='trialDiv'><img src='trustrating_stim/white_mw099.bmp'><br><font class='baseline'><strong>Michael</strong><p>Choose number of points to send.</font><div class='respPicDiv'><img src='img/responseButtonOffersNo0L.png' class='respPic'></div></div>","1","5","Michael","6","Kept","0.35,0.8","9","0.35","trustrating_stim/white_mw099.bmp","7","63","14"
"","","","decisionFB","","62fd76d3f0824c29d4b1e6bd","bdp_trlrn","Wed Mar 15 2023 14:43:25 GMT-0400 (Eastern Daylight Time)","495467","Untrustworthy,Trustworthy","html-keyboard-response","177","228870","0.0-19.0-2.13","","null","","<div class='trialDiv'><img src='trustrating_stim/white_mw099.bmp'><br><font class='baseline'><strong>Michael</strong><p>Choose number of points to send.</font><div class='respPicDiv'><img src='img/responseButtonOffersNo0L1.png' class='respPic'></div></div>","null","5","Michael","6","Kept","0.35,0.8","9","0.35","trustrating_stim/white_mw099.bmp","7","62","14"
"","","","feedback","","62fd76d3f0824c29d4b1e6bd","bdp_trlrn","Wed Mar 15 2023 14:43:25 GMT-0400 (Eastern Daylight Time)","495467","Untrustworthy,Trustworthy","html-keyboard-response","178","229881","0.0-19.0-3.13","","null","","<div class='trialDiv'><img src='trustrating_stim/white_mw099.bmp'><br><font class='baseline'><strong>Michael</strong><p>Received: <strong>4</strong></font> &nbsp; &nbsp; &nbsp; &nbsp; &nbsp; &nbsp;<font class='negOutcome'>Shared back: <strong>0</strong></font></font><div class='respPicDiv'><img src='img/responseButtonOffersNo0_wht.png' class='respPic'></div></div>","null","5","Michael","6","Kept","0.35,0.8","9","0.35","trustrating_stim/white_mw099.bmp","7","62","14"
"","","","decision","","62fd76d3f0824c29d4b1e6bd","bdp_trlrn","Wed Mar 15 2023 14:43:25 GMT-0400 (Eastern Daylight Time)","495467","Untrustworthy,Trustworthy","html-keyboard-response","179","230114","0.0-19.0-1.14","","232","","<div class='trialDiv'><img src='trustrating_stim/white_mw066.bmp'><br><font class='baseline'><strong>Benjamin</strong><p>Choose number of points to send.</font><div class='respPicDiv'><img src='img/responseButtonOffersNo0L.png' class='respPic'></div></div>","1","5","Benjamin","9","Shared","0.35,0.65","9","0.35","trustrating_stim/white_mw066.bmp","8","67","15"
"","","","decisionFB","","62fd76d3f0824c29d4b1e6bd","bdp_trlrn","Wed Mar 15 2023 14:43:25 GMT-0400 (Eastern Daylight Time)","495467","Untrustworthy,Trustworthy","html-keyboard-response","180","230374","0.0-19.0-2.14","","null","","<div class='trialDiv'><img src='trustrating_stim/white_mw066.bmp'><br><font class='baseline'><strong>Benjamin</strong><p>Choose number of points to send.</font><div class='respPicDiv'><img src='img/responseButtonOffersNo0L1.png' class='respPic'></div></div>","null","5","Benjamin","9","Shared","0.35,0.65","9","0.35","trustrating_stim/white_mw066.bmp","8","66","15"
"","","","feedback","","62fd76d3f0824c29d4b1e6bd","bdp_trlrn","Wed Mar 15 2023 14:43:25 GMT-0400 (Eastern Daylight Time)","495467","Untrustworthy,Trustworthy","html-keyboard-response","181","231384","0.0-19.0-3.14","","null","","<div class='trialDiv'><img src='trustrating_stim/white_mw066.bmp'><br><font class='baseline'><strong>Benjamin</strong><p>Received: <strong>4</strong></font> &nbsp; &nbsp; &nbsp; &nbsp; &nbsp; &nbsp;<font class='posOutcome'>Shared back: <strong>2</strong></font></font><div class='respPicDiv'><img src='img/responseButtonOffersNo0_wht.png' class='respPic'></div></div>","null","5","Benjamin","9","Shared","0.35,0.65","9","0.35","trustrating_stim/white_mw066.bmp","8","68","15"
"","","","decision","","62fd76d3f0824c29d4b1e6bd","bdp_trlrn","Wed Mar 15 2023 14:43:25 GMT-0400 (Eastern Daylight Time)","495467","Untrustworthy,Trustworthy","html-keyboard-response","182","231872","0.0-19.0-1.15","","486","","<div class='trialDiv'><img src='trustrating_stim/white_mw099.bmp'><br><font class='baseline'><strong>Michael</strong><p>Choose number of points to send.</font><div class='respPicDiv'><img src='img/responseButtonOffersNo0L.png' class='respPic'></div></div>","1","6","Michael","6","Kept","0.35,0.8","9","0.35","trustrating_stim/white_mw099.bmp","7","73","16"
"","","","decisionFB","","62fd76d3f0824c29d4b1e6bd","bdp_trlrn","Wed Mar 15 2023 14:43:25 GMT-0400 (Eastern Daylight Time)","495467","Untrustworthy,Trustworthy","html-keyboard-response","183","232133","0.0-19.0-2.15","","null","","<div class='trialDiv'><img src='trustrating_stim/white_mw099.bmp'><br><font class='baseline'><strong>Michael</strong><p>Choose number of points to send.</font><div class='respPicDiv'><img src='img/responseButtonOffersNo0L1.png' class='respPic'></div></div>","null","6","Michael","6","Kept","0.35,0.8","9","0.35","trustrating_stim/white_mw099.bmp","7","72","16"
"","","","feedback","","62fd76d3f0824c29d4b1e6bd","bdp_trlrn","Wed Mar 15 2023 14:43:25 GMT-0400 (Eastern Daylight Time)","495467","Untrustworthy,Trustworthy","html-keyboard-response","184","233152","0.0-19.0-3.15","","null","","<div class='trialDiv'><img src='trustrating_stim/white_mw099.bmp'><br><font class='baseline'><strong>Michael</strong><p>Received: <strong>4</strong></font> &nbsp; &nbsp; &nbsp; &nbsp; &nbsp; &nbsp;<font class='negOutcome'>Shared back: <strong>0</strong></font></font><div class='respPicDiv'><img src='img/responseButtonOffersNo0_wht.png' class='respPic'></div></div>","null","6","Michael","6","Kept","0.35,0.8","9","0.35","trustrating_stim/white_mw099.bmp","7","72","16"
"","","","decision","","62fd76d3f0824c29d4b1e6bd","bdp_trlrn","Wed Mar 15 2023 14:43:25 GMT-0400 (Eastern Daylight Time)","495467","Untrustworthy,Trustworthy","html-keyboard-response","185","233452","0.0-19.0-1.16","","299","","<div class='trialDiv'><img src='trustrating_stim/white_mw066.bmp'><br><font class='baseline'><strong>Benjamin</strong><p>Choose number of points to send.</font><div class='respPicDiv'><img src='img/responseButtonOffersNo0L.png' class='respPic'></div></div>","1","6","Benjamin","9","Shared","0.35,0.65","9","0.35","trustrating_stim/white_mw066.bmp","8","77","17"
"","","","decisionFB","","62fd76d3f0824c29d4b1e6bd","bdp_trlrn","Wed Mar 15 2023 14:43:25 GMT-0400 (Eastern Daylight Time)","495467","Untrustworthy,Trustworthy","html-keyboard-response","186","233713","0.0-19.0-2.16","","null","","<div class='trialDiv'><img src='trustrating_stim/white_mw066.bmp'><br><font class='baseline'><strong>Benjamin</strong><p>Choose number of points to send.</font><div class='respPicDiv'><img src='img/responseButtonOffersNo0L1.png' class='respPic'></div></div>","null","6","Benjamin","9","Shared","0.35,0.65","9","0.35","trustrating_stim/white_mw066.bmp","8","76","17"
"","","","feedback","","62fd76d3f0824c29d4b1e6bd","bdp_trlrn","Wed Mar 15 2023 14:43:25 GMT-0400 (Eastern Daylight Time)","495467","Untrustworthy,Trustworthy","html-keyboard-response","187","234718","0.0-19.0-3.16","","null","","<div class='trialDiv'><img src='trustrating_stim/white_mw066.bmp'><br><font class='baseline'><strong>Benjamin</strong><p>Received: <strong>4</strong></font> &nbsp; &nbsp; &nbsp; &nbsp; &nbsp; &nbsp;<font class='posOutcome'>Shared back: <strong>2</strong></font></font><div class='respPicDiv'><img src='img/responseButtonOffersNo0_wht.png' class='respPic'></div></div>","null","6","Benjamin","9","Shared","0.35,0.65","9","0.35","trustrating_stim/white_mw066.bmp","8","78","17"
"","","","decision","","62fd76d3f0824c29d4b1e6bd","bdp_trlrn","Wed Mar 15 2023 14:43:25 GMT-0400 (Eastern Daylight Time)","495467","Untrustworthy,Trustworthy","html-keyboard-response","188","234986","0.0-19.0-1.17","","265","","<div class='trialDiv'><img src='trustrating_stim/white_mw056.bmp'><br><font class='baseline'><strong>Sebastian</strong><p>Choose number of points to send.</font><div class='respPicDiv'><img src='img/responseButtonOffersNo0L.png' class='respPic'></div></div>","1","6","Sebastian","1","Shared","0.8,0.35","11","0.8","trustrating_stim/white_mw056.bmp","6.5","83","18"
"","","","decisionFB","","62fd76d3f0824c29d4b1e6bd","bdp_trlrn","Wed Mar 15 2023 14:43:25 GMT-0400 (Eastern Daylight Time)","495467","Untrustworthy,Trustworthy","html-keyboard-response","189","235240","0.0-19.0-2.17","","null","","<div class='trialDiv'><img src='trustrating_stim/white_mw056.bmp'><br><font class='baseline'><strong>Sebastian</strong><p>Choose number of points to send.</font><div class='respPicDiv'><img src='img/responseButtonOffersNo0L1.png' class='respPic'></div></div>","null","6","Sebastian","1","Shared","0.8,0.35","11","0.8","trustrating_stim/white_mw056.bmp","6.5","82","18"
"","","","feedback","","62fd76d3f0824c29d4b1e6bd","bdp_trlrn","Wed Mar 15 2023 14:43:25 GMT-0400 (Eastern Daylight Time)","495467","Untrustworthy,Trustworthy","html-keyboard-response","190","236247","0.0-19.0-3.17","","null","","<div class='trialDiv'><img src='trustrating_stim/white_mw056.bmp'><br><font class='baseline'><strong>Sebastian</strong><p>Received: <strong>4</strong></font> &nbsp; &nbsp; &nbsp; &nbsp; &nbsp; &nbsp;<font class='posOutcome'>Shared back: <strong>2</strong></font></font><div class='respPicDiv'><img src='img/responseButtonOffersNo0_wht.png' class='respPic'></div></div>","null","6","Sebastian","1","Shared","0.8,0.35","11","0.8","trustrating_stim/white_mw056.bmp","6.5","84","18"
"","","","decision","","62fd76d3f0824c29d4b1e6bd","bdp_trlrn","Wed Mar 15 2023 14:43:25 GMT-0400 (Eastern Daylight Time)","495467","Untrustworthy,Trustworthy","html-keyboard-response","191","236527","0.0-19.0-1.18","","278","","<div class='trialDiv'><img src='trustrating_stim/white_mw099.bmp'><br><font class='baseline'><strong>Michael</strong><p>Choose number of points to send.</font><div class='respPicDiv'><img src='img/responseButtonOffersNo0L.png' class='respPic'></div></div>","1","7","Michael","6","Kept","0.35,0.8","9","0.35","trustrating_stim/white_mw099.bmp","7","89","19"
"","","","decisionFB","","62fd76d3f0824c29d4b1e6bd","bdp_trlrn","Wed Mar 15 2023 14:43:25 GMT-0400 (Eastern Daylight Time)","495467","Untrustworthy,Trustworthy","html-keyboard-response","192","236784","0.0-19.0-2.18","","null","","<div class='trialDiv'><img src='trustrating_stim/white_mw099.bmp'><br><font class='baseline'><strong>Michael</strong><p>Choose number of points to send.</font><div class='respPicDiv'><img src='img/responseButtonOffersNo0L1.png' class='respPic'></div></div>","null","7","Michael","6","Kept","0.35,0.8","9","0.35","trustrating_stim/white_mw099.bmp","7","88","19"
"","","","feedback","","62fd76d3f0824c29d4b1e6bd","bdp_trlrn","Wed Mar 15 2023 14:43:25 GMT-0400 (Eastern Daylight Time)","495467","Untrustworthy,Trustworthy","html-keyboard-response","193","237792","0.0-19.0-3.18","","null","","<div class='trialDiv'><img src='trustrating_stim/white_mw099.bmp'><br><font class='baseline'><strong>Michael</strong><p>Received: <strong>4</strong></font> &nbsp; &nbsp; &nbsp; &nbsp; &nbsp; &nbsp;<font class='negOutcome'>Shared back: <strong>0</strong></font></font><div class='respPicDiv'><img src='img/responseButtonOffersNo0_wht.png' class='respPic'></div></div>","null","7","Michael","6","Kept","0.35,0.8","9","0.35","trustrating_stim/white_mw099.bmp","7","88","19"
"","","","decision","","62fd76d3f0824c29d4b1e6bd","bdp_trlrn","Wed Mar 15 2023 14:43:25 GMT-0400 (Eastern Daylight Time)","495467","Untrustworthy,Trustworthy","html-keyboard-response","194","238594","0.0-19.0-1.19","","800","","<div class='trialDiv'><img src='trustrating_stim/white_mw066.bmp'><br><font class='baseline'><strong>Benjamin</strong><p>Choose number of points to send.</font><div class='respPicDiv'><img src='img/responseButtonOffersNo0L.png' class='respPic'></div></div>","1","7","Benjamin","9","Shared","0.35,0.65","9","0.35","trustrating_stim/white_mw066.bmp","8","93","20"
"","","","decisionFB","","62fd76d3f0824c29d4b1e6bd","bdp_trlrn","Wed Mar 15 2023 14:43:25 GMT-0400 (Eastern Daylight Time)","495467","Untrustworthy,Trustworthy","html-keyboard-response","195","238847","0.0-19.0-2.19","","null","","<div class='trialDiv'><img src='trustrating_stim/white_mw066.bmp'><br><font class='baseline'><strong>Benjamin</strong><p>Choose number of points to send.</font><div class='respPicDiv'><img src='img/responseButtonOffersNo0L1.png' class='respPic'></div></div>","null","7","Benjamin","9","Shared","0.35,0.65","9","0.35","trustrating_stim/white_mw066.bmp","8","92","20"
"","","","feedback","","62fd76d3f0824c29d4b1e6bd","bdp_trlrn","Wed Mar 15 2023 14:43:25 GMT-0400 (Eastern Daylight Time)","495467","Untrustworthy,Trustworthy","html-keyboard-response","196","239855","0.0-19.0-3.19","","null","","<div class='trialDiv'><img src='trustrating_stim/white_mw066.bmp'><br><font class='baseline'><strong>Benjamin</strong><p>Received: <strong>4</strong></font> &nbsp; &nbsp; &nbsp; &nbsp; &nbsp; &nbsp;<font class='posOutcome'>Shared back: <strong>2</strong></font></font><div class='respPicDiv'><img src='img/responseButtonOffersNo0_wht.png' class='respPic'></div></div>","null","7","Benjamin","9","Shared","0.35,0.65","9","0.35","trustrating_stim/white_mw066.bmp","8","94","20"
"","","","decision","","62fd76d3f0824c29d4b1e6bd","bdp_trlrn","Wed Mar 15 2023 14:43:25 GMT-0400 (Eastern Daylight Time)","495467","Untrustworthy,Trustworthy","html-keyboard-response","197","240192","0.0-19.0-1.20","","335","","<div class='trialDiv'><img src='trustrating_stim/white_mw056.bmp'><br><font class='baseline'><strong>Sebastian</strong><p>Choose number of points to send.</font><div class='respPicDiv'><img src='img/responseButtonOffersNo0L.png' class='respPic'></div></div>","1","7","Sebastian","1","Shared","0.8,0.35","11","0.8","trustrating_stim/white_mw056.bmp","6.5","99","21"
"","","","decisionFB","","62fd76d3f0824c29d4b1e6bd","bdp_trlrn","Wed Mar 15 2023 14:43:25 GMT-0400 (Eastern Daylight Time)","495467","Untrustworthy,Trustworthy","html-keyboard-response","198","240448","0.0-19.0-2.20","","null","","<div class='trialDiv'><img src='trustrating_stim/white_mw056.bmp'><br><font class='baseline'><strong>Sebastian</strong><p>Choose number of points to send.</font><div class='respPicDiv'><img src='img/responseButtonOffersNo0L1.png' class='respPic'></div></div>","null","7","Sebastian","1","Shared","0.8,0.35","11","0.8","trustrating_stim/white_mw056.bmp","6.5","98","21"
"","","","feedback","","62fd76d3f0824c29d4b1e6bd","bdp_trlrn","Wed Mar 15 2023 14:43:25 GMT-0400 (Eastern Daylight Time)","495467","Untrustworthy,Trustworthy","html-keyboard-response","199","241451","0.0-19.0-3.20","","null","","<div class='trialDiv'><img src='trustrating_stim/white_mw056.bmp'><br><font class='baseline'><strong>Sebastian</strong><p>Received: <strong>4</strong></font> &nbsp; &nbsp; &nbsp; &nbsp; &nbsp; &nbsp;<font class='posOutcome'>Shared back: <strong>2</strong></font></font><div class='respPicDiv'><img src='img/responseButtonOffersNo0_wht.png' class='respPic'></div></div>","null","7","Sebastian","1","Shared","0.8,0.35","11","0.8","trustrating_stim/white_mw056.bmp","6.5","100","21"
"","","","decision","","62fd76d3f0824c29d4b1e6bd","bdp_trlrn","Wed Mar 15 2023 14:43:25 GMT-0400 (Eastern Daylight Time)","495467","Untrustworthy,Trustworthy","html-keyboard-response","200","242937","0.0-19.0-1.21","","1484","","<div class='trialDiv'><img src='trustrating_stim/white_mw099.bmp'><br><font class='baseline'><strong>Michael</strong><p>Choose number of points to send.</font><div class='respPicDiv'><img src='img/responseButtonOffersNo0L.png' class='respPic'></div></div>","4","8","Michael","6","Shared","0.35,0.8","9","0.35","trustrating_stim/white_mw099.bmp","7","105","22"
"","","","decisionFB","","62fd76d3f0824c29d4b1e6bd","bdp_trlrn","Wed Mar 15 2023 14:43:25 GMT-0400 (Eastern Daylight Time)","495467","Untrustworthy,Trustworthy","html-keyboard-response","201","243192","0.0-19.0-2.21","","null","","<div class='trialDiv'><img src='trustrating_stim/white_mw099.bmp'><br><font class='baseline'><strong>Michael</strong><p>Choose number of points to send.</font><div class='respPicDiv'><img src='img/responseButtonOffersNo0L4.png' class='respPic'></div></div>","null","8","Michael","6","Shared","0.35,0.8","9","0.35","trustrating_stim/white_mw099.bmp","7","101","22"
"","","","feedback","","62fd76d3f0824c29d4b1e6bd","bdp_trlrn","Wed Mar 15 2023 14:43:25 GMT-0400 (Eastern Daylight Time)","495467","Untrustworthy,Trustworthy","html-keyboard-response","202","244198","0.0-19.0-3.21","","null","","<div class='trialDiv'><img src='trustrating_stim/white_mw099.bmp'><br><font class='baseline'><strong>Michael</strong><p>Received: <strong>16</strong></font> &nbsp; &nbsp; &nbsp; &nbsp; &nbsp; &nbsp;<font class='posOutcome'>Shared back: <strong>8</strong></font></font><div class='respPicDiv'><img src='img/responseButtonOffersNo0_wht.png' class='respPic'></div></div>","null","8","Michael","6","Shared","0.35,0.8","9","0.35","trustrating_stim/white_mw099.bmp","7","109","22"
"","","","decision","","62fd76d3f0824c29d4b1e6bd","bdp_trlrn","Wed Mar 15 2023 14:43:25 GMT-0400 (Eastern Daylight Time)","495467","Untrustworthy,Trustworthy","html-keyboard-response","203","244678","0.0-19.0-1.22","","478","","<div class='trialDiv'><img src='trustrating_stim/white_mw056.bmp'><br><font class='baseline'><strong>Sebastian</strong><p>Choose number of points to send.</font><div class='respPicDiv'><img src='img/responseButtonOffersNo0L.png' class='respPic'></div></div>","1","8","Sebastian","1","Kept","0.8,0.35","11","0.8","trustrating_stim/white_mw056.bmp","6.5","114","23"
"","","","decisionFB","","62fd76d3f0824c29d4b1e6bd","bdp_trlrn","Wed Mar 15 2023 14:43:25 GMT-0400 (Eastern Daylight Time)","495467","Untrustworthy,Trustworthy","html-keyboard-response","204","244939","0.0-19.0-2.22","","null","","<div class='trialDiv'><img src='trustrating_stim/white_mw056.bmp'><br><font class='baseline'><strong>Sebastian</strong><p>Choose number of points to send.</font><div class='respPicDiv'><img src='img/responseButtonOffersNo0L1.png' class='respPic'></div></div>","null","8","Sebastian","1","Kept","0.8,0.35","11","0.8","trustrating_stim/white_mw056.bmp","6.5","113","23"
"","","","feedback","","62fd76d3f0824c29d4b1e6bd","bdp_trlrn","Wed Mar 15 2023 14:43:25 GMT-0400 (Eastern Daylight Time)","495467","Untrustworthy,Trustworthy","html-keyboard-response","205","245942","0.0-19.0-3.22","","null","","<div class='trialDiv'><img src='trustrating_stim/white_mw056.bmp'><br><font class='baseline'><strong>Sebastian</strong><p>Received: <strong>4</strong></font> &nbsp; &nbsp; &nbsp; &nbsp; &nbsp; &nbsp;<font class='negOutcome'>Shared back: <strong>0</strong></font></font><div class='respPicDiv'><img src='img/responseButtonOffersNo0_wht.png' class='respPic'></div></div>","null","8","Sebastian","1","Kept","0.8,0.35","11","0.8","trustrating_stim/white_mw056.bmp","6.5","113","23"
"","","","decision","","62fd76d3f0824c29d4b1e6bd","bdp_trlrn","Wed Mar 15 2023 14:43:25 GMT-0400 (Eastern Daylight Time)","495467","Untrustworthy,Trustworthy","html-keyboard-response","206","246409","0.0-19.0-1.23","","466","","<div class='trialDiv'><img src='trustrating_stim/white_mw066.bmp'><br><font class='baseline'><strong>Benjamin</strong><p>Choose number of points to send.</font><div class='respPicDiv'><img src='img/responseButtonOffersNo0L.png' class='respPic'></div></div>","1","8","Benjamin","9","Kept","0.35,0.65","9","0.35","trustrating_stim/white_mw066.bmp","8","118","24"
"","","","decisionFB","","62fd76d3f0824c29d4b1e6bd","bdp_trlrn","Wed Mar 15 2023 14:43:25 GMT-0400 (Eastern Daylight Time)","495467","Untrustworthy,Trustworthy","html-keyboard-response","207","246665","0.0-19.0-2.23","","null","","<div class='trialDiv'><img src='trustrating_stim/white_mw066.bmp'><br><font class='baseline'><strong>Benjamin</strong><p>Choose number of points to send.</font><div class='respPicDiv'><img src='img/responseButtonOffersNo0L1.png' class='respPic'></div></div>","null","8","Benjamin","9","Kept","0.35,0.65","9","0.35","trustrating_stim/white_mw066.bmp","8","117","24"
"","","","feedback","","62fd76d3f0824c29d4b1e6bd","bdp_trlrn","Wed Mar 15 2023 14:43:25 GMT-0400 (Eastern Daylight Time)","495467","Untrustworthy,Trustworthy","html-keyboard-response","208","247672","0.0-19.0-3.23","","null","","<div class='trialDiv'><img src='trustrating_stim/white_mw066.bmp'><br><font class='baseline'><strong>Benjamin</strong><p>Received: <strong>4</strong></font> &nbsp; &nbsp; &nbsp; &nbsp; &nbsp; &nbsp;<font class='negOutcome'>Shared back: <strong>0</strong></font></font><div class='respPicDiv'><img src='img/responseButtonOffersNo0_wht.png' class='respPic'></div></div>","null","8","Benjamin","9","Kept","0.35,0.65","9","0.35","trustrating_stim/white_mw066.bmp","8","117","24"
"","","","decision","","62fd76d3f0824c29d4b1e6bd","bdp_trlrn","Wed Mar 15 2023 14:43:25 GMT-0400 (Eastern Daylight Time)","495467","Untrustworthy,Trustworthy","html-keyboard-response","209","248080","0.0-19.0-1.24","","406","","<div class='trialDiv'><img src='trustrating_stim/white_mw099.bmp'><br><font class='baseline'><strong>Michael</strong><p>Choose number of points to send.</font><div class='respPicDiv'><img src='img/responseButtonOffersNo0L.png' class='respPic'></div></div>","4","9","Michael","6","Shared","0.35,0.8","9","0.35","trustrating_stim/white_mw099.bmp","7","122","25"
"","","","decisionFB","","62fd76d3f0824c29d4b1e6bd","bdp_trlrn","Wed Mar 15 2023 14:43:25 GMT-0400 (Eastern Daylight Time)","495467","Untrustworthy,Trustworthy","html-keyboard-response","210","248341","0.0-19.0-2.24","","null","","<div class='trialDiv'><img src='trustrating_stim/white_mw099.bmp'><br><font class='baseline'><strong>Michael</strong><p>Choose number of points to send.</font><div class='respPicDiv'><img src='img/responseButtonOffersNo0L4.png' class='respPic'></div></div>","null","9","Michael","6","Shared","0.35,0.8","9","0.35","trustrating_stim/white_mw099.bmp","7","118","25"
"","","","feedback","","62fd76d3f0824c29d4b1e6bd","bdp_trlrn","Wed Mar 15 2023 14:43:25 GMT-0400 (Eastern Daylight Time)","495467","Untrustworthy,Trustworthy","html-keyboard-response","211","249346","0.0-19.0-3.24","","null","","<div class='trialDiv'><img src='trustrating_stim/white_mw099.bmp'><br><font class='baseline'><strong>Michael</strong><p>Received: <strong>16</strong></font> &nbsp; &nbsp; &nbsp; &nbsp; &nbsp; &nbsp;<font class='posOutcome'>Shared back: <strong>8</strong></font></font><div class='respPicDiv'><img src='img/responseButtonOffersNo0_wht.png' class='respPic'></div></div>","null","9","Michael","6","Shared","0.35,0.8","9","0.35","trustrating_stim/white_mw099.bmp","7","126","25"
"","","","decision","","62fd76d3f0824c29d4b1e6bd","bdp_trlrn","Wed Mar 15 2023 14:43:25 GMT-0400 (Eastern Daylight Time)","495467","Untrustworthy,Trustworthy","html-keyboard-response","212","249750","0.0-19.0-1.25","","402","","<div class='trialDiv'><img src='trustrating_stim/white_mw056.bmp'><br><font class='baseline'><strong>Sebastian</strong><p>Choose number of points to send.</font><div class='respPicDiv'><img src='img/responseButtonOffersNo0L.png' class='respPic'></div></div>","1","9","Sebastian","1","Shared","0.8,0.35","11","0.8","trustrating_stim/white_mw056.bmp","6.5","131","26"
"","","","decisionFB","","62fd76d3f0824c29d4b1e6bd","bdp_trlrn","Wed Mar 15 2023 14:43:25 GMT-0400 (Eastern Daylight Time)","495467","Untrustworthy,Trustworthy","html-keyboard-response","213","250010","0.0-19.0-2.25","","null","","<div class='trialDiv'><img src='trustrating_stim/white_mw056.bmp'><br><font class='baseline'><strong>Sebastian</strong><p>Choose number of points to send.</font><div class='respPicDiv'><img src='img/responseButtonOffersNo0L1.png' class='respPic'></div></div>","null","9","Sebastian","1","Shared","0.8,0.35","11","0.8","trustrating_stim/white_mw056.bmp","6.5","130","26"
"","","","feedback","","62fd76d3f0824c29d4b1e6bd","bdp_trlrn","Wed Mar 15 2023 14:43:25 GMT-0400 (Eastern Daylight Time)","495467","Untrustworthy,Trustworthy","html-keyboard-response","214","251014","0.0-19.0-3.25","","null","","<div class='trialDiv'><img src='trustrating_stim/white_mw056.bmp'><br><font class='baseline'><strong>Sebastian</strong><p>Received: <strong>4</strong></font> &nbsp; &nbsp; &nbsp; &nbsp; &nbsp; &nbsp;<font class='posOutcome'>Shared back: <strong>2</strong></font></font><div class='respPicDiv'><img src='img/responseButtonOffersNo0_wht.png' class='respPic'></div></div>","null","9","Sebastian","1","Shared","0.8,0.35","11","0.8","trustrating_stim/white_mw056.bmp","6.5","132","26"
"","","","decision","","62fd76d3f0824c29d4b1e6bd","bdp_trlrn","Wed Mar 15 2023 14:43:25 GMT-0400 (Eastern Daylight Time)","495467","Untrustworthy,Trustworthy","html-keyboard-response","215","251351","0.0-19.0-1.26","","334","","<div class='trialDiv'><img src='trustrating_stim/white_mw066.bmp'><br><font class='baseline'><strong>Benjamin</strong><p>Choose number of points to send.</font><div class='respPicDiv'><img src='img/responseButtonOffersNo0L.png' class='respPic'></div></div>","1","9","Benjamin","9","Shared","0.35,0.65","9","0.35","trustrating_stim/white_mw066.bmp","8","137","27"
"","","","decisionFB","","62fd76d3f0824c29d4b1e6bd","bdp_trlrn","Wed Mar 15 2023 14:43:25 GMT-0400 (Eastern Daylight Time)","495467","Untrustworthy,Trustworthy","html-keyboard-response","216","251609","0.0-19.0-2.26","","null","","<div class='trialDiv'><img src='trustrating_stim/white_mw066.bmp'><br><font class='baseline'><strong>Benjamin</strong><p>Choose number of points to send.</font><div class='respPicDiv'><img src='img/responseButtonOffersNo0L1.png' class='respPic'></div></div>","null","9","Benjamin","9","Shared","0.35,0.65","9","0.35","trustrating_stim/white_mw066.bmp","8","136","27"
"","","","feedback","","62fd76d3f0824c29d4b1e6bd","bdp_trlrn","Wed Mar 15 2023 14:43:25 GMT-0400 (Eastern Daylight Time)","495467","Untrustworthy,Trustworthy","html-keyboard-response","217","252619","0.0-19.0-3.26","","null","","<div class='trialDiv'><img src='trustrating_stim/white_mw066.bmp'><br><font class='baseline'><strong>Benjamin</strong><p>Received: <strong>4</strong></font> &nbsp; &nbsp; &nbsp; &nbsp; &nbsp; &nbsp;<font class='posOutcome'>Shared back: <strong>2</strong></font></font><div class='respPicDiv'><img src='img/responseButtonOffersNo0_wht.png' class='respPic'></div></div>","null","9","Benjamin","9","Shared","0.35,0.65","9","0.35","trustrating_stim/white_mw066.bmp","8","138","27"
"","","","decision","","62fd76d3f0824c29d4b1e6bd","bdp_trlrn","Wed Mar 15 2023 14:43:25 GMT-0400 (Eastern Daylight Time)","495467","Untrustworthy,Trustworthy","html-keyboard-response","218","253043","0.0-19.0-1.27","","421","","<div class='trialDiv'><img src='trustrating_stim/white_mw099.bmp'><br><font class='baseline'><strong>Michael</strong><p>Choose number of points to send.</font><div class='respPicDiv'><img src='img/responseButtonOffersNo0L.png' class='respPic'></div></div>","4","10","Michael","6","Kept","0.35,0.8","9","0.35","trustrating_stim/white_mw099.bmp","7","143","28"
"","","","decisionFB","","62fd76d3f0824c29d4b1e6bd","bdp_trlrn","Wed Mar 15 2023 14:43:25 GMT-0400 (Eastern Daylight Time)","495467","Untrustworthy,Trustworthy","html-keyboard-response","219","253296","0.0-19.0-2.27","","null","","<div class='trialDiv'><img src='trustrating_stim/white_mw099.bmp'><br><font class='baseline'><strong>Michael</strong><p>Choose number of points to send.</font><div class='respPicDiv'><img src='img/responseButtonOffersNo0L4.png' class='respPic'></div></div>","null","10","Michael","6","Kept","0.35,0.8","9","0.35","trustrating_stim/white_mw099.bmp","7","139","28"
"","","","feedback","","62fd76d3f0824c29d4b1e6bd","bdp_trlrn","Wed Mar 15 2023 14:43:25 GMT-0400 (Eastern Daylight Time)","495467","Untrustworthy,Trustworthy","html-keyboard-response","220","254305","0.0-19.0-3.27","","null","","<div class='trialDiv'><img src='trustrating_stim/white_mw099.bmp'><br><font class='baseline'><strong>Michael</strong><p>Received: <strong>16</strong></font> &nbsp; &nbsp; &nbsp; &nbsp; &nbsp; &nbsp;<font class='negOutcome'>Shared back: <strong>0</strong></font></font><div class='respPicDiv'><img src='img/responseButtonOffersNo0_wht.png' class='respPic'></div></div>","null","10","Michael","6","Kept","0.35,0.8","9","0.35","trustrating_stim/white_mw099.bmp","7","139","28"
