"event","trial","time","trialtype","subject_id","task","startTime","totalTime","labels","trial_type","trial_index","time_elapsed","internal_node_id","view_history","rt","numBlurs","success","stimulus","key_press","aground","name","faceID","outcome","agenttype","agentswpt","agentcurrpshare","face","avgRating","point_total","round"
"focus","0","0","focusevent","5e7fb4743c00ce69510024fb","bdp_trlrn","Tue Mar 14 2023 19:51:09 GMT-0500 (Central Daylight Time)","588785","Untrustworthy,Trustworthy","","","","","","","","","","","","","","","","","","","","",""
"","","","","5e7fb4743c00ce69510024fb","bdp_trlrn","Tue Mar 14 2023 19:51:09 GMT-0500 (Central Daylight Time)","588785","Untrustworthy,Trustworthy","pavlovia","0","26","0.0-0.0","","","","","","","","","","","","","","","","",""
"","","","","5e7fb4743c00ce69510024fb","bdp_trlrn","Tue Mar 14 2023 19:51:09 GMT-0500 (Central Daylight Time)","588785","Untrustworthy,Trustworthy","instructions","1","1796","0.0-1.0","[{""page_index"":0,""viewing_time"":1768}]","1768","","","","","","","","","","","","","","",""
"blur","2","3441","blurevent","5e7fb4743c00ce69510024fb","bdp_trlrn","Tue Mar 14 2023 19:51:09 GMT-0500 (Central Daylight Time)","588785","Untrustworthy,Trustworthy","","","","","","","1","","","","","","","","","","","","","",""
"focus","2","8530","focusevent","5e7fb4743c00ce69510024fb","bdp_trlrn","Tue Mar 14 2023 19:51:09 GMT-0500 (Central Daylight Time)","588785","Untrustworthy,Trustworthy","","","","","","","","","","","","","","","","","","","","",""
"fullscreenexit","2","9590","fullscreenexit","5e7fb4743c00ce69510024fb","bdp_trlrn","Tue Mar 14 2023 19:51:09 GMT-0500 (Central Daylight Time)","588785","Untrustworthy,Trustworthy","","","","","","","","","","","","","","","","","","","","",""
"","","","","5e7fb4743c00ce69510024fb","bdp_trlrn","Tue Mar 14 2023 19:51:09 GMT-0500 (Central Daylight Time)","588785","Untrustworthy,Trustworthy","fullscreen","2","10377","0.0-2.0","","","","true","","","","","","","","","","","","",""
"","","","fullscreenfail","5e7fb4743c00ce69510024fb","bdp_trlrn","Tue Mar 14 2023 19:51:09 GMT-0500 (Central Daylight Time)","588785","Untrustworthy,Trustworthy","image-keyboard-response","3","12254","0.0-3.0-0.0","","1873","","","","32","","","","","","","","","","",""
"","","","","5e7fb4743c00ce69510024fb","bdp_trlrn","Tue Mar 14 2023 19:51:09 GMT-0500 (Central Daylight Time)","588785","Untrustworthy,Trustworthy","instructions","4","13977","0.0-4.0","[{""page_index"":0,""viewing_time"":955},{""page_index"":1,""viewing_time"":515}]","1471","","","","","","","","","","","","","","",""
"","","","","5e7fb4743c00ce69510024fb","bdp_trlrn","Tue Mar 14 2023 19:51:09 GMT-0500 (Central Daylight Time)","588785","Untrustworthy,Trustworthy","instructions","5","17437","0.0-5.0","[{""page_index"":0,""viewing_time"":3459}]","3459","","","","","","","","","","","","","","",""
"","","","rating","5e7fb4743c00ce69510024fb","bdp_trlrn","Tue Mar 14 2023 19:51:09 GMT-0500 (Central Daylight Time)","588785","Untrustworthy,Trustworthy","image-keyboard-response","6","20275","0.0-6.0-1.0","","2735","","","trustrating_stim/white_00129_931230_fb_edt.bmp","1","","","","","","","","","","",""
"","","","ratingFB","5e7fb4743c00ce69510024fb","bdp_trlrn","Tue Mar 14 2023 19:51:09 GMT-0500 (Central Daylight Time)","588785","Untrustworthy,Trustworthy","image-keyboard-response","7","20481","0.0-6.0-2.0","","null","","","trustrating_stim/white_00129_931230_fb_edt.bmp","null","","","","","","","","","","",""
"","","","rating","5e7fb4743c00ce69510024fb","bdp_trlrn","Tue Mar 14 2023 19:51:09 GMT-0500 (Central Daylight Time)","588785","Untrustworthy,Trustworthy","image-keyboard-response","8","21248","0.0-6.0-1.1","","664","","","trustrating_stim/white_00659_941121_fa_edt.bmp","1","","","","","","","","","","",""
"","","","ratingFB","5e7fb4743c00ce69510024fb","bdp_trlrn","Tue Mar 14 2023 19:51:09 GMT-0500 (Central Daylight Time)","588785","Untrustworthy,Trustworthy","image-keyboard-response","9","21455","0.0-6.0-2.1","","null","","","trustrating_stim/white_00659_941121_fa_edt.bmp","null","","","","","","","","","","",""
"","","","rating","5e7fb4743c00ce69510024fb","bdp_trlrn","Tue Mar 14 2023 19:51:09 GMT-0500 (Central Daylight Time)","588785","Untrustworthy,Trustworthy","image-keyboard-response","10","22242","0.0-6.0-1.2","","682","","","trustrating_stim/white_00577_940928_fa_edt.bmp","1","","","","","","","","","","",""
"","","","ratingFB","5e7fb4743c00ce69510024fb","bdp_trlrn","Tue Mar 14 2023 19:51:09 GMT-0500 (Central Daylight Time)","588785","Untrustworthy,Trustworthy","image-keyboard-response","11","22446","0.0-6.0-2.2","","null","","","trustrating_stim/white_00577_940928_fa_edt.bmp","null","","","","","","","","","","",""
"","","","rating","5e7fb4743c00ce69510024fb","bdp_trlrn","Tue Mar 14 2023 19:51:09 GMT-0500 (Central Daylight Time)","588785","Untrustworthy,Trustworthy","image-keyboard-response","12","23395","0.0-6.0-1.3","","842","","","trustrating_stim/white_00807_941205_fb_edt.bmp","1","","","","","","","","","","",""
"","","","ratingFB","5e7fb4743c00ce69510024fb","bdp_trlrn","Tue Mar 14 2023 19:51:09 GMT-0500 (Central Daylight Time)","588785","Untrustworthy,Trustworthy","image-keyboard-response","13","23598","0.0-6.0-2.3","","null","","","trustrating_stim/white_00807_941205_fb_edt.bmp","null","","","","","","","","","","",""
"","","","rating","5e7fb4743c00ce69510024fb","bdp_trlrn","Tue Mar 14 2023 19:51:09 GMT-0500 (Central Daylight Time)","588785","Untrustworthy,Trustworthy","image-keyboard-response","14","25280","0.0-6.0-1.4","","1575","","","trustrating_stim/white_00602_940928_fb_edt.bmp","3","","","","","","","","","","",""
"","","","ratingFB","5e7fb4743c00ce69510024fb","bdp_trlrn","Tue Mar 14 2023 19:51:09 GMT-0500 (Central Daylight Time)","588785","Untrustworthy,Trustworthy","image-keyboard-response","15","25486","0.0-6.0-2.4","","null","","","trustrating_stim/white_00602_940928_fb_edt.bmp","null","","","","","","","","","","",""
"","","","rating","5e7fb4743c00ce69510024fb","bdp_trlrn","Tue Mar 14 2023 19:51:09 GMT-0500 (Central Daylight Time)","588785","Untrustworthy,Trustworthy","image-keyboard-response","16","27265","0.0-6.0-1.5","","1676","","","trustrating_stim/white_00109_931230_fa_edt.bmp","2","","","","","","","","","","",""
"","","","ratingFB","5e7fb4743c00ce69510024fb","bdp_trlrn","Tue Mar 14 2023 19:51:09 GMT-0500 (Central Daylight Time)","588785","Untrustworthy,Trustworthy","image-keyboard-response","17","27468","0.0-6.0-2.5","","null","","","trustrating_stim/white_00109_931230_fa_edt.bmp","null","","","","","","","","","","",""
"","","","rating","5e7fb4743c00ce69510024fb","bdp_trlrn","Tue Mar 14 2023 19:51:09 GMT-0500 (Central Daylight Time)","588785","Untrustworthy,Trustworthy","image-keyboard-response","18","28150","0.0-6.0-1.6","","580","","","trustrating_stim/white_00761_941201_fb_edt.bmp","1","","","","","","","","","","",""
"","","","ratingFB","5e7fb4743c00ce69510024fb","bdp_trlrn","Tue Mar 14 2023 19:51:09 GMT-0500 (Central Daylight Time)","588785","Untrustworthy,Trustworthy","image-keyboard-response","19","28355","0.0-6.0-2.6","","null","","","trustrating_stim/white_00761_941201_fb_edt.bmp","null","","","","","","","","","","",""
"","","","rating","5e7fb4743c00ce69510024fb","bdp_trlrn","Tue Mar 14 2023 19:51:09 GMT-0500 (Central Daylight Time)","588785","Untrustworthy,Trustworthy","image-keyboard-response","20","29645","0.0-6.0-1.7","","1185","","","trustrating_stim/white_mw097.bmp","1","","","","","","","","","","",""
"","","","ratingFB","5e7fb4743c00ce69510024fb","bdp_trlrn","Tue Mar 14 2023 19:51:09 GMT-0500 (Central Daylight Time)","588785","Untrustworthy,Trustworthy","image-keyboard-response","21","29851","0.0-6.0-2.7","","null","","","trustrating_stim/white_mw097.bmp","null","","","","","","","","","","",""
"","","","rating","5e7fb4743c00ce69510024fb","bdp_trlrn","Tue Mar 14 2023 19:51:09 GMT-0500 (Central Daylight Time)","588785","Untrustworthy,Trustworthy","image-keyboard-response","22","31949","0.0-6.0-1.8","","1996","","","trustrating_stim/white_mw084.bmp","1","","","","","","","","","","",""
"","","","ratingFB","5e7fb4743c00ce69510024fb","bdp_trlrn","Tue Mar 14 2023 19:51:09 GMT-0500 (Central Daylight Time)","588785","Untrustworthy,Trustworthy","image-keyboard-response","23","32154","0.0-6.0-2.8","","null","","","trustrating_stim/white_mw084.bmp","null","","","","","","","","","","",""
"","","","rating","5e7fb4743c00ce69510024fb","bdp_trlrn","Tue Mar 14 2023 19:51:09 GMT-0500 (Central Daylight Time)","588785","Untrustworthy,Trustworthy","image-keyboard-response","24","32941","0.0-6.0-1.9","","685","","","trustrating_stim/white_mw089.bmp","1","","","","","","","","","","",""
"","","","ratingFB","5e7fb4743c00ce69510024fb","bdp_trlrn","Tue Mar 14 2023 19:51:09 GMT-0500 (Central Daylight Time)","588785","Untrustworthy,Trustworthy","image-keyboard-response","25","33145","0.0-6.0-2.9","","null","","","trustrating_stim/white_mw089.bmp","null","","","","","","","","","","",""
"","","","rating","5e7fb4743c00ce69510024fb","bdp_trlrn","Tue Mar 14 2023 19:51:09 GMT-0500 (Central Daylight Time)","588785","Untrustworthy,Trustworthy","image-keyboard-response","26","34113","0.0-6.0-1.10","","861","","","trustrating_stim/white_mw033.bmp","1","","","","","","","","","","",""
"","","","ratingFB","5e7fb4743c00ce69510024fb","bdp_trlrn","Tue Mar 14 2023 19:51:09 GMT-0500 (Central Daylight Time)","588785","Untrustworthy,Trustworthy","image-keyboard-response","27","34318","0.0-6.0-2.10","","null","","","trustrating_stim/white_mw033.bmp","null","","","","","","","","","","",""
"","","","rating","5e7fb4743c00ce69510024fb","bdp_trlrn","Tue Mar 14 2023 19:51:09 GMT-0500 (Central Daylight Time)","588785","Untrustworthy,Trustworthy","image-keyboard-response","28","35333","0.0-6.0-1.11","","913","","","trustrating_stim/white_00519_940519_fb_edt.bmp","1","","","","","","","","","","",""
"","","","ratingFB","5e7fb4743c00ce69510024fb","bdp_trlrn","Tue Mar 14 2023 19:51:09 GMT-0500 (Central Daylight Time)","588785","Untrustworthy,Trustworthy","image-keyboard-response","29","35537","0.0-6.0-2.11","","null","","","trustrating_stim/white_00519_940519_fb_edt.bmp","null","","","","","","","","","","",""
"","","","rating","5e7fb4743c00ce69510024fb","bdp_trlrn","Tue Mar 14 2023 19:51:09 GMT-0500 (Central Daylight Time)","588785","Untrustworthy,Trustworthy","image-keyboard-response","30","36494","0.0-6.0-1.12","","849","","","trustrating_stim/white_00757_941201_fa_edt.bmp","1","","","","","","","","","","",""
"","","","ratingFB","5e7fb4743c00ce69510024fb","bdp_trlrn","Tue Mar 14 2023 19:51:09 GMT-0500 (Central Daylight Time)","588785","Untrustworthy,Trustworthy","image-keyboard-response","31","36697","0.0-6.0-2.12","","null","","","trustrating_stim/white_00757_941201_fa_edt.bmp","null","","","","","","","","","","",""
"","","","rating","5e7fb4743c00ce69510024fb","bdp_trlrn","Tue Mar 14 2023 19:51:09 GMT-0500 (Central Daylight Time)","588785","Untrustworthy,Trustworthy","image-keyboard-response","32","38459","0.0-6.0-1.13","","1654","","","trustrating_stim/white_00120_931230_fa_edt.bmp","3","","","","","","","","","","",""
"","","","ratingFB","5e7fb4743c00ce69510024fb","bdp_trlrn","Tue Mar 14 2023 19:51:09 GMT-0500 (Central Daylight Time)","588785","Untrustworthy,Trustworthy","image-keyboard-response","33","38665","0.0-6.0-2.13","","null","","","trustrating_stim/white_00120_931230_fa_edt.bmp","null","","","","","","","","","","",""
"","","","rating","5e7fb4743c00ce69510024fb","bdp_trlrn","Tue Mar 14 2023 19:51:09 GMT-0500 (Central Daylight Time)","588785","Untrustworthy,Trustworthy","image-keyboard-response","34","39573","0.0-6.0-1.14","","805","","","trustrating_stim/white_mw035.bmp","1","","","","","","","","","","",""
"","","","ratingFB","5e7fb4743c00ce69510024fb","bdp_trlrn","Tue Mar 14 2023 19:51:09 GMT-0500 (Central Daylight Time)","588785","Untrustworthy,Trustworthy","image-keyboard-response","35","39775","0.0-6.0-2.14","","null","","","trustrating_stim/white_mw035.bmp","null","","","","","","","","","","",""
"","","","rating","5e7fb4743c00ce69510024fb","bdp_trlrn","Tue Mar 14 2023 19:51:09 GMT-0500 (Central Daylight Time)","588785","Untrustworthy,Trustworthy","image-keyboard-response","36","41395","0.0-6.0-1.15","","1515","","","trustrating_stim/white_00898_960530_fa_edt.bmp","5","","","","","","","","","","",""
"","","","ratingFB","5e7fb4743c00ce69510024fb","bdp_trlrn","Tue Mar 14 2023 19:51:09 GMT-0500 (Central Daylight Time)","588785","Untrustworthy,Trustworthy","image-keyboard-response","37","41598","0.0-6.0-2.15","","null","","","trustrating_stim/white_00898_960530_fa_edt.bmp","null","","","","","","","","","","",""
"","","","rating","5e7fb4743c00ce69510024fb","bdp_trlrn","Tue Mar 14 2023 19:51:09 GMT-0500 (Central Daylight Time)","588785","Untrustworthy,Trustworthy","image-keyboard-response","38","42607","0.0-6.0-1.16","","905","","","trustrating_stim/white_mw071.bmp","1","","","","","","","","","","",""
"","","","ratingFB","5e7fb4743c00ce69510024fb","bdp_trlrn","Tue Mar 14 2023 19:51:09 GMT-0500 (Central Daylight Time)","588785","Untrustworthy,Trustworthy","image-keyboard-response","39","42809","0.0-6.0-2.16","","null","","","trustrating_stim/white_mw071.bmp","null","","","","","","","","","","",""
"","","","rating","5e7fb4743c00ce69510024fb","bdp_trlrn","Tue Mar 14 2023 19:51:09 GMT-0500 (Central Daylight Time)","588785","Untrustworthy,Trustworthy","image-keyboard-response","40","43913","0.0-6.0-1.17","","997","","","trustrating_stim/white_mw053.bmp","1","","","","","","","","","","",""
"","","","ratingFB","5e7fb4743c00ce69510024fb","bdp_trlrn","Tue Mar 14 2023 19:51:09 GMT-0500 (Central Daylight Time)","588785","Untrustworthy,Trustworthy","image-keyboard-response","41","44118","0.0-6.0-2.17","","null","","","trustrating_stim/white_mw053.bmp","null","","","","","","","","","","",""
"","","","rating","5e7fb4743c00ce69510024fb","bdp_trlrn","Tue Mar 14 2023 19:51:09 GMT-0500 (Central Daylight Time)","588785","Untrustworthy,Trustworthy","image-keyboard-response","42","44905","0.0-6.0-1.18","","686","","","trustrating_stim/white_00299_940422_fa_edt.bmp","1","","","","","","","","","","",""
"","","","ratingFB","5e7fb4743c00ce69510024fb","bdp_trlrn","Tue Mar 14 2023 19:51:09 GMT-0500 (Central Daylight Time)","588785","Untrustworthy,Trustworthy","image-keyboard-response","43","45111","0.0-6.0-2.18","","null","","","trustrating_stim/white_00299_940422_fa_edt.bmp","null","","","","","","","","","","",""
"","","","rating","5e7fb4743c00ce69510024fb","bdp_trlrn","Tue Mar 14 2023 19:51:09 GMT-0500 (Central Daylight Time)","588785","Untrustworthy,Trustworthy","image-keyboard-response","44","45962","0.0-6.0-1.19","","748","","","trustrating_stim/white_mw066.bmp","1","","","","","","","","","","",""
"","","","ratingFB","5e7fb4743c00ce69510024fb","bdp_trlrn","Tue Mar 14 2023 19:51:09 GMT-0500 (Central Daylight Time)","588785","Untrustworthy,Trustworthy","image-keyboard-response","45","46167","0.0-6.0-2.19","","null","","","trustrating_stim/white_mw066.bmp","null","","","","","","","","","","",""
"","","","rating","5e7fb4743c00ce69510024fb","bdp_trlrn","Tue Mar 14 2023 19:51:09 GMT-0500 (Central Daylight Time)","588785","Untrustworthy,Trustworthy","image-keyboard-response","46","47193","0.0-6.0-1.20","","923","","","trustrating_stim/white_mw063.bmp","1","","","","","","","","","","",""
"","","","ratingFB","5e7fb4743c00ce69510024fb","bdp_trlrn","Tue Mar 14 2023 19:51:09 GMT-0500 (Central Daylight Time)","588785","Untrustworthy,Trustworthy","image-keyboard-response","47","47399","0.0-6.0-2.20","","null","","","trustrating_stim/white_mw063.bmp","null","","","","","","","","","","",""
"","","","rating","5e7fb4743c00ce69510024fb","bdp_trlrn","Tue Mar 14 2023 19:51:09 GMT-0500 (Central Daylight Time)","588785","Untrustworthy,Trustworthy","image-keyboard-response","48","48346","0.0-6.0-1.21","","839","","","trustrating_stim/white_00785_941205_fb_edt.bmp","1","","","","","","","","","","",""
"","","","ratingFB","5e7fb4743c00ce69510024fb","bdp_trlrn","Tue Mar 14 2023 19:51:09 GMT-0500 (Central Daylight Time)","588785","Untrustworthy,Trustworthy","image-keyboard-response","49","48548","0.0-6.0-2.21","","null","","","trustrating_stim/white_00785_941205_fb_edt.bmp","null","","","","","","","","","","",""
"","","","rating","5e7fb4743c00ce69510024fb","bdp_trlrn","Tue Mar 14 2023 19:51:09 GMT-0500 (Central Daylight Time)","588785","Untrustworthy,Trustworthy","image-keyboard-response","50","49368","0.0-6.0-1.22","","714","","","trustrating_stim/white_00340_940422_fa_edt.bmp","1","","","","","","","","","","",""
"","","","ratingFB","5e7fb4743c00ce69510024fb","bdp_trlrn","Tue Mar 14 2023 19:51:09 GMT-0500 (Central Daylight Time)","588785","Untrustworthy,Trustworthy","image-keyboard-response","51","49570","0.0-6.0-2.22","","null","","","trustrating_stim/white_00340_940422_fa_edt.bmp","null","","","","","","","","","","",""
"","","","rating","5e7fb4743c00ce69510024fb","bdp_trlrn","Tue Mar 14 2023 19:51:09 GMT-0500 (Central Daylight Time)","588785","Untrustworthy,Trustworthy","image-keyboard-response","52","50334","0.0-6.0-1.23","","661","","","trustrating_stim/white_00223_940128_fb_edt.bmp","1","","","","","","","","","","",""
"","","","ratingFB","5e7fb4743c00ce69510024fb","bdp_trlrn","Tue Mar 14 2023 19:51:09 GMT-0500 (Central Daylight Time)","588785","Untrustworthy,Trustworthy","image-keyboard-response","53","50536","0.0-6.0-2.23","","null","","","trustrating_stim/white_00223_940128_fb_edt.bmp","null","","","","","","","","","","",""
"","","","rating","5e7fb4743c00ce69510024fb","bdp_trlrn","Tue Mar 14 2023 19:51:09 GMT-0500 (Central Daylight Time)","588785","Untrustworthy,Trustworthy","image-keyboard-response","54","51466","0.0-6.0-1.24","","823","","","trustrating_stim/white_mw048.bmp","1","","","","","","","","","","",""
"","","","ratingFB","5e7fb4743c00ce69510024fb","bdp_trlrn","Tue Mar 14 2023 19:51:09 GMT-0500 (Central Daylight Time)","588785","Untrustworthy,Trustworthy","image-keyboard-response","55","51668","0.0-6.0-2.24","","null","","","trustrating_stim/white_mw048.bmp","null","","","","","","","","","","",""
"","","","rating","5e7fb4743c00ce69510024fb","bdp_trlrn","Tue Mar 14 2023 19:51:09 GMT-0500 (Central Daylight Time)","588785","Untrustworthy,Trustworthy","image-keyboard-response","56","52589","0.0-6.0-1.25","","818","","","trustrating_stim/white_mw099.bmp","1","","","","","","","","","","",""
"","","","ratingFB","5e7fb4743c00ce69510024fb","bdp_trlrn","Tue Mar 14 2023 19:51:09 GMT-0500 (Central Daylight Time)","588785","Untrustworthy,Trustworthy","image-keyboard-response","57","52792","0.0-6.0-2.25","","null","","","trustrating_stim/white_mw099.bmp","null","","","","","","","","","","",""
"","","","rating","5e7fb4743c00ce69510024fb","bdp_trlrn","Tue Mar 14 2023 19:51:09 GMT-0500 (Central Daylight Time)","588785","Untrustworthy,Trustworthy","image-keyboard-response","58","53476","0.0-6.0-1.26","","579","","","trustrating_stim/white_mw060.bmp","1","","","","","","","","","","",""
"","","","ratingFB","5e7fb4743c00ce69510024fb","bdp_trlrn","Tue Mar 14 2023 19:51:09 GMT-0500 (Central Daylight Time)","588785","Untrustworthy,Trustworthy","image-keyboard-response","59","53682","0.0-6.0-2.26","","null","","","trustrating_stim/white_mw060.bmp","null","","","","","","","","","","",""
"","","","rating","5e7fb4743c00ce69510024fb","bdp_trlrn","Tue Mar 14 2023 19:51:09 GMT-0500 (Central Daylight Time)","588785","Untrustworthy,Trustworthy","image-keyboard-response","60","54413","0.0-6.0-1.27","","624","","","trustrating_stim/white_mw046.bmp","1","","","","","","","","","","",""
"","","","ratingFB","5e7fb4743c00ce69510024fb","bdp_trlrn","Tue Mar 14 2023 19:51:09 GMT-0500 (Central Daylight Time)","588785","Untrustworthy,Trustworthy","image-keyboard-response","61","54620","0.0-6.0-2.27","","null","","","trustrating_stim/white_mw046.bmp","null","","","","","","","","","","",""
"","","","rating","5e7fb4743c00ce69510024fb","bdp_trlrn","Tue Mar 14 2023 19:51:09 GMT-0500 (Central Daylight Time)","588785","Untrustworthy,Trustworthy","image-keyboard-response","62","56719","0.0-6.0-1.28","","1997","","","trustrating_stim/white_mw049.bmp","2","","","","","","","","","","",""
"","","","ratingFB","5e7fb4743c00ce69510024fb","bdp_trlrn","Tue Mar 14 2023 19:51:09 GMT-0500 (Central Daylight Time)","588785","Untrustworthy,Trustworthy","image-keyboard-response","63","56921","0.0-6.0-2.28","","null","","","trustrating_stim/white_mw049.bmp","null","","","","","","","","","","",""
"","","","rating","5e7fb4743c00ce69510024fb","bdp_trlrn","Tue Mar 14 2023 19:51:09 GMT-0500 (Central Daylight Time)","588785","Untrustworthy,Trustworthy","image-keyboard-response","64","57798","0.0-6.0-1.29","","772","","","trustrating_stim/white_mw056.bmp","1","","","","","","","","","","",""
"","","","ratingFB","5e7fb4743c00ce69510024fb","bdp_trlrn","Tue Mar 14 2023 19:51:09 GMT-0500 (Central Daylight Time)","588785","Untrustworthy,Trustworthy","image-keyboard-response","65","58002","0.0-6.0-2.29","","null","","","trustrating_stim/white_mw056.bmp","null","","","","","","","","","","",""
"","","","rating","5e7fb4743c00ce69510024fb","bdp_trlrn","Tue Mar 14 2023 19:51:09 GMT-0500 (Central Daylight Time)","588785","Untrustworthy,Trustworthy","image-keyboard-response","66","58834","0.0-6.0-1.30","","728","","","trustrating_stim/white_mw066.bmp","1","","","","","","","","","","",""
"","","","ratingFB","5e7fb4743c00ce69510024fb","bdp_trlrn","Tue Mar 14 2023 19:51:09 GMT-0500 (Central Daylight Time)","588785","Untrustworthy,Trustworthy","image-keyboard-response","67","59040","0.0-6.0-2.30","","null","","","trustrating_stim/white_mw066.bmp","null","","","","","","","","","","",""
"","","","rating","5e7fb4743c00ce69510024fb","bdp_trlrn","Tue Mar 14 2023 19:51:09 GMT-0500 (Central Daylight Time)","588785","Untrustworthy,Trustworthy","image-keyboard-response","68","59843","0.0-6.0-1.31","","699","","","trustrating_stim/white_00340_940422_fa_edt.bmp","1","","","","","","","","","","",""
"","","","ratingFB","5e7fb4743c00ce69510024fb","bdp_trlrn","Tue Mar 14 2023 19:51:09 GMT-0500 (Central Daylight Time)","588785","Untrustworthy,Trustworthy","image-keyboard-response","69","60047","0.0-6.0-2.31","","null","","","trustrating_stim/white_00340_940422_fa_edt.bmp","null","","","","","","","","","","",""
"","","","rating","5e7fb4743c00ce69510024fb","bdp_trlrn","Tue Mar 14 2023 19:51:09 GMT-0500 (Central Daylight Time)","588785","Untrustworthy,Trustworthy","image-keyboard-response","70","60917","0.0-6.0-1.32","","763","","","trustrating_stim/white_00757_941201_fa_edt.bmp","1","","","","","","","","","","",""
"","","","ratingFB","5e7fb4743c00ce69510024fb","bdp_trlrn","Tue Mar 14 2023 19:51:09 GMT-0500 (Central Daylight Time)","588785","Untrustworthy,Trustworthy","image-keyboard-response","71","61120","0.0-6.0-2.32","","null","","","trustrating_stim/white_00757_941201_fa_edt.bmp","null","","","","","","","","","","",""
"","","","rating","5e7fb4743c00ce69510024fb","bdp_trlrn","Tue Mar 14 2023 19:51:09 GMT-0500 (Central Daylight Time)","588785","Untrustworthy,Trustworthy","image-keyboard-response","72","61990","0.0-6.0-1.33","","765","","","trustrating_stim/white_00785_941205_fb_edt.bmp","1","","","","","","","","","","",""
"","","","ratingFB","5e7fb4743c00ce69510024fb","bdp_trlrn","Tue Mar 14 2023 19:51:09 GMT-0500 (Central Daylight Time)","588785","Untrustworthy,Trustworthy","image-keyboard-response","73","62193","0.0-6.0-2.33","","null","","","trustrating_stim/white_00785_941205_fb_edt.bmp","null","","","","","","","","","","",""
"","","","rating","5e7fb4743c00ce69510024fb","bdp_trlrn","Tue Mar 14 2023 19:51:09 GMT-0500 (Central Daylight Time)","588785","Untrustworthy,Trustworthy","image-keyboard-response","74","63134","0.0-6.0-1.34","","834","","","trustrating_stim/white_mw048.bmp","1","","","","","","","","","","",""
"","","","ratingFB","5e7fb4743c00ce69510024fb","bdp_trlrn","Tue Mar 14 2023 19:51:09 GMT-0500 (Central Daylight Time)","588785","Untrustworthy,Trustworthy","image-keyboard-response","75","63338","0.0-6.0-2.34","","null","","","trustrating_stim/white_mw048.bmp","null","","","","","","","","","","",""
"","","","rating","5e7fb4743c00ce69510024fb","bdp_trlrn","Tue Mar 14 2023 19:51:09 GMT-0500 (Central Daylight Time)","588785","Untrustworthy,Trustworthy","image-keyboard-response","76","64204","0.0-6.0-1.35","","759","","","trustrating_stim/white_mw049.bmp","1","","","","","","","","","","",""
"","","","ratingFB","5e7fb4743c00ce69510024fb","bdp_trlrn","Tue Mar 14 2023 19:51:09 GMT-0500 (Central Daylight Time)","588785","Untrustworthy,Trustworthy","image-keyboard-response","77","64409","0.0-6.0-2.35","","null","","","trustrating_stim/white_mw049.bmp","null","","","","","","","","","","",""
"","","","rating","5e7fb4743c00ce69510024fb","bdp_trlrn","Tue Mar 14 2023 19:51:09 GMT-0500 (Central Daylight Time)","588785","Untrustworthy,Trustworthy","image-keyboard-response","78","65059","0.0-6.0-1.36","","541","","","trustrating_stim/white_mw033.bmp","1","","","","","","","","","","",""
"","","","ratingFB","5e7fb4743c00ce69510024fb","bdp_trlrn","Tue Mar 14 2023 19:51:09 GMT-0500 (Central Daylight Time)","588785","Untrustworthy,Trustworthy","image-keyboard-response","79","65265","0.0-6.0-2.36","","null","","","trustrating_stim/white_mw033.bmp","null","","","","","","","","","","",""
"","","","rating","5e7fb4743c00ce69510024fb","bdp_trlrn","Tue Mar 14 2023 19:51:09 GMT-0500 (Central Daylight Time)","588785","Untrustworthy,Trustworthy","image-keyboard-response","80","65992","0.0-6.0-1.37","","623","","","trustrating_stim/white_mw060.bmp","1","","","","","","","","","","",""
"","","","ratingFB","5e7fb4743c00ce69510024fb","bdp_trlrn","Tue Mar 14 2023 19:51:09 GMT-0500 (Central Daylight Time)","588785","Untrustworthy,Trustworthy","image-keyboard-response","81","66198","0.0-6.0-2.37","","null","","","trustrating_stim/white_mw060.bmp","null","","","","","","","","","","",""
"","","","rating","5e7fb4743c00ce69510024fb","bdp_trlrn","Tue Mar 14 2023 19:51:09 GMT-0500 (Central Daylight Time)","588785","Untrustworthy,Trustworthy","image-keyboard-response","82","66956","0.0-6.0-1.38","","649","","","trustrating_stim/white_mw071.bmp","1","","","","","","","","","","",""
"","","","ratingFB","5e7fb4743c00ce69510024fb","bdp_trlrn","Tue Mar 14 2023 19:51:09 GMT-0500 (Central Daylight Time)","588785","Untrustworthy,Trustworthy","image-keyboard-response","83","67157","0.0-6.0-2.38","","null","","","trustrating_stim/white_mw071.bmp","null","","","","","","","","","","",""
"","","","rating","5e7fb4743c00ce69510024fb","bdp_trlrn","Tue Mar 14 2023 19:51:09 GMT-0500 (Central Daylight Time)","588785","Untrustworthy,Trustworthy","image-keyboard-response","84","68728","0.0-6.0-1.39","","1469","","","trustrating_stim/white_00129_931230_fb_edt.bmp","3","","","","","","","","","","",""
"","","","ratingFB","5e7fb4743c00ce69510024fb","bdp_trlrn","Tue Mar 14 2023 19:51:09 GMT-0500 (Central Daylight Time)","588785","Untrustworthy,Trustworthy","image-keyboard-response","85","68930","0.0-6.0-2.39","","null","","","trustrating_stim/white_00129_931230_fb_edt.bmp","null","","","","","","","","","","",""
"","","","rating","5e7fb4743c00ce69510024fb","bdp_trlrn","Tue Mar 14 2023 19:51:09 GMT-0500 (Central Daylight Time)","588785","Untrustworthy,Trustworthy","image-keyboard-response","86","69845","0.0-6.0-1.40","","810","","","trustrating_stim/white_00299_940422_fa_edt.bmp","1","","","","","","","","","","",""
"","","","ratingFB","5e7fb4743c00ce69510024fb","bdp_trlrn","Tue Mar 14 2023 19:51:09 GMT-0500 (Central Daylight Time)","588785","Untrustworthy,Trustworthy","image-keyboard-response","87","70047","0.0-6.0-2.40","","null","","","trustrating_stim/white_00299_940422_fa_edt.bmp","null","","","","","","","","","","",""
"","","","rating","5e7fb4743c00ce69510024fb","bdp_trlrn","Tue Mar 14 2023 19:51:09 GMT-0500 (Central Daylight Time)","588785","Untrustworthy,Trustworthy","image-keyboard-response","88","70832","0.0-6.0-1.41","","682","","","trustrating_stim/white_00807_941205_fb_edt.bmp","1","","","","","","","","","","",""
"","","","ratingFB","5e7fb4743c00ce69510024fb","bdp_trlrn","Tue Mar 14 2023 19:51:09 GMT-0500 (Central Daylight Time)","588785","Untrustworthy,Trustworthy","image-keyboard-response","89","71037","0.0-6.0-2.41","","null","","","trustrating_stim/white_00807_941205_fb_edt.bmp","null","","","","","","","","","","",""
"","","","rating","5e7fb4743c00ce69510024fb","bdp_trlrn","Tue Mar 14 2023 19:51:09 GMT-0500 (Central Daylight Time)","588785","Untrustworthy,Trustworthy","image-keyboard-response","90","71793","0.0-6.0-1.42","","649","","","trustrating_stim/white_mw046.bmp","1","","","","","","","","","","",""
"","","","ratingFB","5e7fb4743c00ce69510024fb","bdp_trlrn","Tue Mar 14 2023 19:51:09 GMT-0500 (Central Daylight Time)","588785","Untrustworthy,Trustworthy","image-keyboard-response","91","71997","0.0-6.0-2.42","","null","","","trustrating_stim/white_mw046.bmp","null","","","","","","","","","","",""
"","","","rating","5e7fb4743c00ce69510024fb","bdp_trlrn","Tue Mar 14 2023 19:51:09 GMT-0500 (Central Daylight Time)","588785","Untrustworthy,Trustworthy","image-keyboard-response","92","73102","0.0-6.0-1.43","","992","","","trustrating_stim/white_00519_940519_fb_edt.bmp","1","","","","","","","","","","",""
"","","","ratingFB","5e7fb4743c00ce69510024fb","bdp_trlrn","Tue Mar 14 2023 19:51:09 GMT-0500 (Central Daylight Time)","588785","Untrustworthy,Trustworthy","image-keyboard-response","93","73304","0.0-6.0-2.43","","null","","","trustrating_stim/white_00519_940519_fb_edt.bmp","null","","","","","","","","","","",""
"","","","rating","5e7fb4743c00ce69510024fb","bdp_trlrn","Tue Mar 14 2023 19:51:09 GMT-0500 (Central Daylight Time)","588785","Untrustworthy,Trustworthy","image-keyboard-response","94","74384","0.0-6.0-1.44","","970","","","trustrating_stim/white_mw097.bmp","1","","","","","","","","","","",""
"","","","ratingFB","5e7fb4743c00ce69510024fb","bdp_trlrn","Tue Mar 14 2023 19:51:09 GMT-0500 (Central Daylight Time)","588785","Untrustworthy,Trustworthy","image-keyboard-response","95","74586","0.0-6.0-2.44","","null","","","trustrating_stim/white_mw097.bmp","null","","","","","","","","","","",""
"","","","rating","5e7fb4743c00ce69510024fb","bdp_trlrn","Tue Mar 14 2023 19:51:09 GMT-0500 (Central Daylight Time)","588785","Untrustworthy,Trustworthy","image-keyboard-response","96","75401","0.0-6.0-1.45","","708","","","trustrating_stim/white_mw063.bmp","1","","","","","","","","","","",""
"","","","ratingFB","5e7fb4743c00ce69510024fb","bdp_trlrn","Tue Mar 14 2023 19:51:09 GMT-0500 (Central Daylight Time)","588785","Untrustworthy,Trustworthy","image-keyboard-response","97","75607","0.0-6.0-2.45","","null","","","trustrating_stim/white_mw063.bmp","null","","","","","","","","","","",""
"","","","rating","5e7fb4743c00ce69510024fb","bdp_trlrn","Tue Mar 14 2023 19:51:09 GMT-0500 (Central Daylight Time)","588785","Untrustworthy,Trustworthy","image-keyboard-response","98","76650","0.0-6.0-1.46","","936","","","trustrating_stim/white_00577_940928_fa_edt.bmp","1","","","","","","","","","","",""
"","","","ratingFB","5e7fb4743c00ce69510024fb","bdp_trlrn","Tue Mar 14 2023 19:51:09 GMT-0500 (Central Daylight Time)","588785","Untrustworthy,Trustworthy","image-keyboard-response","99","76852","0.0-6.0-2.46","","null","","","trustrating_stim/white_00577_940928_fa_edt.bmp","null","","","","","","","","","","",""
"","","","rating","5e7fb4743c00ce69510024fb","bdp_trlrn","Tue Mar 14 2023 19:51:09 GMT-0500 (Central Daylight Time)","588785","Untrustworthy,Trustworthy","image-keyboard-response","100","78778","0.0-6.0-1.47","","1817","","","trustrating_stim/white_00120_931230_fa_edt.bmp","4","","","","","","","","","","",""
"","","","ratingFB","5e7fb4743c00ce69510024fb","bdp_trlrn","Tue Mar 14 2023 19:51:09 GMT-0500 (Central Daylight Time)","588785","Untrustworthy,Trustworthy","image-keyboard-response","101","78981","0.0-6.0-2.47","","null","","","trustrating_stim/white_00120_931230_fa_edt.bmp","null","","","","","","","","","","",""
"","","","rating","5e7fb4743c00ce69510024fb","bdp_trlrn","Tue Mar 14 2023 19:51:09 GMT-0500 (Central Daylight Time)","588785","Untrustworthy,Trustworthy","image-keyboard-response","102","79721","0.0-6.0-1.48","","636","","","trustrating_stim/white_mw084.bmp","1","","","","","","","","","","",""
"","","","ratingFB","5e7fb4743c00ce69510024fb","bdp_trlrn","Tue Mar 14 2023 19:51:09 GMT-0500 (Central Daylight Time)","588785","Untrustworthy,Trustworthy","image-keyboard-response","103","79923","0.0-6.0-2.48","","null","","","trustrating_stim/white_mw084.bmp","null","","","","","","","","","","",""
"","","","rating","5e7fb4743c00ce69510024fb","bdp_trlrn","Tue Mar 14 2023 19:51:09 GMT-0500 (Central Daylight Time)","588785","Untrustworthy,Trustworthy","image-keyboard-response","104","80677","0.0-6.0-1.49","","651","","","trustrating_stim/white_mw089.bmp","1","","","","","","","","","","",""
"","","","ratingFB","5e7fb4743c00ce69510024fb","bdp_trlrn","Tue Mar 14 2023 19:51:09 GMT-0500 (Central Daylight Time)","588785","Untrustworthy,Trustworthy","image-keyboard-response","105","80883","0.0-6.0-2.49","","null","","","trustrating_stim/white_mw089.bmp","null","","","","","","","","","","",""
"","","","rating","5e7fb4743c00ce69510024fb","bdp_trlrn","Tue Mar 14 2023 19:51:09 GMT-0500 (Central Daylight Time)","588785","Untrustworthy,Trustworthy","image-keyboard-response","106","81797","0.0-6.0-1.50","","809","","","trustrating_stim/white_mw035.bmp","1","","","","","","","","","","",""
"","","","ratingFB","5e7fb4743c00ce69510024fb","bdp_trlrn","Tue Mar 14 2023 19:51:09 GMT-0500 (Central Daylight Time)","588785","Untrustworthy,Trustworthy","image-keyboard-response","107","82004","0.0-6.0-2.50","","null","","","trustrating_stim/white_mw035.bmp","null","","","","","","","","","","",""
"","","","rating","5e7fb4743c00ce69510024fb","bdp_trlrn","Tue Mar 14 2023 19:51:09 GMT-0500 (Central Daylight Time)","588785","Untrustworthy,Trustworthy","image-keyboard-response","108","82736","0.0-6.0-1.51","","627","","","trustrating_stim/white_mw053.bmp","1","","","","","","","","","","",""
"","","","ratingFB","5e7fb4743c00ce69510024fb","bdp_trlrn","Tue Mar 14 2023 19:51:09 GMT-0500 (Central Daylight Time)","588785","Untrustworthy,Trustworthy","image-keyboard-response","109","82937","0.0-6.0-2.51","","null","","","trustrating_stim/white_mw053.bmp","null","","","","","","","","","","",""
"","","","rating","5e7fb4743c00ce69510024fb","bdp_trlrn","Tue Mar 14 2023 19:51:09 GMT-0500 (Central Daylight Time)","588785","Untrustworthy,Trustworthy","image-keyboard-response","110","83810","0.0-6.0-1.52","","764","","","trustrating_stim/white_mw056.bmp","1","","","","","","","","","","",""
"","","","ratingFB","5e7fb4743c00ce69510024fb","bdp_trlrn","Tue Mar 14 2023 19:51:09 GMT-0500 (Central Daylight Time)","588785","Untrustworthy,Trustworthy","image-keyboard-response","111","84016","0.0-6.0-2.52","","null","","","trustrating_stim/white_mw056.bmp","null","","","","","","","","","","",""
"","","","rating","5e7fb4743c00ce69510024fb","bdp_trlrn","Tue Mar 14 2023 19:51:09 GMT-0500 (Central Daylight Time)","588785","Untrustworthy,Trustworthy","image-keyboard-response","112","85206","0.0-6.0-1.53","","1087","","","trustrating_stim/white_00898_960530_fa_edt.bmp","5","","","","","","","","","","",""
"","","","ratingFB","5e7fb4743c00ce69510024fb","bdp_trlrn","Tue Mar 14 2023 19:51:09 GMT-0500 (Central Daylight Time)","588785","Untrustworthy,Trustworthy","image-keyboard-response","113","85412","0.0-6.0-2.53","","null","","","trustrating_stim/white_00898_960530_fa_edt.bmp","null","","","","","","","","","","",""
"","","","rating","5e7fb4743c00ce69510024fb","bdp_trlrn","Tue Mar 14 2023 19:51:09 GMT-0500 (Central Daylight Time)","588785","Untrustworthy,Trustworthy","image-keyboard-response","114","86239","0.0-6.0-1.54","","720","","","trustrating_stim/white_mw099.bmp","1","","","","","","","","","","",""
"","","","ratingFB","5e7fb4743c00ce69510024fb","bdp_trlrn","Tue Mar 14 2023 19:51:09 GMT-0500 (Central Daylight Time)","588785","Untrustworthy,Trustworthy","image-keyboard-response","115","86446","0.0-6.0-2.54","","null","","","trustrating_stim/white_mw099.bmp","null","","","","","","","","","","",""
"","","","rating","5e7fb4743c00ce69510024fb","bdp_trlrn","Tue Mar 14 2023 19:51:09 GMT-0500 (Central Daylight Time)","588785","Untrustworthy,Trustworthy","image-keyboard-response","116","87084","0.0-6.0-1.55","","532","","","trustrating_stim/white_00602_940928_fb_edt.bmp","1","","","","","","","","","","",""
"","","","ratingFB","5e7fb4743c00ce69510024fb","bdp_trlrn","Tue Mar 14 2023 19:51:09 GMT-0500 (Central Daylight Time)","588785","Untrustworthy,Trustworthy","image-keyboard-response","117","87289","0.0-6.0-2.55","","null","","","trustrating_stim/white_00602_940928_fb_edt.bmp","null","","","","","","","","","","",""
"","","","rating","5e7fb4743c00ce69510024fb","bdp_trlrn","Tue Mar 14 2023 19:51:09 GMT-0500 (Central Daylight Time)","588785","Untrustworthy,Trustworthy","image-keyboard-response","118","88541","0.0-6.0-1.56","","1145","","","trustrating_stim/white_00223_940128_fb_edt.bmp","1","","","","","","","","","","",""
"","","","ratingFB","5e7fb4743c00ce69510024fb","bdp_trlrn","Tue Mar 14 2023 19:51:09 GMT-0500 (Central Daylight Time)","588785","Untrustworthy,Trustworthy","image-keyboard-response","119","88743","0.0-6.0-2.56","","null","","","trustrating_stim/white_00223_940128_fb_edt.bmp","null","","","","","","","","","","",""
"","","","rating","5e7fb4743c00ce69510024fb","bdp_trlrn","Tue Mar 14 2023 19:51:09 GMT-0500 (Central Daylight Time)","588785","Untrustworthy,Trustworthy","image-keyboard-response","120","89476","0.0-6.0-1.57","","624","","","trustrating_stim/white_00659_941121_fa_edt.bmp","1","","","","","","","","","","",""
"","","","ratingFB","5e7fb4743c00ce69510024fb","bdp_trlrn","Tue Mar 14 2023 19:51:09 GMT-0500 (Central Daylight Time)","588785","Untrustworthy,Trustworthy","image-keyboard-response","121","89681","0.0-6.0-2.57","","null","","","trustrating_stim/white_00659_941121_fa_edt.bmp","null","","","","","","","","","","",""
"","","","rating","5e7fb4743c00ce69510024fb","bdp_trlrn","Tue Mar 14 2023 19:51:09 GMT-0500 (Central Daylight Time)","588785","Untrustworthy,Trustworthy","image-keyboard-response","122","91360","0.0-6.0-1.58","","1570","","","trustrating_stim/white_00109_931230_fa_edt.bmp","2","","","","","","","","","","",""
"","","","ratingFB","5e7fb4743c00ce69510024fb","bdp_trlrn","Tue Mar 14 2023 19:51:09 GMT-0500 (Central Daylight Time)","588785","Untrustworthy,Trustworthy","image-keyboard-response","123","91563","0.0-6.0-2.58","","null","","","trustrating_stim/white_00109_931230_fa_edt.bmp","null","","","","","","","","","","",""
"","","","rating","5e7fb4743c00ce69510024fb","bdp_trlrn","Tue Mar 14 2023 19:51:09 GMT-0500 (Central Daylight Time)","588785","Untrustworthy,Trustworthy","image-keyboard-response","124","92615","0.0-6.0-1.59","","944","","","trustrating_stim/white_00761_941201_fb_edt.bmp","1","","","","","","","","","","",""
"","","","ratingFB","5e7fb4743c00ce69510024fb","bdp_trlrn","Tue Mar 14 2023 19:51:09 GMT-0500 (Central Daylight Time)","588785","Untrustworthy,Trustworthy","image-keyboard-response","125","92820","0.0-6.0-2.59","","null","","","trustrating_stim/white_00761_941201_fb_edt.bmp","null","","","","","","","","","","",""
"","","","","5e7fb4743c00ce69510024fb","bdp_trlrn","Tue Mar 14 2023 19:51:09 GMT-0500 (Central Daylight Time)","588785","Untrustworthy,Trustworthy","instructions","126","93974","0.0-7.0","[{""page_index"":0,""viewing_time"":1046}]","1046","","","","","","","","","","","","","","",""
"","","","","5e7fb4743c00ce69510024fb","bdp_trlrn","Tue Mar 14 2023 19:51:09 GMT-0500 (Central Daylight Time)","588785","Untrustworthy,Trustworthy","instructions","127","108752","0.0-8.0","[{""page_index"":0,""viewing_time"":749},{""page_index"":1,""viewing_time"":858},{""page_index"":2,""viewing_time"":3230},{""page_index"":3,""viewing_time"":2508},{""page_index"":4,""viewing_time"":3056},{""page_index"":5,""viewing_time"":1647},{""page_index"":6,""viewing_time"":1168},{""page_index"":7,""viewing_time"":1460}]","14677","","","","","","","","","","","","","","",""
"","","","","5e7fb4743c00ce69510024fb","bdp_trlrn","Tue Mar 14 2023 19:51:09 GMT-0500 (Central Daylight Time)","588785","Untrustworthy,Trustworthy","html-keyboard-response","128","113060","0.0-9.0","","4307","","","<div class='header' style='text-align:left; position: absolute; top: 5%; left: 5%;'><small>Task 3 of 5</small></div><div class='instruxDiv'><p><strong>1) What is the minimum number of points you can choose to send to your partner?</strong></p><p>a) 0</p><p>b) 1</p><p>c) 5</p>","B","","","","","","","","","","",""
"","","","","5e7fb4743c00ce69510024fb","bdp_trlrn","Tue Mar 14 2023 19:51:09 GMT-0500 (Central Daylight Time)","588785","Untrustworthy,Trustworthy","html-keyboard-response","129","114190","0.0-10.0","","1024","","","<div class='header' style='text-align:left; position: absolute; top: 5%; left: 5%;'><small>Task 3 of 5</small></div><div class='instruxDiv'><p><strong>1) What is the minimum number of points you can choose to send to your partner?</strong></p><p>a) 0</p><p style='color:#00FF00'>b) 1</p><p>c) 5</p><h3 style='color:#00FF00'>Correct!</h3><h3 class='center-content'>The correct response is b).</h3><h3 class='center-content'>The minimum number of points you can choose to send to your partner is 1 point.</h3><p><em>Press SPACEBAR to continue</em></p></div>"," ","","","","","","","","","","",""
"","","","","5e7fb4743c00ce69510024fb","bdp_trlrn","Tue Mar 14 2023 19:51:09 GMT-0500 (Central Daylight Time)","588785","Untrustworthy,Trustworthy","html-keyboard-response","130","116001","0.0-11.0","","1710","","","<div class='header' style='text-align:left; position: absolute; top: 5%; left: 5%;'><small>Task 3 of 5</small></div><div class='instruxDiv'><p><strong>2) What is the maximum number of points you can choose to send to your partner?</strong></p><p>a) 8</p><p>b) 5</p><p>c) 3</p>","B","","","","","","","","","","",""
"","","","","5e7fb4743c00ce69510024fb","bdp_trlrn","Tue Mar 14 2023 19:51:09 GMT-0500 (Central Daylight Time)","588785","Untrustworthy,Trustworthy","html-keyboard-response","131","117129","0.0-12.0","","1020","","","<div class='header' style='text-align:left; position: absolute; top: 5%; left: 5%;'><small>Task 3 of 5</small></div><div class='instruxDiv'><p><strong>2) What is the maximum number of points you can choose to send to your partner?</strong></p><p>a) 8</p><p style='color:#00FF00'>b) 5</p><p>c) 3</p><h3 style='color:#00FF00'>Correct!</h3><h3 class='center-content'>The correct response is b).</h3><h3 class='center-content'>The maximum number of points you can choose to send to your partner is 5 points.</h3><p><em>Press SPACEBAR to continue</em></p></div>"," ","","","","","","","","","","",""
"","","","","5e7fb4743c00ce69510024fb","bdp_trlrn","Tue Mar 14 2023 19:51:09 GMT-0500 (Central Daylight Time)","588785","Untrustworthy,Trustworthy","html-keyboard-response","132","118834","0.0-13.0","","1602","","","<div class='header' style='text-align:left; position: absolute; top: 5%; left: 5%;'><small>Task 3 of 5</small></div><div class='instruxDiv'><p><strong>3) What happens to the amount of points you send to your partner?</strong></p><p>a) Nothing</p><p>b) It doubles</p><p>c) It quadruples</p>","C","","","","","","","","","","",""
"","","","","5e7fb4743c00ce69510024fb","bdp_trlrn","Tue Mar 14 2023 19:51:09 GMT-0500 (Central Daylight Time)","588785","Untrustworthy,Trustworthy","html-keyboard-response","133","119625","0.0-14.0","","688","","","<div class='header' style='text-align:left; position: absolute; top: 5%; left: 5%;'><small>Task 3 of 5</small></div><div class='instruxDiv'><p><strong>3) What happens to the amount of points you send to your partner?</strong></p><p>a) Nothing</p><p>b) It doubles</p><p style='color:#00FF00'>c) It quadruples</p><h3 style='color:#00FF00'>Correct!</h3><h3 class='center-content'>The correct response is c).</h3><h3 class='center-content'>The amount of points you send to your partner quadruples.</h3><p><em>Press SPACEBAR to continue</em></p></div>"," ","","","","","","","","","","",""
"","","","","5e7fb4743c00ce69510024fb","bdp_trlrn","Tue Mar 14 2023 19:51:09 GMT-0500 (Central Daylight Time)","588785","Untrustworthy,Trustworthy","html-keyboard-response","134","121301","0.0-15.0","","1572","","","<div class='header' style='text-align:left; position: absolute; top: 5%; left: 5%;'><small>Task 3 of 5</small></div><div class='instruxDiv'><p><strong>4) If you decided to share 4 out of 5 points with your partner, and they decided to share half of the amount they received with you, how many points would you receive back from them on this round?</strong></p><p>a) 16</p><p>b) 0</p><p>c) 8</p>","C","","","","","","","","","","",""
"","","","","5e7fb4743c00ce69510024fb","bdp_trlrn","Tue Mar 14 2023 19:51:09 GMT-0500 (Central Daylight Time)","588785","Untrustworthy,Trustworthy","html-keyboard-response","135","122233","0.0-16.0","","829","","","<div class='header' style='text-align:left; position: absolute; top: 5%; left: 5%;'><small>Task 3 of 5</small></div><div class='instruxDiv'><p><strong>4) If you decided to share 4 out of 5 points with your partner, and they decided to share half of the amount they received with you, how many points would you receive back from them on this round?</strong></p><p>a) 16</p><p>b) 0</p><p style='color:#00FF00'>c) 8</p><h3 style='color:#00FF00'>Correct!</h3><h3 class='center-content'>The correct response is c).</h3><h3 class='center-content'>If you shared 4 out of 5 points with your partner and they decided to share half of the amount they received with you, you would receive 8 points back (i.e. (4 x 4)/2 = 8).</h3><p><em>Press SPACEBAR to continue</em></p></div>"," ","","","","","","","","","","",""
"","","","","5e7fb4743c00ce69510024fb","bdp_trlrn","Tue Mar 14 2023 19:51:09 GMT-0500 (Central Daylight Time)","588785","Untrustworthy,Trustworthy","html-keyboard-response","136","127342","0.0-17.0","","null","","","<div class='header' style='text-align:left; position: absolute; top: 5%; left: 5%;'><small>Task 3 of 5</small></div><div class='instruxDiv'><p>Thank you for completing the quiz<p>These are the actual partners you will be interacting with in the next block:<p><div class='tc' align='center'><img class='introPic' src='trustrating_stim/white_mw063.bmp'><br><strong>Alex</strong></div><div class='bl' align='center'><img class='introPic' src='trustrating_stim/white_mw056.bmp'><br><strong>Jason</strong></div><div class='br' align='center'><img class='introPic' src='trustrating_stim/white_00129_931230_fb_edt.bmp'><br><strong>Brian</strong></div></div><p>Across <strong>66 rounds</strong> you will interact with each partner <strong>22 times</strong> (in random order).<p style='align:center; color:white'><font <em>Press SPACEBAR to continue</em></p>","null","","","","","","","","","","",""
"","","","","5e7fb4743c00ce69510024fb","bdp_trlrn","Tue Mar 14 2023 19:51:09 GMT-0500 (Central Daylight Time)","588785","Untrustworthy,Trustworthy","instructions","137","131705","0.0-18.0","[{""page_index"":0,""viewing_time"":2837},{""page_index"":1,""viewing_time"":1525}]","4362","","","","","","","","","","","","","","",""
"","","","decision","5e7fb4743c00ce69510024fb","bdp_trlrn","Tue Mar 14 2023 19:51:09 GMT-0500 (Central Daylight Time)","588785","Untrustworthy,Trustworthy","html-keyboard-response","138","133230","0.0-19.0-1.0","","1420","","","<div class='trialDiv'><img src='trustrating_stim/white_00129_931230_fb_edt.bmp'><br><font class='baseline'><strong>Brian</strong><p>Choose number of points to send.</font><div class='respPicDiv'><img src='img/responseButtonOffersNo0L.png' class='respPic'></div></div>","4","1","Brian","8","Kept","0.2,0.65","13","0.2","trustrating_stim/white_00129_931230_fb_edt.bmp","2","5","1"
"","","","decisionFB","5e7fb4743c00ce69510024fb","bdp_trlrn","Tue Mar 14 2023 19:51:09 GMT-0500 (Central Daylight Time)","588785","Untrustworthy,Trustworthy","html-keyboard-response","139","133483","0.0-19.0-2.0","","null","","","<div class='trialDiv'><img src='trustrating_stim/white_00129_931230_fb_edt.bmp'><br><font class='baseline'><strong>Brian</strong><p>Choose number of points to send.</font><div class='respPicDiv'><img src='img/responseButtonOffersNo0L4.png' class='respPic'></div></div>","null","1","Brian","8","Kept","0.2,0.65","13","0.2","trustrating_stim/white_00129_931230_fb_edt.bmp","2","1","1"
"","","","feedback","5e7fb4743c00ce69510024fb","bdp_trlrn","Tue Mar 14 2023 19:51:09 GMT-0500 (Central Daylight Time)","588785","Untrustworthy,Trustworthy","html-keyboard-response","140","134489","0.0-19.0-3.0","","null","","","<div class='trialDiv'><img src='trustrating_stim/white_00129_931230_fb_edt.bmp'><br><font class='baseline'><strong>Brian</strong><p>Received: <strong>16</strong></font> &nbsp; &nbsp; &nbsp; &nbsp; &nbsp; &nbsp;<font class='negOutcome'>Shared back: <strong>0</strong></font></font><div class='respPicDiv'><img src='img/responseButtonOffersNo0_wht.png' class='respPic'></div></div>","null","1","Brian","8","Kept","0.2,0.65","13","0.2","trustrating_stim/white_00129_931230_fb_edt.bmp","2","1","1"
"","","","decision","5e7fb4743c00ce69510024fb","bdp_trlrn","Tue Mar 14 2023 19:51:09 GMT-0500 (Central Daylight Time)","588785","Untrustworthy,Trustworthy","html-keyboard-response","141","136950","0.0-19.0-1.1","","2458","","","<div class='trialDiv'><img src='trustrating_stim/white_mw063.bmp'><br><font class='baseline'><strong>Alex</strong><p>Choose number of points to send.</font><div class='respPicDiv'><img src='img/responseButtonOffersNo0L.png' class='respPic'></div></div>","5","1","Alex","2","Kept","0.8,0.2","14","0.8","trustrating_stim/white_mw063.bmp","1","6","2"
"","","","decisionFB","5e7fb4743c00ce69510024fb","bdp_trlrn","Tue Mar 14 2023 19:51:09 GMT-0500 (Central Daylight Time)","588785","Untrustworthy,Trustworthy","html-keyboard-response","142","137201","0.0-19.0-2.1","","null","","","<div class='trialDiv'><img src='trustrating_stim/white_mw063.bmp'><br><font class='baseline'><strong>Alex</strong><p>Choose number of points to send.</font><div class='respPicDiv'><img src='img/responseButtonOffersNo0L5.png' class='respPic'></div></div>","null","1","Alex","2","Kept","0.8,0.2","14","0.8","trustrating_stim/white_mw063.bmp","1","1","2"
"","","","feedback","5e7fb4743c00ce69510024fb","bdp_trlrn","Tue Mar 14 2023 19:51:09 GMT-0500 (Central Daylight Time)","588785","Untrustworthy,Trustworthy","html-keyboard-response","143","138205","0.0-19.0-3.1","","null","","","<div class='trialDiv'><img src='trustrating_stim/white_mw063.bmp'><br><font class='baseline'><strong>Alex</strong><p>Received: <strong>20</strong></font> &nbsp; &nbsp; &nbsp; &nbsp; &nbsp; &nbsp;<font class='negOutcome'>Shared back: <strong>0</strong></font></font><div class='respPicDiv'><img src='img/responseButtonOffersNo0_wht.png' class='respPic'></div></div>","null","1","Alex","2","Kept","0.8,0.2","14","0.8","trustrating_stim/white_mw063.bmp","1","1","2"
"","","","decision","5e7fb4743c00ce69510024fb","bdp_trlrn","Tue Mar 14 2023 19:51:09 GMT-0500 (Central Daylight Time)","588785","Untrustworthy,Trustworthy","html-keyboard-response","144","140767","0.0-19.0-1.2","","2559","","","<div class='trialDiv'><img src='trustrating_stim/white_mw056.bmp'><br><font class='baseline'><strong>Jason</strong><p>Choose number of points to send.</font><div class='respPicDiv'><img src='img/responseButtonOffersNo0L.png' class='respPic'></div></div>","5","1","Jason","6","Kept","0.65,0.2","13","0.65","trustrating_stim/white_mw056.bmp","1","6","3"
"","","","decisionFB","5e7fb4743c00ce69510024fb","bdp_trlrn","Tue Mar 14 2023 19:51:09 GMT-0500 (Central Daylight Time)","588785","Untrustworthy,Trustworthy","html-keyboard-response","145","141023","0.0-19.0-2.2","","null","","","<div class='trialDiv'><img src='trustrating_stim/white_mw056.bmp'><br><font class='baseline'><strong>Jason</strong><p>Choose number of points to send.</font><div class='respPicDiv'><img src='img/responseButtonOffersNo0L5.png' class='respPic'></div></div>","null","1","Jason","6","Kept","0.65,0.2","13","0.65","trustrating_stim/white_mw056.bmp","1","1","3"
"","","","feedback","5e7fb4743c00ce69510024fb","bdp_trlrn","Tue Mar 14 2023 19:51:09 GMT-0500 (Central Daylight Time)","588785","Untrustworthy,Trustworthy","html-keyboard-response","146","142025","0.0-19.0-3.2","","null","","","<div class='trialDiv'><img src='trustrating_stim/white_mw056.bmp'><br><font class='baseline'><strong>Jason</strong><p>Received: <strong>20</strong></font> &nbsp; &nbsp; &nbsp; &nbsp; &nbsp; &nbsp;<font class='negOutcome'>Shared back: <strong>0</strong></font></font><div class='respPicDiv'><img src='img/responseButtonOffersNo0_wht.png' class='respPic'></div></div>","null","1","Jason","6","Kept","0.65,0.2","13","0.65","trustrating_stim/white_mw056.bmp","1","1","3"
"","","","decision","5e7fb4743c00ce69510024fb","bdp_trlrn","Tue Mar 14 2023 19:51:09 GMT-0500 (Central Daylight Time)","588785","Untrustworthy,Trustworthy","html-keyboard-response","147","144235","0.0-19.0-1.3","","2208","","","<div class='trialDiv'><img src='trustrating_stim/white_mw063.bmp'><br><font class='baseline'><strong>Alex</strong><p>Choose number of points to send.</font><div class='respPicDiv'><img src='img/responseButtonOffersNo0L.png' class='respPic'></div></div>","1","2","Alex","2","Shared","0.8,0.2","14","0.8","trustrating_stim/white_mw063.bmp","1","6","4"
"","","","decisionFB","5e7fb4743c00ce69510024fb","bdp_trlrn","Tue Mar 14 2023 19:51:09 GMT-0500 (Central Daylight Time)","588785","Untrustworthy,Trustworthy","html-keyboard-response","148","144487","0.0-19.0-2.3","","null","","","<div class='trialDiv'><img src='trustrating_stim/white_mw063.bmp'><br><font class='baseline'><strong>Alex</strong><p>Choose number of points to send.</font><div class='respPicDiv'><img src='img/responseButtonOffersNo0L1.png' class='respPic'></div></div>","null","2","Alex","2","Shared","0.8,0.2","14","0.8","trustrating_stim/white_mw063.bmp","1","5","4"
"","","","feedback","5e7fb4743c00ce69510024fb","bdp_trlrn","Tue Mar 14 2023 19:51:09 GMT-0500 (Central Daylight Time)","588785","Untrustworthy,Trustworthy","html-keyboard-response","149","145491","0.0-19.0-3.3","","null","","","<div class='trialDiv'><img src='trustrating_stim/white_mw063.bmp'><br><font class='baseline'><strong>Alex</strong><p>Received: <strong>4</strong></font> &nbsp; &nbsp; &nbsp; &nbsp; &nbsp; &nbsp;<font class='posOutcome'>Shared back: <strong>2</strong></font></font><div class='respPicDiv'><img src='img/responseButtonOffersNo0_wht.png' class='respPic'></div></div>","null","2","Alex","2","Shared","0.8,0.2","14","0.8","trustrating_stim/white_mw063.bmp","1","7","4"
"","","","decision","5e7fb4743c00ce69510024fb","bdp_trlrn","Tue Mar 14 2023 19:51:09 GMT-0500 (Central Daylight Time)","588785","Untrustworthy,Trustworthy","html-keyboard-response","150","149280","0.0-19.0-1.4","","3787","","","<div class='trialDiv'><img src='trustrating_stim/white_00129_931230_fb_edt.bmp'><br><font class='baseline'><strong>Brian</strong><p>Choose number of points to send.</font><div class='respPicDiv'><img src='img/responseButtonOffersNo0L.png' class='respPic'></div></div>","1","2","Brian","8","Kept","0.2,0.65","13","0.2","trustrating_stim/white_00129_931230_fb_edt.bmp","2","12","5"
"","","","decisionFB","5e7fb4743c00ce69510024fb","bdp_trlrn","Tue Mar 14 2023 19:51:09 GMT-0500 (Central Daylight Time)","588785","Untrustworthy,Trustworthy","html-keyboard-response","151","149531","0.0-19.0-2.4","","null","","","<div class='trialDiv'><img src='trustrating_stim/white_00129_931230_fb_edt.bmp'><br><font class='baseline'><strong>Brian</strong><p>Choose number of points to send.</font><div class='respPicDiv'><img src='img/responseButtonOffersNo0L1.png' class='respPic'></div></div>","null","2","Brian","8","Kept","0.2,0.65","13","0.2","trustrating_stim/white_00129_931230_fb_edt.bmp","2","11","5"
"","","","feedback","5e7fb4743c00ce69510024fb","bdp_trlrn","Tue Mar 14 2023 19:51:09 GMT-0500 (Central Daylight Time)","588785","Untrustworthy,Trustworthy","html-keyboard-response","152","150533","0.0-19.0-3.4","","null","","","<div class='trialDiv'><img src='trustrating_stim/white_00129_931230_fb_edt.bmp'><br><font class='baseline'><strong>Brian</strong><p>Received: <strong>4</strong></font> &nbsp; &nbsp; &nbsp; &nbsp; &nbsp; &nbsp;<font class='negOutcome'>Shared back: <strong>0</strong></font></font><div class='respPicDiv'><img src='img/responseButtonOffersNo0_wht.png' class='respPic'></div></div>","null","2","Brian","8","Kept","0.2,0.65","13","0.2","trustrating_stim/white_00129_931230_fb_edt.bmp","2","11","5"
"","","","decision","5e7fb4743c00ce69510024fb","bdp_trlrn","Tue Mar 14 2023 19:51:09 GMT-0500 (Central Daylight Time)","588785","Untrustworthy,Trustworthy","html-keyboard-response","153","153166","0.0-19.0-1.5","","2632","","","<div class='trialDiv'><img src='trustrating_stim/white_mw056.bmp'><br><font class='baseline'><strong>Jason</strong><p>Choose number of points to send.</font><div class='respPicDiv'><img src='img/responseButtonOffersNo0L.png' class='respPic'></div></div>","1","2","Jason","6","Kept","0.65,0.2","13","0.65","trustrating_stim/white_mw056.bmp","1","16","6"
"","","","decisionFB","5e7fb4743c00ce69510024fb","bdp_trlrn","Tue Mar 14 2023 19:51:09 GMT-0500 (Central Daylight Time)","588785","Untrustworthy,Trustworthy","html-keyboard-response","154","153422","0.0-19.0-2.5","","null","","","<div class='trialDiv'><img src='trustrating_stim/white_mw056.bmp'><br><font class='baseline'><strong>Jason</strong><p>Choose number of points to send.</font><div class='respPicDiv'><img src='img/responseButtonOffersNo0L1.png' class='respPic'></div></div>","null","2","Jason","6","Kept","0.65,0.2","13","0.65","trustrating_stim/white_mw056.bmp","1","15","6"
"","","","feedback","5e7fb4743c00ce69510024fb","bdp_trlrn","Tue Mar 14 2023 19:51:09 GMT-0500 (Central Daylight Time)","588785","Untrustworthy,Trustworthy","html-keyboard-response","155","154424","0.0-19.0-3.5","","null","","","<div class='trialDiv'><img src='trustrating_stim/white_mw056.bmp'><br><font class='baseline'><strong>Jason</strong><p>Received: <strong>4</strong></font> &nbsp; &nbsp; &nbsp; &nbsp; &nbsp; &nbsp;<font class='negOutcome'>Shared back: <strong>0</strong></font></font><div class='respPicDiv'><img src='img/responseButtonOffersNo0_wht.png' class='respPic'></div></div>","null","2","Jason","6","Kept","0.65,0.2","13","0.65","trustrating_stim/white_mw056.bmp","1","15","6"
"","","","decision","5e7fb4743c00ce69510024fb","bdp_trlrn","Tue Mar 14 2023 19:51:09 GMT-0500 (Central Daylight Time)","588785","Untrustworthy,Trustworthy","html-keyboard-response","156","155869","0.0-19.0-1.6","","1444","","","<div class='trialDiv'><img src='trustrating_stim/white_00129_931230_fb_edt.bmp'><br><font class='baseline'><strong>Brian</strong><p>Choose number of points to send.</font><div class='respPicDiv'><img src='img/responseButtonOffersNo0L.png' class='respPic'></div></div>","4","3","Brian","8","Kept","0.2,0.65","13","0.2","trustrating_stim/white_00129_931230_fb_edt.bmp","2","20","7"
"","","","decisionFB","5e7fb4743c00ce69510024fb","bdp_trlrn","Tue Mar 14 2023 19:51:09 GMT-0500 (Central Daylight Time)","588785","Untrustworthy,Trustworthy","html-keyboard-response","157","156126","0.0-19.0-2.6","","null","","","<div class='trialDiv'><img src='trustrating_stim/white_00129_931230_fb_edt.bmp'><br><font class='baseline'><strong>Brian</strong><p>Choose number of points to send.</font><div class='respPicDiv'><img src='img/responseButtonOffersNo0L4.png' class='respPic'></div></div>","null","3","Brian","8","Kept","0.2,0.65","13","0.2","trustrating_stim/white_00129_931230_fb_edt.bmp","2","16","7"
"","","","feedback","5e7fb4743c00ce69510024fb","bdp_trlrn","Tue Mar 14 2023 19:51:09 GMT-0500 (Central Daylight Time)","588785","Untrustworthy,Trustworthy","html-keyboard-response","158","157129","0.0-19.0-3.6","","null","","","<div class='trialDiv'><img src='trustrating_stim/white_00129_931230_fb_edt.bmp'><br><font class='baseline'><strong>Brian</strong><p>Received: <strong>16</strong></font> &nbsp; &nbsp; &nbsp; &nbsp; &nbsp; &nbsp;<font class='negOutcome'>Shared back: <strong>0</strong></font></font><div class='respPicDiv'><img src='img/responseButtonOffersNo0_wht.png' class='respPic'></div></div>","null","3","Brian","8","Kept","0.2,0.65","13","0.2","trustrating_stim/white_00129_931230_fb_edt.bmp","2","16","7"
"","","","decision","5e7fb4743c00ce69510024fb","bdp_trlrn","Tue Mar 14 2023 19:51:09 GMT-0500 (Central Daylight Time)","588785","Untrustworthy,Trustworthy","html-keyboard-response","159","158411","0.0-19.0-1.7","","1282","","","<div class='trialDiv'><img src='trustrating_stim/white_mw063.bmp'><br><font class='baseline'><strong>Alex</strong><p>Choose number of points to send.</font><div class='respPicDiv'><img src='img/responseButtonOffersNo0L.png' class='respPic'></div></div>","5","3","Alex","2","Shared","0.8,0.2","14","0.8","trustrating_stim/white_mw063.bmp","1","21","8"
"","","","decisionFB","5e7fb4743c00ce69510024fb","bdp_trlrn","Tue Mar 14 2023 19:51:09 GMT-0500 (Central Daylight Time)","588785","Untrustworthy,Trustworthy","html-keyboard-response","160","158668","0.0-19.0-2.7","","null","","","<div class='trialDiv'><img src='trustrating_stim/white_mw063.bmp'><br><font class='baseline'><strong>Alex</strong><p>Choose number of points to send.</font><div class='respPicDiv'><img src='img/responseButtonOffersNo0L5.png' class='respPic'></div></div>","null","3","Alex","2","Shared","0.8,0.2","14","0.8","trustrating_stim/white_mw063.bmp","1","16","8"
"","","","feedback","5e7fb4743c00ce69510024fb","bdp_trlrn","Tue Mar 14 2023 19:51:09 GMT-0500 (Central Daylight Time)","588785","Untrustworthy,Trustworthy","html-keyboard-response","161","159670","0.0-19.0-3.7","","null","","","<div class='trialDiv'><img src='trustrating_stim/white_mw063.bmp'><br><font class='baseline'><strong>Alex</strong><p>Received: <strong>20</strong></font> &nbsp; &nbsp; &nbsp; &nbsp; &nbsp; &nbsp;<font class='posOutcome'>Shared back: <strong>10</strong></font></font><div class='respPicDiv'><img src='img/responseButtonOffersNo0_wht.png' class='respPic'></div></div>","null","3","Alex","2","Shared","0.8,0.2","14","0.8","trustrating_stim/white_mw063.bmp","1","26","8"
"","","","decision","5e7fb4743c00ce69510024fb","bdp_trlrn","Tue Mar 14 2023 19:51:09 GMT-0500 (Central Daylight Time)","588785","Untrustworthy,Trustworthy","html-keyboard-response","162","161633","0.0-19.0-1.8","","1961","","","<div class='trialDiv'><img src='trustrating_stim/white_mw056.bmp'><br><font class='baseline'><strong>Jason</strong><p>Choose number of points to send.</font><div class='respPicDiv'><img src='img/responseButtonOffersNo0L.png' class='respPic'></div></div>","1","3","Jason","6","Kept","0.65,0.2","13","0.65","trustrating_stim/white_mw056.bmp","1","31","9"
"","","","decisionFB","5e7fb4743c00ce69510024fb","bdp_trlrn","Tue Mar 14 2023 19:51:09 GMT-0500 (Central Daylight Time)","588785","Untrustworthy,Trustworthy","html-keyboard-response","163","161885","0.0-19.0-2.8","","null","","","<div class='trialDiv'><img src='trustrating_stim/white_mw056.bmp'><br><font class='baseline'><strong>Jason</strong><p>Choose number of points to send.</font><div class='respPicDiv'><img src='img/responseButtonOffersNo0L1.png' class='respPic'></div></div>","null","3","Jason","6","Kept","0.65,0.2","13","0.65","trustrating_stim/white_mw056.bmp","1","30","9"
"","","","feedback","5e7fb4743c00ce69510024fb","bdp_trlrn","Tue Mar 14 2023 19:51:09 GMT-0500 (Central Daylight Time)","588785","Untrustworthy,Trustworthy","html-keyboard-response","164","162892","0.0-19.0-3.8","","null","","","<div class='trialDiv'><img src='trustrating_stim/white_mw056.bmp'><br><font class='baseline'><strong>Jason</strong><p>Received: <strong>4</strong></font> &nbsp; &nbsp; &nbsp; &nbsp; &nbsp; &nbsp;<font class='negOutcome'>Shared back: <strong>0</strong></font></font><div class='respPicDiv'><img src='img/responseButtonOffersNo0_wht.png' class='respPic'></div></div>","null","3","Jason","6","Kept","0.65,0.2","13","0.65","trustrating_stim/white_mw056.bmp","1","30","9"
"","","","decision","5e7fb4743c00ce69510024fb","bdp_trlrn","Tue Mar 14 2023 19:51:09 GMT-0500 (Central Daylight Time)","588785","Untrustworthy,Trustworthy","html-keyboard-response","165","163993","0.0-19.0-1.9","","1099","","","<div class='trialDiv'><img src='trustrating_stim/white_00129_931230_fb_edt.bmp'><br><font class='baseline'><strong>Brian</strong><p>Choose number of points to send.</font><div class='respPicDiv'><img src='img/responseButtonOffersNo0L.png' class='respPic'></div></div>","1","4","Brian","8","Kept","0.2,0.65","13","0.2","trustrating_stim/white_00129_931230_fb_edt.bmp","2","35","10"
"","","","decisionFB","5e7fb4743c00ce69510024fb","bdp_trlrn","Tue Mar 14 2023 19:51:09 GMT-0500 (Central Daylight Time)","588785","Untrustworthy,Trustworthy","html-keyboard-response","166","164246","0.0-19.0-2.9","","null","","","<div class='trialDiv'><img src='trustrating_stim/white_00129_931230_fb_edt.bmp'><br><font class='baseline'><strong>Brian</strong><p>Choose number of points to send.</font><div class='respPicDiv'><img src='img/responseButtonOffersNo0L1.png' class='respPic'></div></div>","null","4","Brian","8","Kept","0.2,0.65","13","0.2","trustrating_stim/white_00129_931230_fb_edt.bmp","2","34","10"
"","","","feedback","5e7fb4743c00ce69510024fb","bdp_trlrn","Tue Mar 14 2023 19:51:09 GMT-0500 (Central Daylight Time)","588785","Untrustworthy,Trustworthy","html-keyboard-response","167","165252","0.0-19.0-3.9","","null","","","<div class='trialDiv'><img src='trustrating_stim/white_00129_931230_fb_edt.bmp'><br><font class='baseline'><strong>Brian</strong><p>Received: <strong>4</strong></font> &nbsp; &nbsp; &nbsp; &nbsp; &nbsp; &nbsp;<font class='negOutcome'>Shared back: <strong>0</strong></font></font><div class='respPicDiv'><img src='img/responseButtonOffersNo0_wht.png' class='respPic'></div></div>","null","4","Brian","8","Kept","0.2,0.65","13","0.2","trustrating_stim/white_00129_931230_fb_edt.bmp","2","34","10"
"","","","decision","5e7fb4743c00ce69510024fb","bdp_trlrn","Tue Mar 14 2023 19:51:09 GMT-0500 (Central Daylight Time)","588785","Untrustworthy,Trustworthy","html-keyboard-response","168","167182","0.0-19.0-1.10","","1928","","","<div class='trialDiv'><img src='trustrating_stim/white_mw056.bmp'><br><font class='baseline'><strong>Jason</strong><p>Choose number of points to send.</font><div class='respPicDiv'><img src='img/responseButtonOffersNo0L.png' class='respPic'></div></div>","1","4","Jason","6","Shared","0.65,0.2","13","0.65","trustrating_stim/white_mw056.bmp","1","39","11"
"","","","decisionFB","5e7fb4743c00ce69510024fb","bdp_trlrn","Tue Mar 14 2023 19:51:09 GMT-0500 (Central Daylight Time)","588785","Untrustworthy,Trustworthy","html-keyboard-response","169","167439","0.0-19.0-2.10","","null","","","<div class='trialDiv'><img src='trustrating_stim/white_mw056.bmp'><br><font class='baseline'><strong>Jason</strong><p>Choose number of points to send.</font><div class='respPicDiv'><img src='img/responseButtonOffersNo0L1.png' class='respPic'></div></div>","null","4","Jason","6","Shared","0.65,0.2","13","0.65","trustrating_stim/white_mw056.bmp","1","38","11"
"","","","feedback","5e7fb4743c00ce69510024fb","bdp_trlrn","Tue Mar 14 2023 19:51:09 GMT-0500 (Central Daylight Time)","588785","Untrustworthy,Trustworthy","html-keyboard-response","170","168445","0.0-19.0-3.10","","null","","","<div class='trialDiv'><img src='trustrating_stim/white_mw056.bmp'><br><font class='baseline'><strong>Jason</strong><p>Received: <strong>4</strong></font> &nbsp; &nbsp; &nbsp; &nbsp; &nbsp; &nbsp;<font class='posOutcome'>Shared back: <strong>2</strong></font></font><div class='respPicDiv'><img src='img/responseButtonOffersNo0_wht.png' class='respPic'></div></div>","null","4","Jason","6","Shared","0.65,0.2","13","0.65","trustrating_stim/white_mw056.bmp","1","40","11"
"","","","decision","5e7fb4743c00ce69510024fb","bdp_trlrn","Tue Mar 14 2023 19:51:09 GMT-0500 (Central Daylight Time)","588785","Untrustworthy,Trustworthy","html-keyboard-response","171","169976","0.0-19.0-1.11","","1528","","","<div class='trialDiv'><img src='trustrating_stim/white_mw063.bmp'><br><font class='baseline'><strong>Alex</strong><p>Choose number of points to send.</font><div class='respPicDiv'><img src='img/responseButtonOffersNo0L.png' class='respPic'></div></div>","5","4","Alex","2","Shared","0.8,0.2","14","0.8","trustrating_stim/white_mw063.bmp","1","45","12"
"","","","decisionFB","5e7fb4743c00ce69510024fb","bdp_trlrn","Tue Mar 14 2023 19:51:09 GMT-0500 (Central Daylight Time)","588785","Untrustworthy,Trustworthy","html-keyboard-response","172","170230","0.0-19.0-2.11","","null","","","<div class='trialDiv'><img src='trustrating_stim/white_mw063.bmp'><br><font class='baseline'><strong>Alex</strong><p>Choose number of points to send.</font><div class='respPicDiv'><img src='img/responseButtonOffersNo0L5.png' class='respPic'></div></div>","null","4","Alex","2","Shared","0.8,0.2","14","0.8","trustrating_stim/white_mw063.bmp","1","40","12"
"","","","feedback","5e7fb4743c00ce69510024fb","bdp_trlrn","Tue Mar 14 2023 19:51:09 GMT-0500 (Central Daylight Time)","588785","Untrustworthy,Trustworthy","html-keyboard-response","173","171234","0.0-19.0-3.11","","null","","","<div class='trialDiv'><img src='trustrating_stim/white_mw063.bmp'><br><font class='baseline'><strong>Alex</strong><p>Received: <strong>20</strong></font> &nbsp; &nbsp; &nbsp; &nbsp; &nbsp; &nbsp;<font class='posOutcome'>Shared back: <strong>10</strong></font></font><div class='respPicDiv'><img src='img/responseButtonOffersNo0_wht.png' class='respPic'></div></div>","null","4","Alex","2","Shared","0.8,0.2","14","0.8","trustrating_stim/white_mw063.bmp","1","50","12"
"","","","decision","5e7fb4743c00ce69510024fb","bdp_trlrn","Tue Mar 14 2023 19:51:09 GMT-0500 (Central Daylight Time)","588785","Untrustworthy,Trustworthy","html-keyboard-response","174","173784","0.0-19.0-1.12","","2550","","","<div class='trialDiv'><img src='trustrating_stim/white_00129_931230_fb_edt.bmp'><br><font class='baseline'><strong>Brian</strong><p>Choose number of points to send.</font><div class='respPicDiv'><img src='img/responseButtonOffersNo0L.png' class='respPic'></div></div>","1","5","Brian","8","Kept","0.2,0.65","13","0.2","trustrating_stim/white_00129_931230_fb_edt.bmp","2","55","13"
"","","","decisionFB","5e7fb4743c00ce69510024fb","bdp_trlrn","Tue Mar 14 2023 19:51:09 GMT-0500 (Central Daylight Time)","588785","Untrustworthy,Trustworthy","html-keyboard-response","175","174040","0.0-19.0-2.12","","null","","","<div class='trialDiv'><img src='trustrating_stim/white_00129_931230_fb_edt.bmp'><br><font class='baseline'><strong>Brian</strong><p>Choose number of points to send.</font><div class='respPicDiv'><img src='img/responseButtonOffersNo0L1.png' class='respPic'></div></div>","null","5","Brian","8","Kept","0.2,0.65","13","0.2","trustrating_stim/white_00129_931230_fb_edt.bmp","2","54","13"
"","","","feedback","5e7fb4743c00ce69510024fb","bdp_trlrn","Tue Mar 14 2023 19:51:09 GMT-0500 (Central Daylight Time)","588785","Untrustworthy,Trustworthy","html-keyboard-response","176","175046","0.0-19.0-3.12","","null","","","<div class='trialDiv'><img src='trustrating_stim/white_00129_931230_fb_edt.bmp'><br><font class='baseline'><strong>Brian</strong><p>Received: <strong>4</strong></font> &nbsp; &nbsp; &nbsp; &nbsp; &nbsp; &nbsp;<font class='negOutcome'>Shared back: <strong>0</strong></font></font><div class='respPicDiv'><img src='img/responseButtonOffersNo0_wht.png' class='respPic'></div></div>","null","5","Brian","8","Kept","0.2,0.65","13","0.2","trustrating_stim/white_00129_931230_fb_edt.bmp","2","54","13"
"","","","decision","5e7fb4743c00ce69510024fb","bdp_trlrn","Tue Mar 14 2023 19:51:09 GMT-0500 (Central Daylight Time)","588785","Untrustworthy,Trustworthy","html-keyboard-response","177","176535","0.0-19.0-1.13","","1488","","","<div class='trialDiv'><img src='trustrating_stim/white_mw063.bmp'><br><font class='baseline'><strong>Alex</strong><p>Choose number of points to send.</font><div class='respPicDiv'><img src='img/responseButtonOffersNo0L.png' class='respPic'></div></div>","5","5","Alex","2","Shared","0.8,0.2","14","0.8","trustrating_stim/white_mw063.bmp","1","59","14"
"","","","decisionFB","5e7fb4743c00ce69510024fb","bdp_trlrn","Tue Mar 14 2023 19:51:09 GMT-0500 (Central Daylight Time)","588785","Untrustworthy,Trustworthy","html-keyboard-response","178","176792","0.0-19.0-2.13","","null","","","<div class='trialDiv'><img src='trustrating_stim/white_mw063.bmp'><br><font class='baseline'><strong>Alex</strong><p>Choose number of points to send.</font><div class='respPicDiv'><img src='img/responseButtonOffersNo0L5.png' class='respPic'></div></div>","null","5","Alex","2","Shared","0.8,0.2","14","0.8","trustrating_stim/white_mw063.bmp","1","54","14"
"","","","feedback","5e7fb4743c00ce69510024fb","bdp_trlrn","Tue Mar 14 2023 19:51:09 GMT-0500 (Central Daylight Time)","588785","Untrustworthy,Trustworthy","html-keyboard-response","179","177793","0.0-19.0-3.13","","null","","","<div class='trialDiv'><img src='trustrating_stim/white_mw063.bmp'><br><font class='baseline'><strong>Alex</strong><p>Received: <strong>20</strong></font> &nbsp; &nbsp; &nbsp; &nbsp; &nbsp; &nbsp;<font class='posOutcome'>Shared back: <strong>10</strong></font></font><div class='respPicDiv'><img src='img/responseButtonOffersNo0_wht.png' class='respPic'></div></div>","null","5","Alex","2","Shared","0.8,0.2","14","0.8","trustrating_stim/white_mw063.bmp","1","64","14"
"","","","decision","5e7fb4743c00ce69510024fb","bdp_trlrn","Tue Mar 14 2023 19:51:09 GMT-0500 (Central Daylight Time)","588785","Untrustworthy,Trustworthy","html-keyboard-response","180","179952","0.0-19.0-1.14","","2158","","","<div class='trialDiv'><img src='trustrating_stim/white_mw056.bmp'><br><font class='baseline'><strong>Jason</strong><p>Choose number of points to send.</font><div class='respPicDiv'><img src='img/responseButtonOffersNo0L.png' class='respPic'></div></div>","3","5","Jason","6","Shared","0.65,0.2","13","0.65","trustrating_stim/white_mw056.bmp","1","69","15"
"","","","decisionFB","5e7fb4743c00ce69510024fb","bdp_trlrn","Tue Mar 14 2023 19:51:09 GMT-0500 (Central Daylight Time)","588785","Untrustworthy,Trustworthy","html-keyboard-response","181","180207","0.0-19.0-2.14","","null","","","<div class='trialDiv'><img src='trustrating_stim/white_mw056.bmp'><br><font class='baseline'><strong>Jason</strong><p>Choose number of points to send.</font><div class='respPicDiv'><img src='img/responseButtonOffersNo0L3.png' class='respPic'></div></div>","null","5","Jason","6","Shared","0.65,0.2","13","0.65","trustrating_stim/white_mw056.bmp","1","66","15"
"","","","feedback","5e7fb4743c00ce69510024fb","bdp_trlrn","Tue Mar 14 2023 19:51:09 GMT-0500 (Central Daylight Time)","588785","Untrustworthy,Trustworthy","html-keyboard-response","182","181214","0.0-19.0-3.14","","null","","","<div class='trialDiv'><img src='trustrating_stim/white_mw056.bmp'><br><font class='baseline'><strong>Jason</strong><p>Received: <strong>12</strong></font> &nbsp; &nbsp; &nbsp; &nbsp; &nbsp; &nbsp;<font class='posOutcome'>Shared back: <strong>6</strong></font></font><div class='respPicDiv'><img src='img/responseButtonOffersNo0_wht.png' class='respPic'></div></div>","null","5","Jason","6","Shared","0.65,0.2","13","0.65","trustrating_stim/white_mw056.bmp","1","72","15"
"","","","decision","5e7fb4743c00ce69510024fb","bdp_trlrn","Tue Mar 14 2023 19:51:09 GMT-0500 (Central Daylight Time)","588785","Untrustworthy,Trustworthy","html-keyboard-response","183","183339","0.0-19.0-1.15","","2124","","","<div class='trialDiv'><img src='trustrating_stim/white_00129_931230_fb_edt.bmp'><br><font class='baseline'><strong>Brian</strong><p>Choose number of points to send.</font><div class='respPicDiv'><img src='img/responseButtonOffersNo0L.png' class='respPic'></div></div>","1","6","Brian","8","Kept","0.2,0.65","13","0.2","trustrating_stim/white_00129_931230_fb_edt.bmp","2","77","16"
"","","","decisionFB","5e7fb4743c00ce69510024fb","bdp_trlrn","Tue Mar 14 2023 19:51:09 GMT-0500 (Central Daylight Time)","588785","Untrustworthy,Trustworthy","html-keyboard-response","184","183595","0.0-19.0-2.15","","null","","","<div class='trialDiv'><img src='trustrating_stim/white_00129_931230_fb_edt.bmp'><br><font class='baseline'><strong>Brian</strong><p>Choose number of points to send.</font><div class='respPicDiv'><img src='img/responseButtonOffersNo0L1.png' class='respPic'></div></div>","null","6","Brian","8","Kept","0.2,0.65","13","0.2","trustrating_stim/white_00129_931230_fb_edt.bmp","2","76","16"
"","","","feedback","5e7fb4743c00ce69510024fb","bdp_trlrn","Tue Mar 14 2023 19:51:09 GMT-0500 (Central Daylight Time)","588785","Untrustworthy,Trustworthy","html-keyboard-response","185","184602","0.0-19.0-3.15","","null","","","<div class='trialDiv'><img src='trustrating_stim/white_00129_931230_fb_edt.bmp'><br><font class='baseline'><strong>Brian</strong><p>Received: <strong>4</strong></font> &nbsp; &nbsp; &nbsp; &nbsp; &nbsp; &nbsp;<font class='negOutcome'>Shared back: <strong>0</strong></font></font><div class='respPicDiv'><img src='img/responseButtonOffersNo0_wht.png' class='respPic'></div></div>","null","6","Brian","8","Kept","0.2,0.65","13","0.2","trustrating_stim/white_00129_931230_fb_edt.bmp","2","76","16"
"","","","decision","5e7fb4743c00ce69510024fb","bdp_trlrn","Tue Mar 14 2023 19:51:09 GMT-0500 (Central Daylight Time)","588785","Untrustworthy,Trustworthy","html-keyboard-response","186","185862","0.0-19.0-1.16","","1259","","","<div class='trialDiv'><img src='trustrating_stim/white_mw063.bmp'><br><font class='baseline'><strong>Alex</strong><p>Choose number of points to send.</font><div class='respPicDiv'><img src='img/responseButtonOffersNo0L.png' class='respPic'></div></div>","5","6","Alex","2","Shared","0.8,0.2","14","0.8","trustrating_stim/white_mw063.bmp","1","81","17"
"","","","decisionFB","5e7fb4743c00ce69510024fb","bdp_trlrn","Tue Mar 14 2023 19:51:09 GMT-0500 (Central Daylight Time)","588785","Untrustworthy,Trustworthy","html-keyboard-response","187","186117","0.0-19.0-2.16","","null","","","<div class='trialDiv'><img src='trustrating_stim/white_mw063.bmp'><br><font class='baseline'><strong>Alex</strong><p>Choose number of points to send.</font><div class='respPicDiv'><img src='img/responseButtonOffersNo0L5.png' class='respPic'></div></div>","null","6","Alex","2","Shared","0.8,0.2","14","0.8","trustrating_stim/white_mw063.bmp","1","76","17"
"","","","feedback","5e7fb4743c00ce69510024fb","bdp_trlrn","Tue Mar 14 2023 19:51:09 GMT-0500 (Central Daylight Time)","588785","Untrustworthy,Trustworthy","html-keyboard-response","188","187120","0.0-19.0-3.16","","null","","","<div class='trialDiv'><img src='trustrating_stim/white_mw063.bmp'><br><font class='baseline'><strong>Alex</strong><p>Received: <strong>20</strong></font> &nbsp; &nbsp; &nbsp; &nbsp; &nbsp; &nbsp;<font class='posOutcome'>Shared back: <strong>10</strong></font></font><div class='respPicDiv'><img src='img/responseButtonOffersNo0_wht.png' class='respPic'></div></div>","null","6","Alex","2","Shared","0.8,0.2","14","0.8","trustrating_stim/white_mw063.bmp","1","86","17"
"","","","decision","5e7fb4743c00ce69510024fb","bdp_trlrn","Tue Mar 14 2023 19:51:09 GMT-0500 (Central Daylight Time)","588785","Untrustworthy,Trustworthy","html-keyboard-response","189","190005","0.0-19.0-1.17","","2883","","","<div class='trialDiv'><img src='trustrating_stim/white_mw056.bmp'><br><font class='baseline'><strong>Jason</strong><p>Choose number of points to send.</font><div class='respPicDiv'><img src='img/responseButtonOffersNo0L.png' class='respPic'></div></div>","5","6","Jason","6","Kept","0.65,0.2","13","0.65","trustrating_stim/white_mw056.bmp","1","91","18"
"","","","decisionFB","5e7fb4743c00ce69510024fb","bdp_trlrn","Tue Mar 14 2023 19:51:09 GMT-0500 (Central Daylight Time)","588785","Untrustworthy,Trustworthy","html-keyboard-response","190","190262","0.0-19.0-2.17","","null","","","<div class='trialDiv'><img src='trustrating_stim/white_mw056.bmp'><br><font class='baseline'><strong>Jason</strong><p>Choose number of points to send.</font><div class='respPicDiv'><img src='img/responseButtonOffersNo0L5.png' class='respPic'></div></div>","null","6","Jason","6","Kept","0.65,0.2","13","0.65","trustrating_stim/white_mw056.bmp","1","86","18"
"","","","feedback","5e7fb4743c00ce69510024fb","bdp_trlrn","Tue Mar 14 2023 19:51:09 GMT-0500 (Central Daylight Time)","588785","Untrustworthy,Trustworthy","html-keyboard-response","191","191264","0.0-19.0-3.17","","null","","","<div class='trialDiv'><img src='trustrating_stim/white_mw056.bmp'><br><font class='baseline'><strong>Jason</strong><p>Received: <strong>20</strong></font> &nbsp; &nbsp; &nbsp; &nbsp; &nbsp; &nbsp;<font class='negOutcome'>Shared back: <strong>0</strong></font></font><div class='respPicDiv'><img src='img/responseButtonOffersNo0_wht.png' class='respPic'></div></div>","null","6","Jason","6","Kept","0.65,0.2","13","0.65","trustrating_stim/white_mw056.bmp","1","86","18"
"","","","decision","5e7fb4743c00ce69510024fb","bdp_trlrn","Tue Mar 14 2023 19:51:09 GMT-0500 (Central Daylight Time)","588785","Untrustworthy,Trustworthy","html-keyboard-response","192","192191","0.0-19.0-1.18","","924","","","<div class='trialDiv'><img src='trustrating_stim/white_00129_931230_fb_edt.bmp'><br><font class='baseline'><strong>Brian</strong><p>Choose number of points to send.</font><div class='respPicDiv'><img src='img/responseButtonOffersNo0L.png' class='respPic'></div></div>","5","7","Brian","8","Shared","0.2,0.65","13","0.2","trustrating_stim/white_00129_931230_fb_edt.bmp","2","91","19"
"","","","decisionFB","5e7fb4743c00ce69510024fb","bdp_trlrn","Tue Mar 14 2023 19:51:09 GMT-0500 (Central Daylight Time)","588785","Untrustworthy,Trustworthy","html-keyboard-response","193","192447","0.0-19.0-2.18","","null","","","<div class='trialDiv'><img src='trustrating_stim/white_00129_931230_fb_edt.bmp'><br><font class='baseline'><strong>Brian</strong><p>Choose number of points to send.</font><div class='respPicDiv'><img src='img/responseButtonOffersNo0L5.png' class='respPic'></div></div>","null","7","Brian","8","Shared","0.2,0.65","13","0.2","trustrating_stim/white_00129_931230_fb_edt.bmp","2","86","19"
"","","","feedback","5e7fb4743c00ce69510024fb","bdp_trlrn","Tue Mar 14 2023 19:51:09 GMT-0500 (Central Daylight Time)","588785","Untrustworthy,Trustworthy","html-keyboard-response","194","193451","0.0-19.0-3.18","","null","","","<div class='trialDiv'><img src='trustrating_stim/white_00129_931230_fb_edt.bmp'><br><font class='baseline'><strong>Brian</strong><p>Received: <strong>20</strong></font> &nbsp; &nbsp; &nbsp; &nbsp; &nbsp; &nbsp;<font class='posOutcome'>Shared back: <strong>10</strong></font></font><div class='respPicDiv'><img src='img/responseButtonOffersNo0_wht.png' class='respPic'></div></div>","null","7","Brian","8","Shared","0.2,0.65","13","0.2","trustrating_stim/white_00129_931230_fb_edt.bmp","2","96","19"
"","","","decision","5e7fb4743c00ce69510024fb","bdp_trlrn","Tue Mar 14 2023 19:51:09 GMT-0500 (Central Daylight Time)","588785","Untrustworthy,Trustworthy","html-keyboard-response","195","194534","0.0-19.0-1.19","","1082","","","<div class='trialDiv'><img src='trustrating_stim/white_mw056.bmp'><br><font class='baseline'><strong>Jason</strong><p>Choose number of points to send.</font><div class='respPicDiv'><img src='img/responseButtonOffersNo0L.png' class='respPic'></div></div>","1","7","Jason","6","Shared","0.65,0.2","13","0.65","trustrating_stim/white_mw056.bmp","1","101","20"
"","","","decisionFB","5e7fb4743c00ce69510024fb","bdp_trlrn","Tue Mar 14 2023 19:51:09 GMT-0500 (Central Daylight Time)","588785","Untrustworthy,Trustworthy","html-keyboard-response","196","194787","0.0-19.0-2.19","","null","","","<div class='trialDiv'><img src='trustrating_stim/white_mw056.bmp'><br><font class='baseline'><strong>Jason</strong><p>Choose number of points to send.</font><div class='respPicDiv'><img src='img/responseButtonOffersNo0L1.png' class='respPic'></div></div>","null","7","Jason","6","Shared","0.65,0.2","13","0.65","trustrating_stim/white_mw056.bmp","1","100","20"
"","","","feedback","5e7fb4743c00ce69510024fb","bdp_trlrn","Tue Mar 14 2023 19:51:09 GMT-0500 (Central Daylight Time)","588785","Untrustworthy,Trustworthy","html-keyboard-response","197","195789","0.0-19.0-3.19","","null","","","<div class='trialDiv'><img src='trustrating_stim/white_mw056.bmp'><br><font class='baseline'><strong>Jason</strong><p>Received: <strong>4</strong></font> &nbsp; &nbsp; &nbsp; &nbsp; &nbsp; &nbsp;<font class='posOutcome'>Shared back: <strong>2</strong></font></font><div class='respPicDiv'><img src='img/responseButtonOffersNo0_wht.png' class='respPic'></div></div>","null","7","Jason","6","Shared","0.65,0.2","13","0.65","trustrating_stim/white_mw056.bmp","1","102","20"
"","","","decision","5e7fb4743c00ce69510024fb","bdp_trlrn","Tue Mar 14 2023 19:51:09 GMT-0500 (Central Daylight Time)","588785","Untrustworthy,Trustworthy","html-keyboard-response","198","197118","0.0-19.0-1.20","","1328","","","<div class='trialDiv'><img src='trustrating_stim/white_mw063.bmp'><br><font class='baseline'><strong>Alex</strong><p>Choose number of points to send.</font><div class='respPicDiv'><img src='img/responseButtonOffersNo0L.png' class='respPic'></div></div>","5","7","Alex","2","Shared","0.8,0.2","14","0.8","trustrating_stim/white_mw063.bmp","1","107","21"
"","","","decisionFB","5e7fb4743c00ce69510024fb","bdp_trlrn","Tue Mar 14 2023 19:51:09 GMT-0500 (Central Daylight Time)","588785","Untrustworthy,Trustworthy","html-keyboard-response","199","197371","0.0-19.0-2.20","","null","","","<div class='trialDiv'><img src='trustrating_stim/white_mw063.bmp'><br><font class='baseline'><strong>Alex</strong><p>Choose number of points to send.</font><div class='respPicDiv'><img src='img/responseButtonOffersNo0L5.png' class='respPic'></div></div>","null","7","Alex","2","Shared","0.8,0.2","14","0.8","trustrating_stim/white_mw063.bmp","1","102","21"
"","","","feedback","5e7fb4743c00ce69510024fb","bdp_trlrn","Tue Mar 14 2023 19:51:09 GMT-0500 (Central Daylight Time)","588785","Untrustworthy,Trustworthy","html-keyboard-response","200","198374","0.0-19.0-3.20","","null","","","<div class='trialDiv'><img src='trustrating_stim/white_mw063.bmp'><br><font class='baseline'><strong>Alex</strong><p>Received: <strong>20</strong></font> &nbsp; &nbsp; &nbsp; &nbsp; &nbsp; &nbsp;<font class='posOutcome'>Shared back: <strong>10</strong></font></font><div class='respPicDiv'><img src='img/responseButtonOffersNo0_wht.png' class='respPic'></div></div>","null","7","Alex","2","Shared","0.8,0.2","14","0.8","trustrating_stim/white_mw063.bmp","1","112","21"
"","","","decision","5e7fb4743c00ce69510024fb","bdp_trlrn","Tue Mar 14 2023 19:51:09 GMT-0500 (Central Daylight Time)","588785","Untrustworthy,Trustworthy","html-keyboard-response","201","199698","0.0-19.0-1.21","","1323","","","<div class='trialDiv'><img src='trustrating_stim/white_00129_931230_fb_edt.bmp'><br><font class='baseline'><strong>Brian</strong><p>Choose number of points to send.</font><div class='respPicDiv'><img src='img/responseButtonOffersNo0L.png' class='respPic'></div></div>","5","8","Brian","8","Kept","0.2,0.65","13","0.2","trustrating_stim/white_00129_931230_fb_edt.bmp","2","117","22"
"","","","decisionFB","5e7fb4743c00ce69510024fb","bdp_trlrn","Tue Mar 14 2023 19:51:09 GMT-0500 (Central Daylight Time)","588785","Untrustworthy,Trustworthy","html-keyboard-response","202","199952","0.0-19.0-2.21","","null","","","<div class='trialDiv'><img src='trustrating_stim/white_00129_931230_fb_edt.bmp'><br><font class='baseline'><strong>Brian</strong><p>Choose number of points to send.</font><div class='respPicDiv'><img src='img/responseButtonOffersNo0L5.png' class='respPic'></div></div>","null","8","Brian","8","Kept","0.2,0.65","13","0.2","trustrating_stim/white_00129_931230_fb_edt.bmp","2","112","22"
"","","","feedback","5e7fb4743c00ce69510024fb","bdp_trlrn","Tue Mar 14 2023 19:51:09 GMT-0500 (Central Daylight Time)","588785","Untrustworthy,Trustworthy","html-keyboard-response","203","200959","0.0-19.0-3.21","","null","","","<div class='trialDiv'><img src='trustrating_stim/white_00129_931230_fb_edt.bmp'><br><font class='baseline'><strong>Brian</strong><p>Received: <strong>20</strong></font> &nbsp; &nbsp; &nbsp; &nbsp; &nbsp; &nbsp;<font class='negOutcome'>Shared back: <strong>0</strong></font></font><div class='respPicDiv'><img src='img/responseButtonOffersNo0_wht.png' class='respPic'></div></div>","null","8","Brian","8","Kept","0.2,0.65","13","0.2","trustrating_stim/white_00129_931230_fb_edt.bmp","2","112","22"
"","","","decision","5e7fb4743c00ce69510024fb","bdp_trlrn","Tue Mar 14 2023 19:51:09 GMT-0500 (Central Daylight Time)","588785","Untrustworthy,Trustworthy","html-keyboard-response","204","201829","0.0-19.0-1.22","","869","","","<div class='trialDiv'><img src='trustrating_stim/white_mw063.bmp'><br><font class='baseline'><strong>Alex</strong><p>Choose number of points to send.</font><div class='respPicDiv'><img src='img/responseButtonOffersNo0L.png' class='respPic'></div></div>","5","8","Alex","2","Shared","0.8,0.2","14","0.8","trustrating_stim/white_mw063.bmp","1","117","23"
"","","","decisionFB","5e7fb4743c00ce69510024fb","bdp_trlrn","Tue Mar 14 2023 19:51:09 GMT-0500 (Central Daylight Time)","588785","Untrustworthy,Trustworthy","html-keyboard-response","205","202084","0.0-19.0-2.22","","null","","","<div class='trialDiv'><img src='trustrating_stim/white_mw063.bmp'><br><font class='baseline'><strong>Alex</strong><p>Choose number of points to send.</font><div class='respPicDiv'><img src='img/responseButtonOffersNo0L5.png' class='respPic'></div></div>","null","8","Alex","2","Shared","0.8,0.2","14","0.8","trustrating_stim/white_mw063.bmp","1","112","23"
"","","","feedback","5e7fb4743c00ce69510024fb","bdp_trlrn","Tue Mar 14 2023 19:51:09 GMT-0500 (Central Daylight Time)","588785","Untrustworthy,Trustworthy","html-keyboard-response","206","203090","0.0-19.0-3.22","","null","","","<div class='trialDiv'><img src='trustrating_stim/white_mw063.bmp'><br><font class='baseline'><strong>Alex</strong><p>Received: <strong>20</strong></font> &nbsp; &nbsp; &nbsp; &nbsp; &nbsp; &nbsp;<font class='posOutcome'>Shared back: <strong>10</strong></font></font><div class='respPicDiv'><img src='img/responseButtonOffersNo0_wht.png' class='respPic'></div></div>","null","8","Alex","2","Shared","0.8,0.2","14","0.8","trustrating_stim/white_mw063.bmp","1","122","23"
"","","","decision","5e7fb4743c00ce69510024fb","bdp_trlrn","Tue Mar 14 2023 19:51:09 GMT-0500 (Central Daylight Time)","588785","Untrustworthy,Trustworthy","html-keyboard-response","207","204332","0.0-19.0-1.23","","1240","","","<div class='trialDiv'><img src='trustrating_stim/white_mw056.bmp'><br><font class='baseline'><strong>Jason</strong><p>Choose number of points to send.</font><div class='respPicDiv'><img src='img/responseButtonOffersNo0L.png' class='respPic'></div></div>","1","8","Jason","6","Shared","0.65,0.2","13","0.65","trustrating_stim/white_mw056.bmp","1","127","24"
"","","","decisionFB","5e7fb4743c00ce69510024fb","bdp_trlrn","Tue Mar 14 2023 19:51:09 GMT-0500 (Central Daylight Time)","588785","Untrustworthy,Trustworthy","html-keyboard-response","208","204583","0.0-19.0-2.23","","null","","","<div class='trialDiv'><img src='trustrating_stim/white_mw056.bmp'><br><font class='baseline'><strong>Jason</strong><p>Choose number of points to send.</font><div class='respPicDiv'><img src='img/responseButtonOffersNo0L1.png' class='respPic'></div></div>","null","8","Jason","6","Shared","0.65,0.2","13","0.65","trustrating_stim/white_mw056.bmp","1","126","24"
"","","","feedback","5e7fb4743c00ce69510024fb","bdp_trlrn","Tue Mar 14 2023 19:51:09 GMT-0500 (Central Daylight Time)","588785","Untrustworthy,Trustworthy","html-keyboard-response","209","205589","0.0-19.0-3.23","","null","","","<div class='trialDiv'><img src='trustrating_stim/white_mw056.bmp'><br><font class='baseline'><strong>Jason</strong><p>Received: <strong>4</strong></font> &nbsp; &nbsp; &nbsp; &nbsp; &nbsp; &nbsp;<font class='posOutcome'>Shared back: <strong>2</strong></font></font><div class='respPicDiv'><img src='img/responseButtonOffersNo0_wht.png' class='respPic'></div></div>","null","8","Jason","6","Shared","0.65,0.2","13","0.65","trustrating_stim/white_mw056.bmp","1","128","24"
"","","","decision","5e7fb4743c00ce69510024fb","bdp_trlrn","Tue Mar 14 2023 19:51:09 GMT-0500 (Central Daylight Time)","588785","Untrustworthy,Trustworthy","html-keyboard-response","210","208079","0.0-19.0-1.24","","2489","","","<div class='trialDiv'><img src='trustrating_stim/white_00129_931230_fb_edt.bmp'><br><font class='baseline'><strong>Brian</strong><p>Choose number of points to send.</font><div class='respPicDiv'><img src='img/responseButtonOffersNo0L.png' class='respPic'></div></div>","3","9","Brian","8","Kept","0.2,0.65","13","0.2","trustrating_stim/white_00129_931230_fb_edt.bmp","2","133","25"
"","","","decisionFB","5e7fb4743c00ce69510024fb","bdp_trlrn","Tue Mar 14 2023 19:51:09 GMT-0500 (Central Daylight Time)","588785","Untrustworthy,Trustworthy","html-keyboard-response","211","208334","0.0-19.0-2.24","","null","","","<div class='trialDiv'><img src='trustrating_stim/white_00129_931230_fb_edt.bmp'><br><font class='baseline'><strong>Brian</strong><p>Choose number of points to send.</font><div class='respPicDiv'><img src='img/responseButtonOffersNo0L3.png' class='respPic'></div></div>","null","9","Brian","8","Kept","0.2,0.65","13","0.2","trustrating_stim/white_00129_931230_fb_edt.bmp","2","130","25"
"","","","feedback","5e7fb4743c00ce69510024fb","bdp_trlrn","Tue Mar 14 2023 19:51:09 GMT-0500 (Central Daylight Time)","588785","Untrustworthy,Trustworthy","html-keyboard-response","212","209335","0.0-19.0-3.24","","null","","","<div class='trialDiv'><img src='trustrating_stim/white_00129_931230_fb_edt.bmp'><br><font class='baseline'><strong>Brian</strong><p>Received: <strong>12</strong></font> &nbsp; &nbsp; &nbsp; &nbsp; &nbsp; &nbsp;<font class='negOutcome'>Shared back: <strong>0</strong></font></font><div class='respPicDiv'><img src='img/responseButtonOffersNo0_wht.png' class='respPic'></div></div>","null","9","Brian","8","Kept","0.2,0.65","13","0.2","trustrating_stim/white_00129_931230_fb_edt.bmp","2","130","25"
"","","","decision","5e7fb4743c00ce69510024fb","bdp_trlrn","Tue Mar 14 2023 19:51:09 GMT-0500 (Central Daylight Time)","588785","Untrustworthy,Trustworthy","html-keyboard-response","213","210681","0.0-19.0-1.25","","1345","","","<div class='trialDiv'><img src='trustrating_stim/white_mw056.bmp'><br><font class='baseline'><strong>Jason</strong><p>Choose number of points to send.</font><div class='respPicDiv'><img src='img/responseButtonOffersNo0L.png' class='respPic'></div></div>","1","9","Jason","6","Shared","0.65,0.2","13","0.65","trustrating_stim/white_mw056.bmp","1","135","26"
"","","","decisionFB","5e7fb4743c00ce69510024fb","bdp_trlrn","Tue Mar 14 2023 19:51:09 GMT-0500 (Central Daylight Time)","588785","Untrustworthy,Trustworthy","html-keyboard-response","214","210934","0.0-19.0-2.25","","null","","","<div class='trialDiv'><img src='trustrating_stim/white_mw056.bmp'><br><font class='baseline'><strong>Jason</strong><p>Choose number of points to send.</font><div class='respPicDiv'><img src='img/responseButtonOffersNo0L1.png' class='respPic'></div></div>","null","9","Jason","6","Shared","0.65,0.2","13","0.65","trustrating_stim/white_mw056.bmp","1","134","26"
"","","","feedback","5e7fb4743c00ce69510024fb","bdp_trlrn","Tue Mar 14 2023 19:51:09 GMT-0500 (Central Daylight Time)","588785","Untrustworthy,Trustworthy","html-keyboard-response","215","211936","0.0-19.0-3.25","","null","","","<div class='trialDiv'><img src='trustrating_stim/white_mw056.bmp'><br><font class='baseline'><strong>Jason</strong><p>Received: <strong>4</strong></font> &nbsp; &nbsp; &nbsp; &nbsp; &nbsp; &nbsp;<font class='posOutcome'>Shared back: <strong>2</strong></font></font><div class='respPicDiv'><img src='img/responseButtonOffersNo0_wht.png' class='respPic'></div></div>","null","9","Jason","6","Shared","0.65,0.2","13","0.65","trustrating_stim/white_mw056.bmp","1","136","26"
"","","","decision","5e7fb4743c00ce69510024fb","bdp_trlrn","Tue Mar 14 2023 19:51:09 GMT-0500 (Central Daylight Time)","588785","Untrustworthy,Trustworthy","html-keyboard-response","216","212936","0.0-19.0-1.26","","998","","","<div class='trialDiv'><img src='trustrating_stim/white_mw063.bmp'><br><font class='baseline'><strong>Alex</strong><p>Choose number of points to send.</font><div class='respPicDiv'><img src='img/responseButtonOffersNo0L.png' class='respPic'></div></div>","5","9","Alex","2","Shared","0.8,0.2","14","0.8","trustrating_stim/white_mw063.bmp","1","141","27"
"","","","decisionFB","5e7fb4743c00ce69510024fb","bdp_trlrn","Tue Mar 14 2023 19:51:09 GMT-0500 (Central Daylight Time)","588785","Untrustworthy,Trustworthy","html-keyboard-response","217","213192","0.0-19.0-2.26","","null","","","<div class='trialDiv'><img src='trustrating_stim/white_mw063.bmp'><br><font class='baseline'><strong>Alex</strong><p>Choose number of points to send.</font><div class='respPicDiv'><img src='img/responseButtonOffersNo0L5.png' class='respPic'></div></div>","null","9","Alex","2","Shared","0.8,0.2","14","0.8","trustrating_stim/white_mw063.bmp","1","136","27"
"","","","feedback","5e7fb4743c00ce69510024fb","bdp_trlrn","Tue Mar 14 2023 19:51:09 GMT-0500 (Central Daylight Time)","588785","Untrustworthy,Trustworthy","html-keyboard-response","218","214198","0.0-19.0-3.26","","null","","","<div class='trialDiv'><img src='trustrating_stim/white_mw063.bmp'><br><font class='baseline'><strong>Alex</strong><p>Received: <strong>20</strong></font> &nbsp; &nbsp; &nbsp; &nbsp; &nbsp; &nbsp;<font class='posOutcome'>Shared back: <strong>10</strong></font></font><div class='respPicDiv'><img src='img/responseButtonOffersNo0_wht.png' class='respPic'></div></div>","null","9","Alex","2","Shared","0.8,0.2","14","0.8","trustrating_stim/white_mw063.bmp","1","146","27"
"","","","decision","5e7fb4743c00ce69510024fb","bdp_trlrn","Tue Mar 14 2023 19:51:09 GMT-0500 (Central Daylight Time)","588785","Untrustworthy,Trustworthy","html-keyboard-response","219","215937","0.0-19.0-1.27","","1737","","","<div class='trialDiv'><img src='trustrating_stim/white_mw056.bmp'><br><font class='baseline'><strong>Jason</strong><p>Choose number of points to send.</font><div class='respPicDiv'><img src='img/responseButtonOffersNo0L.png' class='respPic'></div></div>","3","10","Jason","6","Shared","0.65,0.2","13","0.65","trustrating_stim/white_mw056.bmp","1","151","28"
"","","","decisionFB","5e7fb4743c00ce69510024fb","bdp_trlrn","Tue Mar 14 2023 19:51:09 GMT-0500 (Central Daylight Time)","588785","Untrustworthy,Trustworthy","html-keyboard-response","220","216189","0.0-19.0-2.27","","null","","","<div class='trialDiv'><img src='trustrating_stim/white_mw056.bmp'><br><font class='baseline'><strong>Jason</strong><p>Choose number of points to send.</font><div class='respPicDiv'><img src='img/responseButtonOffersNo0L3.png' class='respPic'></div></div>","null","10","Jason","6","Shared","0.65,0.2","13","0.65","trustrating_stim/white_mw056.bmp","1","148","28"
