"trial_type","trial_index","time_elapsed","internal_node_id","subject_id","task","startTime","totalTime","labels","view_history","rt","event","trial","time","trialtype","success","stimulus","key_press","aground","name","faceID","outcome","agenttype","agentswpt","agentcurrpshare","face","avgRating","point_total","round"
"pavlovia","0","6","0.0-0.0","63ced96b01986b01ef133497","bdp_trlrn","Sat Apr 08 2023 12:57:52 GMT-0400 (Eastern Daylight Time)","574174","Untrustworthy,Trustworthy","","","","","","","","","","","","","","","","","","","",""
"instructions","1","3778","0.0-1.0","63ced96b01986b01ef133497","bdp_trlrn","Sat Apr 08 2023 12:57:52 GMT-0400 (Eastern Daylight Time)","574174","Untrustworthy,Trustworthy","[{""page_index"":0,""viewing_time"":3769}]","3769","","","","","","","","","","","","","","","","","",""
"","","","","63ced96b01986b01ef133497","bdp_trlrn","Sat Apr 08 2023 12:57:52 GMT-0400 (Eastern Daylight Time)","574174","Untrustworthy,Trustworthy","","","fullscreenenter","2","6553","fullscreenenter","","","","","","","","","","","","","",""
"fullscreen","2","7539","0.0-2.0","63ced96b01986b01ef133497","bdp_trlrn","Sat Apr 08 2023 12:57:52 GMT-0400 (Eastern Daylight Time)","574174","Untrustworthy,Trustworthy","","","","","","","true","","","","","","","","","","","","",""
"instructions","3","19182","0.0-4.0","63ced96b01986b01ef133497","bdp_trlrn","Sat Apr 08 2023 12:57:52 GMT-0400 (Eastern Daylight Time)","574174","Untrustworthy,Trustworthy","[{""page_index"":0,""viewing_time"":8696},{""page_index"":1,""viewing_time"":2941}]","11638","","","","","","","","","","","","","","","","","",""
"instructions","4","21103","0.0-5.0","63ced96b01986b01ef133497","bdp_trlrn","Sat Apr 08 2023 12:57:52 GMT-0400 (Eastern Daylight Time)","574174","Untrustworthy,Trustworthy","[{""page_index"":0,""viewing_time"":1919}]","1920","","","","","","","","","","","","","","","","","",""
"image-keyboard-response","5","23659","0.0-6.0-1.0","63ced96b01986b01ef133497","bdp_trlrn","Sat Apr 08 2023 12:57:52 GMT-0400 (Eastern Daylight Time)","574174","Untrustworthy,Trustworthy","","2444","","","","rating","","trustrating_stim/white_00898_960530_fa_edt.bmp","4","","","","","","","","","","",""
"image-keyboard-response","6","23880","0.0-6.0-2.0","63ced96b01986b01ef133497","bdp_trlrn","Sat Apr 08 2023 12:57:52 GMT-0400 (Eastern Daylight Time)","574174","Untrustworthy,Trustworthy","","null","","","","ratingFB","","trustrating_stim/white_00898_960530_fa_edt.bmp","null","","","","","","","","","","",""
"image-keyboard-response","7","25603","0.0-6.0-1.1","63ced96b01986b01ef133497","bdp_trlrn","Sat Apr 08 2023 12:57:52 GMT-0400 (Eastern Daylight Time)","574174","Untrustworthy,Trustworthy","","1601","","","","rating","","trustrating_stim/white_mw046.bmp","3","","","","","","","","","","",""
"image-keyboard-response","8","25810","0.0-6.0-2.1","63ced96b01986b01ef133497","bdp_trlrn","Sat Apr 08 2023 12:57:52 GMT-0400 (Eastern Daylight Time)","574174","Untrustworthy,Trustworthy","","null","","","","ratingFB","","trustrating_stim/white_mw046.bmp","null","","","","","","","","","","",""
"image-keyboard-response","9","27312","0.0-6.0-1.2","63ced96b01986b01ef133497","bdp_trlrn","Sat Apr 08 2023 12:57:52 GMT-0400 (Eastern Daylight Time)","574174","Untrustworthy,Trustworthy","","1381","","","","rating","","trustrating_stim/white_mw053.bmp","5","","","","","","","","","","",""
"image-keyboard-response","10","27529","0.0-6.0-2.2","63ced96b01986b01ef133497","bdp_trlrn","Sat Apr 08 2023 12:57:52 GMT-0400 (Eastern Daylight Time)","574174","Untrustworthy,Trustworthy","","null","","","","ratingFB","","trustrating_stim/white_mw053.bmp","null","","","","","","","","","","",""
"image-keyboard-response","11","29200","0.0-6.0-1.3","63ced96b01986b01ef133497","bdp_trlrn","Sat Apr 08 2023 12:57:52 GMT-0400 (Eastern Daylight Time)","574174","Untrustworthy,Trustworthy","","1548","","","","rating","","trustrating_stim/white_mw071.bmp","3","","","","","","","","","","",""
"image-keyboard-response","12","29410","0.0-6.0-2.3","63ced96b01986b01ef133497","bdp_trlrn","Sat Apr 08 2023 12:57:52 GMT-0400 (Eastern Daylight Time)","574174","Untrustworthy,Trustworthy","","null","","","","ratingFB","","trustrating_stim/white_mw071.bmp","null","","","","","","","","","","",""
"image-keyboard-response","13","30476","0.0-6.0-1.4","63ced96b01986b01ef133497","bdp_trlrn","Sat Apr 08 2023 12:57:52 GMT-0400 (Eastern Daylight Time)","574174","Untrustworthy,Trustworthy","","962","","","","rating","","trustrating_stim/white_00602_940928_fb_edt.bmp","6","","","","","","","","","","",""
"image-keyboard-response","14","30679","0.0-6.0-2.4","63ced96b01986b01ef133497","bdp_trlrn","Sat Apr 08 2023 12:57:52 GMT-0400 (Eastern Daylight Time)","574174","Untrustworthy,Trustworthy","","null","","","","ratingFB","","trustrating_stim/white_00602_940928_fb_edt.bmp","null","","","","","","","","","","",""
"image-keyboard-response","15","31916","0.0-6.0-1.5","63ced96b01986b01ef133497","bdp_trlrn","Sat Apr 08 2023 12:57:52 GMT-0400 (Eastern Daylight Time)","574174","Untrustworthy,Trustworthy","","1132","","","","rating","","trustrating_stim/white_00340_940422_fa_edt.bmp","4","","","","","","","","","","",""
"image-keyboard-response","16","32119","0.0-6.0-2.5","63ced96b01986b01ef133497","bdp_trlrn","Sat Apr 08 2023 12:57:52 GMT-0400 (Eastern Daylight Time)","574174","Untrustworthy,Trustworthy","","null","","","","ratingFB","","trustrating_stim/white_00340_940422_fa_edt.bmp","null","","","","","","","","","","",""
"image-keyboard-response","17","33486","0.0-6.0-1.6","63ced96b01986b01ef133497","bdp_trlrn","Sat Apr 08 2023 12:57:52 GMT-0400 (Eastern Daylight Time)","574174","Untrustworthy,Trustworthy","","1263","","","","rating","","trustrating_stim/white_00223_940128_fb_edt.bmp","5","","","","","","","","","","",""
"image-keyboard-response","18","33691","0.0-6.0-2.6","63ced96b01986b01ef133497","bdp_trlrn","Sat Apr 08 2023 12:57:52 GMT-0400 (Eastern Daylight Time)","574174","Untrustworthy,Trustworthy","","null","","","","ratingFB","","trustrating_stim/white_00223_940128_fb_edt.bmp","null","","","","","","","","","","",""
"image-keyboard-response","19","35012","0.0-6.0-1.7","63ced96b01986b01ef133497","bdp_trlrn","Sat Apr 08 2023 12:57:52 GMT-0400 (Eastern Daylight Time)","574174","Untrustworthy,Trustworthy","","1217","","","","rating","","trustrating_stim/white_00519_940519_fb_edt.bmp","3","","","","","","","","","","",""
"image-keyboard-response","20","35215","0.0-6.0-2.7","63ced96b01986b01ef133497","bdp_trlrn","Sat Apr 08 2023 12:57:52 GMT-0400 (Eastern Daylight Time)","574174","Untrustworthy,Trustworthy","","null","","","","ratingFB","","trustrating_stim/white_00519_940519_fb_edt.bmp","null","","","","","","","","","","",""
"image-keyboard-response","21","36312","0.0-6.0-1.8","63ced96b01986b01ef133497","bdp_trlrn","Sat Apr 08 2023 12:57:52 GMT-0400 (Eastern Daylight Time)","574174","Untrustworthy,Trustworthy","","993","","","","rating","","trustrating_stim/white_00757_941201_fa_edt.bmp","7","","","","","","","","","","",""
"image-keyboard-response","22","36515","0.0-6.0-2.8","63ced96b01986b01ef133497","bdp_trlrn","Sat Apr 08 2023 12:57:52 GMT-0400 (Eastern Daylight Time)","574174","Untrustworthy,Trustworthy","","null","","","","ratingFB","","trustrating_stim/white_00757_941201_fa_edt.bmp","null","","","","","","","","","","",""
"image-keyboard-response","23","38095","0.0-6.0-1.9","63ced96b01986b01ef133497","bdp_trlrn","Sat Apr 08 2023 12:57:52 GMT-0400 (Eastern Daylight Time)","574174","Untrustworthy,Trustworthy","","1475","","","","rating","","trustrating_stim/white_mw063.bmp","8","","","","","","","","","","",""
"image-keyboard-response","24","38298","0.0-6.0-2.9","63ced96b01986b01ef133497","bdp_trlrn","Sat Apr 08 2023 12:57:52 GMT-0400 (Eastern Daylight Time)","574174","Untrustworthy,Trustworthy","","null","","","","ratingFB","","trustrating_stim/white_mw063.bmp","null","","","","","","","","","","",""
"image-keyboard-response","25","39432","0.0-6.0-1.10","63ced96b01986b01ef133497","bdp_trlrn","Sat Apr 08 2023 12:57:52 GMT-0400 (Eastern Daylight Time)","574174","Untrustworthy,Trustworthy","","1029","","","","rating","","trustrating_stim/white_00129_931230_fb_edt.bmp","6","","","","","","","","","","",""
"image-keyboard-response","26","39635","0.0-6.0-2.10","63ced96b01986b01ef133497","bdp_trlrn","Sat Apr 08 2023 12:57:52 GMT-0400 (Eastern Daylight Time)","574174","Untrustworthy,Trustworthy","","null","","","","ratingFB","","trustrating_stim/white_00129_931230_fb_edt.bmp","null","","","","","","","","","","",""
"image-keyboard-response","27","40819","0.0-6.0-1.11","63ced96b01986b01ef133497","bdp_trlrn","Sat Apr 08 2023 12:57:52 GMT-0400 (Eastern Daylight Time)","574174","Untrustworthy,Trustworthy","","1080","","","","rating","","trustrating_stim/white_00807_941205_fb_edt.bmp","5","","","","","","","","","","",""
"image-keyboard-response","28","41023","0.0-6.0-2.11","63ced96b01986b01ef133497","bdp_trlrn","Sat Apr 08 2023 12:57:52 GMT-0400 (Eastern Daylight Time)","574174","Untrustworthy,Trustworthy","","null","","","","ratingFB","","trustrating_stim/white_00807_941205_fb_edt.bmp","null","","","","","","","","","","",""
"image-keyboard-response","29","42077","0.0-6.0-1.12","63ced96b01986b01ef133497","bdp_trlrn","Sat Apr 08 2023 12:57:52 GMT-0400 (Eastern Daylight Time)","574174","Untrustworthy,Trustworthy","","951","","","","rating","","trustrating_stim/white_mw048.bmp","2","","","","","","","","","","",""
"image-keyboard-response","30","42281","0.0-6.0-2.12","63ced96b01986b01ef133497","bdp_trlrn","Sat Apr 08 2023 12:57:52 GMT-0400 (Eastern Daylight Time)","574174","Untrustworthy,Trustworthy","","null","","","","ratingFB","","trustrating_stim/white_mw048.bmp","null","","","","","","","","","","",""
"image-keyboard-response","31","43682","0.0-6.0-1.13","63ced96b01986b01ef133497","bdp_trlrn","Sat Apr 08 2023 12:57:52 GMT-0400 (Eastern Daylight Time)","574174","Untrustworthy,Trustworthy","","1297","","","","rating","","trustrating_stim/white_mw049.bmp","6","","","","","","","","","","",""
"image-keyboard-response","32","43885","0.0-6.0-2.13","63ced96b01986b01ef133497","bdp_trlrn","Sat Apr 08 2023 12:57:52 GMT-0400 (Eastern Daylight Time)","574174","Untrustworthy,Trustworthy","","null","","","","ratingFB","","trustrating_stim/white_mw049.bmp","null","","","","","","","","","","",""
"image-keyboard-response","33","45079","0.0-6.0-1.14","63ced96b01986b01ef133497","bdp_trlrn","Sat Apr 08 2023 12:57:52 GMT-0400 (Eastern Daylight Time)","574174","Untrustworthy,Trustworthy","","1089","","","","rating","","trustrating_stim/white_mw089.bmp","4","","","","","","","","","","",""
"image-keyboard-response","34","45282","0.0-6.0-2.14","63ced96b01986b01ef133497","bdp_trlrn","Sat Apr 08 2023 12:57:52 GMT-0400 (Eastern Daylight Time)","574174","Untrustworthy,Trustworthy","","null","","","","ratingFB","","trustrating_stim/white_mw089.bmp","null","","","","","","","","","","",""
"image-keyboard-response","35","46238","0.0-6.0-1.15","63ced96b01986b01ef133497","bdp_trlrn","Sat Apr 08 2023 12:57:52 GMT-0400 (Eastern Daylight Time)","574174","Untrustworthy,Trustworthy","","853","","","","rating","","trustrating_stim/white_mw099.bmp","7","","","","","","","","","","",""
"image-keyboard-response","36","46442","0.0-6.0-2.15","63ced96b01986b01ef133497","bdp_trlrn","Sat Apr 08 2023 12:57:52 GMT-0400 (Eastern Daylight Time)","574174","Untrustworthy,Trustworthy","","null","","","","ratingFB","","trustrating_stim/white_mw099.bmp","null","","","","","","","","","","",""
"image-keyboard-response","37","47573","0.0-6.0-1.16","63ced96b01986b01ef133497","bdp_trlrn","Sat Apr 08 2023 12:57:52 GMT-0400 (Eastern Daylight Time)","574174","Untrustworthy,Trustworthy","","1027","","","","rating","","trustrating_stim/white_00120_931230_fa_edt.bmp","8","","","","","","","","","","",""
"image-keyboard-response","38","47777","0.0-6.0-2.16","63ced96b01986b01ef133497","bdp_trlrn","Sat Apr 08 2023 12:57:52 GMT-0400 (Eastern Daylight Time)","574174","Untrustworthy,Trustworthy","","null","","","","ratingFB","","trustrating_stim/white_00120_931230_fa_edt.bmp","null","","","","","","","","","","",""
"image-keyboard-response","39","49150","0.0-6.0-1.17","63ced96b01986b01ef133497","bdp_trlrn","Sat Apr 08 2023 12:57:52 GMT-0400 (Eastern Daylight Time)","574174","Untrustworthy,Trustworthy","","1258","","","","rating","","trustrating_stim/white_mw097.bmp","3","","","","","","","","","","",""
"image-keyboard-response","40","49353","0.0-6.0-2.17","63ced96b01986b01ef133497","bdp_trlrn","Sat Apr 08 2023 12:57:52 GMT-0400 (Eastern Daylight Time)","574174","Untrustworthy,Trustworthy","","null","","","","ratingFB","","trustrating_stim/white_mw097.bmp","null","","","","","","","","","","",""
"image-keyboard-response","41","50651","0.0-6.0-1.18","63ced96b01986b01ef133497","bdp_trlrn","Sat Apr 08 2023 12:57:52 GMT-0400 (Eastern Daylight Time)","574174","Untrustworthy,Trustworthy","","1194","","","","rating","","trustrating_stim/white_mw066.bmp","6","","","","","","","","","","",""
"image-keyboard-response","42","50855","0.0-6.0-2.18","63ced96b01986b01ef133497","bdp_trlrn","Sat Apr 08 2023 12:57:52 GMT-0400 (Eastern Daylight Time)","574174","Untrustworthy,Trustworthy","","null","","","","ratingFB","","trustrating_stim/white_mw066.bmp","null","","","","","","","","","","",""
"image-keyboard-response","43","52002","0.0-6.0-1.19","63ced96b01986b01ef133497","bdp_trlrn","Sat Apr 08 2023 12:57:52 GMT-0400 (Eastern Daylight Time)","574174","Untrustworthy,Trustworthy","","1044","","","","rating","","trustrating_stim/white_00577_940928_fa_edt.bmp","7","","","","","","","","","","",""
"image-keyboard-response","44","52205","0.0-6.0-2.19","63ced96b01986b01ef133497","bdp_trlrn","Sat Apr 08 2023 12:57:52 GMT-0400 (Eastern Daylight Time)","574174","Untrustworthy,Trustworthy","","null","","","","ratingFB","","trustrating_stim/white_00577_940928_fa_edt.bmp","null","","","","","","","","","","",""
"image-keyboard-response","45","53604","0.0-6.0-1.20","63ced96b01986b01ef133497","bdp_trlrn","Sat Apr 08 2023 12:57:52 GMT-0400 (Eastern Daylight Time)","574174","Untrustworthy,Trustworthy","","1295","","","","rating","","trustrating_stim/white_mw084.bmp","6","","","","","","","","","","",""
"image-keyboard-response","46","53807","0.0-6.0-2.20","63ced96b01986b01ef133497","bdp_trlrn","Sat Apr 08 2023 12:57:52 GMT-0400 (Eastern Daylight Time)","574174","Untrustworthy,Trustworthy","","null","","","","ratingFB","","trustrating_stim/white_mw084.bmp","null","","","","","","","","","","",""
"image-keyboard-response","47","55001","0.0-6.0-1.21","63ced96b01986b01ef133497","bdp_trlrn","Sat Apr 08 2023 12:57:52 GMT-0400 (Eastern Daylight Time)","574174","Untrustworthy,Trustworthy","","1089","","","","rating","","trustrating_stim/white_00109_931230_fa_edt.bmp","8","","","","","","","","","","",""
"image-keyboard-response","48","55204","0.0-6.0-2.21","63ced96b01986b01ef133497","bdp_trlrn","Sat Apr 08 2023 12:57:52 GMT-0400 (Eastern Daylight Time)","574174","Untrustworthy,Trustworthy","","null","","","","ratingFB","","trustrating_stim/white_00109_931230_fa_edt.bmp","null","","","","","","","","","","",""
"image-keyboard-response","49","56431","0.0-6.0-1.22","63ced96b01986b01ef133497","bdp_trlrn","Sat Apr 08 2023 12:57:52 GMT-0400 (Eastern Daylight Time)","574174","Untrustworthy,Trustworthy","","1124","","","","rating","","trustrating_stim/white_00659_941121_fa_edt.bmp","7","","","","","","","","","","",""
"image-keyboard-response","50","56634","0.0-6.0-2.22","63ced96b01986b01ef133497","bdp_trlrn","Sat Apr 08 2023 12:57:52 GMT-0400 (Eastern Daylight Time)","574174","Untrustworthy,Trustworthy","","null","","","","ratingFB","","trustrating_stim/white_00659_941121_fa_edt.bmp","null","","","","","","","","","","",""
"image-keyboard-response","51","57820","0.0-6.0-1.23","63ced96b01986b01ef133497","bdp_trlrn","Sat Apr 08 2023 12:57:52 GMT-0400 (Eastern Daylight Time)","574174","Untrustworthy,Trustworthy","","1081","","","","rating","","trustrating_stim/white_00299_940422_fa_edt.bmp","3","","","","","","","","","","",""
"image-keyboard-response","52","58022","0.0-6.0-2.23","63ced96b01986b01ef133497","bdp_trlrn","Sat Apr 08 2023 12:57:52 GMT-0400 (Eastern Daylight Time)","574174","Untrustworthy,Trustworthy","","null","","","","ratingFB","","trustrating_stim/white_00299_940422_fa_edt.bmp","null","","","","","","","","","","",""
"image-keyboard-response","53","59318","0.0-6.0-1.24","63ced96b01986b01ef133497","bdp_trlrn","Sat Apr 08 2023 12:57:52 GMT-0400 (Eastern Daylight Time)","574174","Untrustworthy,Trustworthy","","1192","","","","rating","","trustrating_stim/white_mw033.bmp","4","","","","","","","","","","",""
"image-keyboard-response","54","59521","0.0-6.0-2.24","63ced96b01986b01ef133497","bdp_trlrn","Sat Apr 08 2023 12:57:52 GMT-0400 (Eastern Daylight Time)","574174","Untrustworthy,Trustworthy","","null","","","","ratingFB","","trustrating_stim/white_mw033.bmp","null","","","","","","","","","","",""
"image-keyboard-response","55","60392","0.0-6.0-1.25","63ced96b01986b01ef133497","bdp_trlrn","Sat Apr 08 2023 12:57:52 GMT-0400 (Eastern Daylight Time)","574174","Untrustworthy,Trustworthy","","766","","","","rating","","trustrating_stim/white_00785_941205_fb_edt.bmp","3","","","","","","","","","","",""
"image-keyboard-response","56","60595","0.0-6.0-2.25","63ced96b01986b01ef133497","bdp_trlrn","Sat Apr 08 2023 12:57:52 GMT-0400 (Eastern Daylight Time)","574174","Untrustworthy,Trustworthy","","null","","","","ratingFB","","trustrating_stim/white_00785_941205_fb_edt.bmp","null","","","","","","","","","","",""
"image-keyboard-response","57","62083","0.0-6.0-1.26","63ced96b01986b01ef133497","bdp_trlrn","Sat Apr 08 2023 12:57:52 GMT-0400 (Eastern Daylight Time)","574174","Untrustworthy,Trustworthy","","1383","","","","rating","","trustrating_stim/white_00761_941201_fb_edt.bmp","4","","","","","","","","","","",""
"image-keyboard-response","58","62286","0.0-6.0-2.26","63ced96b01986b01ef133497","bdp_trlrn","Sat Apr 08 2023 12:57:52 GMT-0400 (Eastern Daylight Time)","574174","Untrustworthy,Trustworthy","","null","","","","ratingFB","","trustrating_stim/white_00761_941201_fb_edt.bmp","null","","","","","","","","","","",""
"image-keyboard-response","59","63731","0.0-6.0-1.27","63ced96b01986b01ef133497","bdp_trlrn","Sat Apr 08 2023 12:57:52 GMT-0400 (Eastern Daylight Time)","574174","Untrustworthy,Trustworthy","","1342","","","","rating","","trustrating_stim/white_mw060.bmp","5","","","","","","","","","","",""
"image-keyboard-response","60","63934","0.0-6.0-2.27","63ced96b01986b01ef133497","bdp_trlrn","Sat Apr 08 2023 12:57:52 GMT-0400 (Eastern Daylight Time)","574174","Untrustworthy,Trustworthy","","null","","","","ratingFB","","trustrating_stim/white_mw060.bmp","null","","","","","","","","","","",""
"image-keyboard-response","61","65186","0.0-6.0-1.28","63ced96b01986b01ef133497","bdp_trlrn","Sat Apr 08 2023 12:57:52 GMT-0400 (Eastern Daylight Time)","574174","Untrustworthy,Trustworthy","","1149","","","","rating","","trustrating_stim/white_mw035.bmp","3","","","","","","","","","","",""
"image-keyboard-response","62","65390","0.0-6.0-2.28","63ced96b01986b01ef133497","bdp_trlrn","Sat Apr 08 2023 12:57:52 GMT-0400 (Eastern Daylight Time)","574174","Untrustworthy,Trustworthy","","null","","","","ratingFB","","trustrating_stim/white_mw035.bmp","null","","","","","","","","","","",""
"image-keyboard-response","63","66066","0.0-6.0-1.29","63ced96b01986b01ef133497","bdp_trlrn","Sat Apr 08 2023 12:57:52 GMT-0400 (Eastern Daylight Time)","574174","Untrustworthy,Trustworthy","","570","","","","rating","","trustrating_stim/white_mw056.bmp","6","","","","","","","","","","",""
"image-keyboard-response","64","66269","0.0-6.0-2.29","63ced96b01986b01ef133497","bdp_trlrn","Sat Apr 08 2023 12:57:52 GMT-0400 (Eastern Daylight Time)","574174","Untrustworthy,Trustworthy","","null","","","","ratingFB","","trustrating_stim/white_mw056.bmp","null","","","","","","","","","","",""
"image-keyboard-response","65","67581","0.0-6.0-1.30","63ced96b01986b01ef133497","bdp_trlrn","Sat Apr 08 2023 12:57:52 GMT-0400 (Eastern Daylight Time)","574174","Untrustworthy,Trustworthy","","1207","","","","rating","","trustrating_stim/white_mw048.bmp","3","","","","","","","","","","",""
"image-keyboard-response","66","67784","0.0-6.0-2.30","63ced96b01986b01ef133497","bdp_trlrn","Sat Apr 08 2023 12:57:52 GMT-0400 (Eastern Daylight Time)","574174","Untrustworthy,Trustworthy","","null","","","","ratingFB","","trustrating_stim/white_mw048.bmp","null","","","","","","","","","","",""
"image-keyboard-response","67","69087","0.0-6.0-1.31","63ced96b01986b01ef133497","bdp_trlrn","Sat Apr 08 2023 12:57:52 GMT-0400 (Eastern Daylight Time)","574174","Untrustworthy,Trustworthy","","1182","","","","rating","","trustrating_stim/white_mw084.bmp","6","","","","","","","","","","",""
"image-keyboard-response","68","69291","0.0-6.0-2.31","63ced96b01986b01ef133497","bdp_trlrn","Sat Apr 08 2023 12:57:52 GMT-0400 (Eastern Daylight Time)","574174","Untrustworthy,Trustworthy","","null","","","","ratingFB","","trustrating_stim/white_mw084.bmp","null","","","","","","","","","","",""
"image-keyboard-response","69","71223","0.0-6.0-1.32","63ced96b01986b01ef133497","bdp_trlrn","Sat Apr 08 2023 12:57:52 GMT-0400 (Eastern Daylight Time)","574174","Untrustworthy,Trustworthy","","1827","","","","rating","","trustrating_stim/white_00898_960530_fa_edt.bmp","7","","","","","","","","","","",""
"image-keyboard-response","70","71426","0.0-6.0-2.32","63ced96b01986b01ef133497","bdp_trlrn","Sat Apr 08 2023 12:57:52 GMT-0400 (Eastern Daylight Time)","574174","Untrustworthy,Trustworthy","","null","","","","ratingFB","","trustrating_stim/white_00898_960530_fa_edt.bmp","null","","","","","","","","","","",""
"image-keyboard-response","71","72606","0.0-6.0-1.33","63ced96b01986b01ef133497","bdp_trlrn","Sat Apr 08 2023 12:57:52 GMT-0400 (Eastern Daylight Time)","574174","Untrustworthy,Trustworthy","","1073","","","","rating","","trustrating_stim/white_00577_940928_fa_edt.bmp","7","","","","","","","","","","",""
"image-keyboard-response","72","72808","0.0-6.0-2.33","63ced96b01986b01ef133497","bdp_trlrn","Sat Apr 08 2023 12:57:52 GMT-0400 (Eastern Daylight Time)","574174","Untrustworthy,Trustworthy","","null","","","","ratingFB","","trustrating_stim/white_00577_940928_fa_edt.bmp","null","","","","","","","","","","",""
"image-keyboard-response","73","74923","0.0-6.0-1.34","63ced96b01986b01ef133497","bdp_trlrn","Sat Apr 08 2023 12:57:52 GMT-0400 (Eastern Daylight Time)","574174","Untrustworthy,Trustworthy","","2009","","","","rating","","trustrating_stim/white_00109_931230_fa_edt.bmp","8","","","","","","","","","","",""
"image-keyboard-response","74","75126","0.0-6.0-2.34","63ced96b01986b01ef133497","bdp_trlrn","Sat Apr 08 2023 12:57:52 GMT-0400 (Eastern Daylight Time)","574174","Untrustworthy,Trustworthy","","null","","","","ratingFB","","trustrating_stim/white_00109_931230_fa_edt.bmp","null","","","","","","","","","","",""
"image-keyboard-response","75","76552","0.0-6.0-1.35","63ced96b01986b01ef133497","bdp_trlrn","Sat Apr 08 2023 12:57:52 GMT-0400 (Eastern Daylight Time)","574174","Untrustworthy,Trustworthy","","1320","","","","rating","","trustrating_stim/white_mw089.bmp","6","","","","","","","","","","",""
"image-keyboard-response","76","76755","0.0-6.0-2.35","63ced96b01986b01ef133497","bdp_trlrn","Sat Apr 08 2023 12:57:52 GMT-0400 (Eastern Daylight Time)","574174","Untrustworthy,Trustworthy","","null","","","","ratingFB","","trustrating_stim/white_mw089.bmp","null","","","","","","","","","","",""
"image-keyboard-response","77","77968","0.0-6.0-1.36","63ced96b01986b01ef133497","bdp_trlrn","Sat Apr 08 2023 12:57:52 GMT-0400 (Eastern Daylight Time)","574174","Untrustworthy,Trustworthy","","1106","","","","rating","","trustrating_stim/white_00785_941205_fb_edt.bmp","4","","","","","","","","","","",""
"image-keyboard-response","78","78172","0.0-6.0-2.36","63ced96b01986b01ef133497","bdp_trlrn","Sat Apr 08 2023 12:57:52 GMT-0400 (Eastern Daylight Time)","574174","Untrustworthy,Trustworthy","","null","","","","ratingFB","","trustrating_stim/white_00785_941205_fb_edt.bmp","null","","","","","","","","","","",""
"image-keyboard-response","79","79278","0.0-6.0-1.37","63ced96b01986b01ef133497","bdp_trlrn","Sat Apr 08 2023 12:57:52 GMT-0400 (Eastern Daylight Time)","574174","Untrustworthy,Trustworthy","","1000","","","","rating","","trustrating_stim/white_mw060.bmp","5","","","","","","","","","","",""
"image-keyboard-response","80","79481","0.0-6.0-2.37","63ced96b01986b01ef133497","bdp_trlrn","Sat Apr 08 2023 12:57:52 GMT-0400 (Eastern Daylight Time)","574174","Untrustworthy,Trustworthy","","null","","","","ratingFB","","trustrating_stim/white_mw060.bmp","null","","","","","","","","","","",""
"image-keyboard-response","81","80454","0.0-6.0-1.38","63ced96b01986b01ef133497","bdp_trlrn","Sat Apr 08 2023 12:57:52 GMT-0400 (Eastern Daylight Time)","574174","Untrustworthy,Trustworthy","","867","","","","rating","","trustrating_stim/white_mw035.bmp","6","","","","","","","","","","",""
"image-keyboard-response","82","80657","0.0-6.0-2.38","63ced96b01986b01ef133497","bdp_trlrn","Sat Apr 08 2023 12:57:52 GMT-0400 (Eastern Daylight Time)","574174","Untrustworthy,Trustworthy","","null","","","","ratingFB","","trustrating_stim/white_mw035.bmp","null","","","","","","","","","","",""
"image-keyboard-response","83","82070","0.0-6.0-1.39","63ced96b01986b01ef133497","bdp_trlrn","Sat Apr 08 2023 12:57:52 GMT-0400 (Eastern Daylight Time)","574174","Untrustworthy,Trustworthy","","1308","","","","rating","","trustrating_stim/white_00120_931230_fa_edt.bmp","6","","","","","","","","","","",""
"image-keyboard-response","84","82273","0.0-6.0-2.39","63ced96b01986b01ef133497","bdp_trlrn","Sat Apr 08 2023 12:57:52 GMT-0400 (Eastern Daylight Time)","574174","Untrustworthy,Trustworthy","","null","","","","ratingFB","","trustrating_stim/white_00120_931230_fa_edt.bmp","null","","","","","","","","","","",""
"image-keyboard-response","85","83950","0.0-6.0-1.40","63ced96b01986b01ef133497","bdp_trlrn","Sat Apr 08 2023 12:57:52 GMT-0400 (Eastern Daylight Time)","574174","Untrustworthy,Trustworthy","","1573","","","","rating","","trustrating_stim/white_00761_941201_fb_edt.bmp","5","","","","","","","","","","",""
"image-keyboard-response","86","84153","0.0-6.0-2.40","63ced96b01986b01ef133497","bdp_trlrn","Sat Apr 08 2023 12:57:52 GMT-0400 (Eastern Daylight Time)","574174","Untrustworthy,Trustworthy","","null","","","","ratingFB","","trustrating_stim/white_00761_941201_fb_edt.bmp","null","","","","","","","","","","",""
"image-keyboard-response","87","85518","0.0-6.0-1.41","63ced96b01986b01ef133497","bdp_trlrn","Sat Apr 08 2023 12:57:52 GMT-0400 (Eastern Daylight Time)","574174","Untrustworthy,Trustworthy","","1259","","","","rating","","trustrating_stim/white_mw063.bmp","3","","","","","","","","","","",""
"image-keyboard-response","88","85721","0.0-6.0-2.41","63ced96b01986b01ef133497","bdp_trlrn","Sat Apr 08 2023 12:57:52 GMT-0400 (Eastern Daylight Time)","574174","Untrustworthy,Trustworthy","","null","","","","ratingFB","","trustrating_stim/white_mw063.bmp","null","","","","","","","","","","",""
"image-keyboard-response","89","86840","0.0-6.0-1.42","63ced96b01986b01ef133497","bdp_trlrn","Sat Apr 08 2023 12:57:52 GMT-0400 (Eastern Daylight Time)","574174","Untrustworthy,Trustworthy","","1013","","","","rating","","trustrating_stim/white_mw099.bmp","6","","","","","","","","","","",""
"image-keyboard-response","90","87043","0.0-6.0-2.42","63ced96b01986b01ef133497","bdp_trlrn","Sat Apr 08 2023 12:57:52 GMT-0400 (Eastern Daylight Time)","574174","Untrustworthy,Trustworthy","","null","","","","ratingFB","","trustrating_stim/white_mw099.bmp","null","","","","","","","","","","",""
"image-keyboard-response","91","87933","0.0-6.0-1.43","63ced96b01986b01ef133497","bdp_trlrn","Sat Apr 08 2023 12:57:52 GMT-0400 (Eastern Daylight Time)","574174","Untrustworthy,Trustworthy","","784","","","","rating","","trustrating_stim/white_00519_940519_fb_edt.bmp","4","","","","","","","","","","",""
"image-keyboard-response","92","88136","0.0-6.0-2.43","63ced96b01986b01ef133497","bdp_trlrn","Sat Apr 08 2023 12:57:52 GMT-0400 (Eastern Daylight Time)","574174","Untrustworthy,Trustworthy","","null","","","","ratingFB","","trustrating_stim/white_00519_940519_fb_edt.bmp","null","","","","","","","","","","",""
"image-keyboard-response","93","89555","0.0-6.0-1.44","63ced96b01986b01ef133497","bdp_trlrn","Sat Apr 08 2023 12:57:52 GMT-0400 (Eastern Daylight Time)","574174","Untrustworthy,Trustworthy","","1313","","","","rating","","trustrating_stim/white_mw066.bmp","6","","","","","","","","","","",""
"image-keyboard-response","94","89758","0.0-6.0-2.44","63ced96b01986b01ef133497","bdp_trlrn","Sat Apr 08 2023 12:57:52 GMT-0400 (Eastern Daylight Time)","574174","Untrustworthy,Trustworthy","","null","","","","ratingFB","","trustrating_stim/white_mw066.bmp","null","","","","","","","","","","",""
"image-keyboard-response","95","91612","0.0-6.0-1.45","63ced96b01986b01ef133497","bdp_trlrn","Sat Apr 08 2023 12:57:52 GMT-0400 (Eastern Daylight Time)","574174","Untrustworthy,Trustworthy","","1748","","","","rating","","trustrating_stim/white_00602_940928_fb_edt.bmp","8","","","","","","","","","","",""
"image-keyboard-response","96","91816","0.0-6.0-2.45","63ced96b01986b01ef133497","bdp_trlrn","Sat Apr 08 2023 12:57:52 GMT-0400 (Eastern Daylight Time)","574174","Untrustworthy,Trustworthy","","null","","","","ratingFB","","trustrating_stim/white_00602_940928_fb_edt.bmp","null","","","","","","","","","","",""
"image-keyboard-response","97","99906","0.0-6.0-1.46","63ced96b01986b01ef133497","bdp_trlrn","Sat Apr 08 2023 12:57:52 GMT-0400 (Eastern Daylight Time)","574174","Untrustworthy,Trustworthy","","7984","","","","rating","","trustrating_stim/white_00129_931230_fb_edt.bmp","6","","","","","","","","","","",""
"image-keyboard-response","98","100108","0.0-6.0-2.46","63ced96b01986b01ef133497","bdp_trlrn","Sat Apr 08 2023 12:57:52 GMT-0400 (Eastern Daylight Time)","574174","Untrustworthy,Trustworthy","","null","","","","ratingFB","","trustrating_stim/white_00129_931230_fb_edt.bmp","null","","","","","","","","","","",""
"image-keyboard-response","99","101197","0.0-6.0-1.47","63ced96b01986b01ef133497","bdp_trlrn","Sat Apr 08 2023 12:57:52 GMT-0400 (Eastern Daylight Time)","574174","Untrustworthy,Trustworthy","","985","","","","rating","","trustrating_stim/white_00807_941205_fb_edt.bmp","7","","","","","","","","","","",""
"image-keyboard-response","100","101400","0.0-6.0-2.47","63ced96b01986b01ef133497","bdp_trlrn","Sat Apr 08 2023 12:57:52 GMT-0400 (Eastern Daylight Time)","574174","Untrustworthy,Trustworthy","","null","","","","ratingFB","","trustrating_stim/white_00807_941205_fb_edt.bmp","null","","","","","","","","","","",""
"image-keyboard-response","101","102688","0.0-6.0-1.48","63ced96b01986b01ef133497","bdp_trlrn","Sat Apr 08 2023 12:57:52 GMT-0400 (Eastern Daylight Time)","574174","Untrustworthy,Trustworthy","","1182","","","","rating","","trustrating_stim/white_mw033.bmp","7","","","","","","","","","","",""
"image-keyboard-response","102","102891","0.0-6.0-2.48","63ced96b01986b01ef133497","bdp_trlrn","Sat Apr 08 2023 12:57:52 GMT-0400 (Eastern Daylight Time)","574174","Untrustworthy,Trustworthy","","null","","","","ratingFB","","trustrating_stim/white_mw033.bmp","null","","","","","","","","","","",""
"image-keyboard-response","103","103747","0.0-6.0-1.49","63ced96b01986b01ef133497","bdp_trlrn","Sat Apr 08 2023 12:57:52 GMT-0400 (Eastern Daylight Time)","574174","Untrustworthy,Trustworthy","","750","","","","rating","","trustrating_stim/white_00340_940422_fa_edt.bmp","8","","","","","","","","","","",""
"image-keyboard-response","104","103950","0.0-6.0-2.49","63ced96b01986b01ef133497","bdp_trlrn","Sat Apr 08 2023 12:57:52 GMT-0400 (Eastern Daylight Time)","574174","Untrustworthy,Trustworthy","","null","","","","ratingFB","","trustrating_stim/white_00340_940422_fa_edt.bmp","null","","","","","","","","","","",""
"image-keyboard-response","105","104900","0.0-6.0-1.50","63ced96b01986b01ef133497","bdp_trlrn","Sat Apr 08 2023 12:57:52 GMT-0400 (Eastern Daylight Time)","574174","Untrustworthy,Trustworthy","","845","","","","rating","","trustrating_stim/white_00757_941201_fa_edt.bmp","5","","","","","","","","","","",""
"image-keyboard-response","106","105104","0.0-6.0-2.50","63ced96b01986b01ef133497","bdp_trlrn","Sat Apr 08 2023 12:57:52 GMT-0400 (Eastern Daylight Time)","574174","Untrustworthy,Trustworthy","","null","","","","ratingFB","","trustrating_stim/white_00757_941201_fa_edt.bmp","null","","","","","","","","","","",""
"image-keyboard-response","107","106073","0.0-6.0-1.51","63ced96b01986b01ef133497","bdp_trlrn","Sat Apr 08 2023 12:57:52 GMT-0400 (Eastern Daylight Time)","574174","Untrustworthy,Trustworthy","","863","","","","rating","","trustrating_stim/white_00659_941121_fa_edt.bmp","7","","","","","","","","","","",""
"image-keyboard-response","108","106276","0.0-6.0-2.51","63ced96b01986b01ef133497","bdp_trlrn","Sat Apr 08 2023 12:57:52 GMT-0400 (Eastern Daylight Time)","574174","Untrustworthy,Trustworthy","","null","","","","ratingFB","","trustrating_stim/white_00659_941121_fa_edt.bmp","null","","","","","","","","","","",""
"image-keyboard-response","109","107492","0.0-6.0-1.52","63ced96b01986b01ef133497","bdp_trlrn","Sat Apr 08 2023 12:57:52 GMT-0400 (Eastern Daylight Time)","574174","Untrustworthy,Trustworthy","","1111","","","","rating","","trustrating_stim/white_mw056.bmp","8","","","","","","","","","","",""
"image-keyboard-response","110","107695","0.0-6.0-2.52","63ced96b01986b01ef133497","bdp_trlrn","Sat Apr 08 2023 12:57:52 GMT-0400 (Eastern Daylight Time)","574174","Untrustworthy,Trustworthy","","null","","","","ratingFB","","trustrating_stim/white_mw056.bmp","null","","","","","","","","","","",""
"image-keyboard-response","111","109198","0.0-6.0-1.53","63ced96b01986b01ef133497","bdp_trlrn","Sat Apr 08 2023 12:57:52 GMT-0400 (Eastern Daylight Time)","574174","Untrustworthy,Trustworthy","","1396","","","","rating","","trustrating_stim/white_mw071.bmp","4","","","","","","","","","","",""
"image-keyboard-response","112","109401","0.0-6.0-2.53","63ced96b01986b01ef133497","bdp_trlrn","Sat Apr 08 2023 12:57:52 GMT-0400 (Eastern Daylight Time)","574174","Untrustworthy,Trustworthy","","null","","","","ratingFB","","trustrating_stim/white_mw071.bmp","null","","","","","","","","","","",""
"image-keyboard-response","113","110876","0.0-6.0-1.54","63ced96b01986b01ef133497","bdp_trlrn","Sat Apr 08 2023 12:57:52 GMT-0400 (Eastern Daylight Time)","574174","Untrustworthy,Trustworthy","","1369","","","","rating","","trustrating_stim/white_mw049.bmp","5","","","","","","","","","","",""
"image-keyboard-response","114","111094","0.0-6.0-2.54","63ced96b01986b01ef133497","bdp_trlrn","Sat Apr 08 2023 12:57:52 GMT-0400 (Eastern Daylight Time)","574174","Untrustworthy,Trustworthy","","null","","","","ratingFB","","trustrating_stim/white_mw049.bmp","null","","","","","","","","","","",""
"image-keyboard-response","115","112368","0.0-6.0-1.55","63ced96b01986b01ef133497","bdp_trlrn","Sat Apr 08 2023 12:57:52 GMT-0400 (Eastern Daylight Time)","574174","Untrustworthy,Trustworthy","","1166","","","","rating","","trustrating_stim/white_00299_940422_fa_edt.bmp","6","","","","","","","","","","",""
"image-keyboard-response","116","112571","0.0-6.0-2.55","63ced96b01986b01ef133497","bdp_trlrn","Sat Apr 08 2023 12:57:52 GMT-0400 (Eastern Daylight Time)","574174","Untrustworthy,Trustworthy","","null","","","","ratingFB","","trustrating_stim/white_00299_940422_fa_edt.bmp","null","","","","","","","","","","",""
"image-keyboard-response","117","113425","0.0-6.0-1.56","63ced96b01986b01ef133497","bdp_trlrn","Sat Apr 08 2023 12:57:52 GMT-0400 (Eastern Daylight Time)","574174","Untrustworthy,Trustworthy","","747","","","","rating","","trustrating_stim/white_mw053.bmp","6","","","","","","","","","","",""
"image-keyboard-response","118","113628","0.0-6.0-2.56","63ced96b01986b01ef133497","bdp_trlrn","Sat Apr 08 2023 12:57:52 GMT-0400 (Eastern Daylight Time)","574174","Untrustworthy,Trustworthy","","null","","","","ratingFB","","trustrating_stim/white_mw053.bmp","null","","","","","","","","","","",""
"image-keyboard-response","119","114433","0.0-6.0-1.57","63ced96b01986b01ef133497","bdp_trlrn","Sat Apr 08 2023 12:57:52 GMT-0400 (Eastern Daylight Time)","574174","Untrustworthy,Trustworthy","","699","","","","rating","","trustrating_stim/white_00223_940128_fb_edt.bmp","6","","","","","","","","","","",""
"image-keyboard-response","120","114636","0.0-6.0-2.57","63ced96b01986b01ef133497","bdp_trlrn","Sat Apr 08 2023 12:57:52 GMT-0400 (Eastern Daylight Time)","574174","Untrustworthy,Trustworthy","","null","","","","ratingFB","","trustrating_stim/white_00223_940128_fb_edt.bmp","null","","","","","","","","","","",""
"image-keyboard-response","121","115937","0.0-6.0-1.58","63ced96b01986b01ef133497","bdp_trlrn","Sat Apr 08 2023 12:57:52 GMT-0400 (Eastern Daylight Time)","574174","Untrustworthy,Trustworthy","","1196","","","","rating","","trustrating_stim/white_mw046.bmp","4","","","","","","","","","","",""
"image-keyboard-response","122","116140","0.0-6.0-2.58","63ced96b01986b01ef133497","bdp_trlrn","Sat Apr 08 2023 12:57:52 GMT-0400 (Eastern Daylight Time)","574174","Untrustworthy,Trustworthy","","null","","","","ratingFB","","trustrating_stim/white_mw046.bmp","null","","","","","","","","","","",""
"image-keyboard-response","123","117265","0.0-6.0-1.59","63ced96b01986b01ef133497","bdp_trlrn","Sat Apr 08 2023 12:57:52 GMT-0400 (Eastern Daylight Time)","574174","Untrustworthy,Trustworthy","","1019","","","","rating","","trustrating_stim/white_mw097.bmp","3","","","","","","","","","","",""
"image-keyboard-response","124","117469","0.0-6.0-2.59","63ced96b01986b01ef133497","bdp_trlrn","Sat Apr 08 2023 12:57:52 GMT-0400 (Eastern Daylight Time)","574174","Untrustworthy,Trustworthy","","null","","","","ratingFB","","trustrating_stim/white_mw097.bmp","null","","","","","","","","","","",""
"instructions","125","119233","0.0-7.0","63ced96b01986b01ef133497","bdp_trlrn","Sat Apr 08 2023 12:57:52 GMT-0400 (Eastern Daylight Time)","574174","Untrustworthy,Trustworthy","[{""page_index"":0,""viewing_time"":1658}]","1659","","","","","","","","","","","","","","","","","",""
"instructions","126","188692","0.0-8.0","63ced96b01986b01ef133497","bdp_trlrn","Sat Apr 08 2023 12:57:52 GMT-0400 (Eastern Daylight Time)","574174","Untrustworthy,Trustworthy","[{""page_index"":0,""viewing_time"":17709},{""page_index"":1,""viewing_time"":11007},{""page_index"":2,""viewing_time"":14489},{""page_index"":3,""viewing_time"":5976},{""page_index"":4,""viewing_time"":1475},{""page_index"":5,""viewing_time"":1196},{""page_index"":6,""viewing_time"":15205},{""page_index"":7,""viewing_time"":2299}]","69357","","","","","","","","","","","","","","","","","",""
"html-keyboard-response","127","194792","0.0-9.0","63ced96b01986b01ef133497","bdp_trlrn","Sat Apr 08 2023 12:57:52 GMT-0400 (Eastern Daylight Time)","574174","Untrustworthy,Trustworthy","","6097","","","","","","<div class='header' style='text-align:left; position: absolute; top: 5%; left: 5%;'><small>Task 3 of 5</small></div><div class='instruxDiv'><p><strong>1) What is the minimum number of points you can choose to send to your partner?</strong></p><p>a) 0</p><p>b) 1</p><p>c) 5</p>","B","","","","","","","","","","",""
"html-keyboard-response","128","197261","0.0-10.0","63ced96b01986b01ef133497","bdp_trlrn","Sat Apr 08 2023 12:57:52 GMT-0400 (Eastern Daylight Time)","574174","Untrustworthy,Trustworthy","","2363","","","","","","<div class='header' style='text-align:left; position: absolute; top: 5%; left: 5%;'><small>Task 3 of 5</small></div><div class='instruxDiv'><p><strong>1) What is the minimum number of points you can choose to send to your partner?</strong></p><p>a) 0</p><p style='color:#00FF00'>b) 1</p><p>c) 5</p><h3 style='color:#00FF00'>Correct!</h3><h3 class='center-content'>The correct response is b).</h3><h3 class='center-content'>The minimum number of points you can choose to send to your partner is 1 point.</h3><p><em>Press SPACEBAR to continue</em></p></div>"," ","","","","","","","","","","",""
"html-keyboard-response","129","199683","0.0-11.0","63ced96b01986b01ef133497","bdp_trlrn","Sat Apr 08 2023 12:57:52 GMT-0400 (Eastern Daylight Time)","574174","Untrustworthy,Trustworthy","","2320","","","","","","<div class='header' style='text-align:left; position: absolute; top: 5%; left: 5%;'><small>Task 3 of 5</small></div><div class='instruxDiv'><p><strong>2) What is the maximum number of points you can choose to send to your partner?</strong></p><p>a) 8</p><p>b) 5</p><p>c) 3</p>","B","","","","","","","","","","",""
"html-keyboard-response","130","200862","0.0-12.0","63ced96b01986b01ef133497","bdp_trlrn","Sat Apr 08 2023 12:57:52 GMT-0400 (Eastern Daylight Time)","574174","Untrustworthy,Trustworthy","","1076","","","","","","<div class='header' style='text-align:left; position: absolute; top: 5%; left: 5%;'><small>Task 3 of 5</small></div><div class='instruxDiv'><p><strong>2) What is the maximum number of points you can choose to send to your partner?</strong></p><p>a) 8</p><p style='color:#00FF00'>b) 5</p><p>c) 3</p><h3 style='color:#00FF00'>Correct!</h3><h3 class='center-content'>The correct response is b).</h3><h3 class='center-content'>The maximum number of points you can choose to send to your partner is 5 points.</h3><p><em>Press SPACEBAR to continue</em></p></div>"," ","","","","","","","","","","",""
"html-keyboard-response","131","204794","0.0-13.0","63ced96b01986b01ef133497","bdp_trlrn","Sat Apr 08 2023 12:57:52 GMT-0400 (Eastern Daylight Time)","574174","Untrustworthy,Trustworthy","","3829","","","","","","<div class='header' style='text-align:left; position: absolute; top: 5%; left: 5%;'><small>Task 3 of 5</small></div><div class='instruxDiv'><p><strong>3) What happens to the amount of points you send to your partner?</strong></p><p>a) Nothing</p><p>b) It doubles</p><p>c) It quadruples</p>","C","","","","","","","","","","",""
"html-keyboard-response","132","205670","0.0-14.0","63ced96b01986b01ef133497","bdp_trlrn","Sat Apr 08 2023 12:57:52 GMT-0400 (Eastern Daylight Time)","574174","Untrustworthy,Trustworthy","","772","","","","","","<div class='header' style='text-align:left; position: absolute; top: 5%; left: 5%;'><small>Task 3 of 5</small></div><div class='instruxDiv'><p><strong>3) What happens to the amount of points you send to your partner?</strong></p><p>a) Nothing</p><p>b) It doubles</p><p style='color:#00FF00'>c) It quadruples</p><h3 style='color:#00FF00'>Correct!</h3><h3 class='center-content'>The correct response is c).</h3><h3 class='center-content'>The amount of points you send to your partner quadruples.</h3><p><em>Press SPACEBAR to continue</em></p></div>"," ","","","","","","","","","","",""
"html-keyboard-response","133","281806","0.0-15.0","63ced96b01986b01ef133497","bdp_trlrn","Sat Apr 08 2023 12:57:52 GMT-0400 (Eastern Daylight Time)","574174","Untrustworthy,Trustworthy","","76034","","","","","","<div class='header' style='text-align:left; position: absolute; top: 5%; left: 5%;'><small>Task 3 of 5</small></div><div class='instruxDiv'><p><strong>4) If you decided to share 4 out of 5 points with your partner, and they decided to share half of the amount they received with you, how many points would you receive back from them on this round?</strong></p><p>a) 16</p><p>b) 0</p><p>c) 8</p>","C","","","","","","","","","","",""
"html-keyboard-response","134","283397","0.0-16.0","63ced96b01986b01ef133497","bdp_trlrn","Sat Apr 08 2023 12:57:52 GMT-0400 (Eastern Daylight Time)","574174","Untrustworthy,Trustworthy","","1487","","","","","","<div class='header' style='text-align:left; position: absolute; top: 5%; left: 5%;'><small>Task 3 of 5</small></div><div class='instruxDiv'><p><strong>4) If you decided to share 4 out of 5 points with your partner, and they decided to share half of the amount they received with you, how many points would you receive back from them on this round?</strong></p><p>a) 16</p><p>b) 0</p><p style='color:#00FF00'>c) 8</p><h3 style='color:#00FF00'>Correct!</h3><h3 class='center-content'>The correct response is c).</h3><h3 class='center-content'>If you shared 4 out of 5 points with your partner and they decided to share half of the amount they received with you, you would receive 8 points back (i.e. (4 x 4)/2 = 8).</h3><p><em>Press SPACEBAR to continue</em></p></div>"," ","","","","","","","","","","",""
"html-keyboard-response","135","288502","0.0-17.0","63ced96b01986b01ef133497","bdp_trlrn","Sat Apr 08 2023 12:57:52 GMT-0400 (Eastern Daylight Time)","574174","Untrustworthy,Trustworthy","","null","","","","","","<div class='header' style='text-align:left; position: absolute; top: 5%; left: 5%;'><small>Task 3 of 5</small></div><div class='instruxDiv'><p>Thank you for completing the quiz<p>These are the actual partners you will be interacting with in the next block:<p><div class='tc' align='center'><img class='introPic' src='trustrating_stim/white_mw071.bmp'><br><strong>Brian</strong></div><div class='bl' align='center'><img class='introPic' src='trustrating_stim/white_00223_940128_fb_edt.bmp'><br><strong>Anthony</strong></div><div class='br' align='center'><img class='introPic' src='trustrating_stim/white_00109_931230_fa_edt.bmp'><br><strong>Aaron</strong></div></div><p>Across <strong>66 rounds</strong> you will interact with each partner <strong>22 times</strong> (in random order).<p style='align:center; color:white'><font <em>Press SPACEBAR to continue</em></p>","null","","","","","","","","","","",""
"instructions","136","296508","0.0-18.0","63ced96b01986b01ef133497","bdp_trlrn","Sat Apr 08 2023 12:57:52 GMT-0400 (Eastern Daylight Time)","574174","Untrustworthy,Trustworthy","[{""page_index"":0,""viewing_time"":6000},{""page_index"":1,""viewing_time"":2004}]","8004","","","","","","","","","","","","","","","","","",""
"html-keyboard-response","137","299191","0.0-19.0-1.0","63ced96b01986b01ef133497","bdp_trlrn","Sat Apr 08 2023 12:57:52 GMT-0400 (Eastern Daylight Time)","574174","Untrustworthy,Trustworthy","","2576","","","","decision","","<div class='trialDiv'><img src='trustrating_stim/white_mw071.bmp'><br><font class='baseline'><strong>Brian</strong><p>Choose number of points to send.</font><div class='respPicDiv'><img src='img/responseButtonOffersNo0L.png' class='respPic'></div></div>","4","1","Brian","3","Shared","0.35,0.8","11","0.35","trustrating_stim/white_mw071.bmp","3.5","5","1"
"html-keyboard-response","138","299445","0.0-19.0-2.0","63ced96b01986b01ef133497","bdp_trlrn","Sat Apr 08 2023 12:57:52 GMT-0400 (Eastern Daylight Time)","574174","Untrustworthy,Trustworthy","","null","","","","decisionFB","","<div class='trialDiv'><img src='trustrating_stim/white_mw071.bmp'><br><font class='baseline'><strong>Brian</strong><p>Choose number of points to send.</font><div class='respPicDiv'><img src='img/responseButtonOffersNo0L4.png' class='respPic'></div></div>","null","1","Brian","3","Shared","0.35,0.8","11","0.35","trustrating_stim/white_mw071.bmp","3.5","1","1"
"html-keyboard-response","139","300450","0.0-19.0-3.0","63ced96b01986b01ef133497","bdp_trlrn","Sat Apr 08 2023 12:57:52 GMT-0400 (Eastern Daylight Time)","574174","Untrustworthy,Trustworthy","","null","","","","feedback","","<div class='trialDiv'><img src='trustrating_stim/white_mw071.bmp'><br><font class='baseline'><strong>Brian</strong><p>Received: <strong>16</strong></font> &nbsp; &nbsp; &nbsp; &nbsp; &nbsp; &nbsp;<font class='posOutcome'>Shared back: <strong>8</strong></font></font><div class='respPicDiv'><img src='img/responseButtonOffersNo0_wht.png' class='respPic'></div></div>","null","1","Brian","3","Shared","0.35,0.8","11","0.35","trustrating_stim/white_mw071.bmp","3.5","9","1"
"html-keyboard-response","140","303717","0.0-19.0-1.1","63ced96b01986b01ef133497","bdp_trlrn","Sat Apr 08 2023 12:57:52 GMT-0400 (Eastern Daylight Time)","574174","Untrustworthy,Trustworthy","","3265","","","","decision","","<div class='trialDiv'><img src='trustrating_stim/white_00109_931230_fa_edt.bmp'><br><font class='baseline'><strong>Aaron</strong><p>Choose number of points to send.</font><div class='respPicDiv'><img src='img/responseButtonOffersNo0L.png' class='respPic'></div></div>","5","1","Aaron","11","Shared","0.8,0.2","9","0.8","trustrating_stim/white_00109_931230_fa_edt.bmp","8","14","2"
"html-keyboard-response","141","303971","0.0-19.0-2.1","63ced96b01986b01ef133497","bdp_trlrn","Sat Apr 08 2023 12:57:52 GMT-0400 (Eastern Daylight Time)","574174","Untrustworthy,Trustworthy","","null","","","","decisionFB","","<div class='trialDiv'><img src='trustrating_stim/white_00109_931230_fa_edt.bmp'><br><font class='baseline'><strong>Aaron</strong><p>Choose number of points to send.</font><div class='respPicDiv'><img src='img/responseButtonOffersNo0L5.png' class='respPic'></div></div>","null","1","Aaron","11","Shared","0.8,0.2","9","0.8","trustrating_stim/white_00109_931230_fa_edt.bmp","8","9","2"
"html-keyboard-response","142","304976","0.0-19.0-3.1","63ced96b01986b01ef133497","bdp_trlrn","Sat Apr 08 2023 12:57:52 GMT-0400 (Eastern Daylight Time)","574174","Untrustworthy,Trustworthy","","null","","","","feedback","","<div class='trialDiv'><img src='trustrating_stim/white_00109_931230_fa_edt.bmp'><br><font class='baseline'><strong>Aaron</strong><p>Received: <strong>20</strong></font> &nbsp; &nbsp; &nbsp; &nbsp; &nbsp; &nbsp;<font class='posOutcome'>Shared back: <strong>10</strong></font></font><div class='respPicDiv'><img src='img/responseButtonOffersNo0_wht.png' class='respPic'></div></div>","null","1","Aaron","11","Shared","0.8,0.2","9","0.8","trustrating_stim/white_00109_931230_fa_edt.bmp","8","19","2"
"html-keyboard-response","143","307597","0.0-19.0-1.2","63ced96b01986b01ef133497","bdp_trlrn","Sat Apr 08 2023 12:57:52 GMT-0400 (Eastern Daylight Time)","574174","Untrustworthy,Trustworthy","","2618","","","","decision","","<div class='trialDiv'><img src='trustrating_stim/white_00223_940128_fb_edt.bmp'><br><font class='baseline'><strong>Anthony</strong><p>Choose number of points to send.</font><div class='respPicDiv'><img src='img/responseButtonOffersNo0L.png' class='respPic'></div></div>","3","1","Anthony","6","Kept","0.65,0.2","13","0.65","trustrating_stim/white_00223_940128_fb_edt.bmp","5.5","24","3"
"html-keyboard-response","144","307851","0.0-19.0-2.2","63ced96b01986b01ef133497","bdp_trlrn","Sat Apr 08 2023 12:57:52 GMT-0400 (Eastern Daylight Time)","574174","Untrustworthy,Trustworthy","","null","","","","decisionFB","","<div class='trialDiv'><img src='trustrating_stim/white_00223_940128_fb_edt.bmp'><br><font class='baseline'><strong>Anthony</strong><p>Choose number of points to send.</font><div class='respPicDiv'><img src='img/responseButtonOffersNo0L3.png' class='respPic'></div></div>","null","1","Anthony","6","Kept","0.65,0.2","13","0.65","trustrating_stim/white_00223_940128_fb_edt.bmp","5.5","21","3"
"html-keyboard-response","145","308855","0.0-19.0-3.2","63ced96b01986b01ef133497","bdp_trlrn","Sat Apr 08 2023 12:57:52 GMT-0400 (Eastern Daylight Time)","574174","Untrustworthy,Trustworthy","","null","","","","feedback","","<div class='trialDiv'><img src='trustrating_stim/white_00223_940128_fb_edt.bmp'><br><font class='baseline'><strong>Anthony</strong><p>Received: <strong>12</strong></font> &nbsp; &nbsp; &nbsp; &nbsp; &nbsp; &nbsp;<font class='negOutcome'>Shared back: <strong>0</strong></font></font><div class='respPicDiv'><img src='img/responseButtonOffersNo0_wht.png' class='respPic'></div></div>","null","1","Anthony","6","Kept","0.65,0.2","13","0.65","trustrating_stim/white_00223_940128_fb_edt.bmp","5.5","21","3"
"html-keyboard-response","146","311158","0.0-19.0-1.3","63ced96b01986b01ef133497","bdp_trlrn","Sat Apr 08 2023 12:57:52 GMT-0400 (Eastern Daylight Time)","574174","Untrustworthy,Trustworthy","","2301","","","","decision","","<div class='trialDiv'><img src='trustrating_stim/white_mw071.bmp'><br><font class='baseline'><strong>Brian</strong><p>Choose number of points to send.</font><div class='respPicDiv'><img src='img/responseButtonOffersNo0L.png' class='respPic'></div></div>","4","2","Brian","3","Shared","0.35,0.8","11","0.35","trustrating_stim/white_mw071.bmp","3.5","26","4"
"html-keyboard-response","147","311413","0.0-19.0-2.3","63ced96b01986b01ef133497","bdp_trlrn","Sat Apr 08 2023 12:57:52 GMT-0400 (Eastern Daylight Time)","574174","Untrustworthy,Trustworthy","","null","","","","decisionFB","","<div class='trialDiv'><img src='trustrating_stim/white_mw071.bmp'><br><font class='baseline'><strong>Brian</strong><p>Choose number of points to send.</font><div class='respPicDiv'><img src='img/responseButtonOffersNo0L4.png' class='respPic'></div></div>","null","2","Brian","3","Shared","0.35,0.8","11","0.35","trustrating_stim/white_mw071.bmp","3.5","22","4"
"html-keyboard-response","148","312417","0.0-19.0-3.3","63ced96b01986b01ef133497","bdp_trlrn","Sat Apr 08 2023 12:57:52 GMT-0400 (Eastern Daylight Time)","574174","Untrustworthy,Trustworthy","","null","","","","feedback","","<div class='trialDiv'><img src='trustrating_stim/white_mw071.bmp'><br><font class='baseline'><strong>Brian</strong><p>Received: <strong>16</strong></font> &nbsp; &nbsp; &nbsp; &nbsp; &nbsp; &nbsp;<font class='posOutcome'>Shared back: <strong>8</strong></font></font><div class='respPicDiv'><img src='img/responseButtonOffersNo0_wht.png' class='respPic'></div></div>","null","2","Brian","3","Shared","0.35,0.8","11","0.35","trustrating_stim/white_mw071.bmp","3.5","30","4"
"html-keyboard-response","149","312901","0.0-19.0-1.4","63ced96b01986b01ef133497","bdp_trlrn","Sat Apr 08 2023 12:57:52 GMT-0400 (Eastern Daylight Time)","574174","Untrustworthy,Trustworthy","","481","","","","decision","","<div class='trialDiv'><img src='trustrating_stim/white_00109_931230_fa_edt.bmp'><br><font class='baseline'><strong>Aaron</strong><p>Choose number of points to send.</font><div class='respPicDiv'><img src='img/responseButtonOffersNo0L.png' class='respPic'></div></div>","5","2","Aaron","11","Kept","0.8,0.2","9","0.8","trustrating_stim/white_00109_931230_fa_edt.bmp","8","35","5"
"html-keyboard-response","150","313155","0.0-19.0-2.4","63ced96b01986b01ef133497","bdp_trlrn","Sat Apr 08 2023 12:57:52 GMT-0400 (Eastern Daylight Time)","574174","Untrustworthy,Trustworthy","","null","","","","decisionFB","","<div class='trialDiv'><img src='trustrating_stim/white_00109_931230_fa_edt.bmp'><br><font class='baseline'><strong>Aaron</strong><p>Choose number of points to send.</font><div class='respPicDiv'><img src='img/responseButtonOffersNo0L5.png' class='respPic'></div></div>","null","2","Aaron","11","Kept","0.8,0.2","9","0.8","trustrating_stim/white_00109_931230_fa_edt.bmp","8","30","5"
"html-keyboard-response","151","314158","0.0-19.0-3.4","63ced96b01986b01ef133497","bdp_trlrn","Sat Apr 08 2023 12:57:52 GMT-0400 (Eastern Daylight Time)","574174","Untrustworthy,Trustworthy","","null","","","","feedback","","<div class='trialDiv'><img src='trustrating_stim/white_00109_931230_fa_edt.bmp'><br><font class='baseline'><strong>Aaron</strong><p>Received: <strong>20</strong></font> &nbsp; &nbsp; &nbsp; &nbsp; &nbsp; &nbsp;<font class='negOutcome'>Shared back: <strong>0</strong></font></font><div class='respPicDiv'><img src='img/responseButtonOffersNo0_wht.png' class='respPic'></div></div>","null","2","Aaron","11","Kept","0.8,0.2","9","0.8","trustrating_stim/white_00109_931230_fa_edt.bmp","8","30","5"
"html-keyboard-response","152","314682","0.0-19.0-1.5","63ced96b01986b01ef133497","bdp_trlrn","Sat Apr 08 2023 12:57:52 GMT-0400 (Eastern Daylight Time)","574174","Untrustworthy,Trustworthy","","520","","","","decision","","<div class='trialDiv'><img src='trustrating_stim/white_00223_940128_fb_edt.bmp'><br><font class='baseline'><strong>Anthony</strong><p>Choose number of points to send.</font><div class='respPicDiv'><img src='img/responseButtonOffersNo0L.png' class='respPic'></div></div>","5","2","Anthony","6","Shared","0.65,0.2","13","0.65","trustrating_stim/white_00223_940128_fb_edt.bmp","5.5","35","6"
"html-keyboard-response","153","314936","0.0-19.0-2.5","63ced96b01986b01ef133497","bdp_trlrn","Sat Apr 08 2023 12:57:52 GMT-0400 (Eastern Daylight Time)","574174","Untrustworthy,Trustworthy","","null","","","","decisionFB","","<div class='trialDiv'><img src='trustrating_stim/white_00223_940128_fb_edt.bmp'><br><font class='baseline'><strong>Anthony</strong><p>Choose number of points to send.</font><div class='respPicDiv'><img src='img/responseButtonOffersNo0L5.png' class='respPic'></div></div>","null","2","Anthony","6","Shared","0.65,0.2","13","0.65","trustrating_stim/white_00223_940128_fb_edt.bmp","5.5","30","6"
"html-keyboard-response","154","315943","0.0-19.0-3.5","63ced96b01986b01ef133497","bdp_trlrn","Sat Apr 08 2023 12:57:52 GMT-0400 (Eastern Daylight Time)","574174","Untrustworthy,Trustworthy","","null","","","","feedback","","<div class='trialDiv'><img src='trustrating_stim/white_00223_940128_fb_edt.bmp'><br><font class='baseline'><strong>Anthony</strong><p>Received: <strong>20</strong></font> &nbsp; &nbsp; &nbsp; &nbsp; &nbsp; &nbsp;<font class='posOutcome'>Shared back: <strong>10</strong></font></font><div class='respPicDiv'><img src='img/responseButtonOffersNo0_wht.png' class='respPic'></div></div>","null","2","Anthony","6","Shared","0.65,0.2","13","0.65","trustrating_stim/white_00223_940128_fb_edt.bmp","5.5","40","6"
"html-keyboard-response","155","316391","0.0-19.0-1.6","63ced96b01986b01ef133497","bdp_trlrn","Sat Apr 08 2023 12:57:52 GMT-0400 (Eastern Daylight Time)","574174","Untrustworthy,Trustworthy","","446","","","","decision","","<div class='trialDiv'><img src='trustrating_stim/white_mw071.bmp'><br><font class='baseline'><strong>Brian</strong><p>Choose number of points to send.</font><div class='respPicDiv'><img src='img/responseButtonOffersNo0L.png' class='respPic'></div></div>","3","3","Brian","3","Kept","0.35,0.8","11","0.35","trustrating_stim/white_mw071.bmp","3.5","45","7"
"html-keyboard-response","156","316644","0.0-19.0-2.6","63ced96b01986b01ef133497","bdp_trlrn","Sat Apr 08 2023 12:57:52 GMT-0400 (Eastern Daylight Time)","574174","Untrustworthy,Trustworthy","","null","","","","decisionFB","","<div class='trialDiv'><img src='trustrating_stim/white_mw071.bmp'><br><font class='baseline'><strong>Brian</strong><p>Choose number of points to send.</font><div class='respPicDiv'><img src='img/responseButtonOffersNo0L3.png' class='respPic'></div></div>","null","3","Brian","3","Kept","0.35,0.8","11","0.35","trustrating_stim/white_mw071.bmp","3.5","42","7"
"html-keyboard-response","157","317648","0.0-19.0-3.6","63ced96b01986b01ef133497","bdp_trlrn","Sat Apr 08 2023 12:57:52 GMT-0400 (Eastern Daylight Time)","574174","Untrustworthy,Trustworthy","","null","","","","feedback","","<div class='trialDiv'><img src='trustrating_stim/white_mw071.bmp'><br><font class='baseline'><strong>Brian</strong><p>Received: <strong>12</strong></font> &nbsp; &nbsp; &nbsp; &nbsp; &nbsp; &nbsp;<font class='negOutcome'>Shared back: <strong>0</strong></font></font><div class='respPicDiv'><img src='img/responseButtonOffersNo0_wht.png' class='respPic'></div></div>","null","3","Brian","3","Kept","0.35,0.8","11","0.35","trustrating_stim/white_mw071.bmp","3.5","42","7"
"html-keyboard-response","158","319583","0.0-19.0-1.7","63ced96b01986b01ef133497","bdp_trlrn","Sat Apr 08 2023 12:57:52 GMT-0400 (Eastern Daylight Time)","574174","Untrustworthy,Trustworthy","","1932","","","","decision","","<div class='trialDiv'><img src='trustrating_stim/white_00223_940128_fb_edt.bmp'><br><font class='baseline'><strong>Anthony</strong><p>Choose number of points to send.</font><div class='respPicDiv'><img src='img/responseButtonOffersNo0L.png' class='respPic'></div></div>","5","3","Anthony","6","Shared","0.65,0.2","13","0.65","trustrating_stim/white_00223_940128_fb_edt.bmp","5.5","47","8"
"html-keyboard-response","159","319836","0.0-19.0-2.7","63ced96b01986b01ef133497","bdp_trlrn","Sat Apr 08 2023 12:57:52 GMT-0400 (Eastern Daylight Time)","574174","Untrustworthy,Trustworthy","","null","","","","decisionFB","","<div class='trialDiv'><img src='trustrating_stim/white_00223_940128_fb_edt.bmp'><br><font class='baseline'><strong>Anthony</strong><p>Choose number of points to send.</font><div class='respPicDiv'><img src='img/responseButtonOffersNo0L5.png' class='respPic'></div></div>","null","3","Anthony","6","Shared","0.65,0.2","13","0.65","trustrating_stim/white_00223_940128_fb_edt.bmp","5.5","42","8"
"html-keyboard-response","160","320840","0.0-19.0-3.7","63ced96b01986b01ef133497","bdp_trlrn","Sat Apr 08 2023 12:57:52 GMT-0400 (Eastern Daylight Time)","574174","Untrustworthy,Trustworthy","","null","","","","feedback","","<div class='trialDiv'><img src='trustrating_stim/white_00223_940128_fb_edt.bmp'><br><font class='baseline'><strong>Anthony</strong><p>Received: <strong>20</strong></font> &nbsp; &nbsp; &nbsp; &nbsp; &nbsp; &nbsp;<font class='posOutcome'>Shared back: <strong>10</strong></font></font><div class='respPicDiv'><img src='img/responseButtonOffersNo0_wht.png' class='respPic'></div></div>","null","3","Anthony","6","Shared","0.65,0.2","13","0.65","trustrating_stim/white_00223_940128_fb_edt.bmp","5.5","52","8"
"html-keyboard-response","161","321392","0.0-19.0-1.8","63ced96b01986b01ef133497","bdp_trlrn","Sat Apr 08 2023 12:57:52 GMT-0400 (Eastern Daylight Time)","574174","Untrustworthy,Trustworthy","","548","","","","decision","","<div class='trialDiv'><img src='trustrating_stim/white_00109_931230_fa_edt.bmp'><br><font class='baseline'><strong>Aaron</strong><p>Choose number of points to send.</font><div class='respPicDiv'><img src='img/responseButtonOffersNo0L.png' class='respPic'></div></div>","4","3","Aaron","11","Shared","0.8,0.2","9","0.8","trustrating_stim/white_00109_931230_fa_edt.bmp","8","57","9"
"html-keyboard-response","162","321645","0.0-19.0-2.8","63ced96b01986b01ef133497","bdp_trlrn","Sat Apr 08 2023 12:57:52 GMT-0400 (Eastern Daylight Time)","574174","Untrustworthy,Trustworthy","","null","","","","decisionFB","","<div class='trialDiv'><img src='trustrating_stim/white_00109_931230_fa_edt.bmp'><br><font class='baseline'><strong>Aaron</strong><p>Choose number of points to send.</font><div class='respPicDiv'><img src='img/responseButtonOffersNo0L4.png' class='respPic'></div></div>","null","3","Aaron","11","Shared","0.8,0.2","9","0.8","trustrating_stim/white_00109_931230_fa_edt.bmp","8","53","9"
"html-keyboard-response","163","322650","0.0-19.0-3.8","63ced96b01986b01ef133497","bdp_trlrn","Sat Apr 08 2023 12:57:52 GMT-0400 (Eastern Daylight Time)","574174","Untrustworthy,Trustworthy","","null","","","","feedback","","<div class='trialDiv'><img src='trustrating_stim/white_00109_931230_fa_edt.bmp'><br><font class='baseline'><strong>Aaron</strong><p>Received: <strong>16</strong></font> &nbsp; &nbsp; &nbsp; &nbsp; &nbsp; &nbsp;<font class='posOutcome'>Shared back: <strong>8</strong></font></font><div class='respPicDiv'><img src='img/responseButtonOffersNo0_wht.png' class='respPic'></div></div>","null","3","Aaron","11","Shared","0.8,0.2","9","0.8","trustrating_stim/white_00109_931230_fa_edt.bmp","8","61","9"
"html-keyboard-response","164","323479","0.0-19.0-1.9","63ced96b01986b01ef133497","bdp_trlrn","Sat Apr 08 2023 12:57:52 GMT-0400 (Eastern Daylight Time)","574174","Untrustworthy,Trustworthy","","826","","","","decision","","<div class='trialDiv'><img src='trustrating_stim/white_00223_940128_fb_edt.bmp'><br><font class='baseline'><strong>Anthony</strong><p>Choose number of points to send.</font><div class='respPicDiv'><img src='img/responseButtonOffersNo0L.png' class='respPic'></div></div>","3","4","Anthony","6","Shared","0.65,0.2","13","0.65","trustrating_stim/white_00223_940128_fb_edt.bmp","5.5","66","10"
"html-keyboard-response","165","323733","0.0-19.0-2.9","63ced96b01986b01ef133497","bdp_trlrn","Sat Apr 08 2023 12:57:52 GMT-0400 (Eastern Daylight Time)","574174","Untrustworthy,Trustworthy","","null","","","","decisionFB","","<div class='trialDiv'><img src='trustrating_stim/white_00223_940128_fb_edt.bmp'><br><font class='baseline'><strong>Anthony</strong><p>Choose number of points to send.</font><div class='respPicDiv'><img src='img/responseButtonOffersNo0L3.png' class='respPic'></div></div>","null","4","Anthony","6","Shared","0.65,0.2","13","0.65","trustrating_stim/white_00223_940128_fb_edt.bmp","5.5","63","10"
"html-keyboard-response","166","324737","0.0-19.0-3.9","63ced96b01986b01ef133497","bdp_trlrn","Sat Apr 08 2023 12:57:52 GMT-0400 (Eastern Daylight Time)","574174","Untrustworthy,Trustworthy","","null","","","","feedback","","<div class='trialDiv'><img src='trustrating_stim/white_00223_940128_fb_edt.bmp'><br><font class='baseline'><strong>Anthony</strong><p>Received: <strong>12</strong></font> &nbsp; &nbsp; &nbsp; &nbsp; &nbsp; &nbsp;<font class='posOutcome'>Shared back: <strong>6</strong></font></font><div class='respPicDiv'><img src='img/responseButtonOffersNo0_wht.png' class='respPic'></div></div>","null","4","Anthony","6","Shared","0.65,0.2","13","0.65","trustrating_stim/white_00223_940128_fb_edt.bmp","5.5","69","10"
"html-keyboard-response","167","324823","0.0-19.0-1.10","63ced96b01986b01ef133497","bdp_trlrn","Sat Apr 08 2023 12:57:52 GMT-0400 (Eastern Daylight Time)","574174","Untrustworthy,Trustworthy","","83","","","","decision","","<div class='trialDiv'><img src='trustrating_stim/white_mw071.bmp'><br><font class='baseline'><strong>Brian</strong><p>Choose number of points to send.</font><div class='respPicDiv'><img src='img/responseButtonOffersNo0L.png' class='respPic'></div></div>","5","4","Brian","3","Kept","0.35,0.8","11","0.35","trustrating_stim/white_mw071.bmp","3.5","74","11"
"html-keyboard-response","168","325077","0.0-19.0-2.10","63ced96b01986b01ef133497","bdp_trlrn","Sat Apr 08 2023 12:57:52 GMT-0400 (Eastern Daylight Time)","574174","Untrustworthy,Trustworthy","","null","","","","decisionFB","","<div class='trialDiv'><img src='trustrating_stim/white_mw071.bmp'><br><font class='baseline'><strong>Brian</strong><p>Choose number of points to send.</font><div class='respPicDiv'><img src='img/responseButtonOffersNo0L5.png' class='respPic'></div></div>","null","4","Brian","3","Kept","0.35,0.8","11","0.35","trustrating_stim/white_mw071.bmp","3.5","69","11"
"html-keyboard-response","169","326081","0.0-19.0-3.10","63ced96b01986b01ef133497","bdp_trlrn","Sat Apr 08 2023 12:57:52 GMT-0400 (Eastern Daylight Time)","574174","Untrustworthy,Trustworthy","","null","","","","feedback","","<div class='trialDiv'><img src='trustrating_stim/white_mw071.bmp'><br><font class='baseline'><strong>Brian</strong><p>Received: <strong>20</strong></font> &nbsp; &nbsp; &nbsp; &nbsp; &nbsp; &nbsp;<font class='negOutcome'>Shared back: <strong>0</strong></font></font><div class='respPicDiv'><img src='img/responseButtonOffersNo0_wht.png' class='respPic'></div></div>","null","4","Brian","3","Kept","0.35,0.8","11","0.35","trustrating_stim/white_mw071.bmp","3.5","69","11"
"html-keyboard-response","170","326332","0.0-19.0-1.11","63ced96b01986b01ef133497","bdp_trlrn","Sat Apr 08 2023 12:57:52 GMT-0400 (Eastern Daylight Time)","574174","Untrustworthy,Trustworthy","","247","","","","decision","","<div class='trialDiv'><img src='trustrating_stim/white_00109_931230_fa_edt.bmp'><br><font class='baseline'><strong>Aaron</strong><p>Choose number of points to send.</font><div class='respPicDiv'><img src='img/responseButtonOffersNo0L.png' class='respPic'></div></div>","5","4","Aaron","11","Shared","0.8,0.2","9","0.8","trustrating_stim/white_00109_931230_fa_edt.bmp","8","74","12"
"html-keyboard-response","171","326586","0.0-19.0-2.11","63ced96b01986b01ef133497","bdp_trlrn","Sat Apr 08 2023 12:57:52 GMT-0400 (Eastern Daylight Time)","574174","Untrustworthy,Trustworthy","","null","","","","decisionFB","","<div class='trialDiv'><img src='trustrating_stim/white_00109_931230_fa_edt.bmp'><br><font class='baseline'><strong>Aaron</strong><p>Choose number of points to send.</font><div class='respPicDiv'><img src='img/responseButtonOffersNo0L5.png' class='respPic'></div></div>","null","4","Aaron","11","Shared","0.8,0.2","9","0.8","trustrating_stim/white_00109_931230_fa_edt.bmp","8","69","12"
"html-keyboard-response","172","327589","0.0-19.0-3.11","63ced96b01986b01ef133497","bdp_trlrn","Sat Apr 08 2023 12:57:52 GMT-0400 (Eastern Daylight Time)","574174","Untrustworthy,Trustworthy","","null","","","","feedback","","<div class='trialDiv'><img src='trustrating_stim/white_00109_931230_fa_edt.bmp'><br><font class='baseline'><strong>Aaron</strong><p>Received: <strong>20</strong></font> &nbsp; &nbsp; &nbsp; &nbsp; &nbsp; &nbsp;<font class='posOutcome'>Shared back: <strong>10</strong></font></font><div class='respPicDiv'><img src='img/responseButtonOffersNo0_wht.png' class='respPic'></div></div>","null","4","Aaron","11","Shared","0.8,0.2","9","0.8","trustrating_stim/white_00109_931230_fa_edt.bmp","8","79","12"
"html-keyboard-response","173","327756","0.0-19.0-1.12","63ced96b01986b01ef133497","bdp_trlrn","Sat Apr 08 2023 12:57:52 GMT-0400 (Eastern Daylight Time)","574174","Untrustworthy,Trustworthy","","165","","","","decision","","<div class='trialDiv'><img src='trustrating_stim/white_mw071.bmp'><br><font class='baseline'><strong>Brian</strong><p>Choose number of points to send.</font><div class='respPicDiv'><img src='img/responseButtonOffersNo0L.png' class='respPic'></div></div>","3","5","Brian","3","Shared","0.35,0.8","11","0.35","trustrating_stim/white_mw071.bmp","3.5","84","13"
"html-keyboard-response","174","328011","0.0-19.0-2.12","63ced96b01986b01ef133497","bdp_trlrn","Sat Apr 08 2023 12:57:52 GMT-0400 (Eastern Daylight Time)","574174","Untrustworthy,Trustworthy","","null","","","","decisionFB","","<div class='trialDiv'><img src='trustrating_stim/white_mw071.bmp'><br><font class='baseline'><strong>Brian</strong><p>Choose number of points to send.</font><div class='respPicDiv'><img src='img/responseButtonOffersNo0L3.png' class='respPic'></div></div>","null","5","Brian","3","Shared","0.35,0.8","11","0.35","trustrating_stim/white_mw071.bmp","3.5","81","13"
"html-keyboard-response","175","329014","0.0-19.0-3.12","63ced96b01986b01ef133497","bdp_trlrn","Sat Apr 08 2023 12:57:52 GMT-0400 (Eastern Daylight Time)","574174","Untrustworthy,Trustworthy","","null","","","","feedback","","<div class='trialDiv'><img src='trustrating_stim/white_mw071.bmp'><br><font class='baseline'><strong>Brian</strong><p>Received: <strong>12</strong></font> &nbsp; &nbsp; &nbsp; &nbsp; &nbsp; &nbsp;<font class='posOutcome'>Shared back: <strong>6</strong></font></font><div class='respPicDiv'><img src='img/responseButtonOffersNo0_wht.png' class='respPic'></div></div>","null","5","Brian","3","Shared","0.35,0.8","11","0.35","trustrating_stim/white_mw071.bmp","3.5","87","13"
"html-keyboard-response","176","329685","0.0-19.0-1.13","63ced96b01986b01ef133497","bdp_trlrn","Sat Apr 08 2023 12:57:52 GMT-0400 (Eastern Daylight Time)","574174","Untrustworthy,Trustworthy","","667","","","","decision","","<div class='trialDiv'><img src='trustrating_stim/white_00109_931230_fa_edt.bmp'><br><font class='baseline'><strong>Aaron</strong><p>Choose number of points to send.</font><div class='respPicDiv'><img src='img/responseButtonOffersNo0L.png' class='respPic'></div></div>","2","5","Aaron","11","Shared","0.8,0.2","9","0.8","trustrating_stim/white_00109_931230_fa_edt.bmp","8","92","14"
"html-keyboard-response","177","329939","0.0-19.0-2.13","63ced96b01986b01ef133497","bdp_trlrn","Sat Apr 08 2023 12:57:52 GMT-0400 (Eastern Daylight Time)","574174","Untrustworthy,Trustworthy","","null","","","","decisionFB","","<div class='trialDiv'><img src='trustrating_stim/white_00109_931230_fa_edt.bmp'><br><font class='baseline'><strong>Aaron</strong><p>Choose number of points to send.</font><div class='respPicDiv'><img src='img/responseButtonOffersNo0L2.png' class='respPic'></div></div>","null","5","Aaron","11","Shared","0.8,0.2","9","0.8","trustrating_stim/white_00109_931230_fa_edt.bmp","8","90","14"
"html-keyboard-response","178","330943","0.0-19.0-3.13","63ced96b01986b01ef133497","bdp_trlrn","Sat Apr 08 2023 12:57:52 GMT-0400 (Eastern Daylight Time)","574174","Untrustworthy,Trustworthy","","null","","","","feedback","","<div class='trialDiv'><img src='trustrating_stim/white_00109_931230_fa_edt.bmp'><br><font class='baseline'><strong>Aaron</strong><p>Received: <strong>8</strong></font> &nbsp; &nbsp; &nbsp; &nbsp; &nbsp; &nbsp;<font class='posOutcome'>Shared back: <strong>4</strong></font></font><div class='respPicDiv'><img src='img/responseButtonOffersNo0_wht.png' class='respPic'></div></div>","null","5","Aaron","11","Shared","0.8,0.2","9","0.8","trustrating_stim/white_00109_931230_fa_edt.bmp","8","94","14"
"html-keyboard-response","179","331249","0.0-19.0-1.14","63ced96b01986b01ef133497","bdp_trlrn","Sat Apr 08 2023 12:57:52 GMT-0400 (Eastern Daylight Time)","574174","Untrustworthy,Trustworthy","","303","","","","decision","","<div class='trialDiv'><img src='trustrating_stim/white_00223_940128_fb_edt.bmp'><br><font class='baseline'><strong>Anthony</strong><p>Choose number of points to send.</font><div class='respPicDiv'><img src='img/responseButtonOffersNo0L.png' class='respPic'></div></div>","3","5","Anthony","6","Kept","0.65,0.2","13","0.65","trustrating_stim/white_00223_940128_fb_edt.bmp","5.5","99","15"
"html-keyboard-response","180","331503","0.0-19.0-2.14","63ced96b01986b01ef133497","bdp_trlrn","Sat Apr 08 2023 12:57:52 GMT-0400 (Eastern Daylight Time)","574174","Untrustworthy,Trustworthy","","null","","","","decisionFB","","<div class='trialDiv'><img src='trustrating_stim/white_00223_940128_fb_edt.bmp'><br><font class='baseline'><strong>Anthony</strong><p>Choose number of points to send.</font><div class='respPicDiv'><img src='img/responseButtonOffersNo0L3.png' class='respPic'></div></div>","null","5","Anthony","6","Kept","0.65,0.2","13","0.65","trustrating_stim/white_00223_940128_fb_edt.bmp","5.5","96","15"
"html-keyboard-response","181","332507","0.0-19.0-3.14","63ced96b01986b01ef133497","bdp_trlrn","Sat Apr 08 2023 12:57:52 GMT-0400 (Eastern Daylight Time)","574174","Untrustworthy,Trustworthy","","null","","","","feedback","","<div class='trialDiv'><img src='trustrating_stim/white_00223_940128_fb_edt.bmp'><br><font class='baseline'><strong>Anthony</strong><p>Received: <strong>12</strong></font> &nbsp; &nbsp; &nbsp; &nbsp; &nbsp; &nbsp;<font class='negOutcome'>Shared back: <strong>0</strong></font></font><div class='respPicDiv'><img src='img/responseButtonOffersNo0_wht.png' class='respPic'></div></div>","null","5","Anthony","6","Kept","0.65,0.2","13","0.65","trustrating_stim/white_00223_940128_fb_edt.bmp","5.5","96","15"
"html-keyboard-response","182","332746","0.0-19.0-1.15","63ced96b01986b01ef133497","bdp_trlrn","Sat Apr 08 2023 12:57:52 GMT-0400 (Eastern Daylight Time)","574174","Untrustworthy,Trustworthy","","236","","","","decision","","<div class='trialDiv'><img src='trustrating_stim/white_00109_931230_fa_edt.bmp'><br><font class='baseline'><strong>Aaron</strong><p>Choose number of points to send.</font><div class='respPicDiv'><img src='img/responseButtonOffersNo0L.png' class='respPic'></div></div>","3","6","Aaron","11","Shared","0.8,0.2","9","0.8","trustrating_stim/white_00109_931230_fa_edt.bmp","8","101","16"
"html-keyboard-response","183","333001","0.0-19.0-2.15","63ced96b01986b01ef133497","bdp_trlrn","Sat Apr 08 2023 12:57:52 GMT-0400 (Eastern Daylight Time)","574174","Untrustworthy,Trustworthy","","null","","","","decisionFB","","<div class='trialDiv'><img src='trustrating_stim/white_00109_931230_fa_edt.bmp'><br><font class='baseline'><strong>Aaron</strong><p>Choose number of points to send.</font><div class='respPicDiv'><img src='img/responseButtonOffersNo0L3.png' class='respPic'></div></div>","null","6","Aaron","11","Shared","0.8,0.2","9","0.8","trustrating_stim/white_00109_931230_fa_edt.bmp","8","98","16"
"html-keyboard-response","184","334004","0.0-19.0-3.15","63ced96b01986b01ef133497","bdp_trlrn","Sat Apr 08 2023 12:57:52 GMT-0400 (Eastern Daylight Time)","574174","Untrustworthy,Trustworthy","","null","","","","feedback","","<div class='trialDiv'><img src='trustrating_stim/white_00109_931230_fa_edt.bmp'><br><font class='baseline'><strong>Aaron</strong><p>Received: <strong>12</strong></font> &nbsp; &nbsp; &nbsp; &nbsp; &nbsp; &nbsp;<font class='posOutcome'>Shared back: <strong>6</strong></font></font><div class='respPicDiv'><img src='img/responseButtonOffersNo0_wht.png' class='respPic'></div></div>","null","6","Aaron","11","Shared","0.8,0.2","9","0.8","trustrating_stim/white_00109_931230_fa_edt.bmp","8","104","16"
"html-keyboard-response","185","334200","0.0-19.0-1.16","63ced96b01986b01ef133497","bdp_trlrn","Sat Apr 08 2023 12:57:52 GMT-0400 (Eastern Daylight Time)","574174","Untrustworthy,Trustworthy","","193","","","","decision","","<div class='trialDiv'><img src='trustrating_stim/white_mw071.bmp'><br><font class='baseline'><strong>Brian</strong><p>Choose number of points to send.</font><div class='respPicDiv'><img src='img/responseButtonOffersNo0L.png' class='respPic'></div></div>","3","6","Brian","3","Kept","0.35,0.8","11","0.35","trustrating_stim/white_mw071.bmp","3.5","109","17"
"html-keyboard-response","186","334454","0.0-19.0-2.16","63ced96b01986b01ef133497","bdp_trlrn","Sat Apr 08 2023 12:57:52 GMT-0400 (Eastern Daylight Time)","574174","Untrustworthy,Trustworthy","","null","","","","decisionFB","","<div class='trialDiv'><img src='trustrating_stim/white_mw071.bmp'><br><font class='baseline'><strong>Brian</strong><p>Choose number of points to send.</font><div class='respPicDiv'><img src='img/responseButtonOffersNo0L3.png' class='respPic'></div></div>","null","6","Brian","3","Kept","0.35,0.8","11","0.35","trustrating_stim/white_mw071.bmp","3.5","106","17"
"html-keyboard-response","187","335459","0.0-19.0-3.16","63ced96b01986b01ef133497","bdp_trlrn","Sat Apr 08 2023 12:57:52 GMT-0400 (Eastern Daylight Time)","574174","Untrustworthy,Trustworthy","","null","","","","feedback","","<div class='trialDiv'><img src='trustrating_stim/white_mw071.bmp'><br><font class='baseline'><strong>Brian</strong><p>Received: <strong>12</strong></font> &nbsp; &nbsp; &nbsp; &nbsp; &nbsp; &nbsp;<font class='negOutcome'>Shared back: <strong>0</strong></font></font><div class='respPicDiv'><img src='img/responseButtonOffersNo0_wht.png' class='respPic'></div></div>","null","6","Brian","3","Kept","0.35,0.8","11","0.35","trustrating_stim/white_mw071.bmp","3.5","106","17"
"html-keyboard-response","188","335891","0.0-19.0-1.17","63ced96b01986b01ef133497","bdp_trlrn","Sat Apr 08 2023 12:57:52 GMT-0400 (Eastern Daylight Time)","574174","Untrustworthy,Trustworthy","","429","","","","decision","","<div class='trialDiv'><img src='trustrating_stim/white_00223_940128_fb_edt.bmp'><br><font class='baseline'><strong>Anthony</strong><p>Choose number of points to send.</font><div class='respPicDiv'><img src='img/responseButtonOffersNo0L.png' class='respPic'></div></div>","4","6","Anthony","6","Shared","0.65,0.2","13","0.65","trustrating_stim/white_00223_940128_fb_edt.bmp","5.5","111","18"
"html-keyboard-response","189","336144","0.0-19.0-2.17","63ced96b01986b01ef133497","bdp_trlrn","Sat Apr 08 2023 12:57:52 GMT-0400 (Eastern Daylight Time)","574174","Untrustworthy,Trustworthy","","null","","","","decisionFB","","<div class='trialDiv'><img src='trustrating_stim/white_00223_940128_fb_edt.bmp'><br><font class='baseline'><strong>Anthony</strong><p>Choose number of points to send.</font><div class='respPicDiv'><img src='img/responseButtonOffersNo0L4.png' class='respPic'></div></div>","null","6","Anthony","6","Shared","0.65,0.2","13","0.65","trustrating_stim/white_00223_940128_fb_edt.bmp","5.5","107","18"
"html-keyboard-response","190","337149","0.0-19.0-3.17","63ced96b01986b01ef133497","bdp_trlrn","Sat Apr 08 2023 12:57:52 GMT-0400 (Eastern Daylight Time)","574174","Untrustworthy,Trustworthy","","null","","","","feedback","","<div class='trialDiv'><img src='trustrating_stim/white_00223_940128_fb_edt.bmp'><br><font class='baseline'><strong>Anthony</strong><p>Received: <strong>16</strong></font> &nbsp; &nbsp; &nbsp; &nbsp; &nbsp; &nbsp;<font class='posOutcome'>Shared back: <strong>8</strong></font></font><div class='respPicDiv'><img src='img/responseButtonOffersNo0_wht.png' class='respPic'></div></div>","null","6","Anthony","6","Shared","0.65,0.2","13","0.65","trustrating_stim/white_00223_940128_fb_edt.bmp","5.5","115","18"
"html-keyboard-response","191","337239","0.0-19.0-1.18","63ced96b01986b01ef133497","bdp_trlrn","Sat Apr 08 2023 12:57:52 GMT-0400 (Eastern Daylight Time)","574174","Untrustworthy,Trustworthy","","87","","","","decision","","<div class='trialDiv'><img src='trustrating_stim/white_00109_931230_fa_edt.bmp'><br><font class='baseline'><strong>Aaron</strong><p>Choose number of points to send.</font><div class='respPicDiv'><img src='img/responseButtonOffersNo0L.png' class='respPic'></div></div>","4","7","Aaron","11","Kept","0.8,0.2","9","0.8","trustrating_stim/white_00109_931230_fa_edt.bmp","8","120","19"
"html-keyboard-response","192","337493","0.0-19.0-2.18","63ced96b01986b01ef133497","bdp_trlrn","Sat Apr 08 2023 12:57:52 GMT-0400 (Eastern Daylight Time)","574174","Untrustworthy,Trustworthy","","null","","","","decisionFB","","<div class='trialDiv'><img src='trustrating_stim/white_00109_931230_fa_edt.bmp'><br><font class='baseline'><strong>Aaron</strong><p>Choose number of points to send.</font><div class='respPicDiv'><img src='img/responseButtonOffersNo0L4.png' class='respPic'></div></div>","null","7","Aaron","11","Kept","0.8,0.2","9","0.8","trustrating_stim/white_00109_931230_fa_edt.bmp","8","116","19"
"html-keyboard-response","193","338498","0.0-19.0-3.18","63ced96b01986b01ef133497","bdp_trlrn","Sat Apr 08 2023 12:57:52 GMT-0400 (Eastern Daylight Time)","574174","Untrustworthy,Trustworthy","","null","","","","feedback","","<div class='trialDiv'><img src='trustrating_stim/white_00109_931230_fa_edt.bmp'><br><font class='baseline'><strong>Aaron</strong><p>Received: <strong>16</strong></font> &nbsp; &nbsp; &nbsp; &nbsp; &nbsp; &nbsp;<font class='negOutcome'>Shared back: <strong>0</strong></font></font><div class='respPicDiv'><img src='img/responseButtonOffersNo0_wht.png' class='respPic'></div></div>","null","7","Aaron","11","Kept","0.8,0.2","9","0.8","trustrating_stim/white_00109_931230_fa_edt.bmp","8","116","19"
"html-keyboard-response","194","338579","0.0-19.0-1.19","63ced96b01986b01ef133497","bdp_trlrn","Sat Apr 08 2023 12:57:52 GMT-0400 (Eastern Daylight Time)","574174","Untrustworthy,Trustworthy","","78","","","","decision","","<div class='trialDiv'><img src='trustrating_stim/white_mw071.bmp'><br><font class='baseline'><strong>Brian</strong><p>Choose number of points to send.</font><div class='respPicDiv'><img src='img/responseButtonOffersNo0L.png' class='respPic'></div></div>","4","7","Brian","3","Kept","0.35,0.8","11","0.35","trustrating_stim/white_mw071.bmp","3.5","121","20"
"html-keyboard-response","195","338832","0.0-19.0-2.19","63ced96b01986b01ef133497","bdp_trlrn","Sat Apr 08 2023 12:57:52 GMT-0400 (Eastern Daylight Time)","574174","Untrustworthy,Trustworthy","","null","","","","decisionFB","","<div class='trialDiv'><img src='trustrating_stim/white_mw071.bmp'><br><font class='baseline'><strong>Brian</strong><p>Choose number of points to send.</font><div class='respPicDiv'><img src='img/responseButtonOffersNo0L4.png' class='respPic'></div></div>","null","7","Brian","3","Kept","0.35,0.8","11","0.35","trustrating_stim/white_mw071.bmp","3.5","117","20"
"html-keyboard-response","196","339836","0.0-19.0-3.19","63ced96b01986b01ef133497","bdp_trlrn","Sat Apr 08 2023 12:57:52 GMT-0400 (Eastern Daylight Time)","574174","Untrustworthy,Trustworthy","","null","","","","feedback","","<div class='trialDiv'><img src='trustrating_stim/white_mw071.bmp'><br><font class='baseline'><strong>Brian</strong><p>Received: <strong>16</strong></font> &nbsp; &nbsp; &nbsp; &nbsp; &nbsp; &nbsp;<font class='negOutcome'>Shared back: <strong>0</strong></font></font><div class='respPicDiv'><img src='img/responseButtonOffersNo0_wht.png' class='respPic'></div></div>","null","7","Brian","3","Kept","0.35,0.8","11","0.35","trustrating_stim/white_mw071.bmp","3.5","117","20"
"html-keyboard-response","197","340265","0.0-19.0-1.20","63ced96b01986b01ef133497","bdp_trlrn","Sat Apr 08 2023 12:57:52 GMT-0400 (Eastern Daylight Time)","574174","Untrustworthy,Trustworthy","","426","","","","decision","","<div class='trialDiv'><img src='trustrating_stim/white_00223_940128_fb_edt.bmp'><br><font class='baseline'><strong>Anthony</strong><p>Choose number of points to send.</font><div class='respPicDiv'><img src='img/responseButtonOffersNo0L.png' class='respPic'></div></div>","2","7","Anthony","6","Kept","0.65,0.2","13","0.65","trustrating_stim/white_00223_940128_fb_edt.bmp","5.5","122","21"
"html-keyboard-response","198","340519","0.0-19.0-2.20","63ced96b01986b01ef133497","bdp_trlrn","Sat Apr 08 2023 12:57:52 GMT-0400 (Eastern Daylight Time)","574174","Untrustworthy,Trustworthy","","null","","","","decisionFB","","<div class='trialDiv'><img src='trustrating_stim/white_00223_940128_fb_edt.bmp'><br><font class='baseline'><strong>Anthony</strong><p>Choose number of points to send.</font><div class='respPicDiv'><img src='img/responseButtonOffersNo0L2.png' class='respPic'></div></div>","null","7","Anthony","6","Kept","0.65,0.2","13","0.65","trustrating_stim/white_00223_940128_fb_edt.bmp","5.5","120","21"
"html-keyboard-response","199","341522","0.0-19.0-3.20","63ced96b01986b01ef133497","bdp_trlrn","Sat Apr 08 2023 12:57:52 GMT-0400 (Eastern Daylight Time)","574174","Untrustworthy,Trustworthy","","null","","","","feedback","","<div class='trialDiv'><img src='trustrating_stim/white_00223_940128_fb_edt.bmp'><br><font class='baseline'><strong>Anthony</strong><p>Received: <strong>8</strong></font> &nbsp; &nbsp; &nbsp; &nbsp; &nbsp; &nbsp;<font class='negOutcome'>Shared back: <strong>0</strong></font></font><div class='respPicDiv'><img src='img/responseButtonOffersNo0_wht.png' class='respPic'></div></div>","null","7","Anthony","6","Kept","0.65,0.2","13","0.65","trustrating_stim/white_00223_940128_fb_edt.bmp","5.5","120","21"
"html-keyboard-response","200","341771","0.0-19.0-1.21","63ced96b01986b01ef133497","bdp_trlrn","Sat Apr 08 2023 12:57:52 GMT-0400 (Eastern Daylight Time)","574174","Untrustworthy,Trustworthy","","246","","","","decision","","<div class='trialDiv'><img src='trustrating_stim/white_00109_931230_fa_edt.bmp'><br><font class='baseline'><strong>Aaron</strong><p>Choose number of points to send.</font><div class='respPicDiv'><img src='img/responseButtonOffersNo0L.png' class='respPic'></div></div>","3","8","Aaron","11","Shared","0.8,0.2","9","0.8","trustrating_stim/white_00109_931230_fa_edt.bmp","8","125","22"
"html-keyboard-response","201","342023","0.0-19.0-2.21","63ced96b01986b01ef133497","bdp_trlrn","Sat Apr 08 2023 12:57:52 GMT-0400 (Eastern Daylight Time)","574174","Untrustworthy,Trustworthy","","null","","","","decisionFB","","<div class='trialDiv'><img src='trustrating_stim/white_00109_931230_fa_edt.bmp'><br><font class='baseline'><strong>Aaron</strong><p>Choose number of points to send.</font><div class='respPicDiv'><img src='img/responseButtonOffersNo0L3.png' class='respPic'></div></div>","null","8","Aaron","11","Shared","0.8,0.2","9","0.8","trustrating_stim/white_00109_931230_fa_edt.bmp","8","122","22"
"html-keyboard-response","202","343027","0.0-19.0-3.21","63ced96b01986b01ef133497","bdp_trlrn","Sat Apr 08 2023 12:57:52 GMT-0400 (Eastern Daylight Time)","574174","Untrustworthy,Trustworthy","","null","","","","feedback","","<div class='trialDiv'><img src='trustrating_stim/white_00109_931230_fa_edt.bmp'><br><font class='baseline'><strong>Aaron</strong><p>Received: <strong>12</strong></font> &nbsp; &nbsp; &nbsp; &nbsp; &nbsp; &nbsp;<font class='posOutcome'>Shared back: <strong>6</strong></font></font><div class='respPicDiv'><img src='img/responseButtonOffersNo0_wht.png' class='respPic'></div></div>","null","8","Aaron","11","Shared","0.8,0.2","9","0.8","trustrating_stim/white_00109_931230_fa_edt.bmp","8","128","22"
"html-keyboard-response","203","343310","0.0-19.0-1.22","63ced96b01986b01ef133497","bdp_trlrn","Sat Apr 08 2023 12:57:52 GMT-0400 (Eastern Daylight Time)","574174","Untrustworthy,Trustworthy","","281","","","","decision","","<div class='trialDiv'><img src='trustrating_stim/white_00223_940128_fb_edt.bmp'><br><font class='baseline'><strong>Anthony</strong><p>Choose number of points to send.</font><div class='respPicDiv'><img src='img/responseButtonOffersNo0L.png' class='respPic'></div></div>","1","8","Anthony","6","Shared","0.65,0.2","13","0.65","trustrating_stim/white_00223_940128_fb_edt.bmp","5.5","133","23"
"html-keyboard-response","204","343564","0.0-19.0-2.22","63ced96b01986b01ef133497","bdp_trlrn","Sat Apr 08 2023 12:57:52 GMT-0400 (Eastern Daylight Time)","574174","Untrustworthy,Trustworthy","","null","","","","decisionFB","","<div class='trialDiv'><img src='trustrating_stim/white_00223_940128_fb_edt.bmp'><br><font class='baseline'><strong>Anthony</strong><p>Choose number of points to send.</font><div class='respPicDiv'><img src='img/responseButtonOffersNo0L1.png' class='respPic'></div></div>","null","8","Anthony","6","Shared","0.65,0.2","13","0.65","trustrating_stim/white_00223_940128_fb_edt.bmp","5.5","132","23"
"html-keyboard-response","205","344569","0.0-19.0-3.22","63ced96b01986b01ef133497","bdp_trlrn","Sat Apr 08 2023 12:57:52 GMT-0400 (Eastern Daylight Time)","574174","Untrustworthy,Trustworthy","","null","","","","feedback","","<div class='trialDiv'><img src='trustrating_stim/white_00223_940128_fb_edt.bmp'><br><font class='baseline'><strong>Anthony</strong><p>Received: <strong>4</strong></font> &nbsp; &nbsp; &nbsp; &nbsp; &nbsp; &nbsp;<font class='posOutcome'>Shared back: <strong>2</strong></font></font><div class='respPicDiv'><img src='img/responseButtonOffersNo0_wht.png' class='respPic'></div></div>","null","8","Anthony","6","Shared","0.65,0.2","13","0.65","trustrating_stim/white_00223_940128_fb_edt.bmp","5.5","134","23"
"html-keyboard-response","206","344863","0.0-19.0-1.23","63ced96b01986b01ef133497","bdp_trlrn","Sat Apr 08 2023 12:57:52 GMT-0400 (Eastern Daylight Time)","574174","Untrustworthy,Trustworthy","","291","","","","decision","","<div class='trialDiv'><img src='trustrating_stim/white_mw071.bmp'><br><font class='baseline'><strong>Brian</strong><p>Choose number of points to send.</font><div class='respPicDiv'><img src='img/responseButtonOffersNo0L.png' class='respPic'></div></div>","1","8","Brian","3","Shared","0.35,0.8","11","0.35","trustrating_stim/white_mw071.bmp","3.5","139","24"
"html-keyboard-response","207","345116","0.0-19.0-2.23","63ced96b01986b01ef133497","bdp_trlrn","Sat Apr 08 2023 12:57:52 GMT-0400 (Eastern Daylight Time)","574174","Untrustworthy,Trustworthy","","null","","","","decisionFB","","<div class='trialDiv'><img src='trustrating_stim/white_mw071.bmp'><br><font class='baseline'><strong>Brian</strong><p>Choose number of points to send.</font><div class='respPicDiv'><img src='img/responseButtonOffersNo0L1.png' class='respPic'></div></div>","null","8","Brian","3","Shared","0.35,0.8","11","0.35","trustrating_stim/white_mw071.bmp","3.5","138","24"
"html-keyboard-response","208","346120","0.0-19.0-3.23","63ced96b01986b01ef133497","bdp_trlrn","Sat Apr 08 2023 12:57:52 GMT-0400 (Eastern Daylight Time)","574174","Untrustworthy,Trustworthy","","null","","","","feedback","","<div class='trialDiv'><img src='trustrating_stim/white_mw071.bmp'><br><font class='baseline'><strong>Brian</strong><p>Received: <strong>4</strong></font> &nbsp; &nbsp; &nbsp; &nbsp; &nbsp; &nbsp;<font class='posOutcome'>Shared back: <strong>2</strong></font></font><div class='respPicDiv'><img src='img/responseButtonOffersNo0_wht.png' class='respPic'></div></div>","null","8","Brian","3","Shared","0.35,0.8","11","0.35","trustrating_stim/white_mw071.bmp","3.5","140","24"
"html-keyboard-response","209","346346","0.0-19.0-1.24","63ced96b01986b01ef133497","bdp_trlrn","Sat Apr 08 2023 12:57:52 GMT-0400 (Eastern Daylight Time)","574174","Untrustworthy,Trustworthy","","223","","","","decision","","<div class='trialDiv'><img src='trustrating_stim/white_00109_931230_fa_edt.bmp'><br><font class='baseline'><strong>Aaron</strong><p>Choose number of points to send.</font><div class='respPicDiv'><img src='img/responseButtonOffersNo0L.png' class='respPic'></div></div>","3","9","Aaron","11","Kept","0.8,0.2","9","0.8","trustrating_stim/white_00109_931230_fa_edt.bmp","8","145","25"
"html-keyboard-response","210","346600","0.0-19.0-2.24","63ced96b01986b01ef133497","bdp_trlrn","Sat Apr 08 2023 12:57:52 GMT-0400 (Eastern Daylight Time)","574174","Untrustworthy,Trustworthy","","null","","","","decisionFB","","<div class='trialDiv'><img src='trustrating_stim/white_00109_931230_fa_edt.bmp'><br><font class='baseline'><strong>Aaron</strong><p>Choose number of points to send.</font><div class='respPicDiv'><img src='img/responseButtonOffersNo0L3.png' class='respPic'></div></div>","null","9","Aaron","11","Kept","0.8,0.2","9","0.8","trustrating_stim/white_00109_931230_fa_edt.bmp","8","142","25"
"html-keyboard-response","211","347604","0.0-19.0-3.24","63ced96b01986b01ef133497","bdp_trlrn","Sat Apr 08 2023 12:57:52 GMT-0400 (Eastern Daylight Time)","574174","Untrustworthy,Trustworthy","","null","","","","feedback","","<div class='trialDiv'><img src='trustrating_stim/white_00109_931230_fa_edt.bmp'><br><font class='baseline'><strong>Aaron</strong><p>Received: <strong>12</strong></font> &nbsp; &nbsp; &nbsp; &nbsp; &nbsp; &nbsp;<font class='negOutcome'>Shared back: <strong>0</strong></font></font><div class='respPicDiv'><img src='img/responseButtonOffersNo0_wht.png' class='respPic'></div></div>","null","9","Aaron","11","Kept","0.8,0.2","9","0.8","trustrating_stim/white_00109_931230_fa_edt.bmp","8","142","25"
"html-keyboard-response","212","347798","0.0-19.0-1.25","63ced96b01986b01ef133497","bdp_trlrn","Sat Apr 08 2023 12:57:52 GMT-0400 (Eastern Daylight Time)","574174","Untrustworthy,Trustworthy","","191","","","","decision","","<div class='trialDiv'><img src='trustrating_stim/white_mw071.bmp'><br><font class='baseline'><strong>Brian</strong><p>Choose number of points to send.</font><div class='respPicDiv'><img src='img/responseButtonOffersNo0L.png' class='respPic'></div></div>","2","9","Brian","3","Kept","0.35,0.8","11","0.35","trustrating_stim/white_mw071.bmp","3.5","147","26"
"html-keyboard-response","213","348051","0.0-19.0-2.25","63ced96b01986b01ef133497","bdp_trlrn","Sat Apr 08 2023 12:57:52 GMT-0400 (Eastern Daylight Time)","574174","Untrustworthy,Trustworthy","","null","","","","decisionFB","","<div class='trialDiv'><img src='trustrating_stim/white_mw071.bmp'><br><font class='baseline'><strong>Brian</strong><p>Choose number of points to send.</font><div class='respPicDiv'><img src='img/responseButtonOffersNo0L2.png' class='respPic'></div></div>","null","9","Brian","3","Kept","0.35,0.8","11","0.35","trustrating_stim/white_mw071.bmp","3.5","145","26"
"html-keyboard-response","214","349055","0.0-19.0-3.25","63ced96b01986b01ef133497","bdp_trlrn","Sat Apr 08 2023 12:57:52 GMT-0400 (Eastern Daylight Time)","574174","Untrustworthy,Trustworthy","","null","","","","feedback","","<div class='trialDiv'><img src='trustrating_stim/white_mw071.bmp'><br><font class='baseline'><strong>Brian</strong><p>Received: <strong>8</strong></font> &nbsp; &nbsp; &nbsp; &nbsp; &nbsp; &nbsp;<font class='negOutcome'>Shared back: <strong>0</strong></font></font><div class='respPicDiv'><img src='img/responseButtonOffersNo0_wht.png' class='respPic'></div></div>","null","9","Brian","3","Kept","0.35,0.8","11","0.35","trustrating_stim/white_mw071.bmp","3.5","145","26"
"html-keyboard-response","215","349526","0.0-19.0-1.26","63ced96b01986b01ef133497","bdp_trlrn","Sat Apr 08 2023 12:57:52 GMT-0400 (Eastern Daylight Time)","574174","Untrustworthy,Trustworthy","","468","","","","decision","","<div class='trialDiv'><img src='trustrating_stim/white_00223_940128_fb_edt.bmp'><br><font class='baseline'><strong>Anthony</strong><p>Choose number of points to send.</font><div class='respPicDiv'><img src='img/responseButtonOffersNo0L.png' class='respPic'></div></div>","5","9","Anthony","6","Kept","0.65,0.2","13","0.65","trustrating_stim/white_00223_940128_fb_edt.bmp","5.5","150","27"
"html-keyboard-response","216","349780","0.0-19.0-2.26","63ced96b01986b01ef133497","bdp_trlrn","Sat Apr 08 2023 12:57:52 GMT-0400 (Eastern Daylight Time)","574174","Untrustworthy,Trustworthy","","null","","","","decisionFB","","<div class='trialDiv'><img src='trustrating_stim/white_00223_940128_fb_edt.bmp'><br><font class='baseline'><strong>Anthony</strong><p>Choose number of points to send.</font><div class='respPicDiv'><img src='img/responseButtonOffersNo0L5.png' class='respPic'></div></div>","null","9","Anthony","6","Kept","0.65,0.2","13","0.65","trustrating_stim/white_00223_940128_fb_edt.bmp","5.5","145","27"
"html-keyboard-response","217","350784","0.0-19.0-3.26","63ced96b01986b01ef133497","bdp_trlrn","Sat Apr 08 2023 12:57:52 GMT-0400 (Eastern Daylight Time)","574174","Untrustworthy,Trustworthy","","null","","","","feedback","","<div class='trialDiv'><img src='trustrating_stim/white_00223_940128_fb_edt.bmp'><br><font class='baseline'><strong>Anthony</strong><p>Received: <strong>20</strong></font> &nbsp; &nbsp; &nbsp; &nbsp; &nbsp; &nbsp;<font class='negOutcome'>Shared back: <strong>0</strong></font></font><div class='respPicDiv'><img src='img/responseButtonOffersNo0_wht.png' class='respPic'></div></div>","null","9","Anthony","6","Kept","0.65,0.2","13","0.65","trustrating_stim/white_00223_940128_fb_edt.bmp","5.5","145","27"
"html-keyboard-response","218","351031","0.0-19.0-1.27","63ced96b01986b01ef133497","bdp_trlrn","Sat Apr 08 2023 12:57:52 GMT-0400 (Eastern Daylight Time)","574174","Untrustworthy,Trustworthy","","244","","","","decision","","<div class='trialDiv'><img src='trustrating_stim/white_mw071.bmp'><br><font class='baseline'><strong>Brian</strong><p>Choose number of points to send.</font><div class='respPicDiv'><img src='img/responseButtonOffersNo0L.png' class='respPic'></div></div>","5","10","Brian","3","Kept","0.35,0.8","11","0.35","trustrating_stim/white_mw071.bmp","3.5","150","28"
"html-keyboard-response","219","351285","0.0-19.0-2.27","63ced96b01986b01ef133497","bdp_trlrn","Sat Apr 08 2023 12:57:52 GMT-0400 (Eastern Daylight Time)","574174","Untrustworthy,Trustworthy","","null","","","","decisionFB","","<div class='trialDiv'><img src='trustrating_stim/white_mw071.bmp'><br><font class='baseline'><strong>Brian</strong><p>Choose number of points to send.</font><div class='respPicDiv'><img src='img/responseButtonOffersNo0L5.png' class='respPic'></div></div>","null","10","Brian","3","Kept","0.35,0.8","11","0.35","trustrating_stim/white_mw071.bmp","3.5","145","28"
