"trial_type","trial_index","time_elapsed","internal_node_id","subject_id","task","startTime","totalTime","labels","view_history","rt","event","trial","time","trialtype","success","stimulus","key_press","aground","name","faceID","outcome","agenttype","agentswpt","agentcurrpshare","face","avgRating","point_total","round"
"pavlovia","0","2","0.0-0.0","5f2f86864fd821374b4367bc","bdp_trlrn","Fri Mar 10 2023 11:18:52 GMT-0800 (Pacific Standard Time)","565772","Trustworthy,Untrustworthy","","","","","","","","","","","","","","","","","","","",""
"instructions","1","6366","0.0-1.0","5f2f86864fd821374b4367bc","bdp_trlrn","Fri Mar 10 2023 11:18:52 GMT-0800 (Pacific Standard Time)","565772","Trustworthy,Untrustworthy","[{""page_index"":0,""viewing_time"":6363}]","6364","","","","","","","","","","","","","","","","","",""
"","","","","5f2f86864fd821374b4367bc","bdp_trlrn","Fri Mar 10 2023 11:18:52 GMT-0800 (Pacific Standard Time)","565772","Trustworthy,Untrustworthy","","","fullscreenenter","2","10993","fullscreenenter","","","","","","","","","","","","","",""
"fullscreen","2","11966","0.0-2.0","5f2f86864fd821374b4367bc","bdp_trlrn","Fri Mar 10 2023 11:18:52 GMT-0800 (Pacific Standard Time)","565772","Trustworthy,Untrustworthy","","","","","","","true","","","","","","","","","","","","",""
"instructions","3","24222","0.0-4.0","5f2f86864fd821374b4367bc","bdp_trlrn","Fri Mar 10 2023 11:18:52 GMT-0800 (Pacific Standard Time)","565772","Trustworthy,Untrustworthy","[{""page_index"":0,""viewing_time"":6523},{""page_index"":1,""viewing_time"":5730}]","12254","","","","","","","","","","","","","","","","","",""
"instructions","4","25179","0.0-5.0","5f2f86864fd821374b4367bc","bdp_trlrn","Fri Mar 10 2023 11:18:52 GMT-0800 (Pacific Standard Time)","565772","Trustworthy,Untrustworthy","[{""page_index"":0,""viewing_time"":957}]","957","","","","","","","","","","","","","","","","","",""
"image-keyboard-response","5","28779","0.0-6.0-1.0","5f2f86864fd821374b4367bc","bdp_trlrn","Fri Mar 10 2023 11:18:52 GMT-0800 (Pacific Standard Time)","565772","Trustworthy,Untrustworthy","","3496","","","","rating","","trustrating_stim/white_mw063.bmp","1","","","","","","","","","","",""
"image-keyboard-response","6","28995","0.0-6.0-2.0","5f2f86864fd821374b4367bc","bdp_trlrn","Fri Mar 10 2023 11:18:52 GMT-0800 (Pacific Standard Time)","565772","Trustworthy,Untrustworthy","","null","","","","ratingFB","","trustrating_stim/white_mw063.bmp","null","","","","","","","","","","",""
"image-keyboard-response","7","31276","0.0-6.0-1.1","5f2f86864fd821374b4367bc","bdp_trlrn","Fri Mar 10 2023 11:18:52 GMT-0800 (Pacific Standard Time)","565772","Trustworthy,Untrustworthy","","2172","","","","rating","","trustrating_stim/white_mw071.bmp","1","","","","","","","","","","",""
"image-keyboard-response","8","31482","0.0-6.0-2.1","5f2f86864fd821374b4367bc","bdp_trlrn","Fri Mar 10 2023 11:18:52 GMT-0800 (Pacific Standard Time)","565772","Trustworthy,Untrustworthy","","null","","","","ratingFB","","trustrating_stim/white_mw071.bmp","null","","","","","","","","","","",""
"image-keyboard-response","9","33571","0.0-6.0-1.2","5f2f86864fd821374b4367bc","bdp_trlrn","Fri Mar 10 2023 11:18:52 GMT-0800 (Pacific Standard Time)","565772","Trustworthy,Untrustworthy","","1982","","","","rating","","trustrating_stim/white_mw056.bmp","3","","","","","","","","","","",""
"image-keyboard-response","10","33783","0.0-6.0-2.2","5f2f86864fd821374b4367bc","bdp_trlrn","Fri Mar 10 2023 11:18:52 GMT-0800 (Pacific Standard Time)","565772","Trustworthy,Untrustworthy","","null","","","","ratingFB","","trustrating_stim/white_mw056.bmp","null","","","","","","","","","","",""
"image-keyboard-response","11","35364","0.0-6.0-1.3","5f2f86864fd821374b4367bc","bdp_trlrn","Fri Mar 10 2023 11:18:52 GMT-0800 (Pacific Standard Time)","565772","Trustworthy,Untrustworthy","","1473","","","","rating","","trustrating_stim/white_00898_960530_fa_edt.bmp","3","","","","","","","","","","",""
"image-keyboard-response","12","35570","0.0-6.0-2.3","5f2f86864fd821374b4367bc","bdp_trlrn","Fri Mar 10 2023 11:18:52 GMT-0800 (Pacific Standard Time)","565772","Trustworthy,Untrustworthy","","null","","","","ratingFB","","trustrating_stim/white_00898_960530_fa_edt.bmp","null","","","","","","","","","","",""
"image-keyboard-response","13","37699","0.0-6.0-1.4","5f2f86864fd821374b4367bc","bdp_trlrn","Fri Mar 10 2023 11:18:52 GMT-0800 (Pacific Standard Time)","565772","Trustworthy,Untrustworthy","","2023","","","","rating","","trustrating_stim/white_00519_940519_fb_edt.bmp","5","","","","","","","","","","",""
"image-keyboard-response","14","37906","0.0-6.0-2.4","5f2f86864fd821374b4367bc","bdp_trlrn","Fri Mar 10 2023 11:18:52 GMT-0800 (Pacific Standard Time)","565772","Trustworthy,Untrustworthy","","null","","","","ratingFB","","trustrating_stim/white_00519_940519_fb_edt.bmp","null","","","","","","","","","","",""
"image-keyboard-response","15","40043","0.0-6.0-1.5","5f2f86864fd821374b4367bc","bdp_trlrn","Fri Mar 10 2023 11:18:52 GMT-0800 (Pacific Standard Time)","565772","Trustworthy,Untrustworthy","","2031","","","","rating","","trustrating_stim/white_mw066.bmp","6","","","","","","","","","","",""
"image-keyboard-response","16","40256","0.0-6.0-2.5","5f2f86864fd821374b4367bc","bdp_trlrn","Fri Mar 10 2023 11:18:52 GMT-0800 (Pacific Standard Time)","565772","Trustworthy,Untrustworthy","","null","","","","ratingFB","","trustrating_stim/white_mw066.bmp","null","","","","","","","","","","",""
"image-keyboard-response","17","41943","0.0-6.0-1.6","5f2f86864fd821374b4367bc","bdp_trlrn","Fri Mar 10 2023 11:18:52 GMT-0800 (Pacific Standard Time)","565772","Trustworthy,Untrustworthy","","1579","","","","rating","","trustrating_stim/white_mw060.bmp","1","","","","","","","","","","",""
"image-keyboard-response","18","42158","0.0-6.0-2.6","5f2f86864fd821374b4367bc","bdp_trlrn","Fri Mar 10 2023 11:18:52 GMT-0800 (Pacific Standard Time)","565772","Trustworthy,Untrustworthy","","null","","","","ratingFB","","trustrating_stim/white_mw060.bmp","null","","","","","","","","","","",""
"image-keyboard-response","19","43515","0.0-6.0-1.7","5f2f86864fd821374b4367bc","bdp_trlrn","Fri Mar 10 2023 11:18:52 GMT-0800 (Pacific Standard Time)","565772","Trustworthy,Untrustworthy","","1250","","","","rating","","trustrating_stim/white_00120_931230_fa_edt.bmp","5","","","","","","","","","","",""
"image-keyboard-response","20","43718","0.0-6.0-2.7","5f2f86864fd821374b4367bc","bdp_trlrn","Fri Mar 10 2023 11:18:52 GMT-0800 (Pacific Standard Time)","565772","Trustworthy,Untrustworthy","","null","","","","ratingFB","","trustrating_stim/white_00120_931230_fa_edt.bmp","null","","","","","","","","","","",""
"image-keyboard-response","21","45332","0.0-6.0-1.8","5f2f86864fd821374b4367bc","bdp_trlrn","Fri Mar 10 2023 11:18:52 GMT-0800 (Pacific Standard Time)","565772","Trustworthy,Untrustworthy","","1499","","","","rating","","trustrating_stim/white_mw099.bmp","3","","","","","","","","","","",""
"image-keyboard-response","22","45545","0.0-6.0-2.8","5f2f86864fd821374b4367bc","bdp_trlrn","Fri Mar 10 2023 11:18:52 GMT-0800 (Pacific Standard Time)","565772","Trustworthy,Untrustworthy","","null","","","","ratingFB","","trustrating_stim/white_mw099.bmp","null","","","","","","","","","","",""
"image-keyboard-response","23","47604","0.0-6.0-1.9","5f2f86864fd821374b4367bc","bdp_trlrn","Fri Mar 10 2023 11:18:52 GMT-0800 (Pacific Standard Time)","565772","Trustworthy,Untrustworthy","","1952","","","","rating","","trustrating_stim/white_mw089.bmp","4","","","","","","","","","","",""
"image-keyboard-response","24","47814","0.0-6.0-2.9","5f2f86864fd821374b4367bc","bdp_trlrn","Fri Mar 10 2023 11:18:52 GMT-0800 (Pacific Standard Time)","565772","Trustworthy,Untrustworthy","","null","","","","ratingFB","","trustrating_stim/white_mw089.bmp","null","","","","","","","","","","",""
"image-keyboard-response","25","49636","0.0-6.0-1.10","5f2f86864fd821374b4367bc","bdp_trlrn","Fri Mar 10 2023 11:18:52 GMT-0800 (Pacific Standard Time)","565772","Trustworthy,Untrustworthy","","1715","","","","rating","","trustrating_stim/white_00757_941201_fa_edt.bmp","1","","","","","","","","","","",""
"image-keyboard-response","26","49850","0.0-6.0-2.10","5f2f86864fd821374b4367bc","bdp_trlrn","Fri Mar 10 2023 11:18:52 GMT-0800 (Pacific Standard Time)","565772","Trustworthy,Untrustworthy","","null","","","","ratingFB","","trustrating_stim/white_00757_941201_fa_edt.bmp","null","","","","","","","","","","",""
"image-keyboard-response","27","50795","0.0-6.0-1.11","5f2f86864fd821374b4367bc","bdp_trlrn","Fri Mar 10 2023 11:18:52 GMT-0800 (Pacific Standard Time)","565772","Trustworthy,Untrustworthy","","837","","","","rating","","trustrating_stim/white_00299_940422_fa_edt.bmp","1","","","","","","","","","","",""
"image-keyboard-response","28","51001","0.0-6.0-2.11","5f2f86864fd821374b4367bc","bdp_trlrn","Fri Mar 10 2023 11:18:52 GMT-0800 (Pacific Standard Time)","565772","Trustworthy,Untrustworthy","","null","","","","ratingFB","","trustrating_stim/white_00299_940422_fa_edt.bmp","null","","","","","","","","","","",""
"image-keyboard-response","29","52900","0.0-6.0-1.12","5f2f86864fd821374b4367bc","bdp_trlrn","Fri Mar 10 2023 11:18:52 GMT-0800 (Pacific Standard Time)","565772","Trustworthy,Untrustworthy","","1791","","","","rating","","trustrating_stim/white_mw053.bmp","6","","","","","","","","","","",""
"image-keyboard-response","30","53103","0.0-6.0-2.12","5f2f86864fd821374b4367bc","bdp_trlrn","Fri Mar 10 2023 11:18:52 GMT-0800 (Pacific Standard Time)","565772","Trustworthy,Untrustworthy","","null","","","","ratingFB","","trustrating_stim/white_mw053.bmp","null","","","","","","","","","","",""
"image-keyboard-response","31","54757","0.0-6.0-1.13","5f2f86864fd821374b4367bc","bdp_trlrn","Fri Mar 10 2023 11:18:52 GMT-0800 (Pacific Standard Time)","565772","Trustworthy,Untrustworthy","","1547","","","","rating","","trustrating_stim/white_mw049.bmp","7","","","","","","","","","","",""
"image-keyboard-response","32","54971","0.0-6.0-2.13","5f2f86864fd821374b4367bc","bdp_trlrn","Fri Mar 10 2023 11:18:52 GMT-0800 (Pacific Standard Time)","565772","Trustworthy,Untrustworthy","","null","","","","ratingFB","","trustrating_stim/white_mw049.bmp","null","","","","","","","","","","",""
"image-keyboard-response","33","56292","0.0-6.0-1.14","5f2f86864fd821374b4367bc","bdp_trlrn","Fri Mar 10 2023 11:18:52 GMT-0800 (Pacific Standard Time)","565772","Trustworthy,Untrustworthy","","1213","","","","rating","","trustrating_stim/white_00129_931230_fb_edt.bmp","3","","","","","","","","","","",""
"image-keyboard-response","34","56506","0.0-6.0-2.14","5f2f86864fd821374b4367bc","bdp_trlrn","Fri Mar 10 2023 11:18:52 GMT-0800 (Pacific Standard Time)","565772","Trustworthy,Untrustworthy","","null","","","","ratingFB","","trustrating_stim/white_00129_931230_fb_edt.bmp","null","","","","","","","","","","",""
"image-keyboard-response","35","57735","0.0-6.0-1.15","5f2f86864fd821374b4367bc","bdp_trlrn","Fri Mar 10 2023 11:18:52 GMT-0800 (Pacific Standard Time)","565772","Trustworthy,Untrustworthy","","1120","","","","rating","","trustrating_stim/white_00659_941121_fa_edt.bmp","1","","","","","","","","","","",""
"image-keyboard-response","36","57951","0.0-6.0-2.15","5f2f86864fd821374b4367bc","bdp_trlrn","Fri Mar 10 2023 11:18:52 GMT-0800 (Pacific Standard Time)","565772","Trustworthy,Untrustworthy","","null","","","","ratingFB","","trustrating_stim/white_00659_941121_fa_edt.bmp","null","","","","","","","","","","",""
"image-keyboard-response","37","59309","0.0-6.0-1.16","5f2f86864fd821374b4367bc","bdp_trlrn","Fri Mar 10 2023 11:18:52 GMT-0800 (Pacific Standard Time)","565772","Trustworthy,Untrustworthy","","1249","","","","rating","","trustrating_stim/white_mw046.bmp","1","","","","","","","","","","",""
"image-keyboard-response","38","59519","0.0-6.0-2.16","5f2f86864fd821374b4367bc","bdp_trlrn","Fri Mar 10 2023 11:18:52 GMT-0800 (Pacific Standard Time)","565772","Trustworthy,Untrustworthy","","null","","","","ratingFB","","trustrating_stim/white_mw046.bmp","null","","","","","","","","","","",""
"image-keyboard-response","39","60388","0.0-6.0-1.17","5f2f86864fd821374b4367bc","bdp_trlrn","Fri Mar 10 2023 11:18:52 GMT-0800 (Pacific Standard Time)","565772","Trustworthy,Untrustworthy","","761","","","","rating","","trustrating_stim/white_mw097.bmp","1","","","","","","","","","","",""
"image-keyboard-response","40","60603","0.0-6.0-2.17","5f2f86864fd821374b4367bc","bdp_trlrn","Fri Mar 10 2023 11:18:52 GMT-0800 (Pacific Standard Time)","565772","Trustworthy,Untrustworthy","","null","","","","ratingFB","","trustrating_stim/white_mw097.bmp","null","","","","","","","","","","",""
"image-keyboard-response","41","61718","0.0-6.0-1.18","5f2f86864fd821374b4367bc","bdp_trlrn","Fri Mar 10 2023 11:18:52 GMT-0800 (Pacific Standard Time)","565772","Trustworthy,Untrustworthy","","1007","","","","rating","","trustrating_stim/white_00340_940422_fa_edt.bmp","1","","","","","","","","","","",""
"image-keyboard-response","42","61922","0.0-6.0-2.18","5f2f86864fd821374b4367bc","bdp_trlrn","Fri Mar 10 2023 11:18:52 GMT-0800 (Pacific Standard Time)","565772","Trustworthy,Untrustworthy","","null","","","","ratingFB","","trustrating_stim/white_00340_940422_fa_edt.bmp","null","","","","","","","","","","",""
"image-keyboard-response","43","62956","0.0-6.0-1.19","5f2f86864fd821374b4367bc","bdp_trlrn","Fri Mar 10 2023 11:18:52 GMT-0800 (Pacific Standard Time)","565772","Trustworthy,Untrustworthy","","926","","","","rating","","trustrating_stim/white_00761_941201_fb_edt.bmp","1","","","","","","","","","","",""
"image-keyboard-response","44","63158","0.0-6.0-2.19","5f2f86864fd821374b4367bc","bdp_trlrn","Fri Mar 10 2023 11:18:52 GMT-0800 (Pacific Standard Time)","565772","Trustworthy,Untrustworthy","","null","","","","ratingFB","","trustrating_stim/white_00761_941201_fb_edt.bmp","null","","","","","","","","","","",""
"image-keyboard-response","45","64709","0.0-6.0-1.20","5f2f86864fd821374b4367bc","bdp_trlrn","Fri Mar 10 2023 11:18:52 GMT-0800 (Pacific Standard Time)","565772","Trustworthy,Untrustworthy","","1443","","","","rating","","trustrating_stim/white_mw033.bmp","2","","","","","","","","","","",""
"image-keyboard-response","46","64909","0.0-6.0-2.20","5f2f86864fd821374b4367bc","bdp_trlrn","Fri Mar 10 2023 11:18:52 GMT-0800 (Pacific Standard Time)","565772","Trustworthy,Untrustworthy","","null","","","","ratingFB","","trustrating_stim/white_mw033.bmp","null","","","","","","","","","","",""
"image-keyboard-response","47","66685","0.0-6.0-1.21","5f2f86864fd821374b4367bc","bdp_trlrn","Fri Mar 10 2023 11:18:52 GMT-0800 (Pacific Standard Time)","565772","Trustworthy,Untrustworthy","","1671","","","","rating","","trustrating_stim/white_00807_941205_fb_edt.bmp","3","","","","","","","","","","",""
"image-keyboard-response","48","66893","0.0-6.0-2.21","5f2f86864fd821374b4367bc","bdp_trlrn","Fri Mar 10 2023 11:18:52 GMT-0800 (Pacific Standard Time)","565772","Trustworthy,Untrustworthy","","null","","","","ratingFB","","trustrating_stim/white_00807_941205_fb_edt.bmp","null","","","","","","","","","","",""
"image-keyboard-response","49","67992","0.0-6.0-1.22","5f2f86864fd821374b4367bc","bdp_trlrn","Fri Mar 10 2023 11:18:52 GMT-0800 (Pacific Standard Time)","565772","Trustworthy,Untrustworthy","","991","","","","rating","","trustrating_stim/white_mw048.bmp","1","","","","","","","","","","",""
"image-keyboard-response","50","68196","0.0-6.0-2.22","5f2f86864fd821374b4367bc","bdp_trlrn","Fri Mar 10 2023 11:18:52 GMT-0800 (Pacific Standard Time)","565772","Trustworthy,Untrustworthy","","null","","","","ratingFB","","trustrating_stim/white_mw048.bmp","null","","","","","","","","","","",""
"image-keyboard-response","51","74878","0.0-6.0-1.23","5f2f86864fd821374b4367bc","bdp_trlrn","Fri Mar 10 2023 11:18:52 GMT-0800 (Pacific Standard Time)","565772","Trustworthy,Untrustworthy","","6575","","","","rating","","trustrating_stim/white_00109_931230_fa_edt.bmp","6","","","","","","","","","","",""
"image-keyboard-response","52","75085","0.0-6.0-2.23","5f2f86864fd821374b4367bc","bdp_trlrn","Fri Mar 10 2023 11:18:52 GMT-0800 (Pacific Standard Time)","565772","Trustworthy,Untrustworthy","","null","","","","ratingFB","","trustrating_stim/white_00109_931230_fa_edt.bmp","null","","","","","","","","","","",""
"image-keyboard-response","53","77341","0.0-6.0-1.24","5f2f86864fd821374b4367bc","bdp_trlrn","Fri Mar 10 2023 11:18:52 GMT-0800 (Pacific Standard Time)","565772","Trustworthy,Untrustworthy","","2140","","","","rating","","trustrating_stim/white_mw084.bmp","3","","","","","","","","","","",""
"image-keyboard-response","54","77553","0.0-6.0-2.24","5f2f86864fd821374b4367bc","bdp_trlrn","Fri Mar 10 2023 11:18:52 GMT-0800 (Pacific Standard Time)","565772","Trustworthy,Untrustworthy","","null","","","","ratingFB","","trustrating_stim/white_mw084.bmp","null","","","","","","","","","","",""
"image-keyboard-response","55","82213","0.0-6.0-1.25","5f2f86864fd821374b4367bc","bdp_trlrn","Fri Mar 10 2023 11:18:52 GMT-0800 (Pacific Standard Time)","565772","Trustworthy,Untrustworthy","","4552","","","","rating","","trustrating_stim/white_00785_941205_fb_edt.bmp","7","","","","","","","","","","",""
"image-keyboard-response","56","82425","0.0-6.0-2.25","5f2f86864fd821374b4367bc","bdp_trlrn","Fri Mar 10 2023 11:18:52 GMT-0800 (Pacific Standard Time)","565772","Trustworthy,Untrustworthy","","null","","","","ratingFB","","trustrating_stim/white_00785_941205_fb_edt.bmp","null","","","","","","","","","","",""
"image-keyboard-response","57","84909","0.0-6.0-1.26","5f2f86864fd821374b4367bc","bdp_trlrn","Fri Mar 10 2023 11:18:52 GMT-0800 (Pacific Standard Time)","565772","Trustworthy,Untrustworthy","","2375","","","","rating","","trustrating_stim/white_00577_940928_fa_edt.bmp","9","","","","","","","","","","",""
"image-keyboard-response","58","85112","0.0-6.0-2.26","5f2f86864fd821374b4367bc","bdp_trlrn","Fri Mar 10 2023 11:18:52 GMT-0800 (Pacific Standard Time)","565772","Trustworthy,Untrustworthy","","null","","","","ratingFB","","trustrating_stim/white_00577_940928_fa_edt.bmp","null","","","","","","","","","","",""
"image-keyboard-response","59","86325","0.0-6.0-1.27","5f2f86864fd821374b4367bc","bdp_trlrn","Fri Mar 10 2023 11:18:52 GMT-0800 (Pacific Standard Time)","565772","Trustworthy,Untrustworthy","","1106","","","","rating","","trustrating_stim/white_mw035.bmp","5","","","","","","","","","","",""
"image-keyboard-response","60","86530","0.0-6.0-2.27","5f2f86864fd821374b4367bc","bdp_trlrn","Fri Mar 10 2023 11:18:52 GMT-0800 (Pacific Standard Time)","565772","Trustworthy,Untrustworthy","","null","","","","ratingFB","","trustrating_stim/white_mw035.bmp","null","","","","","","","","","","",""
"image-keyboard-response","61","88613","0.0-6.0-1.28","5f2f86864fd821374b4367bc","bdp_trlrn","Fri Mar 10 2023 11:18:52 GMT-0800 (Pacific Standard Time)","565772","Trustworthy,Untrustworthy","","1977","","","","rating","","trustrating_stim/white_00602_940928_fb_edt.bmp","4","","","","","","","","","","",""
"image-keyboard-response","62","88816","0.0-6.0-2.28","5f2f86864fd821374b4367bc","bdp_trlrn","Fri Mar 10 2023 11:18:52 GMT-0800 (Pacific Standard Time)","565772","Trustworthy,Untrustworthy","","null","","","","ratingFB","","trustrating_stim/white_00602_940928_fb_edt.bmp","null","","","","","","","","","","",""
"image-keyboard-response","63","90030","0.0-6.0-1.29","5f2f86864fd821374b4367bc","bdp_trlrn","Fri Mar 10 2023 11:18:52 GMT-0800 (Pacific Standard Time)","565772","Trustworthy,Untrustworthy","","1100","","","","rating","","trustrating_stim/white_00223_940128_fb_edt.bmp","9","","","","","","","","","","",""
"image-keyboard-response","64","90234","0.0-6.0-2.29","5f2f86864fd821374b4367bc","bdp_trlrn","Fri Mar 10 2023 11:18:52 GMT-0800 (Pacific Standard Time)","565772","Trustworthy,Untrustworthy","","null","","","","ratingFB","","trustrating_stim/white_00223_940128_fb_edt.bmp","null","","","","","","","","","","",""
"image-keyboard-response","65","91518","0.0-6.0-1.30","5f2f86864fd821374b4367bc","bdp_trlrn","Fri Mar 10 2023 11:18:52 GMT-0800 (Pacific Standard Time)","565772","Trustworthy,Untrustworthy","","1175","","","","rating","","trustrating_stim/white_00120_931230_fa_edt.bmp","9","","","","","","","","","","",""
"image-keyboard-response","66","91734","0.0-6.0-2.30","5f2f86864fd821374b4367bc","bdp_trlrn","Fri Mar 10 2023 11:18:52 GMT-0800 (Pacific Standard Time)","565772","Trustworthy,Untrustworthy","","null","","","","ratingFB","","trustrating_stim/white_00120_931230_fa_edt.bmp","null","","","","","","","","","","",""
"image-keyboard-response","67","92551","0.0-6.0-1.31","5f2f86864fd821374b4367bc","bdp_trlrn","Fri Mar 10 2023 11:18:52 GMT-0800 (Pacific Standard Time)","565772","Trustworthy,Untrustworthy","","709","","","","rating","","trustrating_stim/white_00761_941201_fb_edt.bmp","9","","","","","","","","","","",""
"image-keyboard-response","68","92753","0.0-6.0-2.31","5f2f86864fd821374b4367bc","bdp_trlrn","Fri Mar 10 2023 11:18:52 GMT-0800 (Pacific Standard Time)","565772","Trustworthy,Untrustworthy","","null","","","","ratingFB","","trustrating_stim/white_00761_941201_fb_edt.bmp","null","","","","","","","","","","",""
"image-keyboard-response","69","94333","0.0-6.0-1.32","5f2f86864fd821374b4367bc","bdp_trlrn","Fri Mar 10 2023 11:18:52 GMT-0800 (Pacific Standard Time)","565772","Trustworthy,Untrustworthy","","1473","","","","rating","","trustrating_stim/white_00659_941121_fa_edt.bmp","9","","","","","","","","","","",""
"image-keyboard-response","70","94538","0.0-6.0-2.32","5f2f86864fd821374b4367bc","bdp_trlrn","Fri Mar 10 2023 11:18:52 GMT-0800 (Pacific Standard Time)","565772","Trustworthy,Untrustworthy","","null","","","","ratingFB","","trustrating_stim/white_00659_941121_fa_edt.bmp","null","","","","","","","","","","",""
"image-keyboard-response","71","95877","0.0-6.0-1.33","5f2f86864fd821374b4367bc","bdp_trlrn","Fri Mar 10 2023 11:18:52 GMT-0800 (Pacific Standard Time)","565772","Trustworthy,Untrustworthy","","1232","","","","rating","","trustrating_stim/white_mw048.bmp","9","","","","","","","","","","",""
"image-keyboard-response","72","96088","0.0-6.0-2.33","5f2f86864fd821374b4367bc","bdp_trlrn","Fri Mar 10 2023 11:18:52 GMT-0800 (Pacific Standard Time)","565772","Trustworthy,Untrustworthy","","null","","","","ratingFB","","trustrating_stim/white_mw048.bmp","null","","","","","","","","","","",""
"image-keyboard-response","73","97131","0.0-6.0-1.34","5f2f86864fd821374b4367bc","bdp_trlrn","Fri Mar 10 2023 11:18:52 GMT-0800 (Pacific Standard Time)","565772","Trustworthy,Untrustworthy","","939","","","","rating","","trustrating_stim/white_mw060.bmp","9","","","","","","","","","","",""
"image-keyboard-response","74","97342","0.0-6.0-2.34","5f2f86864fd821374b4367bc","bdp_trlrn","Fri Mar 10 2023 11:18:52 GMT-0800 (Pacific Standard Time)","565772","Trustworthy,Untrustworthy","","null","","","","ratingFB","","trustrating_stim/white_mw060.bmp","null","","","","","","","","","","",""
"image-keyboard-response","75","98901","0.0-6.0-1.35","5f2f86864fd821374b4367bc","bdp_trlrn","Fri Mar 10 2023 11:18:52 GMT-0800 (Pacific Standard Time)","565772","Trustworthy,Untrustworthy","","1452","","","","rating","","trustrating_stim/white_mw066.bmp","4","","","","","","","","","","",""
"image-keyboard-response","76","99111","0.0-6.0-2.35","5f2f86864fd821374b4367bc","bdp_trlrn","Fri Mar 10 2023 11:18:52 GMT-0800 (Pacific Standard Time)","565772","Trustworthy,Untrustworthy","","null","","","","ratingFB","","trustrating_stim/white_mw066.bmp","null","","","","","","","","","","",""
"image-keyboard-response","77","100373","0.0-6.0-1.36","5f2f86864fd821374b4367bc","bdp_trlrn","Fri Mar 10 2023 11:18:52 GMT-0800 (Pacific Standard Time)","565772","Trustworthy,Untrustworthy","","1157","","","","rating","","trustrating_stim/white_00129_931230_fb_edt.bmp","4","","","","","","","","","","",""
"image-keyboard-response","78","100578","0.0-6.0-2.36","5f2f86864fd821374b4367bc","bdp_trlrn","Fri Mar 10 2023 11:18:52 GMT-0800 (Pacific Standard Time)","565772","Trustworthy,Untrustworthy","","null","","","","ratingFB","","trustrating_stim/white_00129_931230_fb_edt.bmp","null","","","","","","","","","","",""
"image-keyboard-response","79","102309","0.0-6.0-1.37","5f2f86864fd821374b4367bc","bdp_trlrn","Fri Mar 10 2023 11:18:52 GMT-0800 (Pacific Standard Time)","565772","Trustworthy,Untrustworthy","","1624","","","","rating","","trustrating_stim/white_mw049.bmp","3","","","","","","","","","","",""
"image-keyboard-response","80","102512","0.0-6.0-2.37","5f2f86864fd821374b4367bc","bdp_trlrn","Fri Mar 10 2023 11:18:52 GMT-0800 (Pacific Standard Time)","565772","Trustworthy,Untrustworthy","","null","","","","ratingFB","","trustrating_stim/white_mw049.bmp","null","","","","","","","","","","",""
"image-keyboard-response","81","103855","0.0-6.0-1.38","5f2f86864fd821374b4367bc","bdp_trlrn","Fri Mar 10 2023 11:18:52 GMT-0800 (Pacific Standard Time)","565772","Trustworthy,Untrustworthy","","1234","","","","rating","","trustrating_stim/white_00898_960530_fa_edt.bmp","2","","","","","","","","","","",""
"image-keyboard-response","82","104065","0.0-6.0-2.38","5f2f86864fd821374b4367bc","bdp_trlrn","Fri Mar 10 2023 11:18:52 GMT-0800 (Pacific Standard Time)","565772","Trustworthy,Untrustworthy","","null","","","","ratingFB","","trustrating_stim/white_00898_960530_fa_edt.bmp","null","","","","","","","","","","",""
"image-keyboard-response","83","105878","0.0-6.0-1.39","5f2f86864fd821374b4367bc","bdp_trlrn","Fri Mar 10 2023 11:18:52 GMT-0800 (Pacific Standard Time)","565772","Trustworthy,Untrustworthy","","1707","","","","rating","","trustrating_stim/white_mw063.bmp","9","","","","","","","","","","",""
"image-keyboard-response","84","106083","0.0-6.0-2.39","5f2f86864fd821374b4367bc","bdp_trlrn","Fri Mar 10 2023 11:18:52 GMT-0800 (Pacific Standard Time)","565772","Trustworthy,Untrustworthy","","null","","","","ratingFB","","trustrating_stim/white_mw063.bmp","null","","","","","","","","","","",""
"image-keyboard-response","85","106926","0.0-6.0-1.40","5f2f86864fd821374b4367bc","bdp_trlrn","Fri Mar 10 2023 11:18:52 GMT-0800 (Pacific Standard Time)","565772","Trustworthy,Untrustworthy","","735","","","","rating","","trustrating_stim/white_00299_940422_fa_edt.bmp","9","","","","","","","","","","",""
"image-keyboard-response","86","107135","0.0-6.0-2.40","5f2f86864fd821374b4367bc","bdp_trlrn","Fri Mar 10 2023 11:18:52 GMT-0800 (Pacific Standard Time)","565772","Trustworthy,Untrustworthy","","null","","","","ratingFB","","trustrating_stim/white_00299_940422_fa_edt.bmp","null","","","","","","","","","","",""
"image-keyboard-response","87","108014","0.0-6.0-1.41","5f2f86864fd821374b4367bc","bdp_trlrn","Fri Mar 10 2023 11:18:52 GMT-0800 (Pacific Standard Time)","565772","Trustworthy,Untrustworthy","","769","","","","rating","","trustrating_stim/white_00602_940928_fb_edt.bmp","9","","","","","","","","","","",""
"image-keyboard-response","88","108224","0.0-6.0-2.41","5f2f86864fd821374b4367bc","bdp_trlrn","Fri Mar 10 2023 11:18:52 GMT-0800 (Pacific Standard Time)","565772","Trustworthy,Untrustworthy","","null","","","","ratingFB","","trustrating_stim/white_00602_940928_fb_edt.bmp","null","","","","","","","","","","",""
"image-keyboard-response","89","108918","0.0-6.0-1.42","5f2f86864fd821374b4367bc","bdp_trlrn","Fri Mar 10 2023 11:18:52 GMT-0800 (Pacific Standard Time)","565772","Trustworthy,Untrustworthy","","575","","","","rating","","trustrating_stim/white_mw056.bmp","9","","","","","","","","","","",""
"image-keyboard-response","90","109119","0.0-6.0-2.42","5f2f86864fd821374b4367bc","bdp_trlrn","Fri Mar 10 2023 11:18:52 GMT-0800 (Pacific Standard Time)","565772","Trustworthy,Untrustworthy","","null","","","","ratingFB","","trustrating_stim/white_mw056.bmp","null","","","","","","","","","","",""
"image-keyboard-response","91","110652","0.0-6.0-1.43","5f2f86864fd821374b4367bc","bdp_trlrn","Fri Mar 10 2023 11:18:52 GMT-0800 (Pacific Standard Time)","565772","Trustworthy,Untrustworthy","","1425","","","","rating","","trustrating_stim/white_mw035.bmp","9","","","","","","","","","","",""
"image-keyboard-response","92","110854","0.0-6.0-2.43","5f2f86864fd821374b4367bc","bdp_trlrn","Fri Mar 10 2023 11:18:52 GMT-0800 (Pacific Standard Time)","565772","Trustworthy,Untrustworthy","","null","","","","ratingFB","","trustrating_stim/white_mw035.bmp","null","","","","","","","","","","",""
"image-keyboard-response","93","112998","0.0-6.0-1.44","5f2f86864fd821374b4367bc","bdp_trlrn","Fri Mar 10 2023 11:18:52 GMT-0800 (Pacific Standard Time)","565772","Trustworthy,Untrustworthy","","2035","","","","rating","","trustrating_stim/white_00109_931230_fa_edt.bmp","9","","","","","","","","","","",""
"image-keyboard-response","94","113208","0.0-6.0-2.44","5f2f86864fd821374b4367bc","bdp_trlrn","Fri Mar 10 2023 11:18:52 GMT-0800 (Pacific Standard Time)","565772","Trustworthy,Untrustworthy","","null","","","","ratingFB","","trustrating_stim/white_00109_931230_fa_edt.bmp","null","","","","","","","","","","",""
"image-keyboard-response","95","114537","0.0-6.0-1.45","5f2f86864fd821374b4367bc","bdp_trlrn","Fri Mar 10 2023 11:18:52 GMT-0800 (Pacific Standard Time)","565772","Trustworthy,Untrustworthy","","1223","","","","rating","","trustrating_stim/white_00807_941205_fb_edt.bmp","8","","","","","","","","","","",""
"image-keyboard-response","96","114742","0.0-6.0-2.45","5f2f86864fd821374b4367bc","bdp_trlrn","Fri Mar 10 2023 11:18:52 GMT-0800 (Pacific Standard Time)","565772","Trustworthy,Untrustworthy","","null","","","","ratingFB","","trustrating_stim/white_00807_941205_fb_edt.bmp","null","","","","","","","","","","",""
"image-keyboard-response","97","116541","0.0-6.0-1.46","5f2f86864fd821374b4367bc","bdp_trlrn","Fri Mar 10 2023 11:18:52 GMT-0800 (Pacific Standard Time)","565772","Trustworthy,Untrustworthy","","1693","","","","rating","","trustrating_stim/white_mw084.bmp","4","","","","","","","","","","",""
"image-keyboard-response","98","116745","0.0-6.0-2.46","5f2f86864fd821374b4367bc","bdp_trlrn","Fri Mar 10 2023 11:18:52 GMT-0800 (Pacific Standard Time)","565772","Trustworthy,Untrustworthy","","null","","","","ratingFB","","trustrating_stim/white_mw084.bmp","null","","","","","","","","","","",""
"image-keyboard-response","99","119464","0.0-6.0-1.47","5f2f86864fd821374b4367bc","bdp_trlrn","Fri Mar 10 2023 11:18:52 GMT-0800 (Pacific Standard Time)","565772","Trustworthy,Untrustworthy","","2612","","","","rating","","trustrating_stim/white_mw089.bmp","2","","","","","","","","","","",""
"image-keyboard-response","100","119665","0.0-6.0-2.47","5f2f86864fd821374b4367bc","bdp_trlrn","Fri Mar 10 2023 11:18:52 GMT-0800 (Pacific Standard Time)","565772","Trustworthy,Untrustworthy","","null","","","","ratingFB","","trustrating_stim/white_mw089.bmp","null","","","","","","","","","","",""
"image-keyboard-response","101","120343","0.0-6.0-1.48","5f2f86864fd821374b4367bc","bdp_trlrn","Fri Mar 10 2023 11:18:52 GMT-0800 (Pacific Standard Time)","565772","Trustworthy,Untrustworthy","","570","","","","rating","","trustrating_stim/white_00577_940928_fa_edt.bmp","2","","","","","","","","","","",""
"image-keyboard-response","102","120550","0.0-6.0-2.48","5f2f86864fd821374b4367bc","bdp_trlrn","Fri Mar 10 2023 11:18:52 GMT-0800 (Pacific Standard Time)","565772","Trustworthy,Untrustworthy","","null","","","","ratingFB","","trustrating_stim/white_00577_940928_fa_edt.bmp","null","","","","","","","","","","",""
"image-keyboard-response","103","122513","0.0-6.0-1.49","5f2f86864fd821374b4367bc","bdp_trlrn","Fri Mar 10 2023 11:18:52 GMT-0800 (Pacific Standard Time)","565772","Trustworthy,Untrustworthy","","1856","","","","rating","","trustrating_stim/white_00223_940128_fb_edt.bmp","9","","","","","","","","","","",""
"image-keyboard-response","104","122718","0.0-6.0-2.49","5f2f86864fd821374b4367bc","bdp_trlrn","Fri Mar 10 2023 11:18:52 GMT-0800 (Pacific Standard Time)","565772","Trustworthy,Untrustworthy","","null","","","","ratingFB","","trustrating_stim/white_00223_940128_fb_edt.bmp","null","","","","","","","","","","",""
"image-keyboard-response","105","124567","0.0-6.0-1.50","5f2f86864fd821374b4367bc","bdp_trlrn","Fri Mar 10 2023 11:18:52 GMT-0800 (Pacific Standard Time)","565772","Trustworthy,Untrustworthy","","1743","","","","rating","","trustrating_stim/white_mw071.bmp","4","","","","","","","","","","",""
"image-keyboard-response","106","124771","0.0-6.0-2.50","5f2f86864fd821374b4367bc","bdp_trlrn","Fri Mar 10 2023 11:18:52 GMT-0800 (Pacific Standard Time)","565772","Trustworthy,Untrustworthy","","null","","","","ratingFB","","trustrating_stim/white_mw071.bmp","null","","","","","","","","","","",""
"image-keyboard-response","107","125992","0.0-6.0-1.51","5f2f86864fd821374b4367bc","bdp_trlrn","Fri Mar 10 2023 11:18:52 GMT-0800 (Pacific Standard Time)","565772","Trustworthy,Untrustworthy","","1113","","","","rating","","trustrating_stim/white_00340_940422_fa_edt.bmp","9","","","","","","","","","","",""
"image-keyboard-response","108","126205","0.0-6.0-2.51","5f2f86864fd821374b4367bc","bdp_trlrn","Fri Mar 10 2023 11:18:52 GMT-0800 (Pacific Standard Time)","565772","Trustworthy,Untrustworthy","","null","","","","ratingFB","","trustrating_stim/white_00340_940422_fa_edt.bmp","null","","","","","","","","","","",""
"image-keyboard-response","109","127142","0.0-6.0-1.52","5f2f86864fd821374b4367bc","bdp_trlrn","Fri Mar 10 2023 11:18:52 GMT-0800 (Pacific Standard Time)","565772","Trustworthy,Untrustworthy","","830","","","","rating","","trustrating_stim/white_00785_941205_fb_edt.bmp","9","","","","","","","","","","",""
"image-keyboard-response","110","127349","0.0-6.0-2.52","5f2f86864fd821374b4367bc","bdp_trlrn","Fri Mar 10 2023 11:18:52 GMT-0800 (Pacific Standard Time)","565772","Trustworthy,Untrustworthy","","null","","","","ratingFB","","trustrating_stim/white_00785_941205_fb_edt.bmp","null","","","","","","","","","","",""
"image-keyboard-response","111","128088","0.0-6.0-1.53","5f2f86864fd821374b4367bc","bdp_trlrn","Fri Mar 10 2023 11:18:52 GMT-0800 (Pacific Standard Time)","565772","Trustworthy,Untrustworthy","","624","","","","rating","","trustrating_stim/white_mw046.bmp","9","","","","","","","","","","",""
"image-keyboard-response","112","128292","0.0-6.0-2.53","5f2f86864fd821374b4367bc","bdp_trlrn","Fri Mar 10 2023 11:18:52 GMT-0800 (Pacific Standard Time)","565772","Trustworthy,Untrustworthy","","null","","","","ratingFB","","trustrating_stim/white_mw046.bmp","null","","","","","","","","","","",""
"image-keyboard-response","113","129022","0.0-6.0-1.54","5f2f86864fd821374b4367bc","bdp_trlrn","Fri Mar 10 2023 11:18:52 GMT-0800 (Pacific Standard Time)","565772","Trustworthy,Untrustworthy","","625","","","","rating","","trustrating_stim/white_mw099.bmp","9","","","","","","","","","","",""
"image-keyboard-response","114","129225","0.0-6.0-2.54","5f2f86864fd821374b4367bc","bdp_trlrn","Fri Mar 10 2023 11:18:52 GMT-0800 (Pacific Standard Time)","565772","Trustworthy,Untrustworthy","","null","","","","ratingFB","","trustrating_stim/white_mw099.bmp","null","","","","","","","","","","",""
"image-keyboard-response","115","129993","0.0-6.0-1.55","5f2f86864fd821374b4367bc","bdp_trlrn","Fri Mar 10 2023 11:18:52 GMT-0800 (Pacific Standard Time)","565772","Trustworthy,Untrustworthy","","661","","","","rating","","trustrating_stim/white_00519_940519_fb_edt.bmp","9","","","","","","","","","","",""
"image-keyboard-response","116","130200","0.0-6.0-2.55","5f2f86864fd821374b4367bc","bdp_trlrn","Fri Mar 10 2023 11:18:52 GMT-0800 (Pacific Standard Time)","565772","Trustworthy,Untrustworthy","","null","","","","ratingFB","","trustrating_stim/white_00519_940519_fb_edt.bmp","null","","","","","","","","","","",""
"image-keyboard-response","117","131495","0.0-6.0-1.56","5f2f86864fd821374b4367bc","bdp_trlrn","Fri Mar 10 2023 11:18:52 GMT-0800 (Pacific Standard Time)","565772","Trustworthy,Untrustworthy","","1179","","","","rating","","trustrating_stim/white_mw033.bmp","4","","","","","","","","","","",""
"image-keyboard-response","118","131711","0.0-6.0-2.56","5f2f86864fd821374b4367bc","bdp_trlrn","Fri Mar 10 2023 11:18:52 GMT-0800 (Pacific Standard Time)","565772","Trustworthy,Untrustworthy","","null","","","","ratingFB","","trustrating_stim/white_mw033.bmp","null","","","","","","","","","","",""
"image-keyboard-response","119","132904","0.0-6.0-1.57","5f2f86864fd821374b4367bc","bdp_trlrn","Fri Mar 10 2023 11:18:52 GMT-0800 (Pacific Standard Time)","565772","Trustworthy,Untrustworthy","","1087","","","","rating","","trustrating_stim/white_00757_941201_fa_edt.bmp","3","","","","","","","","","","",""
"image-keyboard-response","120","133114","0.0-6.0-2.57","5f2f86864fd821374b4367bc","bdp_trlrn","Fri Mar 10 2023 11:18:52 GMT-0800 (Pacific Standard Time)","565772","Trustworthy,Untrustworthy","","null","","","","ratingFB","","trustrating_stim/white_00757_941201_fa_edt.bmp","null","","","","","","","","","","",""
"image-keyboard-response","121","133967","0.0-6.0-1.58","5f2f86864fd821374b4367bc","bdp_trlrn","Fri Mar 10 2023 11:18:52 GMT-0800 (Pacific Standard Time)","565772","Trustworthy,Untrustworthy","","746","","","","rating","","trustrating_stim/white_mw053.bmp","9","","","","","","","","","","",""
"image-keyboard-response","122","134179","0.0-6.0-2.58","5f2f86864fd821374b4367bc","bdp_trlrn","Fri Mar 10 2023 11:18:52 GMT-0800 (Pacific Standard Time)","565772","Trustworthy,Untrustworthy","","null","","","","ratingFB","","trustrating_stim/white_mw053.bmp","null","","","","","","","","","","",""
"image-keyboard-response","123","135047","0.0-6.0-1.59","5f2f86864fd821374b4367bc","bdp_trlrn","Fri Mar 10 2023 11:18:52 GMT-0800 (Pacific Standard Time)","565772","Trustworthy,Untrustworthy","","757","","","","rating","","trustrating_stim/white_mw097.bmp","9","","","","","","","","","","",""
"image-keyboard-response","124","135248","0.0-6.0-2.59","5f2f86864fd821374b4367bc","bdp_trlrn","Fri Mar 10 2023 11:18:52 GMT-0800 (Pacific Standard Time)","565772","Trustworthy,Untrustworthy","","null","","","","ratingFB","","trustrating_stim/white_mw097.bmp","null","","","","","","","","","","",""
"instructions","125","138871","0.0-7.0","5f2f86864fd821374b4367bc","bdp_trlrn","Fri Mar 10 2023 11:18:52 GMT-0800 (Pacific Standard Time)","565772","Trustworthy,Untrustworthy","[{""page_index"":0,""viewing_time"":3518}]","3518","","","","","","","","","","","","","","","","","",""
"instructions","126","199408","0.0-8.0","5f2f86864fd821374b4367bc","bdp_trlrn","Fri Mar 10 2023 11:18:52 GMT-0800 (Pacific Standard Time)","565772","Trustworthy,Untrustworthy","[{""page_index"":0,""viewing_time"":15363},{""page_index"":1,""viewing_time"":9646},{""page_index"":2,""viewing_time"":5241},{""page_index"":3,""viewing_time"":7296},{""page_index"":4,""viewing_time"":1638},{""page_index"":5,""viewing_time"":4761},{""page_index"":6,""viewing_time"":9646},{""page_index"":7,""viewing_time"":6842}]","60433","","","","","","","","","","","","","","","","","",""
"html-keyboard-response","127","204631","0.0-9.0","5f2f86864fd821374b4367bc","bdp_trlrn","Fri Mar 10 2023 11:18:52 GMT-0800 (Pacific Standard Time)","565772","Trustworthy,Untrustworthy","","5221","","","","","","<div class='header' style='text-align:left; position: absolute; top: 5%; left: 5%;'><small>Task 2 of 5</small></div><div class='instruxDiv'><p><strong>1) What is the minimum number of points you can choose to send to your partner?</strong></p><p>a) 0</p><p>b) 1</p><p>c) 5</p>","B","","","","","","","","","","",""
"html-keyboard-response","128","214113","0.0-10.0","5f2f86864fd821374b4367bc","bdp_trlrn","Fri Mar 10 2023 11:18:52 GMT-0800 (Pacific Standard Time)","565772","Trustworthy,Untrustworthy","","9364","","","","","","<div class='header' style='text-align:left; position: absolute; top: 5%; left: 5%;'><small>Task 2 of 5</small></div><div class='instruxDiv'><p><strong>1) What is the minimum number of points you can choose to send to your partner?</strong></p><p>a) 0</p><p style='color:#00FF00'>b) 1</p><p>c) 5</p><h3 style='color:#00FF00'>Correct!</h3><h3 class='center-content'>The correct response is b).</h3><h3 class='center-content'>The minimum number of points you can choose to send to your partner is 1 point.</h3><p><em>Press SPACEBAR to continue</em></p></div>"," ","","","","","","","","","","",""
"html-keyboard-response","129","219031","0.0-11.0","5f2f86864fd821374b4367bc","bdp_trlrn","Fri Mar 10 2023 11:18:52 GMT-0800 (Pacific Standard Time)","565772","Trustworthy,Untrustworthy","","4806","","","","","","<div class='header' style='text-align:left; position: absolute; top: 5%; left: 5%;'><small>Task 2 of 5</small></div><div class='instruxDiv'><p><strong>2) What is the maximum number of points you can choose to send to your partner?</strong></p><p>a) 8</p><p>b) 5</p><p>c) 3</p>","B","","","","","","","","","","",""
"html-keyboard-response","130","220197","0.0-12.0","5f2f86864fd821374b4367bc","bdp_trlrn","Fri Mar 10 2023 11:18:52 GMT-0800 (Pacific Standard Time)","565772","Trustworthy,Untrustworthy","","1064","","","","","","<div class='header' style='text-align:left; position: absolute; top: 5%; left: 5%;'><small>Task 2 of 5</small></div><div class='instruxDiv'><p><strong>2) What is the maximum number of points you can choose to send to your partner?</strong></p><p>a) 8</p><p style='color:#00FF00'>b) 5</p><p>c) 3</p><h3 style='color:#00FF00'>Correct!</h3><h3 class='center-content'>The correct response is b).</h3><h3 class='center-content'>The maximum number of points you can choose to send to your partner is 5 points.</h3><p><em>Press SPACEBAR to continue</em></p></div>"," ","","","","","","","","","","",""
"html-keyboard-response","131","228730","0.0-13.0","5f2f86864fd821374b4367bc","bdp_trlrn","Fri Mar 10 2023 11:18:52 GMT-0800 (Pacific Standard Time)","565772","Trustworthy,Untrustworthy","","8417","","","","","","<div class='header' style='text-align:left; position: absolute; top: 5%; left: 5%;'><small>Task 2 of 5</small></div><div class='instruxDiv'><p><strong>3) What happens to the amount of points you send to your partner?</strong></p><p>a) Nothing</p><p>b) It doubles</p><p>c) It quadruples</p>","A","","","","","","","","","","",""
"html-keyboard-response","132","231622","0.0-14.0","5f2f86864fd821374b4367bc","bdp_trlrn","Fri Mar 10 2023 11:18:52 GMT-0800 (Pacific Standard Time)","565772","Trustworthy,Untrustworthy","","2783","","","","","","<div class='header' style='text-align:left; position: absolute; top: 5%; left: 5%;'><small>Task 2 of 5</small></div><div class='instruxDiv'><p><strong>3) What happens to the amount of points you send to your partner?</strong></p><p style='color:#FF0000'>a) Nothing</p><p>b) It doubles</p><p>c) It quadruples</p><h3 style='color:#FF0000'>Incorrect!</h3><h3 class='center-content'>The correct response is c).</h3><h3 class='center-content'>The amount of points you send to your partner quadruples.</h3><p><em>Press SPACEBAR to continue</em></p></div>"," ","","","","","","","","","","",""
"html-keyboard-response","133","247140","0.0-15.0","5f2f86864fd821374b4367bc","bdp_trlrn","Fri Mar 10 2023 11:18:52 GMT-0800 (Pacific Standard Time)","565772","Trustworthy,Untrustworthy","","15414","","","","","","<div class='header' style='text-align:left; position: absolute; top: 5%; left: 5%;'><small>Task 2 of 5</small></div><div class='instruxDiv'><p><strong>4) If you decided to share 4 out of 5 points with your partner, and they decided to share half of the amount they received with you, how many points would you receive back from them on this round?</strong></p><p>a) 16</p><p>b) 0</p><p>c) 8</p>","C","","","","","","","","","","",""
"html-keyboard-response","134","248172","0.0-16.0","5f2f86864fd821374b4367bc","bdp_trlrn","Fri Mar 10 2023 11:18:52 GMT-0800 (Pacific Standard Time)","565772","Trustworthy,Untrustworthy","","926","","","","","","<div class='header' style='text-align:left; position: absolute; top: 5%; left: 5%;'><small>Task 2 of 5</small></div><div class='instruxDiv'><p><strong>4) If you decided to share 4 out of 5 points with your partner, and they decided to share half of the amount they received with you, how many points would you receive back from them on this round?</strong></p><p>a) 16</p><p>b) 0</p><p style='color:#00FF00'>c) 8</p><h3 style='color:#00FF00'>Correct!</h3><h3 class='center-content'>The correct response is c).</h3><h3 class='center-content'>If you shared 4 out of 5 points with your partner and they decided to share half of the amount they received with you, you would receive 8 points back (i.e. (4 x 4)/2 = 8).</h3><p><em>Press SPACEBAR to continue</em></p></div>"," ","","","","","","","","","","",""
"html-keyboard-response","135","253284","0.0-17.0","5f2f86864fd821374b4367bc","bdp_trlrn","Fri Mar 10 2023 11:18:52 GMT-0800 (Pacific Standard Time)","565772","Trustworthy,Untrustworthy","","null","","","","","","<div class='header' style='text-align:left; position: absolute; top: 5%; left: 5%;'><small>Task 2 of 5</small></div><div class='instruxDiv'><p>Thank you for completing the quiz<p>These are the actual partners you will be interacting with in the next block:<p><div class='tc' align='center'><img class='introPic' src='trustrating_stim/white_00898_960530_fa_edt.bmp'><br><strong>Jonathan</strong></div><div class='bl' align='center'><img class='introPic' src='trustrating_stim/white_mw097.bmp'><br><strong>Tyler</strong></div><div class='br' align='center'><img class='introPic' src='trustrating_stim/white_00785_941205_fb_edt.bmp'><br><strong>Sebastian</strong></div></div><p>Across <strong>66 rounds</strong> you will interact with each partner <strong>22 times</strong> (in random order).<p style='align:center; color:white'><font <em>Press SPACEBAR to continue</em></p>","null","","","","","","","","","","",""
"instructions","136","257230","0.0-18.0","5f2f86864fd821374b4367bc","bdp_trlrn","Fri Mar 10 2023 11:18:52 GMT-0800 (Pacific Standard Time)","565772","Trustworthy,Untrustworthy","[{""page_index"":0,""viewing_time"":551},{""page_index"":1,""viewing_time"":3393}]","3945","","","","","","","","","","","","","","","","","",""
"html-keyboard-response","137","260365","0.0-19.0-1.0","5f2f86864fd821374b4367bc","bdp_trlrn","Fri Mar 10 2023 11:18:52 GMT-0800 (Pacific Standard Time)","565772","Trustworthy,Untrustworthy","","3024","","","","decision","","<div class='trialDiv'><img src='trustrating_stim/white_mw097.bmp'><br><font class='baseline'><strong>Tyler</strong><p>Choose number of points to send.</font><div class='respPicDiv'><img src='img/responseButtonOffersNo0L.png' class='respPic'></div></div>","1","1","Tyler","6","Shared","0.8,0.35","8","0.8","trustrating_stim/white_mw097.bmp","5","5","1"
"html-keyboard-response","138","260618","0.0-19.0-2.0","5f2f86864fd821374b4367bc","bdp_trlrn","Fri Mar 10 2023 11:18:52 GMT-0800 (Pacific Standard Time)","565772","Trustworthy,Untrustworthy","","null","","","","decisionFB","","<div class='trialDiv'><img src='trustrating_stim/white_mw097.bmp'><br><font class='baseline'><strong>Tyler</strong><p>Choose number of points to send.</font><div class='respPicDiv'><img src='img/responseButtonOffersNo0L1.png' class='respPic'></div></div>","null","1","Tyler","6","Shared","0.8,0.35","8","0.8","trustrating_stim/white_mw097.bmp","5","4","1"
"html-keyboard-response","139","261635","0.0-19.0-3.0","5f2f86864fd821374b4367bc","bdp_trlrn","Fri Mar 10 2023 11:18:52 GMT-0800 (Pacific Standard Time)","565772","Trustworthy,Untrustworthy","","null","","","","feedback","","<div class='trialDiv'><img src='trustrating_stim/white_mw097.bmp'><br><font class='baseline'><strong>Tyler</strong><p>Received: <strong>4</strong></font> &nbsp; &nbsp; &nbsp; &nbsp; &nbsp; &nbsp;<font class='posOutcome'>Shared back: <strong>2</strong></font></font><div class='respPicDiv'><img src='img/responseButtonOffersNo0_wht.png' class='respPic'></div></div>","null","1","Tyler","6","Shared","0.8,0.35","8","0.8","trustrating_stim/white_mw097.bmp","5","6","1"
"html-keyboard-response","140","263325","0.0-19.0-1.1","5f2f86864fd821374b4367bc","bdp_trlrn","Fri Mar 10 2023 11:18:52 GMT-0800 (Pacific Standard Time)","565772","Trustworthy,Untrustworthy","","1689","","","","decision","","<div class='trialDiv'><img src='trustrating_stim/white_00898_960530_fa_edt.bmp'><br><font class='baseline'><strong>Jonathan</strong><p>Choose number of points to send.</font><div class='respPicDiv'><img src='img/responseButtonOffersNo0L.png' class='respPic'></div></div>","1","1","Jonathan","1","Kept","0.35,0.8","14","0.35","trustrating_stim/white_00898_960530_fa_edt.bmp","2.5","11","2"
"html-keyboard-response","141","263585","0.0-19.0-2.1","5f2f86864fd821374b4367bc","bdp_trlrn","Fri Mar 10 2023 11:18:52 GMT-0800 (Pacific Standard Time)","565772","Trustworthy,Untrustworthy","","null","","","","decisionFB","","<div class='trialDiv'><img src='trustrating_stim/white_00898_960530_fa_edt.bmp'><br><font class='baseline'><strong>Jonathan</strong><p>Choose number of points to send.</font><div class='respPicDiv'><img src='img/responseButtonOffersNo0L1.png' class='respPic'></div></div>","null","1","Jonathan","1","Kept","0.35,0.8","14","0.35","trustrating_stim/white_00898_960530_fa_edt.bmp","2.5","10","2"
"html-keyboard-response","142","264598","0.0-19.0-3.1","5f2f86864fd821374b4367bc","bdp_trlrn","Fri Mar 10 2023 11:18:52 GMT-0800 (Pacific Standard Time)","565772","Trustworthy,Untrustworthy","","null","","","","feedback","","<div class='trialDiv'><img src='trustrating_stim/white_00898_960530_fa_edt.bmp'><br><font class='baseline'><strong>Jonathan</strong><p>Received: <strong>4</strong></font> &nbsp; &nbsp; &nbsp; &nbsp; &nbsp; &nbsp;<font class='negOutcome'>Shared back: <strong>0</strong></font></font><div class='respPicDiv'><img src='img/responseButtonOffersNo0_wht.png' class='respPic'></div></div>","null","1","Jonathan","1","Kept","0.35,0.8","14","0.35","trustrating_stim/white_00898_960530_fa_edt.bmp","2.5","10","2"
"html-keyboard-response","143","266316","0.0-19.0-1.2","5f2f86864fd821374b4367bc","bdp_trlrn","Fri Mar 10 2023 11:18:52 GMT-0800 (Pacific Standard Time)","565772","Trustworthy,Untrustworthy","","1718","","","","decision","","<div class='trialDiv'><img src='trustrating_stim/white_00785_941205_fb_edt.bmp'><br><font class='baseline'><strong>Sebastian</strong><p>Choose number of points to send.</font><div class='respPicDiv'><img src='img/responseButtonOffersNo0L.png' class='respPic'></div></div>","1","1","Sebastian","10","Kept","0.2,0.8","11","0.2","trustrating_stim/white_00785_941205_fb_edt.bmp","8","15","3"
"html-keyboard-response","144","266573","0.0-19.0-2.2","5f2f86864fd821374b4367bc","bdp_trlrn","Fri Mar 10 2023 11:18:52 GMT-0800 (Pacific Standard Time)","565772","Trustworthy,Untrustworthy","","null","","","","decisionFB","","<div class='trialDiv'><img src='trustrating_stim/white_00785_941205_fb_edt.bmp'><br><font class='baseline'><strong>Sebastian</strong><p>Choose number of points to send.</font><div class='respPicDiv'><img src='img/responseButtonOffersNo0L1.png' class='respPic'></div></div>","null","1","Sebastian","10","Kept","0.2,0.8","11","0.2","trustrating_stim/white_00785_941205_fb_edt.bmp","8","14","3"
"html-keyboard-response","145","267576","0.0-19.0-3.2","5f2f86864fd821374b4367bc","bdp_trlrn","Fri Mar 10 2023 11:18:52 GMT-0800 (Pacific Standard Time)","565772","Trustworthy,Untrustworthy","","null","","","","feedback","","<div class='trialDiv'><img src='trustrating_stim/white_00785_941205_fb_edt.bmp'><br><font class='baseline'><strong>Sebastian</strong><p>Received: <strong>4</strong></font> &nbsp; &nbsp; &nbsp; &nbsp; &nbsp; &nbsp;<font class='negOutcome'>Shared back: <strong>0</strong></font></font><div class='respPicDiv'><img src='img/responseButtonOffersNo0_wht.png' class='respPic'></div></div>","null","1","Sebastian","10","Kept","0.2,0.8","11","0.2","trustrating_stim/white_00785_941205_fb_edt.bmp","8","14","3"
"html-keyboard-response","146","268973","0.0-19.0-1.3","5f2f86864fd821374b4367bc","bdp_trlrn","Fri Mar 10 2023 11:18:52 GMT-0800 (Pacific Standard Time)","565772","Trustworthy,Untrustworthy","","1395","","","","decision","","<div class='trialDiv'><img src='trustrating_stim/white_mw097.bmp'><br><font class='baseline'><strong>Tyler</strong><p>Choose number of points to send.</font><div class='respPicDiv'><img src='img/responseButtonOffersNo0L.png' class='respPic'></div></div>","1","2","Tyler","6","Shared","0.8,0.35","8","0.8","trustrating_stim/white_mw097.bmp","5","19","4"
"html-keyboard-response","147","269226","0.0-19.0-2.3","5f2f86864fd821374b4367bc","bdp_trlrn","Fri Mar 10 2023 11:18:52 GMT-0800 (Pacific Standard Time)","565772","Trustworthy,Untrustworthy","","null","","","","decisionFB","","<div class='trialDiv'><img src='trustrating_stim/white_mw097.bmp'><br><font class='baseline'><strong>Tyler</strong><p>Choose number of points to send.</font><div class='respPicDiv'><img src='img/responseButtonOffersNo0L1.png' class='respPic'></div></div>","null","2","Tyler","6","Shared","0.8,0.35","8","0.8","trustrating_stim/white_mw097.bmp","5","18","4"
"html-keyboard-response","148","270232","0.0-19.0-3.3","5f2f86864fd821374b4367bc","bdp_trlrn","Fri Mar 10 2023 11:18:52 GMT-0800 (Pacific Standard Time)","565772","Trustworthy,Untrustworthy","","null","","","","feedback","","<div class='trialDiv'><img src='trustrating_stim/white_mw097.bmp'><br><font class='baseline'><strong>Tyler</strong><p>Received: <strong>4</strong></font> &nbsp; &nbsp; &nbsp; &nbsp; &nbsp; &nbsp;<font class='posOutcome'>Shared back: <strong>2</strong></font></font><div class='respPicDiv'><img src='img/responseButtonOffersNo0_wht.png' class='respPic'></div></div>","null","2","Tyler","6","Shared","0.8,0.35","8","0.8","trustrating_stim/white_mw097.bmp","5","20","4"
"html-keyboard-response","149","271436","0.0-19.0-1.4","5f2f86864fd821374b4367bc","bdp_trlrn","Fri Mar 10 2023 11:18:52 GMT-0800 (Pacific Standard Time)","565772","Trustworthy,Untrustworthy","","1203","","","","decision","","<div class='trialDiv'><img src='trustrating_stim/white_00898_960530_fa_edt.bmp'><br><font class='baseline'><strong>Jonathan</strong><p>Choose number of points to send.</font><div class='respPicDiv'><img src='img/responseButtonOffersNo0L.png' class='respPic'></div></div>","1","2","Jonathan","1","Shared","0.35,0.8","14","0.35","trustrating_stim/white_00898_960530_fa_edt.bmp","2.5","25","5"
"html-keyboard-response","150","271693","0.0-19.0-2.4","5f2f86864fd821374b4367bc","bdp_trlrn","Fri Mar 10 2023 11:18:52 GMT-0800 (Pacific Standard Time)","565772","Trustworthy,Untrustworthy","","null","","","","decisionFB","","<div class='trialDiv'><img src='trustrating_stim/white_00898_960530_fa_edt.bmp'><br><font class='baseline'><strong>Jonathan</strong><p>Choose number of points to send.</font><div class='respPicDiv'><img src='img/responseButtonOffersNo0L1.png' class='respPic'></div></div>","null","2","Jonathan","1","Shared","0.35,0.8","14","0.35","trustrating_stim/white_00898_960530_fa_edt.bmp","2.5","24","5"
"html-keyboard-response","151","272698","0.0-19.0-3.4","5f2f86864fd821374b4367bc","bdp_trlrn","Fri Mar 10 2023 11:18:52 GMT-0800 (Pacific Standard Time)","565772","Trustworthy,Untrustworthy","","null","","","","feedback","","<div class='trialDiv'><img src='trustrating_stim/white_00898_960530_fa_edt.bmp'><br><font class='baseline'><strong>Jonathan</strong><p>Received: <strong>4</strong></font> &nbsp; &nbsp; &nbsp; &nbsp; &nbsp; &nbsp;<font class='posOutcome'>Shared back: <strong>2</strong></font></font><div class='respPicDiv'><img src='img/responseButtonOffersNo0_wht.png' class='respPic'></div></div>","null","2","Jonathan","1","Shared","0.35,0.8","14","0.35","trustrating_stim/white_00898_960530_fa_edt.bmp","2.5","26","5"
"html-keyboard-response","152","273516","0.0-19.0-1.5","5f2f86864fd821374b4367bc","bdp_trlrn","Fri Mar 10 2023 11:18:52 GMT-0800 (Pacific Standard Time)","565772","Trustworthy,Untrustworthy","","816","","","","decision","","<div class='trialDiv'><img src='trustrating_stim/white_00785_941205_fb_edt.bmp'><br><font class='baseline'><strong>Sebastian</strong><p>Choose number of points to send.</font><div class='respPicDiv'><img src='img/responseButtonOffersNo0L.png' class='respPic'></div></div>","1","2","Sebastian","10","Kept","0.2,0.8","11","0.2","trustrating_stim/white_00785_941205_fb_edt.bmp","8","31","6"
"html-keyboard-response","153","273780","0.0-19.0-2.5","5f2f86864fd821374b4367bc","bdp_trlrn","Fri Mar 10 2023 11:18:52 GMT-0800 (Pacific Standard Time)","565772","Trustworthy,Untrustworthy","","null","","","","decisionFB","","<div class='trialDiv'><img src='trustrating_stim/white_00785_941205_fb_edt.bmp'><br><font class='baseline'><strong>Sebastian</strong><p>Choose number of points to send.</font><div class='respPicDiv'><img src='img/responseButtonOffersNo0L1.png' class='respPic'></div></div>","null","2","Sebastian","10","Kept","0.2,0.8","11","0.2","trustrating_stim/white_00785_941205_fb_edt.bmp","8","30","6"
"html-keyboard-response","154","274797","0.0-19.0-3.5","5f2f86864fd821374b4367bc","bdp_trlrn","Fri Mar 10 2023 11:18:52 GMT-0800 (Pacific Standard Time)","565772","Trustworthy,Untrustworthy","","null","","","","feedback","","<div class='trialDiv'><img src='trustrating_stim/white_00785_941205_fb_edt.bmp'><br><font class='baseline'><strong>Sebastian</strong><p>Received: <strong>4</strong></font> &nbsp; &nbsp; &nbsp; &nbsp; &nbsp; &nbsp;<font class='negOutcome'>Shared back: <strong>0</strong></font></font><div class='respPicDiv'><img src='img/responseButtonOffersNo0_wht.png' class='respPic'></div></div>","null","2","Sebastian","10","Kept","0.2,0.8","11","0.2","trustrating_stim/white_00785_941205_fb_edt.bmp","8","30","6"
"html-keyboard-response","155","276069","0.0-19.0-1.6","5f2f86864fd821374b4367bc","bdp_trlrn","Fri Mar 10 2023 11:18:52 GMT-0800 (Pacific Standard Time)","565772","Trustworthy,Untrustworthy","","1268","","","","decision","","<div class='trialDiv'><img src='trustrating_stim/white_mw097.bmp'><br><font class='baseline'><strong>Tyler</strong><p>Choose number of points to send.</font><div class='respPicDiv'><img src='img/responseButtonOffersNo0L.png' class='respPic'></div></div>","1","3","Tyler","6","Shared","0.8,0.35","8","0.8","trustrating_stim/white_mw097.bmp","5","35","7"
"html-keyboard-response","156","276332","0.0-19.0-2.6","5f2f86864fd821374b4367bc","bdp_trlrn","Fri Mar 10 2023 11:18:52 GMT-0800 (Pacific Standard Time)","565772","Trustworthy,Untrustworthy","","null","","","","decisionFB","","<div class='trialDiv'><img src='trustrating_stim/white_mw097.bmp'><br><font class='baseline'><strong>Tyler</strong><p>Choose number of points to send.</font><div class='respPicDiv'><img src='img/responseButtonOffersNo0L1.png' class='respPic'></div></div>","null","3","Tyler","6","Shared","0.8,0.35","8","0.8","trustrating_stim/white_mw097.bmp","5","34","7"
"html-keyboard-response","157","277334","0.0-19.0-3.6","5f2f86864fd821374b4367bc","bdp_trlrn","Fri Mar 10 2023 11:18:52 GMT-0800 (Pacific Standard Time)","565772","Trustworthy,Untrustworthy","","null","","","","feedback","","<div class='trialDiv'><img src='trustrating_stim/white_mw097.bmp'><br><font class='baseline'><strong>Tyler</strong><p>Received: <strong>4</strong></font> &nbsp; &nbsp; &nbsp; &nbsp; &nbsp; &nbsp;<font class='posOutcome'>Shared back: <strong>2</strong></font></font><div class='respPicDiv'><img src='img/responseButtonOffersNo0_wht.png' class='respPic'></div></div>","null","3","Tyler","6","Shared","0.8,0.35","8","0.8","trustrating_stim/white_mw097.bmp","5","36","7"
"html-keyboard-response","158","278544","0.0-19.0-1.7","5f2f86864fd821374b4367bc","bdp_trlrn","Fri Mar 10 2023 11:18:52 GMT-0800 (Pacific Standard Time)","565772","Trustworthy,Untrustworthy","","1208","","","","decision","","<div class='trialDiv'><img src='trustrating_stim/white_00898_960530_fa_edt.bmp'><br><font class='baseline'><strong>Jonathan</strong><p>Choose number of points to send.</font><div class='respPicDiv'><img src='img/responseButtonOffersNo0L.png' class='respPic'></div></div>","1","3","Jonathan","1","Shared","0.35,0.8","14","0.35","trustrating_stim/white_00898_960530_fa_edt.bmp","2.5","41","8"
"html-keyboard-response","159","278802","0.0-19.0-2.7","5f2f86864fd821374b4367bc","bdp_trlrn","Fri Mar 10 2023 11:18:52 GMT-0800 (Pacific Standard Time)","565772","Trustworthy,Untrustworthy","","null","","","","decisionFB","","<div class='trialDiv'><img src='trustrating_stim/white_00898_960530_fa_edt.bmp'><br><font class='baseline'><strong>Jonathan</strong><p>Choose number of points to send.</font><div class='respPicDiv'><img src='img/responseButtonOffersNo0L1.png' class='respPic'></div></div>","null","3","Jonathan","1","Shared","0.35,0.8","14","0.35","trustrating_stim/white_00898_960530_fa_edt.bmp","2.5","40","8"
"html-keyboard-response","160","279814","0.0-19.0-3.7","5f2f86864fd821374b4367bc","bdp_trlrn","Fri Mar 10 2023 11:18:52 GMT-0800 (Pacific Standard Time)","565772","Trustworthy,Untrustworthy","","null","","","","feedback","","<div class='trialDiv'><img src='trustrating_stim/white_00898_960530_fa_edt.bmp'><br><font class='baseline'><strong>Jonathan</strong><p>Received: <strong>4</strong></font> &nbsp; &nbsp; &nbsp; &nbsp; &nbsp; &nbsp;<font class='posOutcome'>Shared back: <strong>2</strong></font></font><div class='respPicDiv'><img src='img/responseButtonOffersNo0_wht.png' class='respPic'></div></div>","null","3","Jonathan","1","Shared","0.35,0.8","14","0.35","trustrating_stim/white_00898_960530_fa_edt.bmp","2.5","42","8"
"html-keyboard-response","161","280910","0.0-19.0-1.8","5f2f86864fd821374b4367bc","bdp_trlrn","Fri Mar 10 2023 11:18:52 GMT-0800 (Pacific Standard Time)","565772","Trustworthy,Untrustworthy","","1095","","","","decision","","<div class='trialDiv'><img src='trustrating_stim/white_00785_941205_fb_edt.bmp'><br><font class='baseline'><strong>Sebastian</strong><p>Choose number of points to send.</font><div class='respPicDiv'><img src='img/responseButtonOffersNo0L.png' class='respPic'></div></div>","1","3","Sebastian","10","Kept","0.2,0.8","11","0.2","trustrating_stim/white_00785_941205_fb_edt.bmp","8","47","9"
"html-keyboard-response","162","281169","0.0-19.0-2.8","5f2f86864fd821374b4367bc","bdp_trlrn","Fri Mar 10 2023 11:18:52 GMT-0800 (Pacific Standard Time)","565772","Trustworthy,Untrustworthy","","null","","","","decisionFB","","<div class='trialDiv'><img src='trustrating_stim/white_00785_941205_fb_edt.bmp'><br><font class='baseline'><strong>Sebastian</strong><p>Choose number of points to send.</font><div class='respPicDiv'><img src='img/responseButtonOffersNo0L1.png' class='respPic'></div></div>","null","3","Sebastian","10","Kept","0.2,0.8","11","0.2","trustrating_stim/white_00785_941205_fb_edt.bmp","8","46","9"
"html-keyboard-response","163","282187","0.0-19.0-3.8","5f2f86864fd821374b4367bc","bdp_trlrn","Fri Mar 10 2023 11:18:52 GMT-0800 (Pacific Standard Time)","565772","Trustworthy,Untrustworthy","","null","","","","feedback","","<div class='trialDiv'><img src='trustrating_stim/white_00785_941205_fb_edt.bmp'><br><font class='baseline'><strong>Sebastian</strong><p>Received: <strong>4</strong></font> &nbsp; &nbsp; &nbsp; &nbsp; &nbsp; &nbsp;<font class='negOutcome'>Shared back: <strong>0</strong></font></font><div class='respPicDiv'><img src='img/responseButtonOffersNo0_wht.png' class='respPic'></div></div>","null","3","Sebastian","10","Kept","0.2,0.8","11","0.2","trustrating_stim/white_00785_941205_fb_edt.bmp","8","46","9"
"html-keyboard-response","164","282678","0.0-19.0-1.9","5f2f86864fd821374b4367bc","bdp_trlrn","Fri Mar 10 2023 11:18:52 GMT-0800 (Pacific Standard Time)","565772","Trustworthy,Untrustworthy","","489","","","","decision","","<div class='trialDiv'><img src='trustrating_stim/white_00898_960530_fa_edt.bmp'><br><font class='baseline'><strong>Jonathan</strong><p>Choose number of points to send.</font><div class='respPicDiv'><img src='img/responseButtonOffersNo0L.png' class='respPic'></div></div>","1","4","Jonathan","1","Shared","0.35,0.8","14","0.35","trustrating_stim/white_00898_960530_fa_edt.bmp","2.5","51","10"
"html-keyboard-response","165","282938","0.0-19.0-2.9","5f2f86864fd821374b4367bc","bdp_trlrn","Fri Mar 10 2023 11:18:52 GMT-0800 (Pacific Standard Time)","565772","Trustworthy,Untrustworthy","","null","","","","decisionFB","","<div class='trialDiv'><img src='trustrating_stim/white_00898_960530_fa_edt.bmp'><br><font class='baseline'><strong>Jonathan</strong><p>Choose number of points to send.</font><div class='respPicDiv'><img src='img/responseButtonOffersNo0L1.png' class='respPic'></div></div>","null","4","Jonathan","1","Shared","0.35,0.8","14","0.35","trustrating_stim/white_00898_960530_fa_edt.bmp","2.5","50","10"
"html-keyboard-response","166","283943","0.0-19.0-3.9","5f2f86864fd821374b4367bc","bdp_trlrn","Fri Mar 10 2023 11:18:52 GMT-0800 (Pacific Standard Time)","565772","Trustworthy,Untrustworthy","","null","","","","feedback","","<div class='trialDiv'><img src='trustrating_stim/white_00898_960530_fa_edt.bmp'><br><font class='baseline'><strong>Jonathan</strong><p>Received: <strong>4</strong></font> &nbsp; &nbsp; &nbsp; &nbsp; &nbsp; &nbsp;<font class='posOutcome'>Shared back: <strong>2</strong></font></font><div class='respPicDiv'><img src='img/responseButtonOffersNo0_wht.png' class='respPic'></div></div>","null","4","Jonathan","1","Shared","0.35,0.8","14","0.35","trustrating_stim/white_00898_960530_fa_edt.bmp","2.5","52","10"
"html-keyboard-response","167","284459","0.0-19.0-1.10","5f2f86864fd821374b4367bc","bdp_trlrn","Fri Mar 10 2023 11:18:52 GMT-0800 (Pacific Standard Time)","565772","Trustworthy,Untrustworthy","","515","","","","decision","","<div class='trialDiv'><img src='trustrating_stim/white_00785_941205_fb_edt.bmp'><br><font class='baseline'><strong>Sebastian</strong><p>Choose number of points to send.</font><div class='respPicDiv'><img src='img/responseButtonOffersNo0L.png' class='respPic'></div></div>","1","4","Sebastian","10","Kept","0.2,0.8","11","0.2","trustrating_stim/white_00785_941205_fb_edt.bmp","8","57","11"
"html-keyboard-response","168","284724","0.0-19.0-2.10","5f2f86864fd821374b4367bc","bdp_trlrn","Fri Mar 10 2023 11:18:52 GMT-0800 (Pacific Standard Time)","565772","Trustworthy,Untrustworthy","","null","","","","decisionFB","","<div class='trialDiv'><img src='trustrating_stim/white_00785_941205_fb_edt.bmp'><br><font class='baseline'><strong>Sebastian</strong><p>Choose number of points to send.</font><div class='respPicDiv'><img src='img/responseButtonOffersNo0L1.png' class='respPic'></div></div>","null","4","Sebastian","10","Kept","0.2,0.8","11","0.2","trustrating_stim/white_00785_941205_fb_edt.bmp","8","56","11"
"html-keyboard-response","169","285733","0.0-19.0-3.10","5f2f86864fd821374b4367bc","bdp_trlrn","Fri Mar 10 2023 11:18:52 GMT-0800 (Pacific Standard Time)","565772","Trustworthy,Untrustworthy","","null","","","","feedback","","<div class='trialDiv'><img src='trustrating_stim/white_00785_941205_fb_edt.bmp'><br><font class='baseline'><strong>Sebastian</strong><p>Received: <strong>4</strong></font> &nbsp; &nbsp; &nbsp; &nbsp; &nbsp; &nbsp;<font class='negOutcome'>Shared back: <strong>0</strong></font></font><div class='respPicDiv'><img src='img/responseButtonOffersNo0_wht.png' class='respPic'></div></div>","null","4","Sebastian","10","Kept","0.2,0.8","11","0.2","trustrating_stim/white_00785_941205_fb_edt.bmp","8","56","11"
"html-keyboard-response","170","286301","0.0-19.0-1.11","5f2f86864fd821374b4367bc","bdp_trlrn","Fri Mar 10 2023 11:18:52 GMT-0800 (Pacific Standard Time)","565772","Trustworthy,Untrustworthy","","567","","","","decision","","<div class='trialDiv'><img src='trustrating_stim/white_mw097.bmp'><br><font class='baseline'><strong>Tyler</strong><p>Choose number of points to send.</font><div class='respPicDiv'><img src='img/responseButtonOffersNo0L.png' class='respPic'></div></div>","1","4","Tyler","6","Shared","0.8,0.35","8","0.8","trustrating_stim/white_mw097.bmp","5","61","12"
"html-keyboard-response","171","286560","0.0-19.0-2.11","5f2f86864fd821374b4367bc","bdp_trlrn","Fri Mar 10 2023 11:18:52 GMT-0800 (Pacific Standard Time)","565772","Trustworthy,Untrustworthy","","null","","","","decisionFB","","<div class='trialDiv'><img src='trustrating_stim/white_mw097.bmp'><br><font class='baseline'><strong>Tyler</strong><p>Choose number of points to send.</font><div class='respPicDiv'><img src='img/responseButtonOffersNo0L1.png' class='respPic'></div></div>","null","4","Tyler","6","Shared","0.8,0.35","8","0.8","trustrating_stim/white_mw097.bmp","5","60","12"
"html-keyboard-response","172","287563","0.0-19.0-3.11","5f2f86864fd821374b4367bc","bdp_trlrn","Fri Mar 10 2023 11:18:52 GMT-0800 (Pacific Standard Time)","565772","Trustworthy,Untrustworthy","","null","","","","feedback","","<div class='trialDiv'><img src='trustrating_stim/white_mw097.bmp'><br><font class='baseline'><strong>Tyler</strong><p>Received: <strong>4</strong></font> &nbsp; &nbsp; &nbsp; &nbsp; &nbsp; &nbsp;<font class='posOutcome'>Shared back: <strong>2</strong></font></font><div class='respPicDiv'><img src='img/responseButtonOffersNo0_wht.png' class='respPic'></div></div>","null","4","Tyler","6","Shared","0.8,0.35","8","0.8","trustrating_stim/white_mw097.bmp","5","62","12"
"html-keyboard-response","173","287957","0.0-19.0-1.12","5f2f86864fd821374b4367bc","bdp_trlrn","Fri Mar 10 2023 11:18:52 GMT-0800 (Pacific Standard Time)","565772","Trustworthy,Untrustworthy","","391","","","","decision","","<div class='trialDiv'><img src='trustrating_stim/white_00898_960530_fa_edt.bmp'><br><font class='baseline'><strong>Jonathan</strong><p>Choose number of points to send.</font><div class='respPicDiv'><img src='img/responseButtonOffersNo0L.png' class='respPic'></div></div>","1","5","Jonathan","1","Kept","0.35,0.8","14","0.35","trustrating_stim/white_00898_960530_fa_edt.bmp","2.5","67","13"
"html-keyboard-response","174","288210","0.0-19.0-2.12","5f2f86864fd821374b4367bc","bdp_trlrn","Fri Mar 10 2023 11:18:52 GMT-0800 (Pacific Standard Time)","565772","Trustworthy,Untrustworthy","","null","","","","decisionFB","","<div class='trialDiv'><img src='trustrating_stim/white_00898_960530_fa_edt.bmp'><br><font class='baseline'><strong>Jonathan</strong><p>Choose number of points to send.</font><div class='respPicDiv'><img src='img/responseButtonOffersNo0L1.png' class='respPic'></div></div>","null","5","Jonathan","1","Kept","0.35,0.8","14","0.35","trustrating_stim/white_00898_960530_fa_edt.bmp","2.5","66","13"
"html-keyboard-response","175","289216","0.0-19.0-3.12","5f2f86864fd821374b4367bc","bdp_trlrn","Fri Mar 10 2023 11:18:52 GMT-0800 (Pacific Standard Time)","565772","Trustworthy,Untrustworthy","","null","","","","feedback","","<div class='trialDiv'><img src='trustrating_stim/white_00898_960530_fa_edt.bmp'><br><font class='baseline'><strong>Jonathan</strong><p>Received: <strong>4</strong></font> &nbsp; &nbsp; &nbsp; &nbsp; &nbsp; &nbsp;<font class='negOutcome'>Shared back: <strong>0</strong></font></font><div class='respPicDiv'><img src='img/responseButtonOffersNo0_wht.png' class='respPic'></div></div>","null","5","Jonathan","1","Kept","0.35,0.8","14","0.35","trustrating_stim/white_00898_960530_fa_edt.bmp","2.5","66","13"
"html-keyboard-response","176","289485","0.0-19.0-1.13","5f2f86864fd821374b4367bc","bdp_trlrn","Fri Mar 10 2023 11:18:52 GMT-0800 (Pacific Standard Time)","565772","Trustworthy,Untrustworthy","","268","","","","decision","","<div class='trialDiv'><img src='trustrating_stim/white_00785_941205_fb_edt.bmp'><br><font class='baseline'><strong>Sebastian</strong><p>Choose number of points to send.</font><div class='respPicDiv'><img src='img/responseButtonOffersNo0L.png' class='respPic'></div></div>","1","5","Sebastian","10","Shared","0.2,0.8","11","0.2","trustrating_stim/white_00785_941205_fb_edt.bmp","8","71","14"
"html-keyboard-response","177","289745","0.0-19.0-2.13","5f2f86864fd821374b4367bc","bdp_trlrn","Fri Mar 10 2023 11:18:52 GMT-0800 (Pacific Standard Time)","565772","Trustworthy,Untrustworthy","","null","","","","decisionFB","","<div class='trialDiv'><img src='trustrating_stim/white_00785_941205_fb_edt.bmp'><br><font class='baseline'><strong>Sebastian</strong><p>Choose number of points to send.</font><div class='respPicDiv'><img src='img/responseButtonOffersNo0L1.png' class='respPic'></div></div>","null","5","Sebastian","10","Shared","0.2,0.8","11","0.2","trustrating_stim/white_00785_941205_fb_edt.bmp","8","70","14"
"html-keyboard-response","178","290762","0.0-19.0-3.13","5f2f86864fd821374b4367bc","bdp_trlrn","Fri Mar 10 2023 11:18:52 GMT-0800 (Pacific Standard Time)","565772","Trustworthy,Untrustworthy","","null","","","","feedback","","<div class='trialDiv'><img src='trustrating_stim/white_00785_941205_fb_edt.bmp'><br><font class='baseline'><strong>Sebastian</strong><p>Received: <strong>4</strong></font> &nbsp; &nbsp; &nbsp; &nbsp; &nbsp; &nbsp;<font class='posOutcome'>Shared back: <strong>2</strong></font></font><div class='respPicDiv'><img src='img/responseButtonOffersNo0_wht.png' class='respPic'></div></div>","null","5","Sebastian","10","Shared","0.2,0.8","11","0.2","trustrating_stim/white_00785_941205_fb_edt.bmp","8","72","14"
"html-keyboard-response","179","291081","0.0-19.0-1.14","5f2f86864fd821374b4367bc","bdp_trlrn","Fri Mar 10 2023 11:18:52 GMT-0800 (Pacific Standard Time)","565772","Trustworthy,Untrustworthy","","317","","","","decision","","<div class='trialDiv'><img src='trustrating_stim/white_mw097.bmp'><br><font class='baseline'><strong>Tyler</strong><p>Choose number of points to send.</font><div class='respPicDiv'><img src='img/responseButtonOffersNo0L.png' class='respPic'></div></div>","1","5","Tyler","6","Shared","0.8,0.35","8","0.8","trustrating_stim/white_mw097.bmp","5","77","15"
"html-keyboard-response","180","291336","0.0-19.0-2.14","5f2f86864fd821374b4367bc","bdp_trlrn","Fri Mar 10 2023 11:18:52 GMT-0800 (Pacific Standard Time)","565772","Trustworthy,Untrustworthy","","null","","","","decisionFB","","<div class='trialDiv'><img src='trustrating_stim/white_mw097.bmp'><br><font class='baseline'><strong>Tyler</strong><p>Choose number of points to send.</font><div class='respPicDiv'><img src='img/responseButtonOffersNo0L1.png' class='respPic'></div></div>","null","5","Tyler","6","Shared","0.8,0.35","8","0.8","trustrating_stim/white_mw097.bmp","5","76","15"
"html-keyboard-response","181","292348","0.0-19.0-3.14","5f2f86864fd821374b4367bc","bdp_trlrn","Fri Mar 10 2023 11:18:52 GMT-0800 (Pacific Standard Time)","565772","Trustworthy,Untrustworthy","","null","","","","feedback","","<div class='trialDiv'><img src='trustrating_stim/white_mw097.bmp'><br><font class='baseline'><strong>Tyler</strong><p>Received: <strong>4</strong></font> &nbsp; &nbsp; &nbsp; &nbsp; &nbsp; &nbsp;<font class='posOutcome'>Shared back: <strong>2</strong></font></font><div class='respPicDiv'><img src='img/responseButtonOffersNo0_wht.png' class='respPic'></div></div>","null","5","Tyler","6","Shared","0.8,0.35","8","0.8","trustrating_stim/white_mw097.bmp","5","78","15"
"html-keyboard-response","182","293021","0.0-19.0-1.15","5f2f86864fd821374b4367bc","bdp_trlrn","Fri Mar 10 2023 11:18:52 GMT-0800 (Pacific Standard Time)","565772","Trustworthy,Untrustworthy","","671","","","","decision","","<div class='trialDiv'><img src='trustrating_stim/white_00785_941205_fb_edt.bmp'><br><font class='baseline'><strong>Sebastian</strong><p>Choose number of points to send.</font><div class='respPicDiv'><img src='img/responseButtonOffersNo0L.png' class='respPic'></div></div>","1","6","Sebastian","10","Kept","0.2,0.8","11","0.2","trustrating_stim/white_00785_941205_fb_edt.bmp","8","83","16"
"html-keyboard-response","183","293281","0.0-19.0-2.15","5f2f86864fd821374b4367bc","bdp_trlrn","Fri Mar 10 2023 11:18:52 GMT-0800 (Pacific Standard Time)","565772","Trustworthy,Untrustworthy","","null","","","","decisionFB","","<div class='trialDiv'><img src='trustrating_stim/white_00785_941205_fb_edt.bmp'><br><font class='baseline'><strong>Sebastian</strong><p>Choose number of points to send.</font><div class='respPicDiv'><img src='img/responseButtonOffersNo0L1.png' class='respPic'></div></div>","null","6","Sebastian","10","Kept","0.2,0.8","11","0.2","trustrating_stim/white_00785_941205_fb_edt.bmp","8","82","16"
"html-keyboard-response","184","294285","0.0-19.0-3.15","5f2f86864fd821374b4367bc","bdp_trlrn","Fri Mar 10 2023 11:18:52 GMT-0800 (Pacific Standard Time)","565772","Trustworthy,Untrustworthy","","null","","","","feedback","","<div class='trialDiv'><img src='trustrating_stim/white_00785_941205_fb_edt.bmp'><br><font class='baseline'><strong>Sebastian</strong><p>Received: <strong>4</strong></font> &nbsp; &nbsp; &nbsp; &nbsp; &nbsp; &nbsp;<font class='negOutcome'>Shared back: <strong>0</strong></font></font><div class='respPicDiv'><img src='img/responseButtonOffersNo0_wht.png' class='respPic'></div></div>","null","6","Sebastian","10","Kept","0.2,0.8","11","0.2","trustrating_stim/white_00785_941205_fb_edt.bmp","8","82","16"
"html-keyboard-response","185","294587","0.0-19.0-1.16","5f2f86864fd821374b4367bc","bdp_trlrn","Fri Mar 10 2023 11:18:52 GMT-0800 (Pacific Standard Time)","565772","Trustworthy,Untrustworthy","","301","","","","decision","","<div class='trialDiv'><img src='trustrating_stim/white_00898_960530_fa_edt.bmp'><br><font class='baseline'><strong>Jonathan</strong><p>Choose number of points to send.</font><div class='respPicDiv'><img src='img/responseButtonOffersNo0L.png' class='respPic'></div></div>","1","6","Jonathan","1","Kept","0.35,0.8","14","0.35","trustrating_stim/white_00898_960530_fa_edt.bmp","2.5","87","17"
"html-keyboard-response","186","294850","0.0-19.0-2.16","5f2f86864fd821374b4367bc","bdp_trlrn","Fri Mar 10 2023 11:18:52 GMT-0800 (Pacific Standard Time)","565772","Trustworthy,Untrustworthy","","null","","","","decisionFB","","<div class='trialDiv'><img src='trustrating_stim/white_00898_960530_fa_edt.bmp'><br><font class='baseline'><strong>Jonathan</strong><p>Choose number of points to send.</font><div class='respPicDiv'><img src='img/responseButtonOffersNo0L1.png' class='respPic'></div></div>","null","6","Jonathan","1","Kept","0.35,0.8","14","0.35","trustrating_stim/white_00898_960530_fa_edt.bmp","2.5","86","17"
"html-keyboard-response","187","295854","0.0-19.0-3.16","5f2f86864fd821374b4367bc","bdp_trlrn","Fri Mar 10 2023 11:18:52 GMT-0800 (Pacific Standard Time)","565772","Trustworthy,Untrustworthy","","null","","","","feedback","","<div class='trialDiv'><img src='trustrating_stim/white_00898_960530_fa_edt.bmp'><br><font class='baseline'><strong>Jonathan</strong><p>Received: <strong>4</strong></font> &nbsp; &nbsp; &nbsp; &nbsp; &nbsp; &nbsp;<font class='negOutcome'>Shared back: <strong>0</strong></font></font><div class='respPicDiv'><img src='img/responseButtonOffersNo0_wht.png' class='respPic'></div></div>","null","6","Jonathan","1","Kept","0.35,0.8","14","0.35","trustrating_stim/white_00898_960530_fa_edt.bmp","2.5","86","17"
"html-keyboard-response","188","296184","0.0-19.0-1.17","5f2f86864fd821374b4367bc","bdp_trlrn","Fri Mar 10 2023 11:18:52 GMT-0800 (Pacific Standard Time)","565772","Trustworthy,Untrustworthy","","329","","","","decision","","<div class='trialDiv'><img src='trustrating_stim/white_mw097.bmp'><br><font class='baseline'><strong>Tyler</strong><p>Choose number of points to send.</font><div class='respPicDiv'><img src='img/responseButtonOffersNo0L.png' class='respPic'></div></div>","1","6","Tyler","6","Shared","0.8,0.35","8","0.8","trustrating_stim/white_mw097.bmp","5","91","18"
"html-keyboard-response","189","296436","0.0-19.0-2.17","5f2f86864fd821374b4367bc","bdp_trlrn","Fri Mar 10 2023 11:18:52 GMT-0800 (Pacific Standard Time)","565772","Trustworthy,Untrustworthy","","null","","","","decisionFB","","<div class='trialDiv'><img src='trustrating_stim/white_mw097.bmp'><br><font class='baseline'><strong>Tyler</strong><p>Choose number of points to send.</font><div class='respPicDiv'><img src='img/responseButtonOffersNo0L1.png' class='respPic'></div></div>","null","6","Tyler","6","Shared","0.8,0.35","8","0.8","trustrating_stim/white_mw097.bmp","5","90","18"
"html-keyboard-response","190","297438","0.0-19.0-3.17","5f2f86864fd821374b4367bc","bdp_trlrn","Fri Mar 10 2023 11:18:52 GMT-0800 (Pacific Standard Time)","565772","Trustworthy,Untrustworthy","","null","","","","feedback","","<div class='trialDiv'><img src='trustrating_stim/white_mw097.bmp'><br><font class='baseline'><strong>Tyler</strong><p>Received: <strong>4</strong></font> &nbsp; &nbsp; &nbsp; &nbsp; &nbsp; &nbsp;<font class='posOutcome'>Shared back: <strong>2</strong></font></font><div class='respPicDiv'><img src='img/responseButtonOffersNo0_wht.png' class='respPic'></div></div>","null","6","Tyler","6","Shared","0.8,0.35","8","0.8","trustrating_stim/white_mw097.bmp","5","92","18"
"html-keyboard-response","191","297780","0.0-19.0-1.18","5f2f86864fd821374b4367bc","bdp_trlrn","Fri Mar 10 2023 11:18:52 GMT-0800 (Pacific Standard Time)","565772","Trustworthy,Untrustworthy","","341","","","","decision","","<div class='trialDiv'><img src='trustrating_stim/white_00785_941205_fb_edt.bmp'><br><font class='baseline'><strong>Sebastian</strong><p>Choose number of points to send.</font><div class='respPicDiv'><img src='img/responseButtonOffersNo0L.png' class='respPic'></div></div>","1","7","Sebastian","10","Kept","0.2,0.8","11","0.2","trustrating_stim/white_00785_941205_fb_edt.bmp","8","97","19"
"html-keyboard-response","192","298036","0.0-19.0-2.18","5f2f86864fd821374b4367bc","bdp_trlrn","Fri Mar 10 2023 11:18:52 GMT-0800 (Pacific Standard Time)","565772","Trustworthy,Untrustworthy","","null","","","","decisionFB","","<div class='trialDiv'><img src='trustrating_stim/white_00785_941205_fb_edt.bmp'><br><font class='baseline'><strong>Sebastian</strong><p>Choose number of points to send.</font><div class='respPicDiv'><img src='img/responseButtonOffersNo0L1.png' class='respPic'></div></div>","null","7","Sebastian","10","Kept","0.2,0.8","11","0.2","trustrating_stim/white_00785_941205_fb_edt.bmp","8","96","19"
"html-keyboard-response","193","299039","0.0-19.0-3.18","5f2f86864fd821374b4367bc","bdp_trlrn","Fri Mar 10 2023 11:18:52 GMT-0800 (Pacific Standard Time)","565772","Trustworthy,Untrustworthy","","null","","","","feedback","","<div class='trialDiv'><img src='trustrating_stim/white_00785_941205_fb_edt.bmp'><br><font class='baseline'><strong>Sebastian</strong><p>Received: <strong>4</strong></font> &nbsp; &nbsp; &nbsp; &nbsp; &nbsp; &nbsp;<font class='negOutcome'>Shared back: <strong>0</strong></font></font><div class='respPicDiv'><img src='img/responseButtonOffersNo0_wht.png' class='respPic'></div></div>","null","7","Sebastian","10","Kept","0.2,0.8","11","0.2","trustrating_stim/white_00785_941205_fb_edt.bmp","8","96","19"
"html-keyboard-response","194","299284","0.0-19.0-1.19","5f2f86864fd821374b4367bc","bdp_trlrn","Fri Mar 10 2023 11:18:52 GMT-0800 (Pacific Standard Time)","565772","Trustworthy,Untrustworthy","","244","","","","decision","","<div class='trialDiv'><img src='trustrating_stim/white_mw097.bmp'><br><font class='baseline'><strong>Tyler</strong><p>Choose number of points to send.</font><div class='respPicDiv'><img src='img/responseButtonOffersNo0L.png' class='respPic'></div></div>","1","7","Tyler","6","Shared","0.8,0.35","8","0.8","trustrating_stim/white_mw097.bmp","5","101","20"
"html-keyboard-response","195","299540","0.0-19.0-2.19","5f2f86864fd821374b4367bc","bdp_trlrn","Fri Mar 10 2023 11:18:52 GMT-0800 (Pacific Standard Time)","565772","Trustworthy,Untrustworthy","","null","","","","decisionFB","","<div class='trialDiv'><img src='trustrating_stim/white_mw097.bmp'><br><font class='baseline'><strong>Tyler</strong><p>Choose number of points to send.</font><div class='respPicDiv'><img src='img/responseButtonOffersNo0L1.png' class='respPic'></div></div>","null","7","Tyler","6","Shared","0.8,0.35","8","0.8","trustrating_stim/white_mw097.bmp","5","100","20"
"html-keyboard-response","196","300558","0.0-19.0-3.19","5f2f86864fd821374b4367bc","bdp_trlrn","Fri Mar 10 2023 11:18:52 GMT-0800 (Pacific Standard Time)","565772","Trustworthy,Untrustworthy","","null","","","","feedback","","<div class='trialDiv'><img src='trustrating_stim/white_mw097.bmp'><br><font class='baseline'><strong>Tyler</strong><p>Received: <strong>4</strong></font> &nbsp; &nbsp; &nbsp; &nbsp; &nbsp; &nbsp;<font class='posOutcome'>Shared back: <strong>2</strong></font></font><div class='respPicDiv'><img src='img/responseButtonOffersNo0_wht.png' class='respPic'></div></div>","null","7","Tyler","6","Shared","0.8,0.35","8","0.8","trustrating_stim/white_mw097.bmp","5","102","20"
"html-keyboard-response","197","300892","0.0-19.0-1.20","5f2f86864fd821374b4367bc","bdp_trlrn","Fri Mar 10 2023 11:18:52 GMT-0800 (Pacific Standard Time)","565772","Trustworthy,Untrustworthy","","333","","","","decision","","<div class='trialDiv'><img src='trustrating_stim/white_00898_960530_fa_edt.bmp'><br><font class='baseline'><strong>Jonathan</strong><p>Choose number of points to send.</font><div class='respPicDiv'><img src='img/responseButtonOffersNo0L.png' class='respPic'></div></div>","1","7","Jonathan","1","Kept","0.35,0.8","14","0.35","trustrating_stim/white_00898_960530_fa_edt.bmp","2.5","107","21"
"html-keyboard-response","198","301157","0.0-19.0-2.20","5f2f86864fd821374b4367bc","bdp_trlrn","Fri Mar 10 2023 11:18:52 GMT-0800 (Pacific Standard Time)","565772","Trustworthy,Untrustworthy","","null","","","","decisionFB","","<div class='trialDiv'><img src='trustrating_stim/white_00898_960530_fa_edt.bmp'><br><font class='baseline'><strong>Jonathan</strong><p>Choose number of points to send.</font><div class='respPicDiv'><img src='img/responseButtonOffersNo0L1.png' class='respPic'></div></div>","null","7","Jonathan","1","Kept","0.35,0.8","14","0.35","trustrating_stim/white_00898_960530_fa_edt.bmp","2.5","106","21"
"html-keyboard-response","199","302161","0.0-19.0-3.20","5f2f86864fd821374b4367bc","bdp_trlrn","Fri Mar 10 2023 11:18:52 GMT-0800 (Pacific Standard Time)","565772","Trustworthy,Untrustworthy","","null","","","","feedback","","<div class='trialDiv'><img src='trustrating_stim/white_00898_960530_fa_edt.bmp'><br><font class='baseline'><strong>Jonathan</strong><p>Received: <strong>4</strong></font> &nbsp; &nbsp; &nbsp; &nbsp; &nbsp; &nbsp;<font class='negOutcome'>Shared back: <strong>0</strong></font></font><div class='respPicDiv'><img src='img/responseButtonOffersNo0_wht.png' class='respPic'></div></div>","null","7","Jonathan","1","Kept","0.35,0.8","14","0.35","trustrating_stim/white_00898_960530_fa_edt.bmp","2.5","106","21"
"html-keyboard-response","200","302439","0.0-19.0-1.21","5f2f86864fd821374b4367bc","bdp_trlrn","Fri Mar 10 2023 11:18:52 GMT-0800 (Pacific Standard Time)","565772","Trustworthy,Untrustworthy","","277","","","","decision","","<div class='trialDiv'><img src='trustrating_stim/white_00785_941205_fb_edt.bmp'><br><font class='baseline'><strong>Sebastian</strong><p>Choose number of points to send.</font><div class='respPicDiv'><img src='img/responseButtonOffersNo0L.png' class='respPic'></div></div>","1","8","Sebastian","10","Shared","0.2,0.8","11","0.2","trustrating_stim/white_00785_941205_fb_edt.bmp","8","111","22"
"html-keyboard-response","201","302692","0.0-19.0-2.21","5f2f86864fd821374b4367bc","bdp_trlrn","Fri Mar 10 2023 11:18:52 GMT-0800 (Pacific Standard Time)","565772","Trustworthy,Untrustworthy","","null","","","","decisionFB","","<div class='trialDiv'><img src='trustrating_stim/white_00785_941205_fb_edt.bmp'><br><font class='baseline'><strong>Sebastian</strong><p>Choose number of points to send.</font><div class='respPicDiv'><img src='img/responseButtonOffersNo0L1.png' class='respPic'></div></div>","null","8","Sebastian","10","Shared","0.2,0.8","11","0.2","trustrating_stim/white_00785_941205_fb_edt.bmp","8","110","22"
"html-keyboard-response","202","303696","0.0-19.0-3.21","5f2f86864fd821374b4367bc","bdp_trlrn","Fri Mar 10 2023 11:18:52 GMT-0800 (Pacific Standard Time)","565772","Trustworthy,Untrustworthy","","null","","","","feedback","","<div class='trialDiv'><img src='trustrating_stim/white_00785_941205_fb_edt.bmp'><br><font class='baseline'><strong>Sebastian</strong><p>Received: <strong>4</strong></font> &nbsp; &nbsp; &nbsp; &nbsp; &nbsp; &nbsp;<font class='posOutcome'>Shared back: <strong>2</strong></font></font><div class='respPicDiv'><img src='img/responseButtonOffersNo0_wht.png' class='respPic'></div></div>","null","8","Sebastian","10","Shared","0.2,0.8","11","0.2","trustrating_stim/white_00785_941205_fb_edt.bmp","8","112","22"
"html-keyboard-response","203","304100","0.0-19.0-1.22","5f2f86864fd821374b4367bc","bdp_trlrn","Fri Mar 10 2023 11:18:52 GMT-0800 (Pacific Standard Time)","565772","Trustworthy,Untrustworthy","","402","","","","decision","","<div class='trialDiv'><img src='trustrating_stim/white_mw097.bmp'><br><font class='baseline'><strong>Tyler</strong><p>Choose number of points to send.</font><div class='respPicDiv'><img src='img/responseButtonOffersNo0L.png' class='respPic'></div></div>","1","8","Tyler","6","Shared","0.8,0.35","8","0.8","trustrating_stim/white_mw097.bmp","5","117","23"
"html-keyboard-response","204","304359","0.0-19.0-2.22","5f2f86864fd821374b4367bc","bdp_trlrn","Fri Mar 10 2023 11:18:52 GMT-0800 (Pacific Standard Time)","565772","Trustworthy,Untrustworthy","","null","","","","decisionFB","","<div class='trialDiv'><img src='trustrating_stim/white_mw097.bmp'><br><font class='baseline'><strong>Tyler</strong><p>Choose number of points to send.</font><div class='respPicDiv'><img src='img/responseButtonOffersNo0L1.png' class='respPic'></div></div>","null","8","Tyler","6","Shared","0.8,0.35","8","0.8","trustrating_stim/white_mw097.bmp","5","116","23"
"html-keyboard-response","205","305363","0.0-19.0-3.22","5f2f86864fd821374b4367bc","bdp_trlrn","Fri Mar 10 2023 11:18:52 GMT-0800 (Pacific Standard Time)","565772","Trustworthy,Untrustworthy","","null","","","","feedback","","<div class='trialDiv'><img src='trustrating_stim/white_mw097.bmp'><br><font class='baseline'><strong>Tyler</strong><p>Received: <strong>4</strong></font> &nbsp; &nbsp; &nbsp; &nbsp; &nbsp; &nbsp;<font class='posOutcome'>Shared back: <strong>2</strong></font></font><div class='respPicDiv'><img src='img/responseButtonOffersNo0_wht.png' class='respPic'></div></div>","null","8","Tyler","6","Shared","0.8,0.35","8","0.8","trustrating_stim/white_mw097.bmp","5","118","23"
"html-keyboard-response","206","305980","0.0-19.0-1.23","5f2f86864fd821374b4367bc","bdp_trlrn","Fri Mar 10 2023 11:18:52 GMT-0800 (Pacific Standard Time)","565772","Trustworthy,Untrustworthy","","615","","","","decision","","<div class='trialDiv'><img src='trustrating_stim/white_00898_960530_fa_edt.bmp'><br><font class='baseline'><strong>Jonathan</strong><p>Choose number of points to send.</font><div class='respPicDiv'><img src='img/responseButtonOffersNo0L.png' class='respPic'></div></div>","1","8","Jonathan","1","Shared","0.35,0.8","14","0.35","trustrating_stim/white_00898_960530_fa_edt.bmp","2.5","123","24"
"html-keyboard-response","207","306231","0.0-19.0-2.23","5f2f86864fd821374b4367bc","bdp_trlrn","Fri Mar 10 2023 11:18:52 GMT-0800 (Pacific Standard Time)","565772","Trustworthy,Untrustworthy","","null","","","","decisionFB","","<div class='trialDiv'><img src='trustrating_stim/white_00898_960530_fa_edt.bmp'><br><font class='baseline'><strong>Jonathan</strong><p>Choose number of points to send.</font><div class='respPicDiv'><img src='img/responseButtonOffersNo0L1.png' class='respPic'></div></div>","null","8","Jonathan","1","Shared","0.35,0.8","14","0.35","trustrating_stim/white_00898_960530_fa_edt.bmp","2.5","122","24"
"html-keyboard-response","208","307254","0.0-19.0-3.23","5f2f86864fd821374b4367bc","bdp_trlrn","Fri Mar 10 2023 11:18:52 GMT-0800 (Pacific Standard Time)","565772","Trustworthy,Untrustworthy","","null","","","","feedback","","<div class='trialDiv'><img src='trustrating_stim/white_00898_960530_fa_edt.bmp'><br><font class='baseline'><strong>Jonathan</strong><p>Received: <strong>4</strong></font> &nbsp; &nbsp; &nbsp; &nbsp; &nbsp; &nbsp;<font class='posOutcome'>Shared back: <strong>2</strong></font></font><div class='respPicDiv'><img src='img/responseButtonOffersNo0_wht.png' class='respPic'></div></div>","null","8","Jonathan","1","Shared","0.35,0.8","14","0.35","trustrating_stim/white_00898_960530_fa_edt.bmp","2.5","124","24"
"html-keyboard-response","209","307501","0.0-19.0-1.24","5f2f86864fd821374b4367bc","bdp_trlrn","Fri Mar 10 2023 11:18:52 GMT-0800 (Pacific Standard Time)","565772","Trustworthy,Untrustworthy","","246","","","","decision","","<div class='trialDiv'><img src='trustrating_stim/white_00785_941205_fb_edt.bmp'><br><font class='baseline'><strong>Sebastian</strong><p>Choose number of points to send.</font><div class='respPicDiv'><img src='img/responseButtonOffersNo0L.png' class='respPic'></div></div>","1","9","Sebastian","10","Kept","0.2,0.8","11","0.2","trustrating_stim/white_00785_941205_fb_edt.bmp","8","129","25"
"html-keyboard-response","210","307757","0.0-19.0-2.24","5f2f86864fd821374b4367bc","bdp_trlrn","Fri Mar 10 2023 11:18:52 GMT-0800 (Pacific Standard Time)","565772","Trustworthy,Untrustworthy","","null","","","","decisionFB","","<div class='trialDiv'><img src='trustrating_stim/white_00785_941205_fb_edt.bmp'><br><font class='baseline'><strong>Sebastian</strong><p>Choose number of points to send.</font><div class='respPicDiv'><img src='img/responseButtonOffersNo0L1.png' class='respPic'></div></div>","null","9","Sebastian","10","Kept","0.2,0.8","11","0.2","trustrating_stim/white_00785_941205_fb_edt.bmp","8","128","25"
"html-keyboard-response","211","308773","0.0-19.0-3.24","5f2f86864fd821374b4367bc","bdp_trlrn","Fri Mar 10 2023 11:18:52 GMT-0800 (Pacific Standard Time)","565772","Trustworthy,Untrustworthy","","null","","","","feedback","","<div class='trialDiv'><img src='trustrating_stim/white_00785_941205_fb_edt.bmp'><br><font class='baseline'><strong>Sebastian</strong><p>Received: <strong>4</strong></font> &nbsp; &nbsp; &nbsp; &nbsp; &nbsp; &nbsp;<font class='negOutcome'>Shared back: <strong>0</strong></font></font><div class='respPicDiv'><img src='img/responseButtonOffersNo0_wht.png' class='respPic'></div></div>","null","9","Sebastian","10","Kept","0.2,0.8","11","0.2","trustrating_stim/white_00785_941205_fb_edt.bmp","8","128","25"
"html-keyboard-response","212","309022","0.0-19.0-1.25","5f2f86864fd821374b4367bc","bdp_trlrn","Fri Mar 10 2023 11:18:52 GMT-0800 (Pacific Standard Time)","565772","Trustworthy,Untrustworthy","","247","","","","decision","","<div class='trialDiv'><img src='trustrating_stim/white_00898_960530_fa_edt.bmp'><br><font class='baseline'><strong>Jonathan</strong><p>Choose number of points to send.</font><div class='respPicDiv'><img src='img/responseButtonOffersNo0L.png' class='respPic'></div></div>","1","9","Jonathan","1","Kept","0.35,0.8","14","0.35","trustrating_stim/white_00898_960530_fa_edt.bmp","2.5","133","26"
"html-keyboard-response","213","309274","0.0-19.0-2.25","5f2f86864fd821374b4367bc","bdp_trlrn","Fri Mar 10 2023 11:18:52 GMT-0800 (Pacific Standard Time)","565772","Trustworthy,Untrustworthy","","null","","","","decisionFB","","<div class='trialDiv'><img src='trustrating_stim/white_00898_960530_fa_edt.bmp'><br><font class='baseline'><strong>Jonathan</strong><p>Choose number of points to send.</font><div class='respPicDiv'><img src='img/responseButtonOffersNo0L1.png' class='respPic'></div></div>","null","9","Jonathan","1","Kept","0.35,0.8","14","0.35","trustrating_stim/white_00898_960530_fa_edt.bmp","2.5","132","26"
"html-keyboard-response","214","310281","0.0-19.0-3.25","5f2f86864fd821374b4367bc","bdp_trlrn","Fri Mar 10 2023 11:18:52 GMT-0800 (Pacific Standard Time)","565772","Trustworthy,Untrustworthy","","null","","","","feedback","","<div class='trialDiv'><img src='trustrating_stim/white_00898_960530_fa_edt.bmp'><br><font class='baseline'><strong>Jonathan</strong><p>Received: <strong>4</strong></font> &nbsp; &nbsp; &nbsp; &nbsp; &nbsp; &nbsp;<font class='negOutcome'>Shared back: <strong>0</strong></font></font><div class='respPicDiv'><img src='img/responseButtonOffersNo0_wht.png' class='respPic'></div></div>","null","9","Jonathan","1","Kept","0.35,0.8","14","0.35","trustrating_stim/white_00898_960530_fa_edt.bmp","2.5","132","26"
"html-keyboard-response","215","310549","0.0-19.0-1.26","5f2f86864fd821374b4367bc","bdp_trlrn","Fri Mar 10 2023 11:18:52 GMT-0800 (Pacific Standard Time)","565772","Trustworthy,Untrustworthy","","267","","","","decision","","<div class='trialDiv'><img src='trustrating_stim/white_mw097.bmp'><br><font class='baseline'><strong>Tyler</strong><p>Choose number of points to send.</font><div class='respPicDiv'><img src='img/responseButtonOffersNo0L.png' class='respPic'></div></div>","1","9","Tyler","6","Kept","0.8,0.35","8","0.8","trustrating_stim/white_mw097.bmp","5","137","27"
"html-keyboard-response","216","310809","0.0-19.0-2.26","5f2f86864fd821374b4367bc","bdp_trlrn","Fri Mar 10 2023 11:18:52 GMT-0800 (Pacific Standard Time)","565772","Trustworthy,Untrustworthy","","null","","","","decisionFB","","<div class='trialDiv'><img src='trustrating_stim/white_mw097.bmp'><br><font class='baseline'><strong>Tyler</strong><p>Choose number of points to send.</font><div class='respPicDiv'><img src='img/responseButtonOffersNo0L1.png' class='respPic'></div></div>","null","9","Tyler","6","Kept","0.8,0.35","8","0.8","trustrating_stim/white_mw097.bmp","5","136","27"
"html-keyboard-response","217","311824","0.0-19.0-3.26","5f2f86864fd821374b4367bc","bdp_trlrn","Fri Mar 10 2023 11:18:52 GMT-0800 (Pacific Standard Time)","565772","Trustworthy,Untrustworthy","","null","","","","feedback","","<div class='trialDiv'><img src='trustrating_stim/white_mw097.bmp'><br><font class='baseline'><strong>Tyler</strong><p>Received: <strong>4</strong></font> &nbsp; &nbsp; &nbsp; &nbsp; &nbsp; &nbsp;<font class='negOutcome'>Shared back: <strong>0</strong></font></font><div class='respPicDiv'><img src='img/responseButtonOffersNo0_wht.png' class='respPic'></div></div>","null","9","Tyler","6","Kept","0.8,0.35","8","0.8","trustrating_stim/white_mw097.bmp","5","136","27"
"html-keyboard-response","218","312021","0.0-19.0-1.27","5f2f86864fd821374b4367bc","bdp_trlrn","Fri Mar 10 2023 11:18:52 GMT-0800 (Pacific Standard Time)","565772","Trustworthy,Untrustworthy","","196","","","","decision","","<div class='trialDiv'><img src='trustrating_stim/white_00898_960530_fa_edt.bmp'><br><font class='baseline'><strong>Jonathan</strong><p>Choose number of points to send.</font><div class='respPicDiv'><img src='img/responseButtonOffersNo0L.png' class='respPic'></div></div>","1","10","Jonathan","1","Shared","0.35,0.8","14","0.35","trustrating_stim/white_00898_960530_fa_edt.bmp","2.5","141","28"
"html-keyboard-response","219","312283","0.0-19.0-2.27","5f2f86864fd821374b4367bc","bdp_trlrn","Fri Mar 10 2023 11:18:52 GMT-0800 (Pacific Standard Time)","565772","Trustworthy,Untrustworthy","","null","","","","decisionFB","","<div class='trialDiv'><img src='trustrating_stim/white_00898_960530_fa_edt.bmp'><br><font class='baseline'><strong>Jonathan</strong><p>Choose number of points to send.</font><div class='respPicDiv'><img src='img/responseButtonOffersNo0L1.png' class='respPic'></div></div>","null","10","Jonathan","1","Shared","0.35,0.8","14","0.35","trustrating_stim/white_00898_960530_fa_edt.bmp","2.5","140","28"
