"trial_type","trial_index","time_elapsed","internal_node_id","subject_id","task","startTime","totalTime","labels","event","trial","time","trialtype","numBlurs","view_history","rt","success","stimulus","key_press","aground","name","face","outcome","agenttype","agentswpt","agentcurrpshare","point_total","round"
"pavlovia","0","4","0.0-0.0","","bdp_trlrn","Wed Nov 10 2021 14:17:42 GMT-0500 (Eastern Standard Time)","1407889","Untrustworthy,Trustworthy","","","","","","","","","","","","","","","","","","",""
"","","","","","bdp_trlrn","Wed Nov 10 2021 14:17:42 GMT-0500 (Eastern Standard Time)","1407889","Untrustworthy,Trustworthy","blur","1","25878","blurevent","1","","","","","","","","","","","","","",""
"","","","","","bdp_trlrn","Wed Nov 10 2021 14:17:42 GMT-0500 (Eastern Standard Time)","1407889","Untrustworthy,Trustworthy","focus","1","382210","focusevent","","","","","","","","","","","","","","",""
"instructions","1","383988","0.0-1.0","","bdp_trlrn","Wed Nov 10 2021 14:17:42 GMT-0500 (Eastern Standard Time)","1407889","Untrustworthy,Trustworthy","","","","","","[{""page_index"":0,""viewing_time"":383982}]","383983","","","","","","","","","","","",""
"","","","","","bdp_trlrn","Wed Nov 10 2021 14:17:42 GMT-0500 (Eastern Standard Time)","1407889","Untrustworthy,Trustworthy","fullscreenenter","2","387139","fullscreenenter","","","","","","","","","","","","","","",""
"fullscreen","2","388102","0.0-2.0","","bdp_trlrn","Wed Nov 10 2021 14:17:42 GMT-0500 (Eastern Standard Time)","1407889","Untrustworthy,Trustworthy","","","","","","","","true","","","","","","","","","","",""
"instructions","3","430085","0.0-4.0","","bdp_trlrn","Wed Nov 10 2021 14:17:42 GMT-0500 (Eastern Standard Time)","1407889","Untrustworthy,Trustworthy","","","","","","[{""page_index"":0,""viewing_time"":12220},{""page_index"":1,""viewing_time"":29761}]","41981","","","","","","","","","","","",""
"instructions","4","431709","0.0-5.0","","bdp_trlrn","Wed Nov 10 2021 14:17:42 GMT-0500 (Eastern Standard Time)","1407889","Untrustworthy,Trustworthy","","","","","","[{""page_index"":0,""viewing_time"":1622}]","1623","","","","","","","","","","","",""
"image-keyboard-response","5","445038","0.0-6.0-1.0","","bdp_trlrn","Wed Nov 10 2021 14:17:42 GMT-0500 (Eastern Standard Time)","1407889","Untrustworthy,Trustworthy","","","","rating","","","13223","","trustrating_stim/white_mw044.bmp","5","","","","","","","","",""
"image-keyboard-response","6","445243","0.0-6.0-2.0","","bdp_trlrn","Wed Nov 10 2021 14:17:42 GMT-0500 (Eastern Standard Time)","1407889","Untrustworthy,Trustworthy","","","","ratingFB","","","null","","trustrating_stim/white_mw044.bmp","null","","","","","","","","",""
"image-keyboard-response","7","447581","0.0-6.0-1.1","","bdp_trlrn","Wed Nov 10 2021 14:17:42 GMT-0500 (Eastern Standard Time)","1407889","Untrustworthy,Trustworthy","","","","rating","","","2233","","trustrating_stim/white_mw089.bmp","3","","","","","","","","",""
"image-keyboard-response","8","447785","0.0-6.0-2.1","","bdp_trlrn","Wed Nov 10 2021 14:17:42 GMT-0500 (Eastern Standard Time)","1407889","Untrustworthy,Trustworthy","","","","ratingFB","","","null","","trustrating_stim/white_mw089.bmp","null","","","","","","","","",""
"image-keyboard-response","9","450629","0.0-6.0-1.2","","bdp_trlrn","Wed Nov 10 2021 14:17:42 GMT-0500 (Eastern Standard Time)","1407889","Untrustworthy,Trustworthy","","","","rating","","","2739","","trustrating_stim/white_00785_941205_fb_edt.bmp","7","","","","","","","","",""
"image-keyboard-response","10","450834","0.0-6.0-2.2","","bdp_trlrn","Wed Nov 10 2021 14:17:42 GMT-0500 (Eastern Standard Time)","1407889","Untrustworthy,Trustworthy","","","","ratingFB","","","null","","trustrating_stim/white_00785_941205_fb_edt.bmp","null","","","","","","","","",""
"image-keyboard-response","11","456686","0.0-6.0-1.3","","bdp_trlrn","Wed Nov 10 2021 14:17:42 GMT-0500 (Eastern Standard Time)","1407889","Untrustworthy,Trustworthy","","","","rating","","","5747","","trustrating_stim/white_mw004.bmp","5","","","","","","","","",""
"image-keyboard-response","12","456891","0.0-6.0-2.3","","bdp_trlrn","Wed Nov 10 2021 14:17:42 GMT-0500 (Eastern Standard Time)","1407889","Untrustworthy,Trustworthy","","","","ratingFB","","","null","","trustrating_stim/white_mw004.bmp","null","","","","","","","","",""
"image-keyboard-response","13","459061","0.0-6.0-1.4","","bdp_trlrn","Wed Nov 10 2021 14:17:42 GMT-0500 (Eastern Standard Time)","1407889","Untrustworthy,Trustworthy","","","","rating","","","2065","","trustrating_stim/white_mw080.bmp","1","","","","","","","","",""
"image-keyboard-response","14","459265","0.0-6.0-2.4","","bdp_trlrn","Wed Nov 10 2021 14:17:42 GMT-0500 (Eastern Standard Time)","1407889","Untrustworthy,Trustworthy","","","","ratingFB","","","null","","trustrating_stim/white_mw080.bmp","null","","","","","","","","",""
"image-keyboard-response","15","464870","0.0-6.0-1.5","","bdp_trlrn","Wed Nov 10 2021 14:17:42 GMT-0500 (Eastern Standard Time)","1407889","Untrustworthy,Trustworthy","","","","rating","","","5499","","trustrating_stim/white_mw013.bmp","4","","","","","","","","",""
"image-keyboard-response","16","465072","0.0-6.0-2.5","","bdp_trlrn","Wed Nov 10 2021 14:17:42 GMT-0500 (Eastern Standard Time)","1407889","Untrustworthy,Trustworthy","","","","ratingFB","","","null","","trustrating_stim/white_mw013.bmp","null","","","","","","","","",""
"image-keyboard-response","17","469054","0.0-6.0-1.6","","bdp_trlrn","Wed Nov 10 2021 14:17:42 GMT-0500 (Eastern Standard Time)","1407889","Untrustworthy,Trustworthy","","","","rating","","","3877","","trustrating_stim/white_mw019.bmp","8","","","","","","","","",""
"image-keyboard-response","18","469258","0.0-6.0-2.6","","bdp_trlrn","Wed Nov 10 2021 14:17:42 GMT-0500 (Eastern Standard Time)","1407889","Untrustworthy,Trustworthy","","","","ratingFB","","","null","","trustrating_stim/white_mw019.bmp","null","","","","","","","","",""
"image-keyboard-response","19","471990","0.0-6.0-1.7","","bdp_trlrn","Wed Nov 10 2021 14:17:42 GMT-0500 (Eastern Standard Time)","1407889","Untrustworthy,Trustworthy","","","","rating","","","2626","","trustrating_stim/white_00658_941121_fb_edt.bmp","7","","","","","","","","",""
"image-keyboard-response","20","472193","0.0-6.0-2.7","","bdp_trlrn","Wed Nov 10 2021 14:17:42 GMT-0500 (Eastern Standard Time)","1407889","Untrustworthy,Trustworthy","","","","ratingFB","","","null","","trustrating_stim/white_00658_941121_fb_edt.bmp","null","","","","","","","","",""
"image-keyboard-response","21","474614","0.0-6.0-1.8","","bdp_trlrn","Wed Nov 10 2021 14:17:42 GMT-0500 (Eastern Standard Time)","1407889","Untrustworthy,Trustworthy","","","","rating","","","2316","","trustrating_stim/white_mw057.bmp","1","","","","","","","","",""
"image-keyboard-response","22","474817","0.0-6.0-2.8","","bdp_trlrn","Wed Nov 10 2021 14:17:42 GMT-0500 (Eastern Standard Time)","1407889","Untrustworthy,Trustworthy","","","","ratingFB","","","null","","trustrating_stim/white_mw057.bmp","null","","","","","","","","",""
"image-keyboard-response","23","477662","0.0-6.0-1.9","","bdp_trlrn","Wed Nov 10 2021 14:17:42 GMT-0500 (Eastern Standard Time)","1407889","Untrustworthy,Trustworthy","","","","rating","","","2740","","trustrating_stim/white_00960_960627_fb_edt.bmp","1","","","","","","","","",""
"image-keyboard-response","24","477867","0.0-6.0-2.9","","bdp_trlrn","Wed Nov 10 2021 14:17:42 GMT-0500 (Eastern Standard Time)","1407889","Untrustworthy,Trustworthy","","","","ratingFB","","","null","","trustrating_stim/white_00960_960627_fb_edt.bmp","null","","","","","","","","",""
"image-keyboard-response","25","479390","0.0-6.0-1.10","","bdp_trlrn","Wed Nov 10 2021 14:17:42 GMT-0500 (Eastern Standard Time)","1407889","Untrustworthy,Trustworthy","","","","rating","","","1418","","trustrating_stim/white_mw025.bmp","2","","","","","","","","",""
"image-keyboard-response","26","479594","0.0-6.0-2.10","","bdp_trlrn","Wed Nov 10 2021 14:17:42 GMT-0500 (Eastern Standard Time)","1407889","Untrustworthy,Trustworthy","","","","ratingFB","","","null","","trustrating_stim/white_mw025.bmp","null","","","","","","","","",""
"image-keyboard-response","27","483598","0.0-6.0-1.11","","bdp_trlrn","Wed Nov 10 2021 14:17:42 GMT-0500 (Eastern Standard Time)","1407889","Untrustworthy,Trustworthy","","","","rating","","","3899","","trustrating_stim/white_mw066.bmp","7","","","","","","","","",""
"image-keyboard-response","28","483804","0.0-6.0-2.11","","bdp_trlrn","Wed Nov 10 2021 14:17:42 GMT-0500 (Eastern Standard Time)","1407889","Untrustworthy,Trustworthy","","","","ratingFB","","","null","","trustrating_stim/white_mw066.bmp","null","","","","","","","","",""
"image-keyboard-response","29","486478","0.0-6.0-1.12","","bdp_trlrn","Wed Nov 10 2021 14:17:42 GMT-0500 (Eastern Standard Time)","1407889","Untrustworthy,Trustworthy","","","","rating","","","2570","","trustrating_stim/white_00761_941201_fb_edt.bmp","2","","","","","","","","",""
"image-keyboard-response","30","486679","0.0-6.0-2.12","","bdp_trlrn","Wed Nov 10 2021 14:17:42 GMT-0500 (Eastern Standard Time)","1407889","Untrustworthy,Trustworthy","","","","ratingFB","","","null","","trustrating_stim/white_00761_941201_fb_edt.bmp","null","","","","","","","","",""
"image-keyboard-response","31","492599","0.0-6.0-1.13","","bdp_trlrn","Wed Nov 10 2021 14:17:42 GMT-0500 (Eastern Standard Time)","1407889","Untrustworthy,Trustworthy","","","","rating","","","5815","","trustrating_stim/white_mw084.bmp","3","","","","","","","","",""
"image-keyboard-response","32","492801","0.0-6.0-2.13","","bdp_trlrn","Wed Nov 10 2021 14:17:42 GMT-0500 (Eastern Standard Time)","1407889","Untrustworthy,Trustworthy","","","","ratingFB","","","null","","trustrating_stim/white_mw084.bmp","null","","","","","","","","",""
"image-keyboard-response","33","498694","0.0-6.0-1.14","","bdp_trlrn","Wed Nov 10 2021 14:17:42 GMT-0500 (Eastern Standard Time)","1407889","Untrustworthy,Trustworthy","","","","rating","","","5788","","trustrating_stim/white_mw022.bmp","4","","","","","","","","",""
"image-keyboard-response","34","498900","0.0-6.0-2.14","","bdp_trlrn","Wed Nov 10 2021 14:17:42 GMT-0500 (Eastern Standard Time)","1407889","Untrustworthy,Trustworthy","","","","ratingFB","","","null","","trustrating_stim/white_mw022.bmp","null","","","","","","","","",""
"image-keyboard-response","35","501254","0.0-6.0-1.15","","bdp_trlrn","Wed Nov 10 2021 14:17:42 GMT-0500 (Eastern Standard Time)","1407889","Untrustworthy,Trustworthy","","","","rating","","","2249","","trustrating_stim/white_mw046.bmp","5","","","","","","","","",""
"image-keyboard-response","36","501460","0.0-6.0-2.15","","bdp_trlrn","Wed Nov 10 2021 14:17:42 GMT-0500 (Eastern Standard Time)","1407889","Untrustworthy,Trustworthy","","","","ratingFB","","","null","","trustrating_stim/white_mw046.bmp","null","","","","","","","","",""
"image-keyboard-response","37","503479","0.0-6.0-1.16","","bdp_trlrn","Wed Nov 10 2021 14:17:42 GMT-0500 (Eastern Standard Time)","1407889","Untrustworthy,Trustworthy","","","","rating","","","1914","","trustrating_stim/white_mw054.bmp","5","","","","","","","","",""
"image-keyboard-response","38","503680","0.0-6.0-2.16","","bdp_trlrn","Wed Nov 10 2021 14:17:42 GMT-0500 (Eastern Standard Time)","1407889","Untrustworthy,Trustworthy","","","","ratingFB","","","null","","trustrating_stim/white_mw054.bmp","null","","","","","","","","",""
"image-keyboard-response","39","508759","0.0-6.0-1.17","","bdp_trlrn","Wed Nov 10 2021 14:17:42 GMT-0500 (Eastern Standard Time)","1407889","Untrustworthy,Trustworthy","","","","rating","","","4973","","trustrating_stim/white_mw082.bmp","8","","","","","","","","",""
"image-keyboard-response","40","508960","0.0-6.0-2.17","","bdp_trlrn","Wed Nov 10 2021 14:17:42 GMT-0500 (Eastern Standard Time)","1407889","Untrustworthy,Trustworthy","","","","ratingFB","","","null","","trustrating_stim/white_mw082.bmp","null","","","","","","","","",""
"image-keyboard-response","41","515823","0.0-6.0-1.18","","bdp_trlrn","Wed Nov 10 2021 14:17:42 GMT-0500 (Eastern Standard Time)","1407889","Untrustworthy,Trustworthy","","","","rating","","","6758","","trustrating_stim/white_mw097.bmp","2","","","","","","","","",""
"image-keyboard-response","42","516028","0.0-6.0-2.18","","bdp_trlrn","Wed Nov 10 2021 14:17:42 GMT-0500 (Eastern Standard Time)","1407889","Untrustworthy,Trustworthy","","","","ratingFB","","","null","","trustrating_stim/white_mw097.bmp","null","","","","","","","","",""
"image-keyboard-response","43","519527","0.0-6.0-1.19","","bdp_trlrn","Wed Nov 10 2021 14:17:42 GMT-0500 (Eastern Standard Time)","1407889","Untrustworthy,Trustworthy","","","","rating","","","3394","","trustrating_stim/white_00253_940128_fa_edt.bmp","8","","","","","","","","",""
"image-keyboard-response","44","519732","0.0-6.0-2.19","","bdp_trlrn","Wed Nov 10 2021 14:17:42 GMT-0500 (Eastern Standard Time)","1407889","Untrustworthy,Trustworthy","","","","ratingFB","","","null","","trustrating_stim/white_00253_940128_fa_edt.bmp","null","","","","","","","","",""
"image-keyboard-response","45","528328","0.0-6.0-1.20","","bdp_trlrn","Wed Nov 10 2021 14:17:42 GMT-0500 (Eastern Standard Time)","1407889","Untrustworthy,Trustworthy","","","","rating","","","8490","","trustrating_stim/white_00602_940928_fb_edt.bmp","8","","","","","","","","",""
"image-keyboard-response","46","528532","0.0-6.0-2.20","","bdp_trlrn","Wed Nov 10 2021 14:17:42 GMT-0500 (Eastern Standard Time)","1407889","Untrustworthy,Trustworthy","","","","ratingFB","","","null","","trustrating_stim/white_00602_940928_fb_edt.bmp","null","","","","","","","","",""
"image-keyboard-response","47","534303","0.0-6.0-1.21","","bdp_trlrn","Wed Nov 10 2021 14:17:42 GMT-0500 (Eastern Standard Time)","1407889","Untrustworthy,Trustworthy","","","","rating","","","5666","","trustrating_stim/white_mw006.bmp","4","","","","","","","","",""
"image-keyboard-response","48","534508","0.0-6.0-2.21","","bdp_trlrn","Wed Nov 10 2021 14:17:42 GMT-0500 (Eastern Standard Time)","1407889","Untrustworthy,Trustworthy","","","","ratingFB","","","null","","trustrating_stim/white_mw006.bmp","null","","","","","","","","",""
"image-keyboard-response","49","539256","0.0-6.0-1.22","","bdp_trlrn","Wed Nov 10 2021 14:17:42 GMT-0500 (Eastern Standard Time)","1407889","Untrustworthy,Trustworthy","","","","rating","","","4643","","trustrating_stim/white_00109_931230_fa_edt.bmp","7","","","","","","","","",""
"image-keyboard-response","50","539460","0.0-6.0-2.22","","bdp_trlrn","Wed Nov 10 2021 14:17:42 GMT-0500 (Eastern Standard Time)","1407889","Untrustworthy,Trustworthy","","","","ratingFB","","","null","","trustrating_stim/white_00109_931230_fa_edt.bmp","null","","","","","","","","",""
"image-keyboard-response","51","541647","0.0-6.0-1.23","","bdp_trlrn","Wed Nov 10 2021 14:17:42 GMT-0500 (Eastern Standard Time)","1407889","Untrustworthy,Trustworthy","","","","rating","","","2082","","trustrating_stim/white_mw058.bmp","2","","","","","","","","",""
"image-keyboard-response","52","541849","0.0-6.0-2.23","","bdp_trlrn","Wed Nov 10 2021 14:17:42 GMT-0500 (Eastern Standard Time)","1407889","Untrustworthy,Trustworthy","","","","ratingFB","","","null","","trustrating_stim/white_mw058.bmp","null","","","","","","","","",""
"image-keyboard-response","53","543447","0.0-6.0-1.24","","bdp_trlrn","Wed Nov 10 2021 14:17:42 GMT-0500 (Eastern Standard Time)","1407889","Untrustworthy,Trustworthy","","","","rating","","","1493","","trustrating_stim/white_mw040.bmp","1","","","","","","","","",""
"image-keyboard-response","54","543651","0.0-6.0-2.24","","bdp_trlrn","Wed Nov 10 2021 14:17:42 GMT-0500 (Eastern Standard Time)","1407889","Untrustworthy,Trustworthy","","","","ratingFB","","","null","","trustrating_stim/white_mw040.bmp","null","","","","","","","","",""
"image-keyboard-response","55","550920","0.0-6.0-1.25","","bdp_trlrn","Wed Nov 10 2021 14:17:42 GMT-0500 (Eastern Standard Time)","1407889","Untrustworthy,Trustworthy","","","","rating","","","7164","","trustrating_stim/white_mw035.bmp","3","","","","","","","","",""
"image-keyboard-response","56","551125","0.0-6.0-2.25","","bdp_trlrn","Wed Nov 10 2021 14:17:42 GMT-0500 (Eastern Standard Time)","1407889","Untrustworthy,Trustworthy","","","","ratingFB","","","null","","trustrating_stim/white_mw035.bmp","null","","","","","","","","",""
"image-keyboard-response","57","555224","0.0-6.0-1.26","","bdp_trlrn","Wed Nov 10 2021 14:17:42 GMT-0500 (Eastern Standard Time)","1407889","Untrustworthy,Trustworthy","","","","rating","","","3993","","trustrating_stim/white_00897_960530_fb_edt.bmp","4","","","","","","","","",""
"image-keyboard-response","58","555429","0.0-6.0-2.26","","bdp_trlrn","Wed Nov 10 2021 14:17:42 GMT-0500 (Eastern Standard Time)","1407889","Untrustworthy,Trustworthy","","","","ratingFB","","","null","","trustrating_stim/white_00897_960530_fb_edt.bmp","null","","","","","","","","",""
"image-keyboard-response","59","559184","0.0-6.0-1.27","","bdp_trlrn","Wed Nov 10 2021 14:17:42 GMT-0500 (Eastern Standard Time)","1407889","Untrustworthy,Trustworthy","","","","rating","","","3652","","trustrating_stim/white_00757_941201_fa_edt.bmp","5","","","","","","","","",""
"image-keyboard-response","60","559386","0.0-6.0-2.27","","bdp_trlrn","Wed Nov 10 2021 14:17:42 GMT-0500 (Eastern Standard Time)","1407889","Untrustworthy,Trustworthy","","","","ratingFB","","","null","","trustrating_stim/white_00757_941201_fa_edt.bmp","null","","","","","","","","",""
"image-keyboard-response","61","563513","0.0-6.0-1.28","","bdp_trlrn","Wed Nov 10 2021 14:17:42 GMT-0500 (Eastern Standard Time)","1407889","Untrustworthy,Trustworthy","","","","rating","","","4021","","trustrating_stim/white_00657_941121_fa_edt.bmp","7","","","","","","","","",""
"image-keyboard-response","62","563717","0.0-6.0-2.28","","bdp_trlrn","Wed Nov 10 2021 14:17:42 GMT-0500 (Eastern Standard Time)","1407889","Untrustworthy,Trustworthy","","","","ratingFB","","","null","","trustrating_stim/white_00657_941121_fa_edt.bmp","null","","","","","","","","",""
"image-keyboard-response","63","569512","0.0-6.0-1.29","","bdp_trlrn","Wed Nov 10 2021 14:17:42 GMT-0500 (Eastern Standard Time)","1407889","Untrustworthy,Trustworthy","","","","rating","","","5690","","trustrating_stim/white_mw051.bmp","7","","","","","","","","",""
"image-keyboard-response","64","569716","0.0-6.0-2.29","","bdp_trlrn","Wed Nov 10 2021 14:17:42 GMT-0500 (Eastern Standard Time)","1407889","Untrustworthy,Trustworthy","","","","ratingFB","","","null","","trustrating_stim/white_mw051.bmp","null","","","","","","","","",""
"image-keyboard-response","65","572568","0.0-6.0-1.30","","bdp_trlrn","Wed Nov 10 2021 14:17:42 GMT-0500 (Eastern Standard Time)","1407889","Untrustworthy,Trustworthy","","","","rating","","","2746","","trustrating_stim/white_mw072.bmp","3","","","","","","","","",""
"image-keyboard-response","66","572773","0.0-6.0-2.30","","bdp_trlrn","Wed Nov 10 2021 14:17:42 GMT-0500 (Eastern Standard Time)","1407889","Untrustworthy,Trustworthy","","","","ratingFB","","","null","","trustrating_stim/white_mw072.bmp","null","","","","","","","","",""
"image-keyboard-response","67","581833","0.0-6.0-1.31","","bdp_trlrn","Wed Nov 10 2021 14:17:42 GMT-0500 (Eastern Standard Time)","1407889","Untrustworthy,Trustworthy","","","","rating","","","8955","","trustrating_stim/white_00120_931230_fa_edt.bmp","7","","","","","","","","",""
"image-keyboard-response","68","582041","0.0-6.0-2.31","","bdp_trlrn","Wed Nov 10 2021 14:17:42 GMT-0500 (Eastern Standard Time)","1407889","Untrustworthy,Trustworthy","","","","ratingFB","","","null","","trustrating_stim/white_00120_931230_fa_edt.bmp","null","","","","","","","","",""
"image-keyboard-response","69","588401","0.0-6.0-1.32","","bdp_trlrn","Wed Nov 10 2021 14:17:42 GMT-0500 (Eastern Standard Time)","1407889","Untrustworthy,Trustworthy","","","","rating","","","6256","","trustrating_stim/white_mw085.bmp","5","","","","","","","","",""
"image-keyboard-response","70","588606","0.0-6.0-2.32","","bdp_trlrn","Wed Nov 10 2021 14:17:42 GMT-0500 (Eastern Standard Time)","1407889","Untrustworthy,Trustworthy","","","","ratingFB","","","null","","trustrating_stim/white_mw085.bmp","null","","","","","","","","",""
"image-keyboard-response","71","596218","0.0-6.0-1.33","","bdp_trlrn","Wed Nov 10 2021 14:17:42 GMT-0500 (Eastern Standard Time)","1407889","Untrustworthy,Trustworthy","","","","rating","","","7506","","trustrating_stim/white_mw071.bmp","2","","","","","","","","",""
"image-keyboard-response","72","596423","0.0-6.0-2.33","","bdp_trlrn","Wed Nov 10 2021 14:17:42 GMT-0500 (Eastern Standard Time)","1407889","Untrustworthy,Trustworthy","","","","ratingFB","","","null","","trustrating_stim/white_mw071.bmp","null","","","","","","","","",""
"image-keyboard-response","73","604105","0.0-6.0-1.34","","bdp_trlrn","Wed Nov 10 2021 14:17:42 GMT-0500 (Eastern Standard Time)","1407889","Untrustworthy,Trustworthy","","","","rating","","","7577","","trustrating_stim/white_00807_941205_fb_edt.bmp","7","","","","","","","","",""
"image-keyboard-response","74","604309","0.0-6.0-2.34","","bdp_trlrn","Wed Nov 10 2021 14:17:42 GMT-0500 (Eastern Standard Time)","1407889","Untrustworthy,Trustworthy","","","","ratingFB","","","null","","trustrating_stim/white_00807_941205_fb_edt.bmp","null","","","","","","","","",""
"image-keyboard-response","75","608498","0.0-6.0-1.35","","bdp_trlrn","Wed Nov 10 2021 14:17:42 GMT-0500 (Eastern Standard Time)","1407889","Untrustworthy,Trustworthy","","","","rating","","","4084","","trustrating_stim/white_mw099.bmp","5","","","","","","","","",""
"image-keyboard-response","76","608704","0.0-6.0-2.35","","bdp_trlrn","Wed Nov 10 2021 14:17:42 GMT-0500 (Eastern Standard Time)","1407889","Untrustworthy,Trustworthy","","","","ratingFB","","","null","","trustrating_stim/white_mw099.bmp","null","","","","","","","","",""
"image-keyboard-response","77","611921","0.0-6.0-1.36","","bdp_trlrn","Wed Nov 10 2021 14:17:42 GMT-0500 (Eastern Standard Time)","1407889","Untrustworthy,Trustworthy","","","","rating","","","3112","","trustrating_stim/white_mw016.bmp","6","","","","","","","","",""
"image-keyboard-response","78","612123","0.0-6.0-2.36","","bdp_trlrn","Wed Nov 10 2021 14:17:42 GMT-0500 (Eastern Standard Time)","1407889","Untrustworthy,Trustworthy","","","","ratingFB","","","null","","trustrating_stim/white_mw016.bmp","null","","","","","","","","",""
"image-keyboard-response","79","618786","0.0-6.0-1.37","","bdp_trlrn","Wed Nov 10 2021 14:17:42 GMT-0500 (Eastern Standard Time)","1407889","Untrustworthy,Trustworthy","","","","rating","","","6558","","trustrating_stim/white_mw043.bmp","5","","","","","","","","",""
"image-keyboard-response","80","618988","0.0-6.0-2.37","","bdp_trlrn","Wed Nov 10 2021 14:17:42 GMT-0500 (Eastern Standard Time)","1407889","Untrustworthy,Trustworthy","","","","ratingFB","","","null","","trustrating_stim/white_mw043.bmp","null","","","","","","","","",""
"image-keyboard-response","81","621938","0.0-6.0-1.38","","bdp_trlrn","Wed Nov 10 2021 14:17:42 GMT-0500 (Eastern Standard Time)","1407889","Untrustworthy,Trustworthy","","","","rating","","","2845","","trustrating_stim/white_mw012.bmp","5","","","","","","","","",""
"image-keyboard-response","82","622143","0.0-6.0-2.38","","bdp_trlrn","Wed Nov 10 2021 14:17:42 GMT-0500 (Eastern Standard Time)","1407889","Untrustworthy,Trustworthy","","","","ratingFB","","","null","","trustrating_stim/white_mw012.bmp","null","","","","","","","","",""
"image-keyboard-response","83","627346","0.0-6.0-1.39","","bdp_trlrn","Wed Nov 10 2021 14:17:42 GMT-0500 (Eastern Standard Time)","1407889","Untrustworthy,Trustworthy","","","","rating","","","5099","","trustrating_stim/white_00223_940128_fb_edt.bmp","5","","","","","","","","",""
"image-keyboard-response","84","627550","0.0-6.0-2.39","","bdp_trlrn","Wed Nov 10 2021 14:17:42 GMT-0500 (Eastern Standard Time)","1407889","Untrustworthy,Trustworthy","","","","ratingFB","","","null","","trustrating_stim/white_00223_940128_fb_edt.bmp","null","","","","","","","","",""
"instructions","85","629483","0.0-7.0","","bdp_trlrn","Wed Nov 10 2021 14:17:42 GMT-0500 (Eastern Standard Time)","1407889","Untrustworthy,Trustworthy","","","","","","[{""page_index"":0,""viewing_time"":1827}]","1828","","","","","","","","","","","",""
"instructions","86","836281","0.0-8.0","","bdp_trlrn","Wed Nov 10 2021 14:17:42 GMT-0500 (Eastern Standard Time)","1407889","Untrustworthy,Trustworthy","","","","","","[{""page_index"":0,""viewing_time"":72123},{""page_index"":1,""viewing_time"":22513},{""page_index"":2,""viewing_time"":28929},{""page_index"":3,""viewing_time"":28177},{""page_index"":4,""viewing_time"":27929},{""page_index"":5,""viewing_time"":18929},{""page_index"":6,""viewing_time"":8096}]","206696","","","","","","","","","","","",""
"html-keyboard-response","87","844802","0.0-9.0","","bdp_trlrn","Wed Nov 10 2021 14:17:42 GMT-0500 (Eastern Standard Time)","1407889","Untrustworthy,Trustworthy","","","","","","","8519","","<div class='header' style='text-align:left; position: absolute; top: 5%; left: 5%;'><small>Task 3 of 4</small></div><div style='text-align:left; position: absolute; top: 10%; left: 20%; width: 60%'><p><strong>1) What is the minimum number of points you can choose to send to your partner?</strong></p><p>a) 0</p><p>b) 1</p><p>c) 5</p>","B","","","","","","","","",""
"html-keyboard-response","88","849721","0.0-10.0","","bdp_trlrn","Wed Nov 10 2021 14:17:42 GMT-0500 (Eastern Standard Time)","1407889","Untrustworthy,Trustworthy","","","","","","","4816","","<div class='header' style='text-align:left; position: absolute; top: 5%; left: 5%;'><small>Task 3 of 4</small></div><div style='text-align:left; position: absolute; top: 10%; left: 20%; width: 60%'><p><strong>1) What is the minimum number of points you can choose to send to your partner?</strong></p><p>a) 0</p><p style='color:#00FF00'>b) 1</p><p>c) 5</p><h3 style='color:#00FF00'>Correct!</h3><h3 class='center-content'>The correct response is b).</h3><h3 class='center-content'>The minimum number of points you can choose to send to your partner is 1 point.</h3><p><em>Press SPACEBAR to continue</em></p></div>"," ","","","","","","","","",""
"html-keyboard-response","89","854529","0.0-11.0","","bdp_trlrn","Wed Nov 10 2021 14:17:42 GMT-0500 (Eastern Standard Time)","1407889","Untrustworthy,Trustworthy","","","","","","","4704","","<div class='header' style='text-align:left; position: absolute; top: 5%; left: 5%;'><small>Task 3 of 4</small></div><div style='text-align:left; position: absolute; top: 10%; left: 20%; width: 60%'><p><strong>2) What is the maximum number of points you can choose to send to your partner?</strong></p><p>a) 8</p><p>b) 5</p><p>c) 3</p>","B","","","","","","","","",""
"html-keyboard-response","90","860002","0.0-12.0","","bdp_trlrn","Wed Nov 10 2021 14:17:42 GMT-0500 (Eastern Standard Time)","1407889","Untrustworthy,Trustworthy","","","","","","","5371","","<div class='header' style='text-align:left; position: absolute; top: 5%; left: 5%;'><small>Task 3 of 4</small></div><div style='text-align:left; position: absolute; top: 10%; left: 20%; width: 60%'><p><strong>2) What is the maximum number of points you can choose to send to your partner?</strong></p><p>a) 8</p><p style='color:#00FF00'>b) 5</p><p>c) 3</p><h3 style='color:#00FF00'>Correct!</h3><h3 class='center-content'>The correct response is b).</h3><h3 class='center-content'>The maximum number of points you can choose to send to your partner is 5 points.</h3><p><em>Press SPACEBAR to continue</em></p></div>"," ","","","","","","","","",""
"html-keyboard-response","91","868034","0.0-13.0","","bdp_trlrn","Wed Nov 10 2021 14:17:42 GMT-0500 (Eastern Standard Time)","1407889","Untrustworthy,Trustworthy","","","","","","","7927","","<div class='header' style='text-align:left; position: absolute; top: 5%; left: 5%;'><small>Task 3 of 4</small></div><div style='text-align:left; position: absolute; top: 10%; left: 20%; width: 60%'><p><strong>3) What happens to the amount of points you send to your partner?</strong></p><p>a) Nothing</p><p>b) It doubles</p><p>c) It quadruples</p>","C","","","","","","","","",""
"html-keyboard-response","92","876554","0.0-14.0","","bdp_trlrn","Wed Nov 10 2021 14:17:42 GMT-0500 (Eastern Standard Time)","1407889","Untrustworthy,Trustworthy","","","","","","","8415","","<div class='header' style='text-align:left; position: absolute; top: 5%; left: 5%;'><small>Task 3 of 4</small></div><div style='text-align:left; position: absolute; top: 10%; left: 20%; width: 60%'><p><strong>3) What happens to the amount of points you send to your partner?</strong></p><p>a) Nothing</p><p>b) It doubles</p><p style='color:#00FF00'>c) It quadruples</p><h3 style='color:#00FF00'>Correct!</h3><h3 class='center-content'>The correct response is c).</h3><h3 class='center-content'>The amount of points you send to your partner quadruples.</h3><p><em>Press SPACEBAR to continue</em></p></div>"," ","","","","","","","","",""
"html-keyboard-response","93","896131","0.0-15.0","","bdp_trlrn","Wed Nov 10 2021 14:17:42 GMT-0500 (Eastern Standard Time)","1407889","Untrustworthy,Trustworthy","","","","","","","19472","","<div class='header' style='text-align:left; position: absolute; top: 5%; left: 5%;'><small>Task 3 of 4</small></div><div style='text-align:left; position: absolute; top: 10%; left: 20%; width: 60%'><p><strong>4) If you decide to share 4 out of 5 points with your partner, and he decided to share half of what he received, how many points would you end up with in this round?</strong></p><p>a) 16</p><p>b) 0</p><p>c) 9</p>","C","","","","","","","","",""
"html-keyboard-response","94","936420","0.0-16.0","","bdp_trlrn","Wed Nov 10 2021 14:17:42 GMT-0500 (Eastern Standard Time)","1407889","Untrustworthy,Trustworthy","","","","","","","40185","","<div class='header' style='text-align:left; position: absolute; top: 5%; left: 5%;'><small>Task 3 of 4</small></div><div style='text-align:left; position: absolute; top: 10%; left: 20%; width: 60%'><p><strong>4) If you decide to share 4 points with your partner, and he decided to share half of what he received, how many points would you end up with in this round?</strong></p><p>a) 16</p><p>b) 0</p><p style='color:#00FF00'>c) 9</p><h3 style='color:#00FF00'>Correct!</h3><h3 class='center-content'>The correct response is c).</h3><h3 class='center-content'>If you share 4 out of 5 points with your partner and he decided to share half with you, you would receive 8 points back (i.e. (4 x 4)/2 = 8), totaling to 9 points altogether.</h3><p><em>Press SPACEBAR to continue</em></p></div>"," ","","","","","","","","",""
"instructions","95","940667","0.0-17.0","","bdp_trlrn","Wed Nov 10 2021 14:17:42 GMT-0500 (Eastern Standard Time)","1407889","Untrustworthy,Trustworthy","","","","","","[{""page_index"":0,""viewing_time"":4142}]","4142","","","","","","","","","","","",""
"html-keyboard-response","96","945580","0.0-18.0-1.0","","bdp_trlrn","Wed Nov 10 2021 14:17:42 GMT-0500 (Eastern Standard Time)","1407889","Untrustworthy,Trustworthy","","","","decision","","","4808","","<div class='trialDiv'><img src='trustrating_stim/white_mw084.bmp'><br><font class='baseline'><strong>Jordan</strong><p>Choose number of points to send.</font><div class='respPicDiv'><img src='img/responseButtonOffersNo0L.png' class='respPic'></div></div>","3","1","Jordan","trustrating_stim/white_mw084.bmp","Kept","0.4,0.8","10","0.4","5","1"
"html-keyboard-response","97","945836","0.0-18.0-2.0","","bdp_trlrn","Wed Nov 10 2021 14:17:42 GMT-0500 (Eastern Standard Time)","1407889","Untrustworthy,Trustworthy","","","","decisionFB","","","null","","<div class='trialDiv'><img src='trustrating_stim/white_mw084.bmp'><br><font class='baseline'><strong>Jordan</strong><p>Choose number of points to send.</font><div class='respPicDiv'><img src='img/responseButtonOffersNo0L3.png' class='respPic'></div></div>","null","1","Jordan","trustrating_stim/white_mw084.bmp","Kept","0.4,0.8","10","0.4","2","1"
"html-keyboard-response","98","946841","0.0-18.0-3.0","","bdp_trlrn","Wed Nov 10 2021 14:17:42 GMT-0500 (Eastern Standard Time)","1407889","Untrustworthy,Trustworthy","","","","feedback","","","null","","<div class='trialDiv'><img src='trustrating_stim/white_mw084.bmp'><br><font class='baseline'><strong>Jordan</strong><p>Received: <strong>12</strong></font> &nbsp; &nbsp; &nbsp; &nbsp; &nbsp; &nbsp;<font class='negOutcome'>Shared back: <strong>0</strong></font></font><div class='respPicDiv'><img src='img/responseButtonOffersNo0_wht.png' class='respPic'></div></div>","null","1","Jordan","trustrating_stim/white_mw084.bmp","Kept","0.4,0.8","10","0.4","2","1"
"html-keyboard-response","99","956060","0.0-18.0-1.1","","bdp_trlrn","Wed Nov 10 2021 14:17:42 GMT-0500 (Eastern Standard Time)","1407889","Untrustworthy,Trustworthy","","","","decision","","","9218","","<div class='trialDiv'><img src='trustrating_stim/white_00785_941205_fb_edt.bmp'><br><font class='baseline'><strong>Anthony</strong><p>Choose number of points to send.</font><div class='respPicDiv'><img src='img/responseButtonOffersNo0L.png' class='respPic'></div></div>","5","1","Anthony","trustrating_stim/white_00785_941205_fb_edt.bmp","Shared","0.6,0.2","14","0.6","7","2"
"html-keyboard-response","100","956314","0.0-18.0-2.1","","bdp_trlrn","Wed Nov 10 2021 14:17:42 GMT-0500 (Eastern Standard Time)","1407889","Untrustworthy,Trustworthy","","","","decisionFB","","","null","","<div class='trialDiv'><img src='trustrating_stim/white_00785_941205_fb_edt.bmp'><br><font class='baseline'><strong>Anthony</strong><p>Choose number of points to send.</font><div class='respPicDiv'><img src='img/responseButtonOffersNo0L5.png' class='respPic'></div></div>","null","1","Anthony","trustrating_stim/white_00785_941205_fb_edt.bmp","Shared","0.6,0.2","14","0.6","2","2"
"html-keyboard-response","101","957319","0.0-18.0-3.1","","bdp_trlrn","Wed Nov 10 2021 14:17:42 GMT-0500 (Eastern Standard Time)","1407889","Untrustworthy,Trustworthy","","","","feedback","","","null","","<div class='trialDiv'><img src='trustrating_stim/white_00785_941205_fb_edt.bmp'><br><font class='baseline'><strong>Anthony</strong><p>Received: <strong>20</strong></font> &nbsp; &nbsp; &nbsp; &nbsp; &nbsp; &nbsp;<font class='posOutcome'>Shared back: <strong>10</strong></font></font><div class='respPicDiv'><img src='img/responseButtonOffersNo0_wht.png' class='respPic'></div></div>","null","1","Anthony","trustrating_stim/white_00785_941205_fb_edt.bmp","Shared","0.6,0.2","14","0.6","12","2"
"html-keyboard-response","102","963437","0.0-18.0-1.2","","bdp_trlrn","Wed Nov 10 2021 14:17:42 GMT-0500 (Eastern Standard Time)","1407889","Untrustworthy,Trustworthy","","","","decision","","","6116","","<div class='trialDiv'><img src='trustrating_stim/white_mw046.bmp'><br><font class='baseline'><strong>Timothy</strong><p>Choose number of points to send.</font><div class='respPicDiv'><img src='img/responseButtonOffersNo0L.png' class='respPic'></div></div>","4","1","Timothy","trustrating_stim/white_mw046.bmp","Kept","0.8,0.4","15","0.8","17","3"
"html-keyboard-response","103","963693","0.0-18.0-2.2","","bdp_trlrn","Wed Nov 10 2021 14:17:42 GMT-0500 (Eastern Standard Time)","1407889","Untrustworthy,Trustworthy","","","","decisionFB","","","null","","<div class='trialDiv'><img src='trustrating_stim/white_mw046.bmp'><br><font class='baseline'><strong>Timothy</strong><p>Choose number of points to send.</font><div class='respPicDiv'><img src='img/responseButtonOffersNo0L4.png' class='respPic'></div></div>","null","1","Timothy","trustrating_stim/white_mw046.bmp","Kept","0.8,0.4","15","0.8","13","3"
"html-keyboard-response","104","964699","0.0-18.0-3.2","","bdp_trlrn","Wed Nov 10 2021 14:17:42 GMT-0500 (Eastern Standard Time)","1407889","Untrustworthy,Trustworthy","","","","feedback","","","null","","<div class='trialDiv'><img src='trustrating_stim/white_mw046.bmp'><br><font class='baseline'><strong>Timothy</strong><p>Received: <strong>16</strong></font> &nbsp; &nbsp; &nbsp; &nbsp; &nbsp; &nbsp;<font class='negOutcome'>Shared back: <strong>0</strong></font></font><div class='respPicDiv'><img src='img/responseButtonOffersNo0_wht.png' class='respPic'></div></div>","null","1","Timothy","trustrating_stim/white_mw046.bmp","Kept","0.8,0.4","15","0.8","13","3"
"html-keyboard-response","105","970044","0.0-18.0-1.3","","bdp_trlrn","Wed Nov 10 2021 14:17:42 GMT-0500 (Eastern Standard Time)","1407889","Untrustworthy,Trustworthy","","","","decision","","","5344","","<div class='trialDiv'><img src='trustrating_stim/white_mw035.bmp'><br><font class='baseline'><strong>Daniel</strong><p>Choose number of points to send.</font><div class='respPicDiv'><img src='img/responseButtonOffersNo0L.png' class='respPic'></div></div>","5","1","Daniel","trustrating_stim/white_mw035.bmp","Kept","0.2,0.6","15","0.2","18","4"
"html-keyboard-response","106","970299","0.0-18.0-2.3","","bdp_trlrn","Wed Nov 10 2021 14:17:42 GMT-0500 (Eastern Standard Time)","1407889","Untrustworthy,Trustworthy","","","","decisionFB","","","null","","<div class='trialDiv'><img src='trustrating_stim/white_mw035.bmp'><br><font class='baseline'><strong>Daniel</strong><p>Choose number of points to send.</font><div class='respPicDiv'><img src='img/responseButtonOffersNo0L5.png' class='respPic'></div></div>","null","1","Daniel","trustrating_stim/white_mw035.bmp","Kept","0.2,0.6","15","0.2","13","4"
"html-keyboard-response","107","971303","0.0-18.0-3.3","","bdp_trlrn","Wed Nov 10 2021 14:17:42 GMT-0500 (Eastern Standard Time)","1407889","Untrustworthy,Trustworthy","","","","feedback","","","null","","<div class='trialDiv'><img src='trustrating_stim/white_mw035.bmp'><br><font class='baseline'><strong>Daniel</strong><p>Received: <strong>20</strong></font> &nbsp; &nbsp; &nbsp; &nbsp; &nbsp; &nbsp;<font class='negOutcome'>Shared back: <strong>0</strong></font></font><div class='respPicDiv'><img src='img/responseButtonOffersNo0_wht.png' class='respPic'></div></div>","null","1","Daniel","trustrating_stim/white_mw035.bmp","Kept","0.2,0.6","15","0.2","13","4"
"html-keyboard-response","108","979189","0.0-18.0-1.4","","bdp_trlrn","Wed Nov 10 2021 14:17:42 GMT-0500 (Eastern Standard Time)","1407889","Untrustworthy,Trustworthy","","","","decision","","","7885","","<div class='trialDiv'><img src='trustrating_stim/white_mw084.bmp'><br><font class='baseline'><strong>Jordan</strong><p>Choose number of points to send.</font><div class='respPicDiv'><img src='img/responseButtonOffersNo0L.png' class='respPic'></div></div>","2","2","Jordan","trustrating_stim/white_mw084.bmp","Kept","0.4,0.8","10","0.4","18","5"
"html-keyboard-response","109","979445","0.0-18.0-2.4","","bdp_trlrn","Wed Nov 10 2021 14:17:42 GMT-0500 (Eastern Standard Time)","1407889","Untrustworthy,Trustworthy","","","","decisionFB","","","null","","<div class='trialDiv'><img src='trustrating_stim/white_mw084.bmp'><br><font class='baseline'><strong>Jordan</strong><p>Choose number of points to send.</font><div class='respPicDiv'><img src='img/responseButtonOffersNo0L2.png' class='respPic'></div></div>","null","2","Jordan","trustrating_stim/white_mw084.bmp","Kept","0.4,0.8","10","0.4","16","5"
"html-keyboard-response","110","980449","0.0-18.0-3.4","","bdp_trlrn","Wed Nov 10 2021 14:17:42 GMT-0500 (Eastern Standard Time)","1407889","Untrustworthy,Trustworthy","","","","feedback","","","null","","<div class='trialDiv'><img src='trustrating_stim/white_mw084.bmp'><br><font class='baseline'><strong>Jordan</strong><p>Received: <strong>8</strong></font> &nbsp; &nbsp; &nbsp; &nbsp; &nbsp; &nbsp;<font class='negOutcome'>Shared back: <strong>0</strong></font></font><div class='respPicDiv'><img src='img/responseButtonOffersNo0_wht.png' class='respPic'></div></div>","null","2","Jordan","trustrating_stim/white_mw084.bmp","Kept","0.4,0.8","10","0.4","16","5"
"html-keyboard-response","111","984277","0.0-18.0-1.5","","bdp_trlrn","Wed Nov 10 2021 14:17:42 GMT-0500 (Eastern Standard Time)","1407889","Untrustworthy,Trustworthy","","","","decision","","","3827","","<div class='trialDiv'><img src='trustrating_stim/white_mw035.bmp'><br><font class='baseline'><strong>Daniel</strong><p>Choose number of points to send.</font><div class='respPicDiv'><img src='img/responseButtonOffersNo0L.png' class='respPic'></div></div>","3","2","Daniel","trustrating_stim/white_mw035.bmp","Kept","0.2,0.6","15","0.2","21","6"
"html-keyboard-response","112","984534","0.0-18.0-2.5","","bdp_trlrn","Wed Nov 10 2021 14:17:42 GMT-0500 (Eastern Standard Time)","1407889","Untrustworthy,Trustworthy","","","","decisionFB","","","null","","<div class='trialDiv'><img src='trustrating_stim/white_mw035.bmp'><br><font class='baseline'><strong>Daniel</strong><p>Choose number of points to send.</font><div class='respPicDiv'><img src='img/responseButtonOffersNo0L3.png' class='respPic'></div></div>","null","2","Daniel","trustrating_stim/white_mw035.bmp","Kept","0.2,0.6","15","0.2","18","6"
"html-keyboard-response","113","985538","0.0-18.0-3.5","","bdp_trlrn","Wed Nov 10 2021 14:17:42 GMT-0500 (Eastern Standard Time)","1407889","Untrustworthy,Trustworthy","","","","feedback","","","null","","<div class='trialDiv'><img src='trustrating_stim/white_mw035.bmp'><br><font class='baseline'><strong>Daniel</strong><p>Received: <strong>12</strong></font> &nbsp; &nbsp; &nbsp; &nbsp; &nbsp; &nbsp;<font class='negOutcome'>Shared back: <strong>0</strong></font></font><div class='respPicDiv'><img src='img/responseButtonOffersNo0_wht.png' class='respPic'></div></div>","null","2","Daniel","trustrating_stim/white_mw035.bmp","Kept","0.2,0.6","15","0.2","18","6"
"html-keyboard-response","114","988805","0.0-18.0-1.6","","bdp_trlrn","Wed Nov 10 2021 14:17:42 GMT-0500 (Eastern Standard Time)","1407889","Untrustworthy,Trustworthy","","","","decision","","","3266","","<div class='trialDiv'><img src='trustrating_stim/white_mw046.bmp'><br><font class='baseline'><strong>Timothy</strong><p>Choose number of points to send.</font><div class='respPicDiv'><img src='img/responseButtonOffersNo0L.png' class='respPic'></div></div>","3","2","Timothy","trustrating_stim/white_mw046.bmp","Kept","0.8,0.4","15","0.8","23","7"
"html-keyboard-response","115","989058","0.0-18.0-2.6","","bdp_trlrn","Wed Nov 10 2021 14:17:42 GMT-0500 (Eastern Standard Time)","1407889","Untrustworthy,Trustworthy","","","","decisionFB","","","null","","<div class='trialDiv'><img src='trustrating_stim/white_mw046.bmp'><br><font class='baseline'><strong>Timothy</strong><p>Choose number of points to send.</font><div class='respPicDiv'><img src='img/responseButtonOffersNo0L3.png' class='respPic'></div></div>","null","2","Timothy","trustrating_stim/white_mw046.bmp","Kept","0.8,0.4","15","0.8","20","7"
"html-keyboard-response","116","990062","0.0-18.0-3.6","","bdp_trlrn","Wed Nov 10 2021 14:17:42 GMT-0500 (Eastern Standard Time)","1407889","Untrustworthy,Trustworthy","","","","feedback","","","null","","<div class='trialDiv'><img src='trustrating_stim/white_mw046.bmp'><br><font class='baseline'><strong>Timothy</strong><p>Received: <strong>12</strong></font> &nbsp; &nbsp; &nbsp; &nbsp; &nbsp; &nbsp;<font class='negOutcome'>Shared back: <strong>0</strong></font></font><div class='respPicDiv'><img src='img/responseButtonOffersNo0_wht.png' class='respPic'></div></div>","null","2","Timothy","trustrating_stim/white_mw046.bmp","Kept","0.8,0.4","15","0.8","20","7"
"html-keyboard-response","117","993485","0.0-18.0-1.7","","bdp_trlrn","Wed Nov 10 2021 14:17:42 GMT-0500 (Eastern Standard Time)","1407889","Untrustworthy,Trustworthy","","","","decision","","","3422","","<div class='trialDiv'><img src='trustrating_stim/white_00785_941205_fb_edt.bmp'><br><font class='baseline'><strong>Anthony</strong><p>Choose number of points to send.</font><div class='respPicDiv'><img src='img/responseButtonOffersNo0L.png' class='respPic'></div></div>","5","2","Anthony","trustrating_stim/white_00785_941205_fb_edt.bmp","Kept","0.6,0.2","14","0.6","25","8"
"html-keyboard-response","118","993740","0.0-18.0-2.7","","bdp_trlrn","Wed Nov 10 2021 14:17:42 GMT-0500 (Eastern Standard Time)","1407889","Untrustworthy,Trustworthy","","","","decisionFB","","","null","","<div class='trialDiv'><img src='trustrating_stim/white_00785_941205_fb_edt.bmp'><br><font class='baseline'><strong>Anthony</strong><p>Choose number of points to send.</font><div class='respPicDiv'><img src='img/responseButtonOffersNo0L5.png' class='respPic'></div></div>","null","2","Anthony","trustrating_stim/white_00785_941205_fb_edt.bmp","Kept","0.6,0.2","14","0.6","20","8"
"html-keyboard-response","119","994745","0.0-18.0-3.7","","bdp_trlrn","Wed Nov 10 2021 14:17:42 GMT-0500 (Eastern Standard Time)","1407889","Untrustworthy,Trustworthy","","","","feedback","","","null","","<div class='trialDiv'><img src='trustrating_stim/white_00785_941205_fb_edt.bmp'><br><font class='baseline'><strong>Anthony</strong><p>Received: <strong>20</strong></font> &nbsp; &nbsp; &nbsp; &nbsp; &nbsp; &nbsp;<font class='negOutcome'>Shared back: <strong>0</strong></font></font><div class='respPicDiv'><img src='img/responseButtonOffersNo0_wht.png' class='respPic'></div></div>","null","2","Anthony","trustrating_stim/white_00785_941205_fb_edt.bmp","Kept","0.6,0.2","14","0.6","20","8"
"html-keyboard-response","120","999421","0.0-18.0-1.8","","bdp_trlrn","Wed Nov 10 2021 14:17:42 GMT-0500 (Eastern Standard Time)","1407889","Untrustworthy,Trustworthy","","","","decision","","","4675","","<div class='trialDiv'><img src='trustrating_stim/white_mw084.bmp'><br><font class='baseline'><strong>Jordan</strong><p>Choose number of points to send.</font><div class='respPicDiv'><img src='img/responseButtonOffersNo0L.png' class='respPic'></div></div>","1","3","Jordan","trustrating_stim/white_mw084.bmp","Shared","0.4,0.8","10","0.4","25","9"
"html-keyboard-response","121","999675","0.0-18.0-2.8","","bdp_trlrn","Wed Nov 10 2021 14:17:42 GMT-0500 (Eastern Standard Time)","1407889","Untrustworthy,Trustworthy","","","","decisionFB","","","null","","<div class='trialDiv'><img src='trustrating_stim/white_mw084.bmp'><br><font class='baseline'><strong>Jordan</strong><p>Choose number of points to send.</font><div class='respPicDiv'><img src='img/responseButtonOffersNo0L1.png' class='respPic'></div></div>","null","3","Jordan","trustrating_stim/white_mw084.bmp","Shared","0.4,0.8","10","0.4","24","9"
"html-keyboard-response","122","1000680","0.0-18.0-3.8","","bdp_trlrn","Wed Nov 10 2021 14:17:42 GMT-0500 (Eastern Standard Time)","1407889","Untrustworthy,Trustworthy","","","","feedback","","","null","","<div class='trialDiv'><img src='trustrating_stim/white_mw084.bmp'><br><font class='baseline'><strong>Jordan</strong><p>Received: <strong>4</strong></font> &nbsp; &nbsp; &nbsp; &nbsp; &nbsp; &nbsp;<font class='posOutcome'>Shared back: <strong>2</strong></font></font><div class='respPicDiv'><img src='img/responseButtonOffersNo0_wht.png' class='respPic'></div></div>","null","3","Jordan","trustrating_stim/white_mw084.bmp","Shared","0.4,0.8","10","0.4","26","9"
"html-keyboard-response","123","1004574","0.0-18.0-1.9","","bdp_trlrn","Wed Nov 10 2021 14:17:42 GMT-0500 (Eastern Standard Time)","1407889","Untrustworthy,Trustworthy","","","","decision","","","3893","","<div class='trialDiv'><img src='trustrating_stim/white_mw046.bmp'><br><font class='baseline'><strong>Timothy</strong><p>Choose number of points to send.</font><div class='respPicDiv'><img src='img/responseButtonOffersNo0L.png' class='respPic'></div></div>","3","3","Timothy","trustrating_stim/white_mw046.bmp","Shared","0.8,0.4","15","0.8","31","10"
"html-keyboard-response","124","1004828","0.0-18.0-2.9","","bdp_trlrn","Wed Nov 10 2021 14:17:42 GMT-0500 (Eastern Standard Time)","1407889","Untrustworthy,Trustworthy","","","","decisionFB","","","null","","<div class='trialDiv'><img src='trustrating_stim/white_mw046.bmp'><br><font class='baseline'><strong>Timothy</strong><p>Choose number of points to send.</font><div class='respPicDiv'><img src='img/responseButtonOffersNo0L3.png' class='respPic'></div></div>","null","3","Timothy","trustrating_stim/white_mw046.bmp","Shared","0.8,0.4","15","0.8","28","10"
"html-keyboard-response","125","1005833","0.0-18.0-3.9","","bdp_trlrn","Wed Nov 10 2021 14:17:42 GMT-0500 (Eastern Standard Time)","1407889","Untrustworthy,Trustworthy","","","","feedback","","","null","","<div class='trialDiv'><img src='trustrating_stim/white_mw046.bmp'><br><font class='baseline'><strong>Timothy</strong><p>Received: <strong>12</strong></font> &nbsp; &nbsp; &nbsp; &nbsp; &nbsp; &nbsp;<font class='posOutcome'>Shared back: <strong>6</strong></font></font><div class='respPicDiv'><img src='img/responseButtonOffersNo0_wht.png' class='respPic'></div></div>","null","3","Timothy","trustrating_stim/white_mw046.bmp","Shared","0.8,0.4","15","0.8","34","10"
"html-keyboard-response","126","1009213","0.0-18.0-1.10","","bdp_trlrn","Wed Nov 10 2021 14:17:42 GMT-0500 (Eastern Standard Time)","1407889","Untrustworthy,Trustworthy","","","","decision","","","3379","","<div class='trialDiv'><img src='trustrating_stim/white_mw035.bmp'><br><font class='baseline'><strong>Daniel</strong><p>Choose number of points to send.</font><div class='respPicDiv'><img src='img/responseButtonOffersNo0L.png' class='respPic'></div></div>","3","3","Daniel","trustrating_stim/white_mw035.bmp","Kept","0.2,0.6","15","0.2","39","11"
"html-keyboard-response","127","1009469","0.0-18.0-2.10","","bdp_trlrn","Wed Nov 10 2021 14:17:42 GMT-0500 (Eastern Standard Time)","1407889","Untrustworthy,Trustworthy","","","","decisionFB","","","null","","<div class='trialDiv'><img src='trustrating_stim/white_mw035.bmp'><br><font class='baseline'><strong>Daniel</strong><p>Choose number of points to send.</font><div class='respPicDiv'><img src='img/responseButtonOffersNo0L3.png' class='respPic'></div></div>","null","3","Daniel","trustrating_stim/white_mw035.bmp","Kept","0.2,0.6","15","0.2","36","11"
"html-keyboard-response","128","1010474","0.0-18.0-3.10","","bdp_trlrn","Wed Nov 10 2021 14:17:42 GMT-0500 (Eastern Standard Time)","1407889","Untrustworthy,Trustworthy","","","","feedback","","","null","","<div class='trialDiv'><img src='trustrating_stim/white_mw035.bmp'><br><font class='baseline'><strong>Daniel</strong><p>Received: <strong>12</strong></font> &nbsp; &nbsp; &nbsp; &nbsp; &nbsp; &nbsp;<font class='negOutcome'>Shared back: <strong>0</strong></font></font><div class='respPicDiv'><img src='img/responseButtonOffersNo0_wht.png' class='respPic'></div></div>","null","3","Daniel","trustrating_stim/white_mw035.bmp","Kept","0.2,0.6","15","0.2","36","11"
"html-keyboard-response","129","1013414","0.0-18.0-1.11","","bdp_trlrn","Wed Nov 10 2021 14:17:42 GMT-0500 (Eastern Standard Time)","1407889","Untrustworthy,Trustworthy","","","","decision","","","2939","","<div class='trialDiv'><img src='trustrating_stim/white_00785_941205_fb_edt.bmp'><br><font class='baseline'><strong>Anthony</strong><p>Choose number of points to send.</font><div class='respPicDiv'><img src='img/responseButtonOffersNo0L.png' class='respPic'></div></div>","4","3","Anthony","trustrating_stim/white_00785_941205_fb_edt.bmp","Shared","0.6,0.2","14","0.6","41","12"
"html-keyboard-response","130","1013670","0.0-18.0-2.11","","bdp_trlrn","Wed Nov 10 2021 14:17:42 GMT-0500 (Eastern Standard Time)","1407889","Untrustworthy,Trustworthy","","","","decisionFB","","","null","","<div class='trialDiv'><img src='trustrating_stim/white_00785_941205_fb_edt.bmp'><br><font class='baseline'><strong>Anthony</strong><p>Choose number of points to send.</font><div class='respPicDiv'><img src='img/responseButtonOffersNo0L4.png' class='respPic'></div></div>","null","3","Anthony","trustrating_stim/white_00785_941205_fb_edt.bmp","Shared","0.6,0.2","14","0.6","37","12"
"html-keyboard-response","131","1014676","0.0-18.0-3.11","","bdp_trlrn","Wed Nov 10 2021 14:17:42 GMT-0500 (Eastern Standard Time)","1407889","Untrustworthy,Trustworthy","","","","feedback","","","null","","<div class='trialDiv'><img src='trustrating_stim/white_00785_941205_fb_edt.bmp'><br><font class='baseline'><strong>Anthony</strong><p>Received: <strong>16</strong></font> &nbsp; &nbsp; &nbsp; &nbsp; &nbsp; &nbsp;<font class='posOutcome'>Shared back: <strong>8</strong></font></font><div class='respPicDiv'><img src='img/responseButtonOffersNo0_wht.png' class='respPic'></div></div>","null","3","Anthony","trustrating_stim/white_00785_941205_fb_edt.bmp","Shared","0.6,0.2","14","0.6","45","12"
"html-keyboard-response","132","1018286","0.0-18.0-1.12","","bdp_trlrn","Wed Nov 10 2021 14:17:42 GMT-0500 (Eastern Standard Time)","1407889","Untrustworthy,Trustworthy","","","","decision","","","3609","","<div class='trialDiv'><img src='trustrating_stim/white_mw084.bmp'><br><font class='baseline'><strong>Jordan</strong><p>Choose number of points to send.</font><div class='respPicDiv'><img src='img/responseButtonOffersNo0L.png' class='respPic'></div></div>","3","4","Jordan","trustrating_stim/white_mw084.bmp","Shared","0.4,0.8","10","0.4","50","13"
"html-keyboard-response","133","1018540","0.0-18.0-2.12","","bdp_trlrn","Wed Nov 10 2021 14:17:42 GMT-0500 (Eastern Standard Time)","1407889","Untrustworthy,Trustworthy","","","","decisionFB","","","null","","<div class='trialDiv'><img src='trustrating_stim/white_mw084.bmp'><br><font class='baseline'><strong>Jordan</strong><p>Choose number of points to send.</font><div class='respPicDiv'><img src='img/responseButtonOffersNo0L3.png' class='respPic'></div></div>","null","4","Jordan","trustrating_stim/white_mw084.bmp","Shared","0.4,0.8","10","0.4","47","13"
"html-keyboard-response","134","1019544","0.0-18.0-3.12","","bdp_trlrn","Wed Nov 10 2021 14:17:42 GMT-0500 (Eastern Standard Time)","1407889","Untrustworthy,Trustworthy","","","","feedback","","","null","","<div class='trialDiv'><img src='trustrating_stim/white_mw084.bmp'><br><font class='baseline'><strong>Jordan</strong><p>Received: <strong>12</strong></font> &nbsp; &nbsp; &nbsp; &nbsp; &nbsp; &nbsp;<font class='posOutcome'>Shared back: <strong>6</strong></font></font><div class='respPicDiv'><img src='img/responseButtonOffersNo0_wht.png' class='respPic'></div></div>","null","4","Jordan","trustrating_stim/white_mw084.bmp","Shared","0.4,0.8","10","0.4","53","13"
"html-keyboard-response","135","1024254","0.0-18.0-1.13","","bdp_trlrn","Wed Nov 10 2021 14:17:42 GMT-0500 (Eastern Standard Time)","1407889","Untrustworthy,Trustworthy","","","","decision","","","4709","","<div class='trialDiv'><img src='trustrating_stim/white_mw046.bmp'><br><font class='baseline'><strong>Timothy</strong><p>Choose number of points to send.</font><div class='respPicDiv'><img src='img/responseButtonOffersNo0L.png' class='respPic'></div></div>","4","4","Timothy","trustrating_stim/white_mw046.bmp","Kept","0.8,0.4","15","0.8","58","14"
"html-keyboard-response","136","1024510","0.0-18.0-2.13","","bdp_trlrn","Wed Nov 10 2021 14:17:42 GMT-0500 (Eastern Standard Time)","1407889","Untrustworthy,Trustworthy","","","","decisionFB","","","null","","<div class='trialDiv'><img src='trustrating_stim/white_mw046.bmp'><br><font class='baseline'><strong>Timothy</strong><p>Choose number of points to send.</font><div class='respPicDiv'><img src='img/responseButtonOffersNo0L4.png' class='respPic'></div></div>","null","4","Timothy","trustrating_stim/white_mw046.bmp","Kept","0.8,0.4","15","0.8","54","14"
"html-keyboard-response","137","1025515","0.0-18.0-3.13","","bdp_trlrn","Wed Nov 10 2021 14:17:42 GMT-0500 (Eastern Standard Time)","1407889","Untrustworthy,Trustworthy","","","","feedback","","","null","","<div class='trialDiv'><img src='trustrating_stim/white_mw046.bmp'><br><font class='baseline'><strong>Timothy</strong><p>Received: <strong>16</strong></font> &nbsp; &nbsp; &nbsp; &nbsp; &nbsp; &nbsp;<font class='negOutcome'>Shared back: <strong>0</strong></font></font><div class='respPicDiv'><img src='img/responseButtonOffersNo0_wht.png' class='respPic'></div></div>","null","4","Timothy","trustrating_stim/white_mw046.bmp","Kept","0.8,0.4","15","0.8","54","14"
"html-keyboard-response","138","1029071","0.0-18.0-1.14","","bdp_trlrn","Wed Nov 10 2021 14:17:42 GMT-0500 (Eastern Standard Time)","1407889","Untrustworthy,Trustworthy","","","","decision","","","3555","","<div class='trialDiv'><img src='trustrating_stim/white_00785_941205_fb_edt.bmp'><br><font class='baseline'><strong>Anthony</strong><p>Choose number of points to send.</font><div class='respPicDiv'><img src='img/responseButtonOffersNo0L.png' class='respPic'></div></div>","5","4","Anthony","trustrating_stim/white_00785_941205_fb_edt.bmp","Kept","0.6,0.2","14","0.6","59","15"
"html-keyboard-response","139","1029326","0.0-18.0-2.14","","bdp_trlrn","Wed Nov 10 2021 14:17:42 GMT-0500 (Eastern Standard Time)","1407889","Untrustworthy,Trustworthy","","","","decisionFB","","","null","","<div class='trialDiv'><img src='trustrating_stim/white_00785_941205_fb_edt.bmp'><br><font class='baseline'><strong>Anthony</strong><p>Choose number of points to send.</font><div class='respPicDiv'><img src='img/responseButtonOffersNo0L5.png' class='respPic'></div></div>","null","4","Anthony","trustrating_stim/white_00785_941205_fb_edt.bmp","Kept","0.6,0.2","14","0.6","54","15"
"html-keyboard-response","140","1030330","0.0-18.0-3.14","","bdp_trlrn","Wed Nov 10 2021 14:17:42 GMT-0500 (Eastern Standard Time)","1407889","Untrustworthy,Trustworthy","","","","feedback","","","null","","<div class='trialDiv'><img src='trustrating_stim/white_00785_941205_fb_edt.bmp'><br><font class='baseline'><strong>Anthony</strong><p>Received: <strong>20</strong></font> &nbsp; &nbsp; &nbsp; &nbsp; &nbsp; &nbsp;<font class='negOutcome'>Shared back: <strong>0</strong></font></font><div class='respPicDiv'><img src='img/responseButtonOffersNo0_wht.png' class='respPic'></div></div>","null","4","Anthony","trustrating_stim/white_00785_941205_fb_edt.bmp","Kept","0.6,0.2","14","0.6","54","15"
"html-keyboard-response","141","1033078","0.0-18.0-1.15","","bdp_trlrn","Wed Nov 10 2021 14:17:42 GMT-0500 (Eastern Standard Time)","1407889","Untrustworthy,Trustworthy","","","","decision","","","2747","","<div class='trialDiv'><img src='trustrating_stim/white_mw035.bmp'><br><font class='baseline'><strong>Daniel</strong><p>Choose number of points to send.</font><div class='respPicDiv'><img src='img/responseButtonOffersNo0L.png' class='respPic'></div></div>","1","4","Daniel","trustrating_stim/white_mw035.bmp","Kept","0.2,0.6","15","0.2","59","16"
"html-keyboard-response","142","1033334","0.0-18.0-2.15","","bdp_trlrn","Wed Nov 10 2021 14:17:42 GMT-0500 (Eastern Standard Time)","1407889","Untrustworthy,Trustworthy","","","","decisionFB","","","null","","<div class='trialDiv'><img src='trustrating_stim/white_mw035.bmp'><br><font class='baseline'><strong>Daniel</strong><p>Choose number of points to send.</font><div class='respPicDiv'><img src='img/responseButtonOffersNo0L1.png' class='respPic'></div></div>","null","4","Daniel","trustrating_stim/white_mw035.bmp","Kept","0.2,0.6","15","0.2","58","16"
"html-keyboard-response","143","1034339","0.0-18.0-3.15","","bdp_trlrn","Wed Nov 10 2021 14:17:42 GMT-0500 (Eastern Standard Time)","1407889","Untrustworthy,Trustworthy","","","","feedback","","","null","","<div class='trialDiv'><img src='trustrating_stim/white_mw035.bmp'><br><font class='baseline'><strong>Daniel</strong><p>Received: <strong>4</strong></font> &nbsp; &nbsp; &nbsp; &nbsp; &nbsp; &nbsp;<font class='negOutcome'>Shared back: <strong>0</strong></font></font><div class='respPicDiv'><img src='img/responseButtonOffersNo0_wht.png' class='respPic'></div></div>","null","4","Daniel","trustrating_stim/white_mw035.bmp","Kept","0.2,0.6","15","0.2","58","16"
"html-keyboard-response","144","1039511","0.0-18.0-1.16","","bdp_trlrn","Wed Nov 10 2021 14:17:42 GMT-0500 (Eastern Standard Time)","1407889","Untrustworthy,Trustworthy","","","","decision","","","5172","","<div class='trialDiv'><img src='trustrating_stim/white_mw046.bmp'><br><font class='baseline'><strong>Timothy</strong><p>Choose number of points to send.</font><div class='respPicDiv'><img src='img/responseButtonOffersNo0L.png' class='respPic'></div></div>","3","5","Timothy","trustrating_stim/white_mw046.bmp","Shared","0.8,0.4","15","0.8","63","17"
"html-keyboard-response","145","1039766","0.0-18.0-2.16","","bdp_trlrn","Wed Nov 10 2021 14:17:42 GMT-0500 (Eastern Standard Time)","1407889","Untrustworthy,Trustworthy","","","","decisionFB","","","null","","<div class='trialDiv'><img src='trustrating_stim/white_mw046.bmp'><br><font class='baseline'><strong>Timothy</strong><p>Choose number of points to send.</font><div class='respPicDiv'><img src='img/responseButtonOffersNo0L3.png' class='respPic'></div></div>","null","5","Timothy","trustrating_stim/white_mw046.bmp","Shared","0.8,0.4","15","0.8","60","17"
"html-keyboard-response","146","1040770","0.0-18.0-3.16","","bdp_trlrn","Wed Nov 10 2021 14:17:42 GMT-0500 (Eastern Standard Time)","1407889","Untrustworthy,Trustworthy","","","","feedback","","","null","","<div class='trialDiv'><img src='trustrating_stim/white_mw046.bmp'><br><font class='baseline'><strong>Timothy</strong><p>Received: <strong>12</strong></font> &nbsp; &nbsp; &nbsp; &nbsp; &nbsp; &nbsp;<font class='posOutcome'>Shared back: <strong>6</strong></font></font><div class='respPicDiv'><img src='img/responseButtonOffersNo0_wht.png' class='respPic'></div></div>","null","5","Timothy","trustrating_stim/white_mw046.bmp","Shared","0.8,0.4","15","0.8","66","17"
"html-keyboard-response","147","1043151","0.0-18.0-1.17","","bdp_trlrn","Wed Nov 10 2021 14:17:42 GMT-0500 (Eastern Standard Time)","1407889","Untrustworthy,Trustworthy","","","","decision","","","2379","","<div class='trialDiv'><img src='trustrating_stim/white_mw035.bmp'><br><font class='baseline'><strong>Daniel</strong><p>Choose number of points to send.</font><div class='respPicDiv'><img src='img/responseButtonOffersNo0L.png' class='respPic'></div></div>","1","5","Daniel","trustrating_stim/white_mw035.bmp","Shared","0.2,0.6","15","0.2","71","18"
"html-keyboard-response","148","1043406","0.0-18.0-2.17","","bdp_trlrn","Wed Nov 10 2021 14:17:42 GMT-0500 (Eastern Standard Time)","1407889","Untrustworthy,Trustworthy","","","","decisionFB","","","null","","<div class='trialDiv'><img src='trustrating_stim/white_mw035.bmp'><br><font class='baseline'><strong>Daniel</strong><p>Choose number of points to send.</font><div class='respPicDiv'><img src='img/responseButtonOffersNo0L1.png' class='respPic'></div></div>","null","5","Daniel","trustrating_stim/white_mw035.bmp","Shared","0.2,0.6","15","0.2","70","18"
"html-keyboard-response","149","1044410","0.0-18.0-3.17","","bdp_trlrn","Wed Nov 10 2021 14:17:42 GMT-0500 (Eastern Standard Time)","1407889","Untrustworthy,Trustworthy","","","","feedback","","","null","","<div class='trialDiv'><img src='trustrating_stim/white_mw035.bmp'><br><font class='baseline'><strong>Daniel</strong><p>Received: <strong>4</strong></font> &nbsp; &nbsp; &nbsp; &nbsp; &nbsp; &nbsp;<font class='posOutcome'>Shared back: <strong>2</strong></font></font><div class='respPicDiv'><img src='img/responseButtonOffersNo0_wht.png' class='respPic'></div></div>","null","5","Daniel","trustrating_stim/white_mw035.bmp","Shared","0.2,0.6","15","0.2","72","18"
"html-keyboard-response","150","1046679","0.0-18.0-1.18","","bdp_trlrn","Wed Nov 10 2021 14:17:42 GMT-0500 (Eastern Standard Time)","1407889","Untrustworthy,Trustworthy","","","","decision","","","2267","","<div class='trialDiv'><img src='trustrating_stim/white_mw084.bmp'><br><font class='baseline'><strong>Jordan</strong><p>Choose number of points to send.</font><div class='respPicDiv'><img src='img/responseButtonOffersNo0L.png' class='respPic'></div></div>","3","5","Jordan","trustrating_stim/white_mw084.bmp","Kept","0.4,0.8","10","0.4","77","19"
"html-keyboard-response","151","1046935","0.0-18.0-2.18","","bdp_trlrn","Wed Nov 10 2021 14:17:42 GMT-0500 (Eastern Standard Time)","1407889","Untrustworthy,Trustworthy","","","","decisionFB","","","null","","<div class='trialDiv'><img src='trustrating_stim/white_mw084.bmp'><br><font class='baseline'><strong>Jordan</strong><p>Choose number of points to send.</font><div class='respPicDiv'><img src='img/responseButtonOffersNo0L3.png' class='respPic'></div></div>","null","5","Jordan","trustrating_stim/white_mw084.bmp","Kept","0.4,0.8","10","0.4","74","19"
"html-keyboard-response","152","1047940","0.0-18.0-3.18","","bdp_trlrn","Wed Nov 10 2021 14:17:42 GMT-0500 (Eastern Standard Time)","1407889","Untrustworthy,Trustworthy","","","","feedback","","","null","","<div class='trialDiv'><img src='trustrating_stim/white_mw084.bmp'><br><font class='baseline'><strong>Jordan</strong><p>Received: <strong>12</strong></font> &nbsp; &nbsp; &nbsp; &nbsp; &nbsp; &nbsp;<font class='negOutcome'>Shared back: <strong>0</strong></font></font><div class='respPicDiv'><img src='img/responseButtonOffersNo0_wht.png' class='respPic'></div></div>","null","5","Jordan","trustrating_stim/white_mw084.bmp","Kept","0.4,0.8","10","0.4","74","19"
"html-keyboard-response","153","1050575","0.0-18.0-1.19","","bdp_trlrn","Wed Nov 10 2021 14:17:42 GMT-0500 (Eastern Standard Time)","1407889","Untrustworthy,Trustworthy","","","","decision","","","2634","","<div class='trialDiv'><img src='trustrating_stim/white_00785_941205_fb_edt.bmp'><br><font class='baseline'><strong>Anthony</strong><p>Choose number of points to send.</font><div class='respPicDiv'><img src='img/responseButtonOffersNo0L.png' class='respPic'></div></div>","5","5","Anthony","trustrating_stim/white_00785_941205_fb_edt.bmp","Kept","0.6,0.2","14","0.6","79","20"
"html-keyboard-response","154","1050831","0.0-18.0-2.19","","bdp_trlrn","Wed Nov 10 2021 14:17:42 GMT-0500 (Eastern Standard Time)","1407889","Untrustworthy,Trustworthy","","","","decisionFB","","","null","","<div class='trialDiv'><img src='trustrating_stim/white_00785_941205_fb_edt.bmp'><br><font class='baseline'><strong>Anthony</strong><p>Choose number of points to send.</font><div class='respPicDiv'><img src='img/responseButtonOffersNo0L5.png' class='respPic'></div></div>","null","5","Anthony","trustrating_stim/white_00785_941205_fb_edt.bmp","Kept","0.6,0.2","14","0.6","74","20"
"html-keyboard-response","155","1051835","0.0-18.0-3.19","","bdp_trlrn","Wed Nov 10 2021 14:17:42 GMT-0500 (Eastern Standard Time)","1407889","Untrustworthy,Trustworthy","","","","feedback","","","null","","<div class='trialDiv'><img src='trustrating_stim/white_00785_941205_fb_edt.bmp'><br><font class='baseline'><strong>Anthony</strong><p>Received: <strong>20</strong></font> &nbsp; &nbsp; &nbsp; &nbsp; &nbsp; &nbsp;<font class='negOutcome'>Shared back: <strong>0</strong></font></font><div class='respPicDiv'><img src='img/responseButtonOffersNo0_wht.png' class='respPic'></div></div>","null","5","Anthony","trustrating_stim/white_00785_941205_fb_edt.bmp","Kept","0.6,0.2","14","0.6","74","20"
"html-keyboard-response","156","1053127","0.0-18.0-1.20","","bdp_trlrn","Wed Nov 10 2021 14:17:42 GMT-0500 (Eastern Standard Time)","1407889","Untrustworthy,Trustworthy","","","","decision","","","1291","","<div class='trialDiv'><img src='trustrating_stim/white_mw046.bmp'><br><font class='baseline'><strong>Timothy</strong><p>Choose number of points to send.</font><div class='respPicDiv'><img src='img/responseButtonOffersNo0L.png' class='respPic'></div></div>","5","6","Timothy","trustrating_stim/white_mw046.bmp","Kept","0.8,0.4","15","0.8","79","21"
"html-keyboard-response","157","1053382","0.0-18.0-2.20","","bdp_trlrn","Wed Nov 10 2021 14:17:42 GMT-0500 (Eastern Standard Time)","1407889","Untrustworthy,Trustworthy","","","","decisionFB","","","null","","<div class='trialDiv'><img src='trustrating_stim/white_mw046.bmp'><br><font class='baseline'><strong>Timothy</strong><p>Choose number of points to send.</font><div class='respPicDiv'><img src='img/responseButtonOffersNo0L5.png' class='respPic'></div></div>","null","6","Timothy","trustrating_stim/white_mw046.bmp","Kept","0.8,0.4","15","0.8","74","21"
"html-keyboard-response","158","1054387","0.0-18.0-3.20","","bdp_trlrn","Wed Nov 10 2021 14:17:42 GMT-0500 (Eastern Standard Time)","1407889","Untrustworthy,Trustworthy","","","","feedback","","","null","","<div class='trialDiv'><img src='trustrating_stim/white_mw046.bmp'><br><font class='baseline'><strong>Timothy</strong><p>Received: <strong>20</strong></font> &nbsp; &nbsp; &nbsp; &nbsp; &nbsp; &nbsp;<font class='negOutcome'>Shared back: <strong>0</strong></font></font><div class='respPicDiv'><img src='img/responseButtonOffersNo0_wht.png' class='respPic'></div></div>","null","6","Timothy","trustrating_stim/white_mw046.bmp","Kept","0.8,0.4","15","0.8","74","21"
"html-keyboard-response","159","1059407","0.0-18.0-1.21","","bdp_trlrn","Wed Nov 10 2021 14:17:42 GMT-0500 (Eastern Standard Time)","1407889","Untrustworthy,Trustworthy","","","","decision","","","5019","","<div class='trialDiv'><img src='trustrating_stim/white_mw084.bmp'><br><font class='baseline'><strong>Jordan</strong><p>Choose number of points to send.</font><div class='respPicDiv'><img src='img/responseButtonOffersNo0L.png' class='respPic'></div></div>","3","6","Jordan","trustrating_stim/white_mw084.bmp","Shared","0.4,0.8","10","0.4","79","22"
"html-keyboard-response","160","1059661","0.0-18.0-2.21","","bdp_trlrn","Wed Nov 10 2021 14:17:42 GMT-0500 (Eastern Standard Time)","1407889","Untrustworthy,Trustworthy","","","","decisionFB","","","null","","<div class='trialDiv'><img src='trustrating_stim/white_mw084.bmp'><br><font class='baseline'><strong>Jordan</strong><p>Choose number of points to send.</font><div class='respPicDiv'><img src='img/responseButtonOffersNo0L3.png' class='respPic'></div></div>","null","6","Jordan","trustrating_stim/white_mw084.bmp","Shared","0.4,0.8","10","0.4","76","22"
"html-keyboard-response","161","1060665","0.0-18.0-3.21","","bdp_trlrn","Wed Nov 10 2021 14:17:42 GMT-0500 (Eastern Standard Time)","1407889","Untrustworthy,Trustworthy","","","","feedback","","","null","","<div class='trialDiv'><img src='trustrating_stim/white_mw084.bmp'><br><font class='baseline'><strong>Jordan</strong><p>Received: <strong>12</strong></font> &nbsp; &nbsp; &nbsp; &nbsp; &nbsp; &nbsp;<font class='posOutcome'>Shared back: <strong>6</strong></font></font><div class='respPicDiv'><img src='img/responseButtonOffersNo0_wht.png' class='respPic'></div></div>","null","6","Jordan","trustrating_stim/white_mw084.bmp","Shared","0.4,0.8","10","0.4","82","22"
"html-keyboard-response","162","1062528","0.0-18.0-1.22","","bdp_trlrn","Wed Nov 10 2021 14:17:42 GMT-0500 (Eastern Standard Time)","1407889","Untrustworthy,Trustworthy","","","","decision","","","1861","","<div class='trialDiv'><img src='trustrating_stim/white_mw035.bmp'><br><font class='baseline'><strong>Daniel</strong><p>Choose number of points to send.</font><div class='respPicDiv'><img src='img/responseButtonOffersNo0L.png' class='respPic'></div></div>","2","6","Daniel","trustrating_stim/white_mw035.bmp","Kept","0.2,0.6","15","0.2","87","23"
"html-keyboard-response","163","1062781","0.0-18.0-2.22","","bdp_trlrn","Wed Nov 10 2021 14:17:42 GMT-0500 (Eastern Standard Time)","1407889","Untrustworthy,Trustworthy","","","","decisionFB","","","null","","<div class='trialDiv'><img src='trustrating_stim/white_mw035.bmp'><br><font class='baseline'><strong>Daniel</strong><p>Choose number of points to send.</font><div class='respPicDiv'><img src='img/responseButtonOffersNo0L2.png' class='respPic'></div></div>","null","6","Daniel","trustrating_stim/white_mw035.bmp","Kept","0.2,0.6","15","0.2","85","23"
"html-keyboard-response","164","1063785","0.0-18.0-3.22","","bdp_trlrn","Wed Nov 10 2021 14:17:42 GMT-0500 (Eastern Standard Time)","1407889","Untrustworthy,Trustworthy","","","","feedback","","","null","","<div class='trialDiv'><img src='trustrating_stim/white_mw035.bmp'><br><font class='baseline'><strong>Daniel</strong><p>Received: <strong>8</strong></font> &nbsp; &nbsp; &nbsp; &nbsp; &nbsp; &nbsp;<font class='negOutcome'>Shared back: <strong>0</strong></font></font><div class='respPicDiv'><img src='img/responseButtonOffersNo0_wht.png' class='respPic'></div></div>","null","6","Daniel","trustrating_stim/white_mw035.bmp","Kept","0.2,0.6","15","0.2","85","23"
"html-keyboard-response","165","1067383","0.0-18.0-1.23","","bdp_trlrn","Wed Nov 10 2021 14:17:42 GMT-0500 (Eastern Standard Time)","1407889","Untrustworthy,Trustworthy","","","","decision","","","3597","","<div class='trialDiv'><img src='trustrating_stim/white_00785_941205_fb_edt.bmp'><br><font class='baseline'><strong>Anthony</strong><p>Choose number of points to send.</font><div class='respPicDiv'><img src='img/responseButtonOffersNo0L.png' class='respPic'></div></div>","4","6","Anthony","trustrating_stim/white_00785_941205_fb_edt.bmp","Kept","0.6,0.2","14","0.6","90","24"
"html-keyboard-response","166","1067637","0.0-18.0-2.23","","bdp_trlrn","Wed Nov 10 2021 14:17:42 GMT-0500 (Eastern Standard Time)","1407889","Untrustworthy,Trustworthy","","","","decisionFB","","","null","","<div class='trialDiv'><img src='trustrating_stim/white_00785_941205_fb_edt.bmp'><br><font class='baseline'><strong>Anthony</strong><p>Choose number of points to send.</font><div class='respPicDiv'><img src='img/responseButtonOffersNo0L4.png' class='respPic'></div></div>","null","6","Anthony","trustrating_stim/white_00785_941205_fb_edt.bmp","Kept","0.6,0.2","14","0.6","86","24"
"html-keyboard-response","167","1068641","0.0-18.0-3.23","","bdp_trlrn","Wed Nov 10 2021 14:17:42 GMT-0500 (Eastern Standard Time)","1407889","Untrustworthy,Trustworthy","","","","feedback","","","null","","<div class='trialDiv'><img src='trustrating_stim/white_00785_941205_fb_edt.bmp'><br><font class='baseline'><strong>Anthony</strong><p>Received: <strong>16</strong></font> &nbsp; &nbsp; &nbsp; &nbsp; &nbsp; &nbsp;<font class='negOutcome'>Shared back: <strong>0</strong></font></font><div class='respPicDiv'><img src='img/responseButtonOffersNo0_wht.png' class='respPic'></div></div>","null","6","Anthony","trustrating_stim/white_00785_941205_fb_edt.bmp","Kept","0.6,0.2","14","0.6","86","24"
"html-keyboard-response","168","1074120","0.0-18.0-1.24","","bdp_trlrn","Wed Nov 10 2021 14:17:42 GMT-0500 (Eastern Standard Time)","1407889","Untrustworthy,Trustworthy","","","","decision","","","5478","","<div class='trialDiv'><img src='trustrating_stim/white_mw046.bmp'><br><font class='baseline'><strong>Timothy</strong><p>Choose number of points to send.</font><div class='respPicDiv'><img src='img/responseButtonOffersNo0L.png' class='respPic'></div></div>","5","7","Timothy","trustrating_stim/white_mw046.bmp","Shared","0.8,0.4","15","0.8","91","25"
"html-keyboard-response","169","1074374","0.0-18.0-2.24","","bdp_trlrn","Wed Nov 10 2021 14:17:42 GMT-0500 (Eastern Standard Time)","1407889","Untrustworthy,Trustworthy","","","","decisionFB","","","null","","<div class='trialDiv'><img src='trustrating_stim/white_mw046.bmp'><br><font class='baseline'><strong>Timothy</strong><p>Choose number of points to send.</font><div class='respPicDiv'><img src='img/responseButtonOffersNo0L5.png' class='respPic'></div></div>","null","7","Timothy","trustrating_stim/white_mw046.bmp","Shared","0.8,0.4","15","0.8","86","25"
"html-keyboard-response","170","1075378","0.0-18.0-3.24","","bdp_trlrn","Wed Nov 10 2021 14:17:42 GMT-0500 (Eastern Standard Time)","1407889","Untrustworthy,Trustworthy","","","","feedback","","","null","","<div class='trialDiv'><img src='trustrating_stim/white_mw046.bmp'><br><font class='baseline'><strong>Timothy</strong><p>Received: <strong>20</strong></font> &nbsp; &nbsp; &nbsp; &nbsp; &nbsp; &nbsp;<font class='posOutcome'>Shared back: <strong>10</strong></font></font><div class='respPicDiv'><img src='img/responseButtonOffersNo0_wht.png' class='respPic'></div></div>","null","7","Timothy","trustrating_stim/white_mw046.bmp","Shared","0.8,0.4","15","0.8","96","25"
"html-keyboard-response","171","1078759","0.0-18.0-1.25","","bdp_trlrn","Wed Nov 10 2021 14:17:42 GMT-0500 (Eastern Standard Time)","1407889","Untrustworthy,Trustworthy","","","","decision","","","3380","","<div class='trialDiv'><img src='trustrating_stim/white_mw084.bmp'><br><font class='baseline'><strong>Jordan</strong><p>Choose number of points to send.</font><div class='respPicDiv'><img src='img/responseButtonOffersNo0L.png' class='respPic'></div></div>","4","7","Jordan","trustrating_stim/white_mw084.bmp","Kept","0.4,0.8","10","0.4","101","26"
"html-keyboard-response","172","1079015","0.0-18.0-2.25","","bdp_trlrn","Wed Nov 10 2021 14:17:42 GMT-0500 (Eastern Standard Time)","1407889","Untrustworthy,Trustworthy","","","","decisionFB","","","null","","<div class='trialDiv'><img src='trustrating_stim/white_mw084.bmp'><br><font class='baseline'><strong>Jordan</strong><p>Choose number of points to send.</font><div class='respPicDiv'><img src='img/responseButtonOffersNo0L4.png' class='respPic'></div></div>","null","7","Jordan","trustrating_stim/white_mw084.bmp","Kept","0.4,0.8","10","0.4","97","26"
"html-keyboard-response","173","1080019","0.0-18.0-3.25","","bdp_trlrn","Wed Nov 10 2021 14:17:42 GMT-0500 (Eastern Standard Time)","1407889","Untrustworthy,Trustworthy","","","","feedback","","","null","","<div class='trialDiv'><img src='trustrating_stim/white_mw084.bmp'><br><font class='baseline'><strong>Jordan</strong><p>Received: <strong>16</strong></font> &nbsp; &nbsp; &nbsp; &nbsp; &nbsp; &nbsp;<font class='negOutcome'>Shared back: <strong>0</strong></font></font><div class='respPicDiv'><img src='img/responseButtonOffersNo0_wht.png' class='respPic'></div></div>","null","7","Jordan","trustrating_stim/white_mw084.bmp","Kept","0.4,0.8","10","0.4","97","26"
"html-keyboard-response","174","1084856","0.0-18.0-1.26","","bdp_trlrn","Wed Nov 10 2021 14:17:42 GMT-0500 (Eastern Standard Time)","1407889","Untrustworthy,Trustworthy","","","","decision","","","4836","","<div class='trialDiv'><img src='trustrating_stim/white_00785_941205_fb_edt.bmp'><br><font class='baseline'><strong>Anthony</strong><p>Choose number of points to send.</font><div class='respPicDiv'><img src='img/responseButtonOffersNo0L.png' class='respPic'></div></div>","4","7","Anthony","trustrating_stim/white_00785_941205_fb_edt.bmp","Shared","0.6,0.2","14","0.6","102","27"
"html-keyboard-response","175","1085110","0.0-18.0-2.26","","bdp_trlrn","Wed Nov 10 2021 14:17:42 GMT-0500 (Eastern Standard Time)","1407889","Untrustworthy,Trustworthy","","","","decisionFB","","","null","","<div class='trialDiv'><img src='trustrating_stim/white_00785_941205_fb_edt.bmp'><br><font class='baseline'><strong>Anthony</strong><p>Choose number of points to send.</font><div class='respPicDiv'><img src='img/responseButtonOffersNo0L4.png' class='respPic'></div></div>","null","7","Anthony","trustrating_stim/white_00785_941205_fb_edt.bmp","Shared","0.6,0.2","14","0.6","98","27"
"html-keyboard-response","176","1086114","0.0-18.0-3.26","","bdp_trlrn","Wed Nov 10 2021 14:17:42 GMT-0500 (Eastern Standard Time)","1407889","Untrustworthy,Trustworthy","","","","feedback","","","null","","<div class='trialDiv'><img src='trustrating_stim/white_00785_941205_fb_edt.bmp'><br><font class='baseline'><strong>Anthony</strong><p>Received: <strong>16</strong></font> &nbsp; &nbsp; &nbsp; &nbsp; &nbsp; &nbsp;<font class='posOutcome'>Shared back: <strong>8</strong></font></font><div class='respPicDiv'><img src='img/responseButtonOffersNo0_wht.png' class='respPic'></div></div>","null","7","Anthony","trustrating_stim/white_00785_941205_fb_edt.bmp","Shared","0.6,0.2","14","0.6","106","27"
"html-keyboard-response","177","1090424","0.0-18.0-1.27","","bdp_trlrn","Wed Nov 10 2021 14:17:42 GMT-0500 (Eastern Standard Time)","1407889","Untrustworthy,Trustworthy","","","","decision","","","4308","","<div class='trialDiv'><img src='trustrating_stim/white_mw035.bmp'><br><font class='baseline'><strong>Daniel</strong><p>Choose number of points to send.</font><div class='respPicDiv'><img src='img/responseButtonOffersNo0L.png' class='respPic'></div></div>","1","7","Daniel","trustrating_stim/white_mw035.bmp","Kept","0.2,0.6","15","0.2","111","28"
"html-keyboard-response","178","1090678","0.0-18.0-2.27","","bdp_trlrn","Wed Nov 10 2021 14:17:42 GMT-0500 (Eastern Standard Time)","1407889","Untrustworthy,Trustworthy","","","","decisionFB","","","null","","<div class='trialDiv'><img src='trustrating_stim/white_mw035.bmp'><br><font class='baseline'><strong>Daniel</strong><p>Choose number of points to send.</font><div class='respPicDiv'><img src='img/responseButtonOffersNo0L1.png' class='respPic'></div></div>","null","7","Daniel","trustrating_stim/white_mw035.bmp","Kept","0.2,0.6","15","0.2","110","28"
"html-keyboard-response","179","1091681","0.0-18.0-3.27","","bdp_trlrn","Wed Nov 10 2021 14:17:42 GMT-0500 (Eastern Standard Time)","1407889","Untrustworthy,Trustworthy","","","","feedback","","","null","","<div class='trialDiv'><img src='trustrating_stim/white_mw035.bmp'><br><font class='baseline'><strong>Daniel</strong><p>Received: <strong>4</strong></font> &nbsp; &nbsp; &nbsp; &nbsp; &nbsp; &nbsp;<font class='negOutcome'>Shared back: <strong>0</strong></font></font><div class='respPicDiv'><img src='img/responseButtonOffersNo0_wht.png' class='respPic'></div></div>","null","7","Daniel","trustrating_stim/white_mw035.bmp","Kept","0.2,0.6","15","0.2","110","28"
"html-keyboard-response","180","1093896","0.0-18.0-1.28","","bdp_trlrn","Wed Nov 10 2021 14:17:42 GMT-0500 (Eastern Standard Time)","1407889","Untrustworthy,Trustworthy","","","","decision","","","2214","","<div class='trialDiv'><img src='trustrating_stim/white_mw084.bmp'><br><font class='baseline'><strong>Jordan</strong><p>Choose number of points to send.</font><div class='respPicDiv'><img src='img/responseButtonOffersNo0L.png' class='respPic'></div></div>","2","8","Jordan","trustrating_stim/white_mw084.bmp","Kept","0.4,0.8","10","0.4","115","29"
"html-keyboard-response","181","1094149","0.0-18.0-2.28","","bdp_trlrn","Wed Nov 10 2021 14:17:42 GMT-0500 (Eastern Standard Time)","1407889","Untrustworthy,Trustworthy","","","","decisionFB","","","null","","<div class='trialDiv'><img src='trustrating_stim/white_mw084.bmp'><br><font class='baseline'><strong>Jordan</strong><p>Choose number of points to send.</font><div class='respPicDiv'><img src='img/responseButtonOffersNo0L2.png' class='respPic'></div></div>","null","8","Jordan","trustrating_stim/white_mw084.bmp","Kept","0.4,0.8","10","0.4","113","29"
"html-keyboard-response","182","1095153","0.0-18.0-3.28","","bdp_trlrn","Wed Nov 10 2021 14:17:42 GMT-0500 (Eastern Standard Time)","1407889","Untrustworthy,Trustworthy","","","","feedback","","","null","","<div class='trialDiv'><img src='trustrating_stim/white_mw084.bmp'><br><font class='baseline'><strong>Jordan</strong><p>Received: <strong>8</strong></font> &nbsp; &nbsp; &nbsp; &nbsp; &nbsp; &nbsp;<font class='negOutcome'>Shared back: <strong>0</strong></font></font><div class='respPicDiv'><img src='img/responseButtonOffersNo0_wht.png' class='respPic'></div></div>","null","8","Jordan","trustrating_stim/white_mw084.bmp","Kept","0.4,0.8","10","0.4","113","29"
"html-keyboard-response","183","1099049","0.0-18.0-1.29","","bdp_trlrn","Wed Nov 10 2021 14:17:42 GMT-0500 (Eastern Standard Time)","1407889","Untrustworthy,Trustworthy","","","","decision","","","3894","","<div class='trialDiv'><img src='trustrating_stim/white_mw035.bmp'><br><font class='baseline'><strong>Daniel</strong><p>Choose number of points to send.</font><div class='respPicDiv'><img src='img/responseButtonOffersNo0L.png' class='respPic'></div></div>","1","8","Daniel","trustrating_stim/white_mw035.bmp","Kept","0.2,0.6","15","0.2","118","30"
"html-keyboard-response","184","1099304","0.0-18.0-2.29","","bdp_trlrn","Wed Nov 10 2021 14:17:42 GMT-0500 (Eastern Standard Time)","1407889","Untrustworthy,Trustworthy","","","","decisionFB","","","null","","<div class='trialDiv'><img src='trustrating_stim/white_mw035.bmp'><br><font class='baseline'><strong>Daniel</strong><p>Choose number of points to send.</font><div class='respPicDiv'><img src='img/responseButtonOffersNo0L1.png' class='respPic'></div></div>","null","8","Daniel","trustrating_stim/white_mw035.bmp","Kept","0.2,0.6","15","0.2","117","30"
"html-keyboard-response","185","1100310","0.0-18.0-3.29","","bdp_trlrn","Wed Nov 10 2021 14:17:42 GMT-0500 (Eastern Standard Time)","1407889","Untrustworthy,Trustworthy","","","","feedback","","","null","","<div class='trialDiv'><img src='trustrating_stim/white_mw035.bmp'><br><font class='baseline'><strong>Daniel</strong><p>Received: <strong>4</strong></font> &nbsp; &nbsp; &nbsp; &nbsp; &nbsp; &nbsp;<font class='negOutcome'>Shared back: <strong>0</strong></font></font><div class='respPicDiv'><img src='img/responseButtonOffersNo0_wht.png' class='respPic'></div></div>","null","8","Daniel","trustrating_stim/white_mw035.bmp","Kept","0.2,0.6","15","0.2","117","30"
"html-keyboard-response","186","1101944","0.0-18.0-1.30","","bdp_trlrn","Wed Nov 10 2021 14:17:42 GMT-0500 (Eastern Standard Time)","1407889","Untrustworthy,Trustworthy","","","","decision","","","1634","","<div class='trialDiv'><img src='trustrating_stim/white_00785_941205_fb_edt.bmp'><br><font class='baseline'><strong>Anthony</strong><p>Choose number of points to send.</font><div class='respPicDiv'><img src='img/responseButtonOffersNo0L.png' class='respPic'></div></div>","3","8","Anthony","trustrating_stim/white_00785_941205_fb_edt.bmp","Shared","0.6,0.2","14","0.6","122","31"
"html-keyboard-response","187","1102198","0.0-18.0-2.30","","bdp_trlrn","Wed Nov 10 2021 14:17:42 GMT-0500 (Eastern Standard Time)","1407889","Untrustworthy,Trustworthy","","","","decisionFB","","","null","","<div class='trialDiv'><img src='trustrating_stim/white_00785_941205_fb_edt.bmp'><br><font class='baseline'><strong>Anthony</strong><p>Choose number of points to send.</font><div class='respPicDiv'><img src='img/responseButtonOffersNo0L3.png' class='respPic'></div></div>","null","8","Anthony","trustrating_stim/white_00785_941205_fb_edt.bmp","Shared","0.6,0.2","14","0.6","119","31"
"html-keyboard-response","188","1103202","0.0-18.0-3.30","","bdp_trlrn","Wed Nov 10 2021 14:17:42 GMT-0500 (Eastern Standard Time)","1407889","Untrustworthy,Trustworthy","","","","feedback","","","null","","<div class='trialDiv'><img src='trustrating_stim/white_00785_941205_fb_edt.bmp'><br><font class='baseline'><strong>Anthony</strong><p>Received: <strong>12</strong></font> &nbsp; &nbsp; &nbsp; &nbsp; &nbsp; &nbsp;<font class='posOutcome'>Shared back: <strong>6</strong></font></font><div class='respPicDiv'><img src='img/responseButtonOffersNo0_wht.png' class='respPic'></div></div>","null","8","Anthony","trustrating_stim/white_00785_941205_fb_edt.bmp","Shared","0.6,0.2","14","0.6","125","31"
"html-keyboard-response","189","1104800","0.0-18.0-1.31","","bdp_trlrn","Wed Nov 10 2021 14:17:42 GMT-0500 (Eastern Standard Time)","1407889","Untrustworthy,Trustworthy","","","","decision","","","1597","","<div class='trialDiv'><img src='trustrating_stim/white_mw046.bmp'><br><font class='baseline'><strong>Timothy</strong><p>Choose number of points to send.</font><div class='respPicDiv'><img src='img/responseButtonOffersNo0L.png' class='respPic'></div></div>","5","8","Timothy","trustrating_stim/white_mw046.bmp","Shared","0.8,0.4","15","0.8","130","32"
"html-keyboard-response","190","1105054","0.0-18.0-2.31","","bdp_trlrn","Wed Nov 10 2021 14:17:42 GMT-0500 (Eastern Standard Time)","1407889","Untrustworthy,Trustworthy","","","","decisionFB","","","null","","<div class='trialDiv'><img src='trustrating_stim/white_mw046.bmp'><br><font class='baseline'><strong>Timothy</strong><p>Choose number of points to send.</font><div class='respPicDiv'><img src='img/responseButtonOffersNo0L5.png' class='respPic'></div></div>","null","8","Timothy","trustrating_stim/white_mw046.bmp","Shared","0.8,0.4","15","0.8","125","32"
"html-keyboard-response","191","1106059","0.0-18.0-3.31","","bdp_trlrn","Wed Nov 10 2021 14:17:42 GMT-0500 (Eastern Standard Time)","1407889","Untrustworthy,Trustworthy","","","","feedback","","","null","","<div class='trialDiv'><img src='trustrating_stim/white_mw046.bmp'><br><font class='baseline'><strong>Timothy</strong><p>Received: <strong>20</strong></font> &nbsp; &nbsp; &nbsp; &nbsp; &nbsp; &nbsp;<font class='posOutcome'>Shared back: <strong>10</strong></font></font><div class='respPicDiv'><img src='img/responseButtonOffersNo0_wht.png' class='respPic'></div></div>","null","8","Timothy","trustrating_stim/white_mw046.bmp","Shared","0.8,0.4","15","0.8","135","32"
"html-keyboard-response","192","1108736","0.0-18.0-1.32","","bdp_trlrn","Wed Nov 10 2021 14:17:42 GMT-0500 (Eastern Standard Time)","1407889","Untrustworthy,Trustworthy","","","","decision","","","2676","","<div class='trialDiv'><img src='trustrating_stim/white_mw084.bmp'><br><font class='baseline'><strong>Jordan</strong><p>Choose number of points to send.</font><div class='respPicDiv'><img src='img/responseButtonOffersNo0L.png' class='respPic'></div></div>","3","9","Jordan","trustrating_stim/white_mw084.bmp","Shared","0.4,0.8","10","0.4","140","33"
"html-keyboard-response","193","1108990","0.0-18.0-2.32","","bdp_trlrn","Wed Nov 10 2021 14:17:42 GMT-0500 (Eastern Standard Time)","1407889","Untrustworthy,Trustworthy","","","","decisionFB","","","null","","<div class='trialDiv'><img src='trustrating_stim/white_mw084.bmp'><br><font class='baseline'><strong>Jordan</strong><p>Choose number of points to send.</font><div class='respPicDiv'><img src='img/responseButtonOffersNo0L3.png' class='respPic'></div></div>","null","9","Jordan","trustrating_stim/white_mw084.bmp","Shared","0.4,0.8","10","0.4","137","33"
"html-keyboard-response","194","1109994","0.0-18.0-3.32","","bdp_trlrn","Wed Nov 10 2021 14:17:42 GMT-0500 (Eastern Standard Time)","1407889","Untrustworthy,Trustworthy","","","","feedback","","","null","","<div class='trialDiv'><img src='trustrating_stim/white_mw084.bmp'><br><font class='baseline'><strong>Jordan</strong><p>Received: <strong>12</strong></font> &nbsp; &nbsp; &nbsp; &nbsp; &nbsp; &nbsp;<font class='posOutcome'>Shared back: <strong>6</strong></font></font><div class='respPicDiv'><img src='img/responseButtonOffersNo0_wht.png' class='respPic'></div></div>","null","9","Jordan","trustrating_stim/white_mw084.bmp","Shared","0.4,0.8","10","0.4","143","33"
"html-keyboard-response","195","1111113","0.0-18.0-1.33","","bdp_trlrn","Wed Nov 10 2021 14:17:42 GMT-0500 (Eastern Standard Time)","1407889","Untrustworthy,Trustworthy","","","","decision","","","1118","","<div class='trialDiv'><img src='trustrating_stim/white_mw046.bmp'><br><font class='baseline'><strong>Timothy</strong><p>Choose number of points to send.</font><div class='respPicDiv'><img src='img/responseButtonOffersNo0L.png' class='respPic'></div></div>","5","9","Timothy","trustrating_stim/white_mw046.bmp","Shared","0.8,0.4","15","0.8","148","34"
"html-keyboard-response","196","1111367","0.0-18.0-2.33","","bdp_trlrn","Wed Nov 10 2021 14:17:42 GMT-0500 (Eastern Standard Time)","1407889","Untrustworthy,Trustworthy","","","","decisionFB","","","null","","<div class='trialDiv'><img src='trustrating_stim/white_mw046.bmp'><br><font class='baseline'><strong>Timothy</strong><p>Choose number of points to send.</font><div class='respPicDiv'><img src='img/responseButtonOffersNo0L5.png' class='respPic'></div></div>","null","9","Timothy","trustrating_stim/white_mw046.bmp","Shared","0.8,0.4","15","0.8","143","34"
"html-keyboard-response","197","1112371","0.0-18.0-3.33","","bdp_trlrn","Wed Nov 10 2021 14:17:42 GMT-0500 (Eastern Standard Time)","1407889","Untrustworthy,Trustworthy","","","","feedback","","","null","","<div class='trialDiv'><img src='trustrating_stim/white_mw046.bmp'><br><font class='baseline'><strong>Timothy</strong><p>Received: <strong>20</strong></font> &nbsp; &nbsp; &nbsp; &nbsp; &nbsp; &nbsp;<font class='posOutcome'>Shared back: <strong>10</strong></font></font><div class='respPicDiv'><img src='img/responseButtonOffersNo0_wht.png' class='respPic'></div></div>","null","9","Timothy","trustrating_stim/white_mw046.bmp","Shared","0.8,0.4","15","0.8","153","34"
"html-keyboard-response","198","1116905","0.0-18.0-1.34","","bdp_trlrn","Wed Nov 10 2021 14:17:42 GMT-0500 (Eastern Standard Time)","1407889","Untrustworthy,Trustworthy","","","","decision","","","4532","","<div class='trialDiv'><img src='trustrating_stim/white_00785_941205_fb_edt.bmp'><br><font class='baseline'><strong>Anthony</strong><p>Choose number of points to send.</font><div class='respPicDiv'><img src='img/responseButtonOffersNo0L.png' class='respPic'></div></div>","3","9","Anthony","trustrating_stim/white_00785_941205_fb_edt.bmp","Shared","0.6,0.2","14","0.6","158","35"
"html-keyboard-response","199","1117160","0.0-18.0-2.34","","bdp_trlrn","Wed Nov 10 2021 14:17:42 GMT-0500 (Eastern Standard Time)","1407889","Untrustworthy,Trustworthy","","","","decisionFB","","","null","","<div class='trialDiv'><img src='trustrating_stim/white_00785_941205_fb_edt.bmp'><br><font class='baseline'><strong>Anthony</strong><p>Choose number of points to send.</font><div class='respPicDiv'><img src='img/responseButtonOffersNo0L3.png' class='respPic'></div></div>","null","9","Anthony","trustrating_stim/white_00785_941205_fb_edt.bmp","Shared","0.6,0.2","14","0.6","155","35"
"html-keyboard-response","200","1118165","0.0-18.0-3.34","","bdp_trlrn","Wed Nov 10 2021 14:17:42 GMT-0500 (Eastern Standard Time)","1407889","Untrustworthy,Trustworthy","","","","feedback","","","null","","<div class='trialDiv'><img src='trustrating_stim/white_00785_941205_fb_edt.bmp'><br><font class='baseline'><strong>Anthony</strong><p>Received: <strong>12</strong></font> &nbsp; &nbsp; &nbsp; &nbsp; &nbsp; &nbsp;<font class='posOutcome'>Shared back: <strong>6</strong></font></font><div class='respPicDiv'><img src='img/responseButtonOffersNo0_wht.png' class='respPic'></div></div>","null","9","Anthony","trustrating_stim/white_00785_941205_fb_edt.bmp","Shared","0.6,0.2","14","0.6","161","35"
"html-keyboard-response","201","1119281","0.0-18.0-1.35","","bdp_trlrn","Wed Nov 10 2021 14:17:42 GMT-0500 (Eastern Standard Time)","1407889","Untrustworthy,Trustworthy","","","","decision","","","1114","","<div class='trialDiv'><img src='trustrating_stim/white_mw035.bmp'><br><font class='baseline'><strong>Daniel</strong><p>Choose number of points to send.</font><div class='respPicDiv'><img src='img/responseButtonOffersNo0L.png' class='respPic'></div></div>","1","9","Daniel","trustrating_stim/white_mw035.bmp","Kept","0.2,0.6","15","0.2","166","36"
"html-keyboard-response","202","1119535","0.0-18.0-2.35","","bdp_trlrn","Wed Nov 10 2021 14:17:42 GMT-0500 (Eastern Standard Time)","1407889","Untrustworthy,Trustworthy","","","","decisionFB","","","null","","<div class='trialDiv'><img src='trustrating_stim/white_mw035.bmp'><br><font class='baseline'><strong>Daniel</strong><p>Choose number of points to send.</font><div class='respPicDiv'><img src='img/responseButtonOffersNo0L1.png' class='respPic'></div></div>","null","9","Daniel","trustrating_stim/white_mw035.bmp","Kept","0.2,0.6","15","0.2","165","36"
"html-keyboard-response","203","1120539","0.0-18.0-3.35","","bdp_trlrn","Wed Nov 10 2021 14:17:42 GMT-0500 (Eastern Standard Time)","1407889","Untrustworthy,Trustworthy","","","","feedback","","","null","","<div class='trialDiv'><img src='trustrating_stim/white_mw035.bmp'><br><font class='baseline'><strong>Daniel</strong><p>Received: <strong>4</strong></font> &nbsp; &nbsp; &nbsp; &nbsp; &nbsp; &nbsp;<font class='negOutcome'>Shared back: <strong>0</strong></font></font><div class='respPicDiv'><img src='img/responseButtonOffersNo0_wht.png' class='respPic'></div></div>","null","9","Daniel","trustrating_stim/white_mw035.bmp","Kept","0.2,0.6","15","0.2","165","36"
"html-keyboard-response","204","1122505","0.0-18.0-1.36","","bdp_trlrn","Wed Nov 10 2021 14:17:42 GMT-0500 (Eastern Standard Time)","1407889","Untrustworthy,Trustworthy","","","","decision","","","1965","","<div class='trialDiv'><img src='trustrating_stim/white_mw046.bmp'><br><font class='baseline'><strong>Timothy</strong><p>Choose number of points to send.</font><div class='respPicDiv'><img src='img/responseButtonOffersNo0L.png' class='respPic'></div></div>","5","10","Timothy","trustrating_stim/white_mw046.bmp","Shared","0.8,0.4","15","0.8","170","37"
"html-keyboard-response","205","1122760","0.0-18.0-2.36","","bdp_trlrn","Wed Nov 10 2021 14:17:42 GMT-0500 (Eastern Standard Time)","1407889","Untrustworthy,Trustworthy","","","","decisionFB","","","null","","<div class='trialDiv'><img src='trustrating_stim/white_mw046.bmp'><br><font class='baseline'><strong>Timothy</strong><p>Choose number of points to send.</font><div class='respPicDiv'><img src='img/responseButtonOffersNo0L5.png' class='respPic'></div></div>","null","10","Timothy","trustrating_stim/white_mw046.bmp","Shared","0.8,0.4","15","0.8","165","37"
"html-keyboard-response","206","1123764","0.0-18.0-3.36","","bdp_trlrn","Wed Nov 10 2021 14:17:42 GMT-0500 (Eastern Standard Time)","1407889","Untrustworthy,Trustworthy","","","","feedback","","","null","","<div class='trialDiv'><img src='trustrating_stim/white_mw046.bmp'><br><font class='baseline'><strong>Timothy</strong><p>Received: <strong>20</strong></font> &nbsp; &nbsp; &nbsp; &nbsp; &nbsp; &nbsp;<font class='posOutcome'>Shared back: <strong>10</strong></font></font><div class='respPicDiv'><img src='img/responseButtonOffersNo0_wht.png' class='respPic'></div></div>","null","10","Timothy","trustrating_stim/white_mw046.bmp","Shared","0.8,0.4","15","0.8","175","37"
"html-keyboard-response","207","1125297","0.0-18.0-1.37","","bdp_trlrn","Wed Nov 10 2021 14:17:42 GMT-0500 (Eastern Standard Time)","1407889","Untrustworthy,Trustworthy","","","","decision","","","1532","","<div class='trialDiv'><img src='trustrating_stim/white_00785_941205_fb_edt.bmp'><br><font class='baseline'><strong>Anthony</strong><p>Choose number of points to send.</font><div class='respPicDiv'><img src='img/responseButtonOffersNo0L.png' class='respPic'></div></div>","4","10","Anthony","trustrating_stim/white_00785_941205_fb_edt.bmp","Shared","0.6,0.2","14","0.6","180","38"
"html-keyboard-response","208","1125552","0.0-18.0-2.37","","bdp_trlrn","Wed Nov 10 2021 14:17:42 GMT-0500 (Eastern Standard Time)","1407889","Untrustworthy,Trustworthy","","","","decisionFB","","","null","","<div class='trialDiv'><img src='trustrating_stim/white_00785_941205_fb_edt.bmp'><br><font class='baseline'><strong>Anthony</strong><p>Choose number of points to send.</font><div class='respPicDiv'><img src='img/responseButtonOffersNo0L4.png' class='respPic'></div></div>","null","10","Anthony","trustrating_stim/white_00785_941205_fb_edt.bmp","Shared","0.6,0.2","14","0.6","176","38"
"html-keyboard-response","209","1126556","0.0-18.0-3.37","","bdp_trlrn","Wed Nov 10 2021 14:17:42 GMT-0500 (Eastern Standard Time)","1407889","Untrustworthy,Trustworthy","","","","feedback","","","null","","<div class='trialDiv'><img src='trustrating_stim/white_00785_941205_fb_edt.bmp'><br><font class='baseline'><strong>Anthony</strong><p>Received: <strong>16</strong></font> &nbsp; &nbsp; &nbsp; &nbsp; &nbsp; &nbsp;<font class='posOutcome'>Shared back: <strong>8</strong></font></font><div class='respPicDiv'><img src='img/responseButtonOffersNo0_wht.png' class='respPic'></div></div>","null","10","Anthony","trustrating_stim/white_00785_941205_fb_edt.bmp","Shared","0.6,0.2","14","0.6","184","38"
