"trial_type","trial_index","time_elapsed","internal_node_id","subject_id","task","startTime","totalTime","labels","view_history","rt","event","trial","time","trialtype","success","stimulus","key_press","aground","name","faceID","outcome","agenttype","agentswpt","agentcurrpshare","face","avgRating","point_total","round"
"pavlovia","0","4","0.0-0.0","60429021c960ed190edaedca","bdp_trlrn","Tue Mar 14 2023 19:54:11 GMT-0500 (Central Daylight Time)","571034","Untrustworthy,Trustworthy","","","","","","","","","","","","","","","","","","","",""
"instructions","1","2421","0.0-1.0","60429021c960ed190edaedca","bdp_trlrn","Tue Mar 14 2023 19:54:11 GMT-0500 (Central Daylight Time)","571034","Untrustworthy,Trustworthy","[{""page_index"":0,""viewing_time"":2416}]","2416","","","","","","","","","","","","","","","","","",""
"","","","","60429021c960ed190edaedca","bdp_trlrn","Tue Mar 14 2023 19:54:11 GMT-0500 (Central Daylight Time)","571034","Untrustworthy,Trustworthy","","","fullscreenenter","2","5033","fullscreenenter","","","","","","","","","","","","","",""
"fullscreen","2","6014","0.0-2.0","60429021c960ed190edaedca","bdp_trlrn","Tue Mar 14 2023 19:54:11 GMT-0500 (Central Daylight Time)","571034","Untrustworthy,Trustworthy","","","","","","","true","","","","","","","","","","","","",""
"instructions","3","13259","0.0-4.0","60429021c960ed190edaedca","bdp_trlrn","Tue Mar 14 2023 19:54:11 GMT-0500 (Central Daylight Time)","571034","Untrustworthy,Trustworthy","[{""page_index"":0,""viewing_time"":4838},{""page_index"":1,""viewing_time"":2406}]","7245","","","","","","","","","","","","","","","","","",""
"instructions","4","14386","0.0-5.0","60429021c960ed190edaedca","bdp_trlrn","Tue Mar 14 2023 19:54:11 GMT-0500 (Central Daylight Time)","571034","Untrustworthy,Trustworthy","[{""page_index"":0,""viewing_time"":1125}]","1126","","","","","","","","","","","","","","","","","",""
"image-keyboard-response","5","17195","0.0-6.0-1.0","60429021c960ed190edaedca","bdp_trlrn","Tue Mar 14 2023 19:54:11 GMT-0500 (Central Daylight Time)","571034","Untrustworthy,Trustworthy","","2699","","","","rating","","trustrating_stim/white_00577_940928_fa_edt.bmp","4","","","","","","","","","","",""
"image-keyboard-response","6","17397","0.0-6.0-2.0","60429021c960ed190edaedca","bdp_trlrn","Tue Mar 14 2023 19:54:11 GMT-0500 (Central Daylight Time)","571034","Untrustworthy,Trustworthy","","null","","","","ratingFB","","trustrating_stim/white_00577_940928_fa_edt.bmp","null","","","","","","","","","","",""
"image-keyboard-response","7","18944","0.0-6.0-1.1","60429021c960ed190edaedca","bdp_trlrn","Tue Mar 14 2023 19:54:11 GMT-0500 (Central Daylight Time)","571034","Untrustworthy,Trustworthy","","1442","","","","rating","","trustrating_stim/white_00129_931230_fb_edt.bmp","4","","","","","","","","","","",""
"image-keyboard-response","8","19147","0.0-6.0-2.1","60429021c960ed190edaedca","bdp_trlrn","Tue Mar 14 2023 19:54:11 GMT-0500 (Central Daylight Time)","571034","Untrustworthy,Trustworthy","","null","","","","ratingFB","","trustrating_stim/white_00129_931230_fb_edt.bmp","null","","","","","","","","","","",""
"image-keyboard-response","9","20828","0.0-6.0-1.2","60429021c960ed190edaedca","bdp_trlrn","Tue Mar 14 2023 19:54:11 GMT-0500 (Central Daylight Time)","571034","Untrustworthy,Trustworthy","","1578","","","","rating","","trustrating_stim/white_00340_940422_fa_edt.bmp","5","","","","","","","","","","",""
"image-keyboard-response","10","21031","0.0-6.0-2.2","60429021c960ed190edaedca","bdp_trlrn","Tue Mar 14 2023 19:54:11 GMT-0500 (Central Daylight Time)","571034","Untrustworthy,Trustworthy","","null","","","","ratingFB","","trustrating_stim/white_00340_940422_fa_edt.bmp","null","","","","","","","","","","",""
"image-keyboard-response","11","23097","0.0-6.0-1.3","60429021c960ed190edaedca","bdp_trlrn","Tue Mar 14 2023 19:54:11 GMT-0500 (Central Daylight Time)","571034","Untrustworthy,Trustworthy","","1963","","","","rating","","trustrating_stim/white_mw071.bmp","4","","","","","","","","","","",""
"image-keyboard-response","12","23299","0.0-6.0-2.3","60429021c960ed190edaedca","bdp_trlrn","Tue Mar 14 2023 19:54:11 GMT-0500 (Central Daylight Time)","571034","Untrustworthy,Trustworthy","","null","","","","ratingFB","","trustrating_stim/white_mw071.bmp","null","","","","","","","","","","",""
"image-keyboard-response","13","24540","0.0-6.0-1.4","60429021c960ed190edaedca","bdp_trlrn","Tue Mar 14 2023 19:54:11 GMT-0500 (Central Daylight Time)","571034","Untrustworthy,Trustworthy","","1140","","","","rating","","trustrating_stim/white_00299_940422_fa_edt.bmp","5","","","","","","","","","","",""
"image-keyboard-response","14","24742","0.0-6.0-2.4","60429021c960ed190edaedca","bdp_trlrn","Tue Mar 14 2023 19:54:11 GMT-0500 (Central Daylight Time)","571034","Untrustworthy,Trustworthy","","null","","","","ratingFB","","trustrating_stim/white_00299_940422_fa_edt.bmp","null","","","","","","","","","","",""
"image-keyboard-response","15","25608","0.0-6.0-1.5","60429021c960ed190edaedca","bdp_trlrn","Tue Mar 14 2023 19:54:11 GMT-0500 (Central Daylight Time)","571034","Untrustworthy,Trustworthy","","763","","","","rating","","trustrating_stim/white_mw049.bmp","5","","","","","","","","","","",""
"image-keyboard-response","16","25809","0.0-6.0-2.5","60429021c960ed190edaedca","bdp_trlrn","Tue Mar 14 2023 19:54:11 GMT-0500 (Central Daylight Time)","571034","Untrustworthy,Trustworthy","","null","","","","ratingFB","","trustrating_stim/white_mw049.bmp","null","","","","","","","","","","",""
"image-keyboard-response","17","26846","0.0-6.0-1.6","60429021c960ed190edaedca","bdp_trlrn","Tue Mar 14 2023 19:54:11 GMT-0500 (Central Daylight Time)","571034","Untrustworthy,Trustworthy","","935","","","","rating","","trustrating_stim/white_00109_931230_fa_edt.bmp","5","","","","","","","","","","",""
"image-keyboard-response","18","27048","0.0-6.0-2.6","60429021c960ed190edaedca","bdp_trlrn","Tue Mar 14 2023 19:54:11 GMT-0500 (Central Daylight Time)","571034","Untrustworthy,Trustworthy","","null","","","","ratingFB","","trustrating_stim/white_00109_931230_fa_edt.bmp","null","","","","","","","","","","",""
"image-keyboard-response","19","28629","0.0-6.0-1.7","60429021c960ed190edaedca","bdp_trlrn","Tue Mar 14 2023 19:54:11 GMT-0500 (Central Daylight Time)","571034","Untrustworthy,Trustworthy","","1480","","","","rating","","trustrating_stim/white_mw046.bmp","4","","","","","","","","","","",""
"image-keyboard-response","20","28830","0.0-6.0-2.7","60429021c960ed190edaedca","bdp_trlrn","Tue Mar 14 2023 19:54:11 GMT-0500 (Central Daylight Time)","571034","Untrustworthy,Trustworthy","","null","","","","ratingFB","","trustrating_stim/white_mw046.bmp","null","","","","","","","","","","",""
"image-keyboard-response","21","32294","0.0-6.0-1.8","60429021c960ed190edaedca","bdp_trlrn","Tue Mar 14 2023 19:54:11 GMT-0500 (Central Daylight Time)","571034","Untrustworthy,Trustworthy","","3361","","","","rating","","trustrating_stim/white_00120_931230_fa_edt.bmp","5","","","","","","","","","","",""
"image-keyboard-response","22","32497","0.0-6.0-2.8","60429021c960ed190edaedca","bdp_trlrn","Tue Mar 14 2023 19:54:11 GMT-0500 (Central Daylight Time)","571034","Untrustworthy,Trustworthy","","null","","","","ratingFB","","trustrating_stim/white_00120_931230_fa_edt.bmp","null","","","","","","","","","","",""
"image-keyboard-response","23","33748","0.0-6.0-1.9","60429021c960ed190edaedca","bdp_trlrn","Tue Mar 14 2023 19:54:11 GMT-0500 (Central Daylight Time)","571034","Untrustworthy,Trustworthy","","1146","","","","rating","","trustrating_stim/white_mw056.bmp","4","","","","","","","","","","",""
"image-keyboard-response","24","33949","0.0-6.0-2.9","60429021c960ed190edaedca","bdp_trlrn","Tue Mar 14 2023 19:54:11 GMT-0500 (Central Daylight Time)","571034","Untrustworthy,Trustworthy","","null","","","","ratingFB","","trustrating_stim/white_mw056.bmp","null","","","","","","","","","","",""
"image-keyboard-response","25","35564","0.0-6.0-1.10","60429021c960ed190edaedca","bdp_trlrn","Tue Mar 14 2023 19:54:11 GMT-0500 (Central Daylight Time)","571034","Untrustworthy,Trustworthy","","1513","","","","rating","","trustrating_stim/white_mw053.bmp","4","","","","","","","","","","",""
"image-keyboard-response","26","35766","0.0-6.0-2.10","60429021c960ed190edaedca","bdp_trlrn","Tue Mar 14 2023 19:54:11 GMT-0500 (Central Daylight Time)","571034","Untrustworthy,Trustworthy","","null","","","","ratingFB","","trustrating_stim/white_mw053.bmp","null","","","","","","","","","","",""
"image-keyboard-response","27","38319","0.0-6.0-1.11","60429021c960ed190edaedca","bdp_trlrn","Tue Mar 14 2023 19:54:11 GMT-0500 (Central Daylight Time)","571034","Untrustworthy,Trustworthy","","2450","","","","rating","","trustrating_stim/white_mw033.bmp","5","","","","","","","","","","",""
"image-keyboard-response","28","38521","0.0-6.0-2.11","60429021c960ed190edaedca","bdp_trlrn","Tue Mar 14 2023 19:54:11 GMT-0500 (Central Daylight Time)","571034","Untrustworthy,Trustworthy","","null","","","","ratingFB","","trustrating_stim/white_mw033.bmp","null","","","","","","","","","","",""
"image-keyboard-response","29","39921","0.0-6.0-1.12","60429021c960ed190edaedca","bdp_trlrn","Tue Mar 14 2023 19:54:11 GMT-0500 (Central Daylight Time)","571034","Untrustworthy,Trustworthy","","1297","","","","rating","","trustrating_stim/white_00807_941205_fb_edt.bmp","5","","","","","","","","","","",""
"image-keyboard-response","30","40123","0.0-6.0-2.12","60429021c960ed190edaedca","bdp_trlrn","Tue Mar 14 2023 19:54:11 GMT-0500 (Central Daylight Time)","571034","Untrustworthy,Trustworthy","","null","","","","ratingFB","","trustrating_stim/white_00807_941205_fb_edt.bmp","null","","","","","","","","","","",""
"image-keyboard-response","31","41099","0.0-6.0-1.13","60429021c960ed190edaedca","bdp_trlrn","Tue Mar 14 2023 19:54:11 GMT-0500 (Central Daylight Time)","571034","Untrustworthy,Trustworthy","","874","","","","rating","","trustrating_stim/white_mw048.bmp","5","","","","","","","","","","",""
"image-keyboard-response","32","41301","0.0-6.0-2.13","60429021c960ed190edaedca","bdp_trlrn","Tue Mar 14 2023 19:54:11 GMT-0500 (Central Daylight Time)","571034","Untrustworthy,Trustworthy","","null","","","","ratingFB","","trustrating_stim/white_mw048.bmp","null","","","","","","","","","","",""
"image-keyboard-response","33","42557","0.0-6.0-1.14","60429021c960ed190edaedca","bdp_trlrn","Tue Mar 14 2023 19:54:11 GMT-0500 (Central Daylight Time)","571034","Untrustworthy,Trustworthy","","1154","","","","rating","","trustrating_stim/white_mw063.bmp","5","","","","","","","","","","",""
"image-keyboard-response","34","42758","0.0-6.0-2.14","60429021c960ed190edaedca","bdp_trlrn","Tue Mar 14 2023 19:54:11 GMT-0500 (Central Daylight Time)","571034","Untrustworthy,Trustworthy","","null","","","","ratingFB","","trustrating_stim/white_mw063.bmp","null","","","","","","","","","","",""
"image-keyboard-response","35","44666","0.0-6.0-1.15","60429021c960ed190edaedca","bdp_trlrn","Tue Mar 14 2023 19:54:11 GMT-0500 (Central Daylight Time)","571034","Untrustworthy,Trustworthy","","1804","","","","rating","","trustrating_stim/white_mw035.bmp","5","","","","","","","","","","",""
"image-keyboard-response","36","44868","0.0-6.0-2.15","60429021c960ed190edaedca","bdp_trlrn","Tue Mar 14 2023 19:54:11 GMT-0500 (Central Daylight Time)","571034","Untrustworthy,Trustworthy","","null","","","","ratingFB","","trustrating_stim/white_mw035.bmp","null","","","","","","","","","","",""
"image-keyboard-response","37","46266","0.0-6.0-1.16","60429021c960ed190edaedca","bdp_trlrn","Tue Mar 14 2023 19:54:11 GMT-0500 (Central Daylight Time)","571034","Untrustworthy,Trustworthy","","1296","","","","rating","","trustrating_stim/white_mw060.bmp","4","","","","","","","","","","",""
"image-keyboard-response","38","46468","0.0-6.0-2.16","60429021c960ed190edaedca","bdp_trlrn","Tue Mar 14 2023 19:54:11 GMT-0500 (Central Daylight Time)","571034","Untrustworthy,Trustworthy","","null","","","","ratingFB","","trustrating_stim/white_mw060.bmp","null","","","","","","","","","","",""
"image-keyboard-response","39","48459","0.0-6.0-1.17","60429021c960ed190edaedca","bdp_trlrn","Tue Mar 14 2023 19:54:11 GMT-0500 (Central Daylight Time)","571034","Untrustworthy,Trustworthy","","1888","","","","rating","","trustrating_stim/white_00757_941201_fa_edt.bmp","4","","","","","","","","","","",""
"image-keyboard-response","40","48661","0.0-6.0-2.17","60429021c960ed190edaedca","bdp_trlrn","Tue Mar 14 2023 19:54:11 GMT-0500 (Central Daylight Time)","571034","Untrustworthy,Trustworthy","","null","","","","ratingFB","","trustrating_stim/white_00757_941201_fa_edt.bmp","null","","","","","","","","","","",""
"image-keyboard-response","41","50292","0.0-6.0-1.18","60429021c960ed190edaedca","bdp_trlrn","Tue Mar 14 2023 19:54:11 GMT-0500 (Central Daylight Time)","571034","Untrustworthy,Trustworthy","","1529","","","","rating","","trustrating_stim/white_00602_940928_fb_edt.bmp","6","","","","","","","","","","",""
"image-keyboard-response","42","50495","0.0-6.0-2.18","60429021c960ed190edaedca","bdp_trlrn","Tue Mar 14 2023 19:54:11 GMT-0500 (Central Daylight Time)","571034","Untrustworthy,Trustworthy","","null","","","","ratingFB","","trustrating_stim/white_00602_940928_fb_edt.bmp","null","","","","","","","","","","",""
"image-keyboard-response","43","55309","0.0-6.0-1.19","60429021c960ed190edaedca","bdp_trlrn","Tue Mar 14 2023 19:54:11 GMT-0500 (Central Daylight Time)","571034","Untrustworthy,Trustworthy","","4711","","","","rating","","trustrating_stim/white_mw084.bmp","4","","","","","","","","","","",""
"image-keyboard-response","44","55511","0.0-6.0-2.19","60429021c960ed190edaedca","bdp_trlrn","Tue Mar 14 2023 19:54:11 GMT-0500 (Central Daylight Time)","571034","Untrustworthy,Trustworthy","","null","","","","ratingFB","","trustrating_stim/white_mw084.bmp","null","","","","","","","","","","",""
"image-keyboard-response","45","57063","0.0-6.0-1.20","60429021c960ed190edaedca","bdp_trlrn","Tue Mar 14 2023 19:54:11 GMT-0500 (Central Daylight Time)","571034","Untrustworthy,Trustworthy","","1449","","","","rating","","trustrating_stim/white_00785_941205_fb_edt.bmp","3","","","","","","","","","","",""
"image-keyboard-response","46","57266","0.0-6.0-2.20","60429021c960ed190edaedca","bdp_trlrn","Tue Mar 14 2023 19:54:11 GMT-0500 (Central Daylight Time)","571034","Untrustworthy,Trustworthy","","null","","","","ratingFB","","trustrating_stim/white_00785_941205_fb_edt.bmp","null","","","","","","","","","","",""
"image-keyboard-response","47","58752","0.0-6.0-1.21","60429021c960ed190edaedca","bdp_trlrn","Tue Mar 14 2023 19:54:11 GMT-0500 (Central Daylight Time)","571034","Untrustworthy,Trustworthy","","1384","","","","rating","","trustrating_stim/white_00519_940519_fb_edt.bmp","4","","","","","","","","","","",""
"image-keyboard-response","48","58955","0.0-6.0-2.21","60429021c960ed190edaedca","bdp_trlrn","Tue Mar 14 2023 19:54:11 GMT-0500 (Central Daylight Time)","571034","Untrustworthy,Trustworthy","","null","","","","ratingFB","","trustrating_stim/white_00519_940519_fb_edt.bmp","null","","","","","","","","","","",""
"image-keyboard-response","49","62354","0.0-6.0-1.22","60429021c960ed190edaedca","bdp_trlrn","Tue Mar 14 2023 19:54:11 GMT-0500 (Central Daylight Time)","571034","Untrustworthy,Trustworthy","","3296","","","","rating","","trustrating_stim/white_00223_940128_fb_edt.bmp","4","","","","","","","","","","",""
"image-keyboard-response","50","62556","0.0-6.0-2.22","60429021c960ed190edaedca","bdp_trlrn","Tue Mar 14 2023 19:54:11 GMT-0500 (Central Daylight Time)","571034","Untrustworthy,Trustworthy","","null","","","","ratingFB","","trustrating_stim/white_00223_940128_fb_edt.bmp","null","","","","","","","","","","",""
"image-keyboard-response","51","64513","0.0-6.0-1.23","60429021c960ed190edaedca","bdp_trlrn","Tue Mar 14 2023 19:54:11 GMT-0500 (Central Daylight Time)","571034","Untrustworthy,Trustworthy","","1854","","","","rating","","trustrating_stim/white_00898_960530_fa_edt.bmp","6","","","","","","","","","","",""
"image-keyboard-response","52","64730","0.0-6.0-2.23","60429021c960ed190edaedca","bdp_trlrn","Tue Mar 14 2023 19:54:11 GMT-0500 (Central Daylight Time)","571034","Untrustworthy,Trustworthy","","null","","","","ratingFB","","trustrating_stim/white_00898_960530_fa_edt.bmp","null","","","","","","","","","","",""
"image-keyboard-response","53","67435","0.0-6.0-1.24","60429021c960ed190edaedca","bdp_trlrn","Tue Mar 14 2023 19:54:11 GMT-0500 (Central Daylight Time)","571034","Untrustworthy,Trustworthy","","2603","","","","rating","","trustrating_stim/white_mw097.bmp","3","","","","","","","","","","",""
"image-keyboard-response","54","67637","0.0-6.0-2.24","60429021c960ed190edaedca","bdp_trlrn","Tue Mar 14 2023 19:54:11 GMT-0500 (Central Daylight Time)","571034","Untrustworthy,Trustworthy","","null","","","","ratingFB","","trustrating_stim/white_mw097.bmp","null","","","","","","","","","","",""
"image-keyboard-response","55","69514","0.0-6.0-1.25","60429021c960ed190edaedca","bdp_trlrn","Tue Mar 14 2023 19:54:11 GMT-0500 (Central Daylight Time)","571034","Untrustworthy,Trustworthy","","1774","","","","rating","","trustrating_stim/white_mw099.bmp","3","","","","","","","","","","",""
"image-keyboard-response","56","69716","0.0-6.0-2.25","60429021c960ed190edaedca","bdp_trlrn","Tue Mar 14 2023 19:54:11 GMT-0500 (Central Daylight Time)","571034","Untrustworthy,Trustworthy","","null","","","","ratingFB","","trustrating_stim/white_mw099.bmp","null","","","","","","","","","","",""
"image-keyboard-response","57","71342","0.0-6.0-1.26","60429021c960ed190edaedca","bdp_trlrn","Tue Mar 14 2023 19:54:11 GMT-0500 (Central Daylight Time)","571034","Untrustworthy,Trustworthy","","1523","","","","rating","","trustrating_stim/white_00659_941121_fa_edt.bmp","4","","","","","","","","","","",""
"image-keyboard-response","58","71544","0.0-6.0-2.26","60429021c960ed190edaedca","bdp_trlrn","Tue Mar 14 2023 19:54:11 GMT-0500 (Central Daylight Time)","571034","Untrustworthy,Trustworthy","","null","","","","ratingFB","","trustrating_stim/white_00659_941121_fa_edt.bmp","null","","","","","","","","","","",""
"image-keyboard-response","59","73237","0.0-6.0-1.27","60429021c960ed190edaedca","bdp_trlrn","Tue Mar 14 2023 19:54:11 GMT-0500 (Central Daylight Time)","571034","Untrustworthy,Trustworthy","","1575","","","","rating","","trustrating_stim/white_00761_941201_fb_edt.bmp","4","","","","","","","","","","",""
"image-keyboard-response","60","73438","0.0-6.0-2.27","60429021c960ed190edaedca","bdp_trlrn","Tue Mar 14 2023 19:54:11 GMT-0500 (Central Daylight Time)","571034","Untrustworthy,Trustworthy","","null","","","","ratingFB","","trustrating_stim/white_00761_941201_fb_edt.bmp","null","","","","","","","","","","",""
"image-keyboard-response","61","74686","0.0-6.0-1.28","60429021c960ed190edaedca","bdp_trlrn","Tue Mar 14 2023 19:54:11 GMT-0500 (Central Daylight Time)","571034","Untrustworthy,Trustworthy","","1145","","","","rating","","trustrating_stim/white_mw066.bmp","5","","","","","","","","","","",""
"image-keyboard-response","62","74887","0.0-6.0-2.28","60429021c960ed190edaedca","bdp_trlrn","Tue Mar 14 2023 19:54:11 GMT-0500 (Central Daylight Time)","571034","Untrustworthy,Trustworthy","","null","","","","ratingFB","","trustrating_stim/white_mw066.bmp","null","","","","","","","","","","",""
"image-keyboard-response","63","76847","0.0-6.0-1.29","60429021c960ed190edaedca","bdp_trlrn","Tue Mar 14 2023 19:54:11 GMT-0500 (Central Daylight Time)","571034","Untrustworthy,Trustworthy","","1857","","","","rating","","trustrating_stim/white_mw089.bmp","5","","","","","","","","","","",""
"image-keyboard-response","64","77050","0.0-6.0-2.29","60429021c960ed190edaedca","bdp_trlrn","Tue Mar 14 2023 19:54:11 GMT-0500 (Central Daylight Time)","571034","Untrustworthy,Trustworthy","","null","","","","ratingFB","","trustrating_stim/white_mw089.bmp","null","","","","","","","","","","",""
"image-keyboard-response","65","78519","0.0-6.0-1.30","60429021c960ed190edaedca","bdp_trlrn","Tue Mar 14 2023 19:54:11 GMT-0500 (Central Daylight Time)","571034","Untrustworthy,Trustworthy","","1366","","","","rating","","trustrating_stim/white_00340_940422_fa_edt.bmp","5","","","","","","","","","","",""
"image-keyboard-response","66","78721","0.0-6.0-2.30","60429021c960ed190edaedca","bdp_trlrn","Tue Mar 14 2023 19:54:11 GMT-0500 (Central Daylight Time)","571034","Untrustworthy,Trustworthy","","null","","","","ratingFB","","trustrating_stim/white_00340_940422_fa_edt.bmp","null","","","","","","","","","","",""
"image-keyboard-response","67","79668","0.0-6.0-1.31","60429021c960ed190edaedca","bdp_trlrn","Tue Mar 14 2023 19:54:11 GMT-0500 (Central Daylight Time)","571034","Untrustworthy,Trustworthy","","844","","","","rating","","trustrating_stim/white_mw056.bmp","5","","","","","","","","","","",""
"image-keyboard-response","68","79871","0.0-6.0-2.31","60429021c960ed190edaedca","bdp_trlrn","Tue Mar 14 2023 19:54:11 GMT-0500 (Central Daylight Time)","571034","Untrustworthy,Trustworthy","","null","","","","ratingFB","","trustrating_stim/white_mw056.bmp","null","","","","","","","","","","",""
"image-keyboard-response","69","80664","0.0-6.0-1.32","60429021c960ed190edaedca","bdp_trlrn","Tue Mar 14 2023 19:54:11 GMT-0500 (Central Daylight Time)","571034","Untrustworthy,Trustworthy","","691","","","","rating","","trustrating_stim/white_mw099.bmp","5","","","","","","","","","","",""
"image-keyboard-response","70","80867","0.0-6.0-2.32","60429021c960ed190edaedca","bdp_trlrn","Tue Mar 14 2023 19:54:11 GMT-0500 (Central Daylight Time)","571034","Untrustworthy,Trustworthy","","null","","","","ratingFB","","trustrating_stim/white_mw099.bmp","null","","","","","","","","","","",""
"image-keyboard-response","71","84064","0.0-6.0-1.33","60429021c960ed190edaedca","bdp_trlrn","Tue Mar 14 2023 19:54:11 GMT-0500 (Central Daylight Time)","571034","Untrustworthy,Trustworthy","","3093","","","","rating","","trustrating_stim/white_00807_941205_fb_edt.bmp","4","","","","","","","","","","",""
"image-keyboard-response","72","84267","0.0-6.0-2.33","60429021c960ed190edaedca","bdp_trlrn","Tue Mar 14 2023 19:54:11 GMT-0500 (Central Daylight Time)","571034","Untrustworthy,Trustworthy","","null","","","","ratingFB","","trustrating_stim/white_00807_941205_fb_edt.bmp","null","","","","","","","","","","",""
"image-keyboard-response","73","85956","0.0-6.0-1.34","60429021c960ed190edaedca","bdp_trlrn","Tue Mar 14 2023 19:54:11 GMT-0500 (Central Daylight Time)","571034","Untrustworthy,Trustworthy","","1587","","","","rating","","trustrating_stim/white_00299_940422_fa_edt.bmp","4","","","","","","","","","","",""
"image-keyboard-response","74","86159","0.0-6.0-2.34","60429021c960ed190edaedca","bdp_trlrn","Tue Mar 14 2023 19:54:11 GMT-0500 (Central Daylight Time)","571034","Untrustworthy,Trustworthy","","null","","","","ratingFB","","trustrating_stim/white_00299_940422_fa_edt.bmp","null","","","","","","","","","","",""
"image-keyboard-response","75","87553","0.0-6.0-1.35","60429021c960ed190edaedca","bdp_trlrn","Tue Mar 14 2023 19:54:11 GMT-0500 (Central Daylight Time)","571034","Untrustworthy,Trustworthy","","1290","","","","rating","","trustrating_stim/white_mw066.bmp","4","","","","","","","","","","",""
"image-keyboard-response","76","87754","0.0-6.0-2.35","60429021c960ed190edaedca","bdp_trlrn","Tue Mar 14 2023 19:54:11 GMT-0500 (Central Daylight Time)","571034","Untrustworthy,Trustworthy","","null","","","","ratingFB","","trustrating_stim/white_mw066.bmp","null","","","","","","","","","","",""
"image-keyboard-response","77","94258","0.0-6.0-1.36","60429021c960ed190edaedca","bdp_trlrn","Tue Mar 14 2023 19:54:11 GMT-0500 (Central Daylight Time)","571034","Untrustworthy,Trustworthy","","6396","","","","rating","","trustrating_stim/white_00898_960530_fa_edt.bmp","6","","","","","","","","","","",""
"image-keyboard-response","78","94460","0.0-6.0-2.36","60429021c960ed190edaedca","bdp_trlrn","Tue Mar 14 2023 19:54:11 GMT-0500 (Central Daylight Time)","571034","Untrustworthy,Trustworthy","","null","","","","ratingFB","","trustrating_stim/white_00898_960530_fa_edt.bmp","null","","","","","","","","","","",""
"image-keyboard-response","79","95936","0.0-6.0-1.37","60429021c960ed190edaedca","bdp_trlrn","Tue Mar 14 2023 19:54:11 GMT-0500 (Central Daylight Time)","571034","Untrustworthy,Trustworthy","","1372","","","","rating","","trustrating_stim/white_00602_940928_fb_edt.bmp","6","","","","","","","","","","",""
"image-keyboard-response","80","96139","0.0-6.0-2.37","60429021c960ed190edaedca","bdp_trlrn","Tue Mar 14 2023 19:54:11 GMT-0500 (Central Daylight Time)","571034","Untrustworthy,Trustworthy","","null","","","","ratingFB","","trustrating_stim/white_00602_940928_fb_edt.bmp","null","","","","","","","","","","",""
"image-keyboard-response","81","97673","0.0-6.0-1.38","60429021c960ed190edaedca","bdp_trlrn","Tue Mar 14 2023 19:54:11 GMT-0500 (Central Daylight Time)","571034","Untrustworthy,Trustworthy","","1431","","","","rating","","trustrating_stim/white_mw063.bmp","5","","","","","","","","","","",""
"image-keyboard-response","82","97875","0.0-6.0-2.38","60429021c960ed190edaedca","bdp_trlrn","Tue Mar 14 2023 19:54:11 GMT-0500 (Central Daylight Time)","571034","Untrustworthy,Trustworthy","","null","","","","ratingFB","","trustrating_stim/white_mw063.bmp","null","","","","","","","","","","",""
"image-keyboard-response","83","99028","0.0-6.0-1.39","60429021c960ed190edaedca","bdp_trlrn","Tue Mar 14 2023 19:54:11 GMT-0500 (Central Daylight Time)","571034","Untrustworthy,Trustworthy","","1048","","","","rating","","trustrating_stim/white_mw084.bmp","5","","","","","","","","","","",""
"image-keyboard-response","84","99230","0.0-6.0-2.39","60429021c960ed190edaedca","bdp_trlrn","Tue Mar 14 2023 19:54:11 GMT-0500 (Central Daylight Time)","571034","Untrustworthy,Trustworthy","","null","","","","ratingFB","","trustrating_stim/white_mw084.bmp","null","","","","","","","","","","",""
"image-keyboard-response","85","101027","0.0-6.0-1.40","60429021c960ed190edaedca","bdp_trlrn","Tue Mar 14 2023 19:54:11 GMT-0500 (Central Daylight Time)","571034","Untrustworthy,Trustworthy","","1693","","","","rating","","trustrating_stim/white_00785_941205_fb_edt.bmp","4","","","","","","","","","","",""
"image-keyboard-response","86","101229","0.0-6.0-2.40","60429021c960ed190edaedca","bdp_trlrn","Tue Mar 14 2023 19:54:11 GMT-0500 (Central Daylight Time)","571034","Untrustworthy,Trustworthy","","null","","","","ratingFB","","trustrating_stim/white_00785_941205_fb_edt.bmp","null","","","","","","","","","","",""
"image-keyboard-response","87","102762","0.0-6.0-1.41","60429021c960ed190edaedca","bdp_trlrn","Tue Mar 14 2023 19:54:11 GMT-0500 (Central Daylight Time)","571034","Untrustworthy,Trustworthy","","1428","","","","rating","","trustrating_stim/white_00761_941201_fb_edt.bmp","4","","","","","","","","","","",""
"image-keyboard-response","88","102963","0.0-6.0-2.41","60429021c960ed190edaedca","bdp_trlrn","Tue Mar 14 2023 19:54:11 GMT-0500 (Central Daylight Time)","571034","Untrustworthy,Trustworthy","","null","","","","ratingFB","","trustrating_stim/white_00761_941201_fb_edt.bmp","null","","","","","","","","","","",""
"image-keyboard-response","89","105384","0.0-6.0-1.42","60429021c960ed190edaedca","bdp_trlrn","Tue Mar 14 2023 19:54:11 GMT-0500 (Central Daylight Time)","571034","Untrustworthy,Trustworthy","","2318","","","","rating","","trustrating_stim/white_00120_931230_fa_edt.bmp","5","","","","","","","","","","",""
"image-keyboard-response","90","105586","0.0-6.0-2.42","60429021c960ed190edaedca","bdp_trlrn","Tue Mar 14 2023 19:54:11 GMT-0500 (Central Daylight Time)","571034","Untrustworthy,Trustworthy","","null","","","","ratingFB","","trustrating_stim/white_00120_931230_fa_edt.bmp","null","","","","","","","","","","",""
"image-keyboard-response","91","107457","0.0-6.0-1.43","60429021c960ed190edaedca","bdp_trlrn","Tue Mar 14 2023 19:54:11 GMT-0500 (Central Daylight Time)","571034","Untrustworthy,Trustworthy","","1768","","","","rating","","trustrating_stim/white_00109_931230_fa_edt.bmp","4","","","","","","","","","","",""
"image-keyboard-response","92","107660","0.0-6.0-2.43","60429021c960ed190edaedca","bdp_trlrn","Tue Mar 14 2023 19:54:11 GMT-0500 (Central Daylight Time)","571034","Untrustworthy,Trustworthy","","null","","","","ratingFB","","trustrating_stim/white_00109_931230_fa_edt.bmp","null","","","","","","","","","","",""
"image-keyboard-response","93","109781","0.0-6.0-1.44","60429021c960ed190edaedca","bdp_trlrn","Tue Mar 14 2023 19:54:11 GMT-0500 (Central Daylight Time)","571034","Untrustworthy,Trustworthy","","2019","","","","rating","","trustrating_stim/white_mw048.bmp","5","","","","","","","","","","",""
"image-keyboard-response","94","109983","0.0-6.0-2.44","60429021c960ed190edaedca","bdp_trlrn","Tue Mar 14 2023 19:54:11 GMT-0500 (Central Daylight Time)","571034","Untrustworthy,Trustworthy","","null","","","","ratingFB","","trustrating_stim/white_mw048.bmp","null","","","","","","","","","","",""
"image-keyboard-response","95","110893","0.0-6.0-1.45","60429021c960ed190edaedca","bdp_trlrn","Tue Mar 14 2023 19:54:11 GMT-0500 (Central Daylight Time)","571034","Untrustworthy,Trustworthy","","806","","","","rating","","trustrating_stim/white_mw046.bmp","5","","","","","","","","","","",""
"image-keyboard-response","96","111094","0.0-6.0-2.45","60429021c960ed190edaedca","bdp_trlrn","Tue Mar 14 2023 19:54:11 GMT-0500 (Central Daylight Time)","571034","Untrustworthy,Trustworthy","","null","","","","ratingFB","","trustrating_stim/white_mw046.bmp","null","","","","","","","","","","",""
"image-keyboard-response","97","111883","0.0-6.0-1.46","60429021c960ed190edaedca","bdp_trlrn","Tue Mar 14 2023 19:54:11 GMT-0500 (Central Daylight Time)","571034","Untrustworthy,Trustworthy","","685","","","","rating","","trustrating_stim/white_mw071.bmp","5","","","","","","","","","","",""
"image-keyboard-response","98","112086","0.0-6.0-2.46","60429021c960ed190edaedca","bdp_trlrn","Tue Mar 14 2023 19:54:11 GMT-0500 (Central Daylight Time)","571034","Untrustworthy,Trustworthy","","null","","","","ratingFB","","trustrating_stim/white_mw071.bmp","null","","","","","","","","","","",""
"image-keyboard-response","99","112893","0.0-6.0-1.47","60429021c960ed190edaedca","bdp_trlrn","Tue Mar 14 2023 19:54:11 GMT-0500 (Central Daylight Time)","571034","Untrustworthy,Trustworthy","","704","","","","rating","","trustrating_stim/white_mw049.bmp","5","","","","","","","","","","",""
"image-keyboard-response","100","113096","0.0-6.0-2.47","60429021c960ed190edaedca","bdp_trlrn","Tue Mar 14 2023 19:54:11 GMT-0500 (Central Daylight Time)","571034","Untrustworthy,Trustworthy","","null","","","","ratingFB","","trustrating_stim/white_mw049.bmp","null","","","","","","","","","","",""
"image-keyboard-response","101","114164","0.0-6.0-1.48","60429021c960ed190edaedca","bdp_trlrn","Tue Mar 14 2023 19:54:11 GMT-0500 (Central Daylight Time)","571034","Untrustworthy,Trustworthy","","964","","","","rating","","trustrating_stim/white_mw060.bmp","5","","","","","","","","","","",""
"image-keyboard-response","102","114366","0.0-6.0-2.48","60429021c960ed190edaedca","bdp_trlrn","Tue Mar 14 2023 19:54:11 GMT-0500 (Central Daylight Time)","571034","Untrustworthy,Trustworthy","","null","","","","ratingFB","","trustrating_stim/white_mw060.bmp","null","","","","","","","","","","",""
"image-keyboard-response","103","116654","0.0-6.0-1.49","60429021c960ed190edaedca","bdp_trlrn","Tue Mar 14 2023 19:54:11 GMT-0500 (Central Daylight Time)","571034","Untrustworthy,Trustworthy","","2185","","","","rating","","trustrating_stim/white_00519_940519_fb_edt.bmp","4","","","","","","","","","","",""
"image-keyboard-response","104","116856","0.0-6.0-2.49","60429021c960ed190edaedca","bdp_trlrn","Tue Mar 14 2023 19:54:11 GMT-0500 (Central Daylight Time)","571034","Untrustworthy,Trustworthy","","null","","","","ratingFB","","trustrating_stim/white_00519_940519_fb_edt.bmp","null","","","","","","","","","","",""
"image-keyboard-response","105","120904","0.0-6.0-1.50","60429021c960ed190edaedca","bdp_trlrn","Tue Mar 14 2023 19:54:11 GMT-0500 (Central Daylight Time)","571034","Untrustworthy,Trustworthy","","3945","","","","rating","","trustrating_stim/white_00577_940928_fa_edt.bmp","5","","","","","","","","","","",""
"image-keyboard-response","106","121107","0.0-6.0-2.50","60429021c960ed190edaedca","bdp_trlrn","Tue Mar 14 2023 19:54:11 GMT-0500 (Central Daylight Time)","571034","Untrustworthy,Trustworthy","","null","","","","ratingFB","","trustrating_stim/white_00577_940928_fa_edt.bmp","null","","","","","","","","","","",""
"image-keyboard-response","107","123299","0.0-6.0-1.51","60429021c960ed190edaedca","bdp_trlrn","Tue Mar 14 2023 19:54:11 GMT-0500 (Central Daylight Time)","571034","Untrustworthy,Trustworthy","","2087","","","","rating","","trustrating_stim/white_00659_941121_fa_edt.bmp","4","","","","","","","","","","",""
"image-keyboard-response","108","123501","0.0-6.0-2.51","60429021c960ed190edaedca","bdp_trlrn","Tue Mar 14 2023 19:54:11 GMT-0500 (Central Daylight Time)","571034","Untrustworthy,Trustworthy","","null","","","","ratingFB","","trustrating_stim/white_00659_941121_fa_edt.bmp","null","","","","","","","","","","",""
"image-keyboard-response","109","124819","0.0-6.0-1.52","60429021c960ed190edaedca","bdp_trlrn","Tue Mar 14 2023 19:54:11 GMT-0500 (Central Daylight Time)","571034","Untrustworthy,Trustworthy","","1216","","","","rating","","trustrating_stim/white_00757_941201_fa_edt.bmp","4","","","","","","","","","","",""
"image-keyboard-response","110","125022","0.0-6.0-2.52","60429021c960ed190edaedca","bdp_trlrn","Tue Mar 14 2023 19:54:11 GMT-0500 (Central Daylight Time)","571034","Untrustworthy,Trustworthy","","null","","","","ratingFB","","trustrating_stim/white_00757_941201_fa_edt.bmp","null","","","","","","","","","","",""
"image-keyboard-response","111","126749","0.0-6.0-1.53","60429021c960ed190edaedca","bdp_trlrn","Tue Mar 14 2023 19:54:11 GMT-0500 (Central Daylight Time)","571034","Untrustworthy,Trustworthy","","1623","","","","rating","","trustrating_stim/white_mw053.bmp","5","","","","","","","","","","",""
"image-keyboard-response","112","126952","0.0-6.0-2.53","60429021c960ed190edaedca","bdp_trlrn","Tue Mar 14 2023 19:54:11 GMT-0500 (Central Daylight Time)","571034","Untrustworthy,Trustworthy","","null","","","","ratingFB","","trustrating_stim/white_mw053.bmp","null","","","","","","","","","","",""
"image-keyboard-response","113","127936","0.0-6.0-1.54","60429021c960ed190edaedca","bdp_trlrn","Tue Mar 14 2023 19:54:11 GMT-0500 (Central Daylight Time)","571034","Untrustworthy,Trustworthy","","881","","","","rating","","trustrating_stim/white_mw033.bmp","5","","","","","","","","","","",""
"image-keyboard-response","114","128139","0.0-6.0-2.54","60429021c960ed190edaedca","bdp_trlrn","Tue Mar 14 2023 19:54:11 GMT-0500 (Central Daylight Time)","571034","Untrustworthy,Trustworthy","","null","","","","ratingFB","","trustrating_stim/white_mw033.bmp","null","","","","","","","","","","",""
"image-keyboard-response","115","131189","0.0-6.0-1.55","60429021c960ed190edaedca","bdp_trlrn","Tue Mar 14 2023 19:54:11 GMT-0500 (Central Daylight Time)","571034","Untrustworthy,Trustworthy","","2947","","","","rating","","trustrating_stim/white_mw089.bmp","6","","","","","","","","","","",""
"image-keyboard-response","116","131391","0.0-6.0-2.55","60429021c960ed190edaedca","bdp_trlrn","Tue Mar 14 2023 19:54:11 GMT-0500 (Central Daylight Time)","571034","Untrustworthy,Trustworthy","","null","","","","ratingFB","","trustrating_stim/white_mw089.bmp","null","","","","","","","","","","",""
"image-keyboard-response","117","132897","0.0-6.0-1.56","60429021c960ed190edaedca","bdp_trlrn","Tue Mar 14 2023 19:54:11 GMT-0500 (Central Daylight Time)","571034","Untrustworthy,Trustworthy","","1401","","","","rating","","trustrating_stim/white_mw097.bmp","3","","","","","","","","","","",""
"image-keyboard-response","118","133099","0.0-6.0-2.56","60429021c960ed190edaedca","bdp_trlrn","Tue Mar 14 2023 19:54:11 GMT-0500 (Central Daylight Time)","571034","Untrustworthy,Trustworthy","","null","","","","ratingFB","","trustrating_stim/white_mw097.bmp","null","","","","","","","","","","",""
"image-keyboard-response","119","135782","0.0-6.0-1.57","60429021c960ed190edaedca","bdp_trlrn","Tue Mar 14 2023 19:54:11 GMT-0500 (Central Daylight Time)","571034","Untrustworthy,Trustworthy","","2579","","","","rating","","trustrating_stim/white_00129_931230_fb_edt.bmp","4","","","","","","","","","","",""
"image-keyboard-response","120","135984","0.0-6.0-2.57","60429021c960ed190edaedca","bdp_trlrn","Tue Mar 14 2023 19:54:11 GMT-0500 (Central Daylight Time)","571034","Untrustworthy,Trustworthy","","null","","","","ratingFB","","trustrating_stim/white_00129_931230_fb_edt.bmp","null","","","","","","","","","","",""
"image-keyboard-response","121","139161","0.0-6.0-1.58","60429021c960ed190edaedca","bdp_trlrn","Tue Mar 14 2023 19:54:11 GMT-0500 (Central Daylight Time)","571034","Untrustworthy,Trustworthy","","3075","","","","rating","","trustrating_stim/white_00223_940128_fb_edt.bmp","4","","","","","","","","","","",""
"image-keyboard-response","122","139364","0.0-6.0-2.58","60429021c960ed190edaedca","bdp_trlrn","Tue Mar 14 2023 19:54:11 GMT-0500 (Central Daylight Time)","571034","Untrustworthy,Trustworthy","","null","","","","ratingFB","","trustrating_stim/white_00223_940128_fb_edt.bmp","null","","","","","","","","","","",""
"image-keyboard-response","123","145949","0.0-6.0-1.59","60429021c960ed190edaedca","bdp_trlrn","Tue Mar 14 2023 19:54:11 GMT-0500 (Central Daylight Time)","571034","Untrustworthy,Trustworthy","","6481","","","","rating","","trustrating_stim/white_mw035.bmp","4","","","","","","","","","","",""
"image-keyboard-response","124","146152","0.0-6.0-2.59","60429021c960ed190edaedca","bdp_trlrn","Tue Mar 14 2023 19:54:11 GMT-0500 (Central Daylight Time)","571034","Untrustworthy,Trustworthy","","null","","","","ratingFB","","trustrating_stim/white_mw035.bmp","null","","","","","","","","","","",""
"instructions","125","147260","0.0-7.0","60429021c960ed190edaedca","bdp_trlrn","Tue Mar 14 2023 19:54:11 GMT-0500 (Central Daylight Time)","571034","Untrustworthy,Trustworthy","[{""page_index"":0,""viewing_time"":1005}]","1005","","","","","","","","","","","","","","","","","",""
"instructions","126","214565","0.0-8.0","60429021c960ed190edaedca","bdp_trlrn","Tue Mar 14 2023 19:54:11 GMT-0500 (Central Daylight Time)","571034","Untrustworthy,Trustworthy","[{""page_index"":0,""viewing_time"":13815},{""page_index"":1,""viewing_time"":22057},{""page_index"":2,""viewing_time"":5222},{""page_index"":3,""viewing_time"":4973},{""page_index"":4,""viewing_time"":3472},{""page_index"":5,""viewing_time"":5926},{""page_index"":6,""viewing_time"":9743},{""page_index"":7,""viewing_time"":1995}]","67204","","","","","","","","","","","","","","","","","",""
"html-keyboard-response","127","218149","0.0-9.0","60429021c960ed190edaedca","bdp_trlrn","Tue Mar 14 2023 19:54:11 GMT-0500 (Central Daylight Time)","571034","Untrustworthy,Trustworthy","","3581","","","","","","<div class='header' style='text-align:left; position: absolute; top: 5%; left: 5%;'><small>Task 3 of 5</small></div><div class='instruxDiv'><p><strong>1) What is the minimum number of points you can choose to send to your partner?</strong></p><p>a) 0</p><p>b) 1</p><p>c) 5</p>","C","","","","","","","","","","",""
"html-keyboard-response","128","220663","0.0-10.0","60429021c960ed190edaedca","bdp_trlrn","Tue Mar 14 2023 19:54:11 GMT-0500 (Central Daylight Time)","571034","Untrustworthy,Trustworthy","","2410","","","","","","<div class='header' style='text-align:left; position: absolute; top: 5%; left: 5%;'><small>Task 3 of 5</small></div><div class='instruxDiv'><p><strong>1) What is the minimum number of points you can choose to send to your partner?</strong></p><p>a) 1</p><p>b) 1</p><p style='color:#FF0000'>c) 5</p><h3 style='color:#FF0000'>Incorrect!</h3><h3 class='center-content'>The correct response is b).</h3><h3 class='center-content'>The minimum number of points you can choose to send to your partner is 1 point.</h3><p><em>Press SPACEBAR to continue</em></p></div>"," ","","","","","","","","","","",""
"html-keyboard-response","129","226795","0.0-11.0","60429021c960ed190edaedca","bdp_trlrn","Tue Mar 14 2023 19:54:11 GMT-0500 (Central Daylight Time)","571034","Untrustworthy,Trustworthy","","6030","","","","","","<div class='header' style='text-align:left; position: absolute; top: 5%; left: 5%;'><small>Task 3 of 5</small></div><div class='instruxDiv'><p><strong>2) What is the maximum number of points you can choose to send to your partner?</strong></p><p>a) 8</p><p>b) 5</p><p>c) 3</p>","B","","","","","","","","","","",""
"html-keyboard-response","130","227678","0.0-12.0","60429021c960ed190edaedca","bdp_trlrn","Tue Mar 14 2023 19:54:11 GMT-0500 (Central Daylight Time)","571034","Untrustworthy,Trustworthy","","781","","","","","","<div class='header' style='text-align:left; position: absolute; top: 5%; left: 5%;'><small>Task 3 of 5</small></div><div class='instruxDiv'><p><strong>2) What is the maximum number of points you can choose to send to your partner?</strong></p><p>a) 8</p><p style='color:#00FF00'>b) 5</p><p>c) 3</p><h3 style='color:#00FF00'>Correct!</h3><h3 class='center-content'>The correct response is b).</h3><h3 class='center-content'>The maximum number of points you can choose to send to your partner is 5 points.</h3><p><em>Press SPACEBAR to continue</em></p></div>"," ","","","","","","","","","","",""
"html-keyboard-response","131","236077","0.0-13.0","60429021c960ed190edaedca","bdp_trlrn","Tue Mar 14 2023 19:54:11 GMT-0500 (Central Daylight Time)","571034","Untrustworthy,Trustworthy","","8298","","","","","","<div class='header' style='text-align:left; position: absolute; top: 5%; left: 5%;'><small>Task 3 of 5</small></div><div class='instruxDiv'><p><strong>3) What happens to the amount of points you send to your partner?</strong></p><p>a) Nothing</p><p>b) It doubles</p><p>c) It quadruples</p>","C","","","","","","","","","","",""
"html-keyboard-response","132","236838","0.0-14.0","60429021c960ed190edaedca","bdp_trlrn","Tue Mar 14 2023 19:54:11 GMT-0500 (Central Daylight Time)","571034","Untrustworthy,Trustworthy","","658","","","","","","<div class='header' style='text-align:left; position: absolute; top: 5%; left: 5%;'><small>Task 3 of 5</small></div><div class='instruxDiv'><p><strong>3) What happens to the amount of points you send to your partner?</strong></p><p>a) Nothing</p><p>b) It doubles</p><p style='color:#00FF00'>c) It quadruples</p><h3 style='color:#00FF00'>Correct!</h3><h3 class='center-content'>The correct response is c).</h3><h3 class='center-content'>The amount of points you send to your partner quadruples.</h3><p><em>Press SPACEBAR to continue</em></p></div>"," ","","","","","","","","","","",""
"html-keyboard-response","133","243988","0.0-15.0","60429021c960ed190edaedca","bdp_trlrn","Tue Mar 14 2023 19:54:11 GMT-0500 (Central Daylight Time)","571034","Untrustworthy,Trustworthy","","7049","","","","","","<div class='header' style='text-align:left; position: absolute; top: 5%; left: 5%;'><small>Task 3 of 5</small></div><div class='instruxDiv'><p><strong>4) If you decided to share 4 out of 5 points with your partner, and they decided to share half of the amount they received with you, how many points would you receive back from them on this round?</strong></p><p>a) 16</p><p>b) 0</p><p>c) 8</p>","C","","","","","","","","","","",""
"html-keyboard-response","134","244801","0.0-16.0","60429021c960ed190edaedca","bdp_trlrn","Tue Mar 14 2023 19:54:11 GMT-0500 (Central Daylight Time)","571034","Untrustworthy,Trustworthy","","711","","","","","","<div class='header' style='text-align:left; position: absolute; top: 5%; left: 5%;'><small>Task 3 of 5</small></div><div class='instruxDiv'><p><strong>4) If you decided to share 4 out of 5 points with your partner, and they decided to share half of the amount they received with you, how many points would you receive back from them on this round?</strong></p><p>a) 16</p><p>b) 0</p><p style='color:#00FF00'>c) 8</p><h3 style='color:#00FF00'>Correct!</h3><h3 class='center-content'>The correct response is c).</h3><h3 class='center-content'>If you shared 4 out of 5 points with your partner and they decided to share half of the amount they received with you, you would receive 8 points back (i.e. (4 x 4)/2 = 8).</h3><p><em>Press SPACEBAR to continue</em></p></div>"," ","","","","","","","","","","",""
"html-keyboard-response","135","249904","0.0-17.0","60429021c960ed190edaedca","bdp_trlrn","Tue Mar 14 2023 19:54:11 GMT-0500 (Central Daylight Time)","571034","Untrustworthy,Trustworthy","","null","","","","","","<div class='header' style='text-align:left; position: absolute; top: 5%; left: 5%;'><small>Task 3 of 5</small></div><div class='instruxDiv'><p>Thank you for completing the quiz<p>These are the actual partners you will be interacting with in the next block:<p><div class='tc' align='center'><img class='introPic' src='trustrating_stim/white_mw097.bmp'><br><strong>Jason</strong></div><div class='bl' align='center'><img class='introPic' src='trustrating_stim/white_mw035.bmp'><br><strong>Tyler</strong></div><div class='br' align='center'><img class='introPic' src='trustrating_stim/white_00898_960530_fa_edt.bmp'><br><strong>Matthew</strong></div></div><p>Across <strong>66 rounds</strong> you will interact with each partner <strong>22 times</strong> (in random order).<p style='align:center; color:white'><font <em>Press SPACEBAR to continue</em></p>","null","","","","","","","","","","",""
"instructions","136","252638","0.0-18.0","60429021c960ed190edaedca","bdp_trlrn","Tue Mar 14 2023 19:54:11 GMT-0500 (Central Daylight Time)","571034","Untrustworthy,Trustworthy","[{""page_index"":0,""viewing_time"":786},{""page_index"":1,""viewing_time"":1947}]","2733","","","","","","","","","","","","","","","","","",""
"html-keyboard-response","137","254163","0.0-19.0-1.0","60429021c960ed190edaedca","bdp_trlrn","Tue Mar 14 2023 19:54:11 GMT-0500 (Central Daylight Time)","571034","Untrustworthy,Trustworthy","","1421","","","","decision","","<div class='trialDiv'><img src='trustrating_stim/white_00898_960530_fa_edt.bmp'><br><font class='baseline'><strong>Matthew</strong><p>Choose number of points to send.</font><div class='respPicDiv'><img src='img/responseButtonOffersNo0L.png' class='respPic'></div></div>","5","1","Matthew","11","Kept","0.2,0.8","12","0.2","trustrating_stim/white_00898_960530_fa_edt.bmp","6","5","1"
"html-keyboard-response","138","254415","0.0-19.0-2.0","60429021c960ed190edaedca","bdp_trlrn","Tue Mar 14 2023 19:54:11 GMT-0500 (Central Daylight Time)","571034","Untrustworthy,Trustworthy","","null","","","","decisionFB","","<div class='trialDiv'><img src='trustrating_stim/white_00898_960530_fa_edt.bmp'><br><font class='baseline'><strong>Matthew</strong><p>Choose number of points to send.</font><div class='respPicDiv'><img src='img/responseButtonOffersNo0L5.png' class='respPic'></div></div>","null","1","Matthew","11","Kept","0.2,0.8","12","0.2","trustrating_stim/white_00898_960530_fa_edt.bmp","6","0","1"
"html-keyboard-response","139","255416","0.0-19.0-3.0","60429021c960ed190edaedca","bdp_trlrn","Tue Mar 14 2023 19:54:11 GMT-0500 (Central Daylight Time)","571034","Untrustworthy,Trustworthy","","null","","","","feedback","","<div class='trialDiv'><img src='trustrating_stim/white_00898_960530_fa_edt.bmp'><br><font class='baseline'><strong>Matthew</strong><p>Received: <strong>20</strong></font> &nbsp; &nbsp; &nbsp; &nbsp; &nbsp; &nbsp;<font class='negOutcome'>Shared back: <strong>0</strong></font></font><div class='respPicDiv'><img src='img/responseButtonOffersNo0_wht.png' class='respPic'></div></div>","null","1","Matthew","11","Kept","0.2,0.8","12","0.2","trustrating_stim/white_00898_960530_fa_edt.bmp","6","0","1"
"html-keyboard-response","140","257019","0.0-19.0-1.1","60429021c960ed190edaedca","bdp_trlrn","Tue Mar 14 2023 19:54:11 GMT-0500 (Central Daylight Time)","571034","Untrustworthy,Trustworthy","","1601","","","","decision","","<div class='trialDiv'><img src='trustrating_stim/white_mw097.bmp'><br><font class='baseline'><strong>Jason</strong><p>Choose number of points to send.</font><div class='respPicDiv'><img src='img/responseButtonOffersNo0L.png' class='respPic'></div></div>","5","1","Jason","0","Shared","0.65,0.2","11","0.65","trustrating_stim/white_mw097.bmp","3","5","2"
"html-keyboard-response","141","257271","0.0-19.0-2.1","60429021c960ed190edaedca","bdp_trlrn","Tue Mar 14 2023 19:54:11 GMT-0500 (Central Daylight Time)","571034","Untrustworthy,Trustworthy","","null","","","","decisionFB","","<div class='trialDiv'><img src='trustrating_stim/white_mw097.bmp'><br><font class='baseline'><strong>Jason</strong><p>Choose number of points to send.</font><div class='respPicDiv'><img src='img/responseButtonOffersNo0L5.png' class='respPic'></div></div>","null","1","Jason","0","Shared","0.65,0.2","11","0.65","trustrating_stim/white_mw097.bmp","3","0","2"
"html-keyboard-response","142","258274","0.0-19.0-3.1","60429021c960ed190edaedca","bdp_trlrn","Tue Mar 14 2023 19:54:11 GMT-0500 (Central Daylight Time)","571034","Untrustworthy,Trustworthy","","null","","","","feedback","","<div class='trialDiv'><img src='trustrating_stim/white_mw097.bmp'><br><font class='baseline'><strong>Jason</strong><p>Received: <strong>20</strong></font> &nbsp; &nbsp; &nbsp; &nbsp; &nbsp; &nbsp;<font class='posOutcome'>Shared back: <strong>10</strong></font></font><div class='respPicDiv'><img src='img/responseButtonOffersNo0_wht.png' class='respPic'></div></div>","null","1","Jason","0","Shared","0.65,0.2","11","0.65","trustrating_stim/white_mw097.bmp","3","10","2"
"html-keyboard-response","143","259626","0.0-19.0-1.2","60429021c960ed190edaedca","bdp_trlrn","Tue Mar 14 2023 19:54:11 GMT-0500 (Central Daylight Time)","571034","Untrustworthy,Trustworthy","","1350","","","","decision","","<div class='trialDiv'><img src='trustrating_stim/white_mw035.bmp'><br><font class='baseline'><strong>Tyler</strong><p>Choose number of points to send.</font><div class='respPicDiv'><img src='img/responseButtonOffersNo0L.png' class='respPic'></div></div>","5","1","Tyler","7","Shared","0.35,0.8","11","0.35","trustrating_stim/white_mw035.bmp","4.5","15","3"
"html-keyboard-response","144","259878","0.0-19.0-2.2","60429021c960ed190edaedca","bdp_trlrn","Tue Mar 14 2023 19:54:11 GMT-0500 (Central Daylight Time)","571034","Untrustworthy,Trustworthy","","null","","","","decisionFB","","<div class='trialDiv'><img src='trustrating_stim/white_mw035.bmp'><br><font class='baseline'><strong>Tyler</strong><p>Choose number of points to send.</font><div class='respPicDiv'><img src='img/responseButtonOffersNo0L5.png' class='respPic'></div></div>","null","1","Tyler","7","Shared","0.35,0.8","11","0.35","trustrating_stim/white_mw035.bmp","4.5","10","3"
"html-keyboard-response","145","260881","0.0-19.0-3.2","60429021c960ed190edaedca","bdp_trlrn","Tue Mar 14 2023 19:54:11 GMT-0500 (Central Daylight Time)","571034","Untrustworthy,Trustworthy","","null","","","","feedback","","<div class='trialDiv'><img src='trustrating_stim/white_mw035.bmp'><br><font class='baseline'><strong>Tyler</strong><p>Received: <strong>20</strong></font> &nbsp; &nbsp; &nbsp; &nbsp; &nbsp; &nbsp;<font class='posOutcome'>Shared back: <strong>10</strong></font></font><div class='respPicDiv'><img src='img/responseButtonOffersNo0_wht.png' class='respPic'></div></div>","null","1","Tyler","7","Shared","0.35,0.8","11","0.35","trustrating_stim/white_mw035.bmp","4.5","20","3"
"html-keyboard-response","146","261939","0.0-19.0-1.3","60429021c960ed190edaedca","bdp_trlrn","Tue Mar 14 2023 19:54:11 GMT-0500 (Central Daylight Time)","571034","Untrustworthy,Trustworthy","","1056","","","","decision","","<div class='trialDiv'><img src='trustrating_stim/white_mw097.bmp'><br><font class='baseline'><strong>Jason</strong><p>Choose number of points to send.</font><div class='respPicDiv'><img src='img/responseButtonOffersNo0L.png' class='respPic'></div></div>","5","2","Jason","0","Shared","0.65,0.2","11","0.65","trustrating_stim/white_mw097.bmp","3","25","4"
"html-keyboard-response","147","262191","0.0-19.0-2.3","60429021c960ed190edaedca","bdp_trlrn","Tue Mar 14 2023 19:54:11 GMT-0500 (Central Daylight Time)","571034","Untrustworthy,Trustworthy","","null","","","","decisionFB","","<div class='trialDiv'><img src='trustrating_stim/white_mw097.bmp'><br><font class='baseline'><strong>Jason</strong><p>Choose number of points to send.</font><div class='respPicDiv'><img src='img/responseButtonOffersNo0L5.png' class='respPic'></div></div>","null","2","Jason","0","Shared","0.65,0.2","11","0.65","trustrating_stim/white_mw097.bmp","3","20","4"
"html-keyboard-response","148","263192","0.0-19.0-3.3","60429021c960ed190edaedca","bdp_trlrn","Tue Mar 14 2023 19:54:11 GMT-0500 (Central Daylight Time)","571034","Untrustworthy,Trustworthy","","null","","","","feedback","","<div class='trialDiv'><img src='trustrating_stim/white_mw097.bmp'><br><font class='baseline'><strong>Jason</strong><p>Received: <strong>20</strong></font> &nbsp; &nbsp; &nbsp; &nbsp; &nbsp; &nbsp;<font class='posOutcome'>Shared back: <strong>10</strong></font></font><div class='respPicDiv'><img src='img/responseButtonOffersNo0_wht.png' class='respPic'></div></div>","null","2","Jason","0","Shared","0.65,0.2","11","0.65","trustrating_stim/white_mw097.bmp","3","30","4"
"html-keyboard-response","149","264832","0.0-19.0-1.4","60429021c960ed190edaedca","bdp_trlrn","Tue Mar 14 2023 19:54:11 GMT-0500 (Central Daylight Time)","571034","Untrustworthy,Trustworthy","","1638","","","","decision","","<div class='trialDiv'><img src='trustrating_stim/white_00898_960530_fa_edt.bmp'><br><font class='baseline'><strong>Matthew</strong><p>Choose number of points to send.</font><div class='respPicDiv'><img src='img/responseButtonOffersNo0L.png' class='respPic'></div></div>","1","2","Matthew","11","Kept","0.2,0.8","12","0.2","trustrating_stim/white_00898_960530_fa_edt.bmp","6","35","5"
"html-keyboard-response","150","265084","0.0-19.0-2.4","60429021c960ed190edaedca","bdp_trlrn","Tue Mar 14 2023 19:54:11 GMT-0500 (Central Daylight Time)","571034","Untrustworthy,Trustworthy","","null","","","","decisionFB","","<div class='trialDiv'><img src='trustrating_stim/white_00898_960530_fa_edt.bmp'><br><font class='baseline'><strong>Matthew</strong><p>Choose number of points to send.</font><div class='respPicDiv'><img src='img/responseButtonOffersNo0L1.png' class='respPic'></div></div>","null","2","Matthew","11","Kept","0.2,0.8","12","0.2","trustrating_stim/white_00898_960530_fa_edt.bmp","6","34","5"
"html-keyboard-response","151","266086","0.0-19.0-3.4","60429021c960ed190edaedca","bdp_trlrn","Tue Mar 14 2023 19:54:11 GMT-0500 (Central Daylight Time)","571034","Untrustworthy,Trustworthy","","null","","","","feedback","","<div class='trialDiv'><img src='trustrating_stim/white_00898_960530_fa_edt.bmp'><br><font class='baseline'><strong>Matthew</strong><p>Received: <strong>4</strong></font> &nbsp; &nbsp; &nbsp; &nbsp; &nbsp; &nbsp;<font class='negOutcome'>Shared back: <strong>0</strong></font></font><div class='respPicDiv'><img src='img/responseButtonOffersNo0_wht.png' class='respPic'></div></div>","null","2","Matthew","11","Kept","0.2,0.8","12","0.2","trustrating_stim/white_00898_960530_fa_edt.bmp","6","34","5"
"html-keyboard-response","152","267451","0.0-19.0-1.5","60429021c960ed190edaedca","bdp_trlrn","Tue Mar 14 2023 19:54:11 GMT-0500 (Central Daylight Time)","571034","Untrustworthy,Trustworthy","","1363","","","","decision","","<div class='trialDiv'><img src='trustrating_stim/white_mw035.bmp'><br><font class='baseline'><strong>Tyler</strong><p>Choose number of points to send.</font><div class='respPicDiv'><img src='img/responseButtonOffersNo0L.png' class='respPic'></div></div>","5","2","Tyler","7","Kept","0.35,0.8","11","0.35","trustrating_stim/white_mw035.bmp","4.5","39","6"
"html-keyboard-response","153","267703","0.0-19.0-2.5","60429021c960ed190edaedca","bdp_trlrn","Tue Mar 14 2023 19:54:11 GMT-0500 (Central Daylight Time)","571034","Untrustworthy,Trustworthy","","null","","","","decisionFB","","<div class='trialDiv'><img src='trustrating_stim/white_mw035.bmp'><br><font class='baseline'><strong>Tyler</strong><p>Choose number of points to send.</font><div class='respPicDiv'><img src='img/responseButtonOffersNo0L5.png' class='respPic'></div></div>","null","2","Tyler","7","Kept","0.35,0.8","11","0.35","trustrating_stim/white_mw035.bmp","4.5","34","6"
"html-keyboard-response","154","268706","0.0-19.0-3.5","60429021c960ed190edaedca","bdp_trlrn","Tue Mar 14 2023 19:54:11 GMT-0500 (Central Daylight Time)","571034","Untrustworthy,Trustworthy","","null","","","","feedback","","<div class='trialDiv'><img src='trustrating_stim/white_mw035.bmp'><br><font class='baseline'><strong>Tyler</strong><p>Received: <strong>20</strong></font> &nbsp; &nbsp; &nbsp; &nbsp; &nbsp; &nbsp;<font class='negOutcome'>Shared back: <strong>0</strong></font></font><div class='respPicDiv'><img src='img/responseButtonOffersNo0_wht.png' class='respPic'></div></div>","null","2","Tyler","7","Kept","0.35,0.8","11","0.35","trustrating_stim/white_mw035.bmp","4.5","34","6"
"html-keyboard-response","155","269206","0.0-19.0-1.6","60429021c960ed190edaedca","bdp_trlrn","Tue Mar 14 2023 19:54:11 GMT-0500 (Central Daylight Time)","571034","Untrustworthy,Trustworthy","","499","","","","decision","","<div class='trialDiv'><img src='trustrating_stim/white_mw097.bmp'><br><font class='baseline'><strong>Jason</strong><p>Choose number of points to send.</font><div class='respPicDiv'><img src='img/responseButtonOffersNo0L.png' class='respPic'></div></div>","5","3","Jason","0","Kept","0.65,0.2","11","0.65","trustrating_stim/white_mw097.bmp","3","39","7"
"html-keyboard-response","156","269460","0.0-19.0-2.6","60429021c960ed190edaedca","bdp_trlrn","Tue Mar 14 2023 19:54:11 GMT-0500 (Central Daylight Time)","571034","Untrustworthy,Trustworthy","","null","","","","decisionFB","","<div class='trialDiv'><img src='trustrating_stim/white_mw097.bmp'><br><font class='baseline'><strong>Jason</strong><p>Choose number of points to send.</font><div class='respPicDiv'><img src='img/responseButtonOffersNo0L5.png' class='respPic'></div></div>","null","3","Jason","0","Kept","0.65,0.2","11","0.65","trustrating_stim/white_mw097.bmp","3","34","7"
"html-keyboard-response","157","270462","0.0-19.0-3.6","60429021c960ed190edaedca","bdp_trlrn","Tue Mar 14 2023 19:54:11 GMT-0500 (Central Daylight Time)","571034","Untrustworthy,Trustworthy","","null","","","","feedback","","<div class='trialDiv'><img src='trustrating_stim/white_mw097.bmp'><br><font class='baseline'><strong>Jason</strong><p>Received: <strong>20</strong></font> &nbsp; &nbsp; &nbsp; &nbsp; &nbsp; &nbsp;<font class='negOutcome'>Shared back: <strong>0</strong></font></font><div class='respPicDiv'><img src='img/responseButtonOffersNo0_wht.png' class='respPic'></div></div>","null","3","Jason","0","Kept","0.65,0.2","11","0.65","trustrating_stim/white_mw097.bmp","3","34","7"
"html-keyboard-response","158","270789","0.0-19.0-1.7","60429021c960ed190edaedca","bdp_trlrn","Tue Mar 14 2023 19:54:11 GMT-0500 (Central Daylight Time)","571034","Untrustworthy,Trustworthy","","326","","","","decision","","<div class='trialDiv'><img src='trustrating_stim/white_00898_960530_fa_edt.bmp'><br><font class='baseline'><strong>Matthew</strong><p>Choose number of points to send.</font><div class='respPicDiv'><img src='img/responseButtonOffersNo0L.png' class='respPic'></div></div>","5","3","Matthew","11","Kept","0.2,0.8","12","0.2","trustrating_stim/white_00898_960530_fa_edt.bmp","6","39","8"
"html-keyboard-response","159","271042","0.0-19.0-2.7","60429021c960ed190edaedca","bdp_trlrn","Tue Mar 14 2023 19:54:11 GMT-0500 (Central Daylight Time)","571034","Untrustworthy,Trustworthy","","null","","","","decisionFB","","<div class='trialDiv'><img src='trustrating_stim/white_00898_960530_fa_edt.bmp'><br><font class='baseline'><strong>Matthew</strong><p>Choose number of points to send.</font><div class='respPicDiv'><img src='img/responseButtonOffersNo0L5.png' class='respPic'></div></div>","null","3","Matthew","11","Kept","0.2,0.8","12","0.2","trustrating_stim/white_00898_960530_fa_edt.bmp","6","34","8"
"html-keyboard-response","160","272045","0.0-19.0-3.7","60429021c960ed190edaedca","bdp_trlrn","Tue Mar 14 2023 19:54:11 GMT-0500 (Central Daylight Time)","571034","Untrustworthy,Trustworthy","","null","","","","feedback","","<div class='trialDiv'><img src='trustrating_stim/white_00898_960530_fa_edt.bmp'><br><font class='baseline'><strong>Matthew</strong><p>Received: <strong>20</strong></font> &nbsp; &nbsp; &nbsp; &nbsp; &nbsp; &nbsp;<font class='negOutcome'>Shared back: <strong>0</strong></font></font><div class='respPicDiv'><img src='img/responseButtonOffersNo0_wht.png' class='respPic'></div></div>","null","3","Matthew","11","Kept","0.2,0.8","12","0.2","trustrating_stim/white_00898_960530_fa_edt.bmp","6","34","8"
"html-keyboard-response","161","272521","0.0-19.0-1.8","60429021c960ed190edaedca","bdp_trlrn","Tue Mar 14 2023 19:54:11 GMT-0500 (Central Daylight Time)","571034","Untrustworthy,Trustworthy","","474","","","","decision","","<div class='trialDiv'><img src='trustrating_stim/white_mw035.bmp'><br><font class='baseline'><strong>Tyler</strong><p>Choose number of points to send.</font><div class='respPicDiv'><img src='img/responseButtonOffersNo0L.png' class='respPic'></div></div>","5","3","Tyler","7","Kept","0.35,0.8","11","0.35","trustrating_stim/white_mw035.bmp","4.5","39","9"
"html-keyboard-response","162","272773","0.0-19.0-2.8","60429021c960ed190edaedca","bdp_trlrn","Tue Mar 14 2023 19:54:11 GMT-0500 (Central Daylight Time)","571034","Untrustworthy,Trustworthy","","null","","","","decisionFB","","<div class='trialDiv'><img src='trustrating_stim/white_mw035.bmp'><br><font class='baseline'><strong>Tyler</strong><p>Choose number of points to send.</font><div class='respPicDiv'><img src='img/responseButtonOffersNo0L5.png' class='respPic'></div></div>","null","3","Tyler","7","Kept","0.35,0.8","11","0.35","trustrating_stim/white_mw035.bmp","4.5","34","9"
"html-keyboard-response","163","273775","0.0-19.0-3.8","60429021c960ed190edaedca","bdp_trlrn","Tue Mar 14 2023 19:54:11 GMT-0500 (Central Daylight Time)","571034","Untrustworthy,Trustworthy","","null","","","","feedback","","<div class='trialDiv'><img src='trustrating_stim/white_mw035.bmp'><br><font class='baseline'><strong>Tyler</strong><p>Received: <strong>20</strong></font> &nbsp; &nbsp; &nbsp; &nbsp; &nbsp; &nbsp;<font class='negOutcome'>Shared back: <strong>0</strong></font></font><div class='respPicDiv'><img src='img/responseButtonOffersNo0_wht.png' class='respPic'></div></div>","null","3","Tyler","7","Kept","0.35,0.8","11","0.35","trustrating_stim/white_mw035.bmp","4.5","34","9"
"html-keyboard-response","164","274092","0.0-19.0-1.9","60429021c960ed190edaedca","bdp_trlrn","Tue Mar 14 2023 19:54:11 GMT-0500 (Central Daylight Time)","571034","Untrustworthy,Trustworthy","","315","","","","decision","","<div class='trialDiv'><img src='trustrating_stim/white_mw097.bmp'><br><font class='baseline'><strong>Jason</strong><p>Choose number of points to send.</font><div class='respPicDiv'><img src='img/responseButtonOffersNo0L.png' class='respPic'></div></div>","5","4","Jason","0","Shared","0.65,0.2","11","0.65","trustrating_stim/white_mw097.bmp","3","39","10"
"html-keyboard-response","165","274344","0.0-19.0-2.9","60429021c960ed190edaedca","bdp_trlrn","Tue Mar 14 2023 19:54:11 GMT-0500 (Central Daylight Time)","571034","Untrustworthy,Trustworthy","","null","","","","decisionFB","","<div class='trialDiv'><img src='trustrating_stim/white_mw097.bmp'><br><font class='baseline'><strong>Jason</strong><p>Choose number of points to send.</font><div class='respPicDiv'><img src='img/responseButtonOffersNo0L5.png' class='respPic'></div></div>","null","4","Jason","0","Shared","0.65,0.2","11","0.65","trustrating_stim/white_mw097.bmp","3","34","10"
"html-keyboard-response","166","275347","0.0-19.0-3.9","60429021c960ed190edaedca","bdp_trlrn","Tue Mar 14 2023 19:54:11 GMT-0500 (Central Daylight Time)","571034","Untrustworthy,Trustworthy","","null","","","","feedback","","<div class='trialDiv'><img src='trustrating_stim/white_mw097.bmp'><br><font class='baseline'><strong>Jason</strong><p>Received: <strong>20</strong></font> &nbsp; &nbsp; &nbsp; &nbsp; &nbsp; &nbsp;<font class='posOutcome'>Shared back: <strong>10</strong></font></font><div class='respPicDiv'><img src='img/responseButtonOffersNo0_wht.png' class='respPic'></div></div>","null","4","Jason","0","Shared","0.65,0.2","11","0.65","trustrating_stim/white_mw097.bmp","3","44","10"
"html-keyboard-response","167","276000","0.0-19.0-1.10","60429021c960ed190edaedca","bdp_trlrn","Tue Mar 14 2023 19:54:11 GMT-0500 (Central Daylight Time)","571034","Untrustworthy,Trustworthy","","651","","","","decision","","<div class='trialDiv'><img src='trustrating_stim/white_mw035.bmp'><br><font class='baseline'><strong>Tyler</strong><p>Choose number of points to send.</font><div class='respPicDiv'><img src='img/responseButtonOffersNo0L.png' class='respPic'></div></div>","5","4","Tyler","7","Shared","0.35,0.8","11","0.35","trustrating_stim/white_mw035.bmp","4.5","49","11"
"html-keyboard-response","168","276253","0.0-19.0-2.10","60429021c960ed190edaedca","bdp_trlrn","Tue Mar 14 2023 19:54:11 GMT-0500 (Central Daylight Time)","571034","Untrustworthy,Trustworthy","","null","","","","decisionFB","","<div class='trialDiv'><img src='trustrating_stim/white_mw035.bmp'><br><font class='baseline'><strong>Tyler</strong><p>Choose number of points to send.</font><div class='respPicDiv'><img src='img/responseButtonOffersNo0L5.png' class='respPic'></div></div>","null","4","Tyler","7","Shared","0.35,0.8","11","0.35","trustrating_stim/white_mw035.bmp","4.5","44","11"
"html-keyboard-response","169","277256","0.0-19.0-3.10","60429021c960ed190edaedca","bdp_trlrn","Tue Mar 14 2023 19:54:11 GMT-0500 (Central Daylight Time)","571034","Untrustworthy,Trustworthy","","null","","","","feedback","","<div class='trialDiv'><img src='trustrating_stim/white_mw035.bmp'><br><font class='baseline'><strong>Tyler</strong><p>Received: <strong>20</strong></font> &nbsp; &nbsp; &nbsp; &nbsp; &nbsp; &nbsp;<font class='posOutcome'>Shared back: <strong>10</strong></font></font><div class='respPicDiv'><img src='img/responseButtonOffersNo0_wht.png' class='respPic'></div></div>","null","4","Tyler","7","Shared","0.35,0.8","11","0.35","trustrating_stim/white_mw035.bmp","4.5","54","11"
"html-keyboard-response","170","279222","0.0-19.0-1.11","60429021c960ed190edaedca","bdp_trlrn","Tue Mar 14 2023 19:54:11 GMT-0500 (Central Daylight Time)","571034","Untrustworthy,Trustworthy","","1965","","","","decision","","<div class='trialDiv'><img src='trustrating_stim/white_00898_960530_fa_edt.bmp'><br><font class='baseline'><strong>Matthew</strong><p>Choose number of points to send.</font><div class='respPicDiv'><img src='img/responseButtonOffersNo0L.png' class='respPic'></div></div>","5","4","Matthew","11","Kept","0.2,0.8","12","0.2","trustrating_stim/white_00898_960530_fa_edt.bmp","6","59","12"
"html-keyboard-response","171","279475","0.0-19.0-2.11","60429021c960ed190edaedca","bdp_trlrn","Tue Mar 14 2023 19:54:11 GMT-0500 (Central Daylight Time)","571034","Untrustworthy,Trustworthy","","null","","","","decisionFB","","<div class='trialDiv'><img src='trustrating_stim/white_00898_960530_fa_edt.bmp'><br><font class='baseline'><strong>Matthew</strong><p>Choose number of points to send.</font><div class='respPicDiv'><img src='img/responseButtonOffersNo0L5.png' class='respPic'></div></div>","null","4","Matthew","11","Kept","0.2,0.8","12","0.2","trustrating_stim/white_00898_960530_fa_edt.bmp","6","54","12"
"html-keyboard-response","172","280477","0.0-19.0-3.11","60429021c960ed190edaedca","bdp_trlrn","Tue Mar 14 2023 19:54:11 GMT-0500 (Central Daylight Time)","571034","Untrustworthy,Trustworthy","","null","","","","feedback","","<div class='trialDiv'><img src='trustrating_stim/white_00898_960530_fa_edt.bmp'><br><font class='baseline'><strong>Matthew</strong><p>Received: <strong>20</strong></font> &nbsp; &nbsp; &nbsp; &nbsp; &nbsp; &nbsp;<font class='negOutcome'>Shared back: <strong>0</strong></font></font><div class='respPicDiv'><img src='img/responseButtonOffersNo0_wht.png' class='respPic'></div></div>","null","4","Matthew","11","Kept","0.2,0.8","12","0.2","trustrating_stim/white_00898_960530_fa_edt.bmp","6","54","12"
"html-keyboard-response","173","280946","0.0-19.0-1.12","60429021c960ed190edaedca","bdp_trlrn","Tue Mar 14 2023 19:54:11 GMT-0500 (Central Daylight Time)","571034","Untrustworthy,Trustworthy","","467","","","","decision","","<div class='trialDiv'><img src='trustrating_stim/white_mw097.bmp'><br><font class='baseline'><strong>Jason</strong><p>Choose number of points to send.</font><div class='respPicDiv'><img src='img/responseButtonOffersNo0L.png' class='respPic'></div></div>","5","5","Jason","0","Shared","0.65,0.2","11","0.65","trustrating_stim/white_mw097.bmp","3","59","13"
"html-keyboard-response","174","281199","0.0-19.0-2.12","60429021c960ed190edaedca","bdp_trlrn","Tue Mar 14 2023 19:54:11 GMT-0500 (Central Daylight Time)","571034","Untrustworthy,Trustworthy","","null","","","","decisionFB","","<div class='trialDiv'><img src='trustrating_stim/white_mw097.bmp'><br><font class='baseline'><strong>Jason</strong><p>Choose number of points to send.</font><div class='respPicDiv'><img src='img/responseButtonOffersNo0L5.png' class='respPic'></div></div>","null","5","Jason","0","Shared","0.65,0.2","11","0.65","trustrating_stim/white_mw097.bmp","3","54","13"
"html-keyboard-response","175","282201","0.0-19.0-3.12","60429021c960ed190edaedca","bdp_trlrn","Tue Mar 14 2023 19:54:11 GMT-0500 (Central Daylight Time)","571034","Untrustworthy,Trustworthy","","null","","","","feedback","","<div class='trialDiv'><img src='trustrating_stim/white_mw097.bmp'><br><font class='baseline'><strong>Jason</strong><p>Received: <strong>20</strong></font> &nbsp; &nbsp; &nbsp; &nbsp; &nbsp; &nbsp;<font class='posOutcome'>Shared back: <strong>10</strong></font></font><div class='respPicDiv'><img src='img/responseButtonOffersNo0_wht.png' class='respPic'></div></div>","null","5","Jason","0","Shared","0.65,0.2","11","0.65","trustrating_stim/white_mw097.bmp","3","64","13"
"html-keyboard-response","176","283417","0.0-19.0-1.13","60429021c960ed190edaedca","bdp_trlrn","Tue Mar 14 2023 19:54:11 GMT-0500 (Central Daylight Time)","571034","Untrustworthy,Trustworthy","","1214","","","","decision","","<div class='trialDiv'><img src='trustrating_stim/white_00898_960530_fa_edt.bmp'><br><font class='baseline'><strong>Matthew</strong><p>Choose number of points to send.</font><div class='respPicDiv'><img src='img/responseButtonOffersNo0L.png' class='respPic'></div></div>","1","5","Matthew","11","Kept","0.2,0.8","12","0.2","trustrating_stim/white_00898_960530_fa_edt.bmp","6","69","14"
"html-keyboard-response","177","283669","0.0-19.0-2.13","60429021c960ed190edaedca","bdp_trlrn","Tue Mar 14 2023 19:54:11 GMT-0500 (Central Daylight Time)","571034","Untrustworthy,Trustworthy","","null","","","","decisionFB","","<div class='trialDiv'><img src='trustrating_stim/white_00898_960530_fa_edt.bmp'><br><font class='baseline'><strong>Matthew</strong><p>Choose number of points to send.</font><div class='respPicDiv'><img src='img/responseButtonOffersNo0L1.png' class='respPic'></div></div>","null","5","Matthew","11","Kept","0.2,0.8","12","0.2","trustrating_stim/white_00898_960530_fa_edt.bmp","6","68","14"
"html-keyboard-response","178","284671","0.0-19.0-3.13","60429021c960ed190edaedca","bdp_trlrn","Tue Mar 14 2023 19:54:11 GMT-0500 (Central Daylight Time)","571034","Untrustworthy,Trustworthy","","null","","","","feedback","","<div class='trialDiv'><img src='trustrating_stim/white_00898_960530_fa_edt.bmp'><br><font class='baseline'><strong>Matthew</strong><p>Received: <strong>4</strong></font> &nbsp; &nbsp; &nbsp; &nbsp; &nbsp; &nbsp;<font class='negOutcome'>Shared back: <strong>0</strong></font></font><div class='respPicDiv'><img src='img/responseButtonOffersNo0_wht.png' class='respPic'></div></div>","null","5","Matthew","11","Kept","0.2,0.8","12","0.2","trustrating_stim/white_00898_960530_fa_edt.bmp","6","68","14"
"html-keyboard-response","179","284994","0.0-19.0-1.14","60429021c960ed190edaedca","bdp_trlrn","Tue Mar 14 2023 19:54:11 GMT-0500 (Central Daylight Time)","571034","Untrustworthy,Trustworthy","","322","","","","decision","","<div class='trialDiv'><img src='trustrating_stim/white_mw035.bmp'><br><font class='baseline'><strong>Tyler</strong><p>Choose number of points to send.</font><div class='respPicDiv'><img src='img/responseButtonOffersNo0L.png' class='respPic'></div></div>","5","5","Tyler","7","Kept","0.35,0.8","11","0.35","trustrating_stim/white_mw035.bmp","4.5","73","15"
"html-keyboard-response","180","285246","0.0-19.0-2.14","60429021c960ed190edaedca","bdp_trlrn","Tue Mar 14 2023 19:54:11 GMT-0500 (Central Daylight Time)","571034","Untrustworthy,Trustworthy","","null","","","","decisionFB","","<div class='trialDiv'><img src='trustrating_stim/white_mw035.bmp'><br><font class='baseline'><strong>Tyler</strong><p>Choose number of points to send.</font><div class='respPicDiv'><img src='img/responseButtonOffersNo0L5.png' class='respPic'></div></div>","null","5","Tyler","7","Kept","0.35,0.8","11","0.35","trustrating_stim/white_mw035.bmp","4.5","68","15"
"html-keyboard-response","181","286249","0.0-19.0-3.14","60429021c960ed190edaedca","bdp_trlrn","Tue Mar 14 2023 19:54:11 GMT-0500 (Central Daylight Time)","571034","Untrustworthy,Trustworthy","","null","","","","feedback","","<div class='trialDiv'><img src='trustrating_stim/white_mw035.bmp'><br><font class='baseline'><strong>Tyler</strong><p>Received: <strong>20</strong></font> &nbsp; &nbsp; &nbsp; &nbsp; &nbsp; &nbsp;<font class='negOutcome'>Shared back: <strong>0</strong></font></font><div class='respPicDiv'><img src='img/responseButtonOffersNo0_wht.png' class='respPic'></div></div>","null","5","Tyler","7","Kept","0.35,0.8","11","0.35","trustrating_stim/white_mw035.bmp","4.5","68","15"
"html-keyboard-response","182","286701","0.0-19.0-1.15","60429021c960ed190edaedca","bdp_trlrn","Tue Mar 14 2023 19:54:11 GMT-0500 (Central Daylight Time)","571034","Untrustworthy,Trustworthy","","450","","","","decision","","<div class='trialDiv'><img src='trustrating_stim/white_00898_960530_fa_edt.bmp'><br><font class='baseline'><strong>Matthew</strong><p>Choose number of points to send.</font><div class='respPicDiv'><img src='img/responseButtonOffersNo0L.png' class='respPic'></div></div>","1","6","Matthew","11","Kept","0.2,0.8","12","0.2","trustrating_stim/white_00898_960530_fa_edt.bmp","6","73","16"
"html-keyboard-response","183","286954","0.0-19.0-2.15","60429021c960ed190edaedca","bdp_trlrn","Tue Mar 14 2023 19:54:11 GMT-0500 (Central Daylight Time)","571034","Untrustworthy,Trustworthy","","null","","","","decisionFB","","<div class='trialDiv'><img src='trustrating_stim/white_00898_960530_fa_edt.bmp'><br><font class='baseline'><strong>Matthew</strong><p>Choose number of points to send.</font><div class='respPicDiv'><img src='img/responseButtonOffersNo0L1.png' class='respPic'></div></div>","null","6","Matthew","11","Kept","0.2,0.8","12","0.2","trustrating_stim/white_00898_960530_fa_edt.bmp","6","72","16"
"html-keyboard-response","184","287956","0.0-19.0-3.15","60429021c960ed190edaedca","bdp_trlrn","Tue Mar 14 2023 19:54:11 GMT-0500 (Central Daylight Time)","571034","Untrustworthy,Trustworthy","","null","","","","feedback","","<div class='trialDiv'><img src='trustrating_stim/white_00898_960530_fa_edt.bmp'><br><font class='baseline'><strong>Matthew</strong><p>Received: <strong>4</strong></font> &nbsp; &nbsp; &nbsp; &nbsp; &nbsp; &nbsp;<font class='negOutcome'>Shared back: <strong>0</strong></font></font><div class='respPicDiv'><img src='img/responseButtonOffersNo0_wht.png' class='respPic'></div></div>","null","6","Matthew","11","Kept","0.2,0.8","12","0.2","trustrating_stim/white_00898_960530_fa_edt.bmp","6","72","16"
"html-keyboard-response","185","288190","0.0-19.0-1.16","60429021c960ed190edaedca","bdp_trlrn","Tue Mar 14 2023 19:54:11 GMT-0500 (Central Daylight Time)","571034","Untrustworthy,Trustworthy","","232","","","","decision","","<div class='trialDiv'><img src='trustrating_stim/white_mw035.bmp'><br><font class='baseline'><strong>Tyler</strong><p>Choose number of points to send.</font><div class='respPicDiv'><img src='img/responseButtonOffersNo0L.png' class='respPic'></div></div>","5","6","Tyler","7","Kept","0.35,0.8","11","0.35","trustrating_stim/white_mw035.bmp","4.5","77","17"
"html-keyboard-response","186","288442","0.0-19.0-2.16","60429021c960ed190edaedca","bdp_trlrn","Tue Mar 14 2023 19:54:11 GMT-0500 (Central Daylight Time)","571034","Untrustworthy,Trustworthy","","null","","","","decisionFB","","<div class='trialDiv'><img src='trustrating_stim/white_mw035.bmp'><br><font class='baseline'><strong>Tyler</strong><p>Choose number of points to send.</font><div class='respPicDiv'><img src='img/responseButtonOffersNo0L5.png' class='respPic'></div></div>","null","6","Tyler","7","Kept","0.35,0.8","11","0.35","trustrating_stim/white_mw035.bmp","4.5","72","17"
"html-keyboard-response","187","289445","0.0-19.0-3.16","60429021c960ed190edaedca","bdp_trlrn","Tue Mar 14 2023 19:54:11 GMT-0500 (Central Daylight Time)","571034","Untrustworthy,Trustworthy","","null","","","","feedback","","<div class='trialDiv'><img src='trustrating_stim/white_mw035.bmp'><br><font class='baseline'><strong>Tyler</strong><p>Received: <strong>20</strong></font> &nbsp; &nbsp; &nbsp; &nbsp; &nbsp; &nbsp;<font class='negOutcome'>Shared back: <strong>0</strong></font></font><div class='respPicDiv'><img src='img/responseButtonOffersNo0_wht.png' class='respPic'></div></div>","null","6","Tyler","7","Kept","0.35,0.8","11","0.35","trustrating_stim/white_mw035.bmp","4.5","72","17"
"html-keyboard-response","188","289700","0.0-19.0-1.17","60429021c960ed190edaedca","bdp_trlrn","Tue Mar 14 2023 19:54:11 GMT-0500 (Central Daylight Time)","571034","Untrustworthy,Trustworthy","","253","","","","decision","","<div class='trialDiv'><img src='trustrating_stim/white_mw097.bmp'><br><font class='baseline'><strong>Jason</strong><p>Choose number of points to send.</font><div class='respPicDiv'><img src='img/responseButtonOffersNo0L.png' class='respPic'></div></div>","5","6","Jason","0","Shared","0.65,0.2","11","0.65","trustrating_stim/white_mw097.bmp","3","77","18"
"html-keyboard-response","189","289952","0.0-19.0-2.17","60429021c960ed190edaedca","bdp_trlrn","Tue Mar 14 2023 19:54:11 GMT-0500 (Central Daylight Time)","571034","Untrustworthy,Trustworthy","","null","","","","decisionFB","","<div class='trialDiv'><img src='trustrating_stim/white_mw097.bmp'><br><font class='baseline'><strong>Jason</strong><p>Choose number of points to send.</font><div class='respPicDiv'><img src='img/responseButtonOffersNo0L5.png' class='respPic'></div></div>","null","6","Jason","0","Shared","0.65,0.2","11","0.65","trustrating_stim/white_mw097.bmp","3","72","18"
"html-keyboard-response","190","290954","0.0-19.0-3.17","60429021c960ed190edaedca","bdp_trlrn","Tue Mar 14 2023 19:54:11 GMT-0500 (Central Daylight Time)","571034","Untrustworthy,Trustworthy","","null","","","","feedback","","<div class='trialDiv'><img src='trustrating_stim/white_mw097.bmp'><br><font class='baseline'><strong>Jason</strong><p>Received: <strong>20</strong></font> &nbsp; &nbsp; &nbsp; &nbsp; &nbsp; &nbsp;<font class='posOutcome'>Shared back: <strong>10</strong></font></font><div class='respPicDiv'><img src='img/responseButtonOffersNo0_wht.png' class='respPic'></div></div>","null","6","Jason","0","Shared","0.65,0.2","11","0.65","trustrating_stim/white_mw097.bmp","3","82","18"
"html-keyboard-response","191","291971","0.0-19.0-1.18","60429021c960ed190edaedca","bdp_trlrn","Tue Mar 14 2023 19:54:11 GMT-0500 (Central Daylight Time)","571034","Untrustworthy,Trustworthy","","1015","","","","decision","","<div class='trialDiv'><img src='trustrating_stim/white_00898_960530_fa_edt.bmp'><br><font class='baseline'><strong>Matthew</strong><p>Choose number of points to send.</font><div class='respPicDiv'><img src='img/responseButtonOffersNo0L.png' class='respPic'></div></div>","1","7","Matthew","11","Kept","0.2,0.8","12","0.2","trustrating_stim/white_00898_960530_fa_edt.bmp","6","87","19"
"html-keyboard-response","192","292223","0.0-19.0-2.18","60429021c960ed190edaedca","bdp_trlrn","Tue Mar 14 2023 19:54:11 GMT-0500 (Central Daylight Time)","571034","Untrustworthy,Trustworthy","","null","","","","decisionFB","","<div class='trialDiv'><img src='trustrating_stim/white_00898_960530_fa_edt.bmp'><br><font class='baseline'><strong>Matthew</strong><p>Choose number of points to send.</font><div class='respPicDiv'><img src='img/responseButtonOffersNo0L1.png' class='respPic'></div></div>","null","7","Matthew","11","Kept","0.2,0.8","12","0.2","trustrating_stim/white_00898_960530_fa_edt.bmp","6","86","19"
"html-keyboard-response","193","293225","0.0-19.0-3.18","60429021c960ed190edaedca","bdp_trlrn","Tue Mar 14 2023 19:54:11 GMT-0500 (Central Daylight Time)","571034","Untrustworthy,Trustworthy","","null","","","","feedback","","<div class='trialDiv'><img src='trustrating_stim/white_00898_960530_fa_edt.bmp'><br><font class='baseline'><strong>Matthew</strong><p>Received: <strong>4</strong></font> &nbsp; &nbsp; &nbsp; &nbsp; &nbsp; &nbsp;<font class='negOutcome'>Shared back: <strong>0</strong></font></font><div class='respPicDiv'><img src='img/responseButtonOffersNo0_wht.png' class='respPic'></div></div>","null","7","Matthew","11","Kept","0.2,0.8","12","0.2","trustrating_stim/white_00898_960530_fa_edt.bmp","6","86","19"
"html-keyboard-response","194","293675","0.0-19.0-1.19","60429021c960ed190edaedca","bdp_trlrn","Tue Mar 14 2023 19:54:11 GMT-0500 (Central Daylight Time)","571034","Untrustworthy,Trustworthy","","449","","","","decision","","<div class='trialDiv'><img src='trustrating_stim/white_mw035.bmp'><br><font class='baseline'><strong>Tyler</strong><p>Choose number of points to send.</font><div class='respPicDiv'><img src='img/responseButtonOffersNo0L.png' class='respPic'></div></div>","1","7","Tyler","7","Kept","0.35,0.8","11","0.35","trustrating_stim/white_mw035.bmp","4.5","91","20"
"html-keyboard-response","195","293927","0.0-19.0-2.19","60429021c960ed190edaedca","bdp_trlrn","Tue Mar 14 2023 19:54:11 GMT-0500 (Central Daylight Time)","571034","Untrustworthy,Trustworthy","","null","","","","decisionFB","","<div class='trialDiv'><img src='trustrating_stim/white_mw035.bmp'><br><font class='baseline'><strong>Tyler</strong><p>Choose number of points to send.</font><div class='respPicDiv'><img src='img/responseButtonOffersNo0L1.png' class='respPic'></div></div>","null","7","Tyler","7","Kept","0.35,0.8","11","0.35","trustrating_stim/white_mw035.bmp","4.5","90","20"
"html-keyboard-response","196","294930","0.0-19.0-3.19","60429021c960ed190edaedca","bdp_trlrn","Tue Mar 14 2023 19:54:11 GMT-0500 (Central Daylight Time)","571034","Untrustworthy,Trustworthy","","null","","","","feedback","","<div class='trialDiv'><img src='trustrating_stim/white_mw035.bmp'><br><font class='baseline'><strong>Tyler</strong><p>Received: <strong>4</strong></font> &nbsp; &nbsp; &nbsp; &nbsp; &nbsp; &nbsp;<font class='negOutcome'>Shared back: <strong>0</strong></font></font><div class='respPicDiv'><img src='img/responseButtonOffersNo0_wht.png' class='respPic'></div></div>","null","7","Tyler","7","Kept","0.35,0.8","11","0.35","trustrating_stim/white_mw035.bmp","4.5","90","20"
"html-keyboard-response","197","295121","0.0-19.0-1.20","60429021c960ed190edaedca","bdp_trlrn","Tue Mar 14 2023 19:54:11 GMT-0500 (Central Daylight Time)","571034","Untrustworthy,Trustworthy","","190","","","","decision","","<div class='trialDiv'><img src='trustrating_stim/white_mw097.bmp'><br><font class='baseline'><strong>Jason</strong><p>Choose number of points to send.</font><div class='respPicDiv'><img src='img/responseButtonOffersNo0L.png' class='respPic'></div></div>","5","7","Jason","0","Shared","0.65,0.2","11","0.65","trustrating_stim/white_mw097.bmp","3","95","21"
"html-keyboard-response","198","295374","0.0-19.0-2.20","60429021c960ed190edaedca","bdp_trlrn","Tue Mar 14 2023 19:54:11 GMT-0500 (Central Daylight Time)","571034","Untrustworthy,Trustworthy","","null","","","","decisionFB","","<div class='trialDiv'><img src='trustrating_stim/white_mw097.bmp'><br><font class='baseline'><strong>Jason</strong><p>Choose number of points to send.</font><div class='respPicDiv'><img src='img/responseButtonOffersNo0L5.png' class='respPic'></div></div>","null","7","Jason","0","Shared","0.65,0.2","11","0.65","trustrating_stim/white_mw097.bmp","3","90","21"
"html-keyboard-response","199","296376","0.0-19.0-3.20","60429021c960ed190edaedca","bdp_trlrn","Tue Mar 14 2023 19:54:11 GMT-0500 (Central Daylight Time)","571034","Untrustworthy,Trustworthy","","null","","","","feedback","","<div class='trialDiv'><img src='trustrating_stim/white_mw097.bmp'><br><font class='baseline'><strong>Jason</strong><p>Received: <strong>20</strong></font> &nbsp; &nbsp; &nbsp; &nbsp; &nbsp; &nbsp;<font class='posOutcome'>Shared back: <strong>10</strong></font></font><div class='respPicDiv'><img src='img/responseButtonOffersNo0_wht.png' class='respPic'></div></div>","null","7","Jason","0","Shared","0.65,0.2","11","0.65","trustrating_stim/white_mw097.bmp","3","100","21"
"html-keyboard-response","200","297343","0.0-19.0-1.21","60429021c960ed190edaedca","bdp_trlrn","Tue Mar 14 2023 19:54:11 GMT-0500 (Central Daylight Time)","571034","Untrustworthy,Trustworthy","","965","","","","decision","","<div class='trialDiv'><img src='trustrating_stim/white_mw035.bmp'><br><font class='baseline'><strong>Tyler</strong><p>Choose number of points to send.</font><div class='respPicDiv'><img src='img/responseButtonOffersNo0L.png' class='respPic'></div></div>","1","8","Tyler","7","Kept","0.35,0.8","11","0.35","trustrating_stim/white_mw035.bmp","4.5","105","22"
"html-keyboard-response","201","297596","0.0-19.0-2.21","60429021c960ed190edaedca","bdp_trlrn","Tue Mar 14 2023 19:54:11 GMT-0500 (Central Daylight Time)","571034","Untrustworthy,Trustworthy","","null","","","","decisionFB","","<div class='trialDiv'><img src='trustrating_stim/white_mw035.bmp'><br><font class='baseline'><strong>Tyler</strong><p>Choose number of points to send.</font><div class='respPicDiv'><img src='img/responseButtonOffersNo0L1.png' class='respPic'></div></div>","null","8","Tyler","7","Kept","0.35,0.8","11","0.35","trustrating_stim/white_mw035.bmp","4.5","104","22"
"html-keyboard-response","202","298599","0.0-19.0-3.21","60429021c960ed190edaedca","bdp_trlrn","Tue Mar 14 2023 19:54:11 GMT-0500 (Central Daylight Time)","571034","Untrustworthy,Trustworthy","","null","","","","feedback","","<div class='trialDiv'><img src='trustrating_stim/white_mw035.bmp'><br><font class='baseline'><strong>Tyler</strong><p>Received: <strong>4</strong></font> &nbsp; &nbsp; &nbsp; &nbsp; &nbsp; &nbsp;<font class='negOutcome'>Shared back: <strong>0</strong></font></font><div class='respPicDiv'><img src='img/responseButtonOffersNo0_wht.png' class='respPic'></div></div>","null","8","Tyler","7","Kept","0.35,0.8","11","0.35","trustrating_stim/white_mw035.bmp","4.5","104","22"
"html-keyboard-response","203","299292","0.0-19.0-1.22","60429021c960ed190edaedca","bdp_trlrn","Tue Mar 14 2023 19:54:11 GMT-0500 (Central Daylight Time)","571034","Untrustworthy,Trustworthy","","692","","","","decision","","<div class='trialDiv'><img src='trustrating_stim/white_mw097.bmp'><br><font class='baseline'><strong>Jason</strong><p>Choose number of points to send.</font><div class='respPicDiv'><img src='img/responseButtonOffersNo0L.png' class='respPic'></div></div>","5","8","Jason","0","Kept","0.65,0.2","11","0.65","trustrating_stim/white_mw097.bmp","3","109","23"
"html-keyboard-response","204","299545","0.0-19.0-2.22","60429021c960ed190edaedca","bdp_trlrn","Tue Mar 14 2023 19:54:11 GMT-0500 (Central Daylight Time)","571034","Untrustworthy,Trustworthy","","null","","","","decisionFB","","<div class='trialDiv'><img src='trustrating_stim/white_mw097.bmp'><br><font class='baseline'><strong>Jason</strong><p>Choose number of points to send.</font><div class='respPicDiv'><img src='img/responseButtonOffersNo0L5.png' class='respPic'></div></div>","null","8","Jason","0","Kept","0.65,0.2","11","0.65","trustrating_stim/white_mw097.bmp","3","104","23"
"html-keyboard-response","205","300547","0.0-19.0-3.22","60429021c960ed190edaedca","bdp_trlrn","Tue Mar 14 2023 19:54:11 GMT-0500 (Central Daylight Time)","571034","Untrustworthy,Trustworthy","","null","","","","feedback","","<div class='trialDiv'><img src='trustrating_stim/white_mw097.bmp'><br><font class='baseline'><strong>Jason</strong><p>Received: <strong>20</strong></font> &nbsp; &nbsp; &nbsp; &nbsp; &nbsp; &nbsp;<font class='negOutcome'>Shared back: <strong>0</strong></font></font><div class='respPicDiv'><img src='img/responseButtonOffersNo0_wht.png' class='respPic'></div></div>","null","8","Jason","0","Kept","0.65,0.2","11","0.65","trustrating_stim/white_mw097.bmp","3","104","23"
"html-keyboard-response","206","301041","0.0-19.0-1.23","60429021c960ed190edaedca","bdp_trlrn","Tue Mar 14 2023 19:54:11 GMT-0500 (Central Daylight Time)","571034","Untrustworthy,Trustworthy","","491","","","","decision","","<div class='trialDiv'><img src='trustrating_stim/white_00898_960530_fa_edt.bmp'><br><font class='baseline'><strong>Matthew</strong><p>Choose number of points to send.</font><div class='respPicDiv'><img src='img/responseButtonOffersNo0L.png' class='respPic'></div></div>","1","8","Matthew","11","Kept","0.2,0.8","12","0.2","trustrating_stim/white_00898_960530_fa_edt.bmp","6","109","24"
"html-keyboard-response","207","301293","0.0-19.0-2.23","60429021c960ed190edaedca","bdp_trlrn","Tue Mar 14 2023 19:54:11 GMT-0500 (Central Daylight Time)","571034","Untrustworthy,Trustworthy","","null","","","","decisionFB","","<div class='trialDiv'><img src='trustrating_stim/white_00898_960530_fa_edt.bmp'><br><font class='baseline'><strong>Matthew</strong><p>Choose number of points to send.</font><div class='respPicDiv'><img src='img/responseButtonOffersNo0L1.png' class='respPic'></div></div>","null","8","Matthew","11","Kept","0.2,0.8","12","0.2","trustrating_stim/white_00898_960530_fa_edt.bmp","6","108","24"
"html-keyboard-response","208","302296","0.0-19.0-3.23","60429021c960ed190edaedca","bdp_trlrn","Tue Mar 14 2023 19:54:11 GMT-0500 (Central Daylight Time)","571034","Untrustworthy,Trustworthy","","null","","","","feedback","","<div class='trialDiv'><img src='trustrating_stim/white_00898_960530_fa_edt.bmp'><br><font class='baseline'><strong>Matthew</strong><p>Received: <strong>4</strong></font> &nbsp; &nbsp; &nbsp; &nbsp; &nbsp; &nbsp;<font class='negOutcome'>Shared back: <strong>0</strong></font></font><div class='respPicDiv'><img src='img/responseButtonOffersNo0_wht.png' class='respPic'></div></div>","null","8","Matthew","11","Kept","0.2,0.8","12","0.2","trustrating_stim/white_00898_960530_fa_edt.bmp","6","108","24"
"html-keyboard-response","209","303236","0.0-19.0-1.24","60429021c960ed190edaedca","bdp_trlrn","Tue Mar 14 2023 19:54:11 GMT-0500 (Central Daylight Time)","571034","Untrustworthy,Trustworthy","","938","","","","decision","","<div class='trialDiv'><img src='trustrating_stim/white_mw097.bmp'><br><font class='baseline'><strong>Jason</strong><p>Choose number of points to send.</font><div class='respPicDiv'><img src='img/responseButtonOffersNo0L.png' class='respPic'></div></div>","5","9","Jason","0","Shared","0.65,0.2","11","0.65","trustrating_stim/white_mw097.bmp","3","113","25"
"html-keyboard-response","210","303488","0.0-19.0-2.24","60429021c960ed190edaedca","bdp_trlrn","Tue Mar 14 2023 19:54:11 GMT-0500 (Central Daylight Time)","571034","Untrustworthy,Trustworthy","","null","","","","decisionFB","","<div class='trialDiv'><img src='trustrating_stim/white_mw097.bmp'><br><font class='baseline'><strong>Jason</strong><p>Choose number of points to send.</font><div class='respPicDiv'><img src='img/responseButtonOffersNo0L5.png' class='respPic'></div></div>","null","9","Jason","0","Shared","0.65,0.2","11","0.65","trustrating_stim/white_mw097.bmp","3","108","25"
"html-keyboard-response","211","304491","0.0-19.0-3.24","60429021c960ed190edaedca","bdp_trlrn","Tue Mar 14 2023 19:54:11 GMT-0500 (Central Daylight Time)","571034","Untrustworthy,Trustworthy","","null","","","","feedback","","<div class='trialDiv'><img src='trustrating_stim/white_mw097.bmp'><br><font class='baseline'><strong>Jason</strong><p>Received: <strong>20</strong></font> &nbsp; &nbsp; &nbsp; &nbsp; &nbsp; &nbsp;<font class='posOutcome'>Shared back: <strong>10</strong></font></font><div class='respPicDiv'><img src='img/responseButtonOffersNo0_wht.png' class='respPic'></div></div>","null","9","Jason","0","Shared","0.65,0.2","11","0.65","trustrating_stim/white_mw097.bmp","3","118","25"
"html-keyboard-response","212","305103","0.0-19.0-1.25","60429021c960ed190edaedca","bdp_trlrn","Tue Mar 14 2023 19:54:11 GMT-0500 (Central Daylight Time)","571034","Untrustworthy,Trustworthy","","610","","","","decision","","<div class='trialDiv'><img src='trustrating_stim/white_mw035.bmp'><br><font class='baseline'><strong>Tyler</strong><p>Choose number of points to send.</font><div class='respPicDiv'><img src='img/responseButtonOffersNo0L.png' class='respPic'></div></div>","1","9","Tyler","7","Shared","0.35,0.8","11","0.35","trustrating_stim/white_mw035.bmp","4.5","123","26"
"html-keyboard-response","213","305355","0.0-19.0-2.25","60429021c960ed190edaedca","bdp_trlrn","Tue Mar 14 2023 19:54:11 GMT-0500 (Central Daylight Time)","571034","Untrustworthy,Trustworthy","","null","","","","decisionFB","","<div class='trialDiv'><img src='trustrating_stim/white_mw035.bmp'><br><font class='baseline'><strong>Tyler</strong><p>Choose number of points to send.</font><div class='respPicDiv'><img src='img/responseButtonOffersNo0L1.png' class='respPic'></div></div>","null","9","Tyler","7","Shared","0.35,0.8","11","0.35","trustrating_stim/white_mw035.bmp","4.5","122","26"
"html-keyboard-response","214","306358","0.0-19.0-3.25","60429021c960ed190edaedca","bdp_trlrn","Tue Mar 14 2023 19:54:11 GMT-0500 (Central Daylight Time)","571034","Untrustworthy,Trustworthy","","null","","","","feedback","","<div class='trialDiv'><img src='trustrating_stim/white_mw035.bmp'><br><font class='baseline'><strong>Tyler</strong><p>Received: <strong>4</strong></font> &nbsp; &nbsp; &nbsp; &nbsp; &nbsp; &nbsp;<font class='posOutcome'>Shared back: <strong>2</strong></font></font><div class='respPicDiv'><img src='img/responseButtonOffersNo0_wht.png' class='respPic'></div></div>","null","9","Tyler","7","Shared","0.35,0.8","11","0.35","trustrating_stim/white_mw035.bmp","4.5","124","26"
"html-keyboard-response","215","307070","0.0-19.0-1.26","60429021c960ed190edaedca","bdp_trlrn","Tue Mar 14 2023 19:54:11 GMT-0500 (Central Daylight Time)","571034","Untrustworthy,Trustworthy","","710","","","","decision","","<div class='trialDiv'><img src='trustrating_stim/white_00898_960530_fa_edt.bmp'><br><font class='baseline'><strong>Matthew</strong><p>Choose number of points to send.</font><div class='respPicDiv'><img src='img/responseButtonOffersNo0L.png' class='respPic'></div></div>","1","9","Matthew","11","Shared","0.2,0.8","12","0.2","trustrating_stim/white_00898_960530_fa_edt.bmp","6","129","27"
"html-keyboard-response","216","307324","0.0-19.0-2.26","60429021c960ed190edaedca","bdp_trlrn","Tue Mar 14 2023 19:54:11 GMT-0500 (Central Daylight Time)","571034","Untrustworthy,Trustworthy","","null","","","","decisionFB","","<div class='trialDiv'><img src='trustrating_stim/white_00898_960530_fa_edt.bmp'><br><font class='baseline'><strong>Matthew</strong><p>Choose number of points to send.</font><div class='respPicDiv'><img src='img/responseButtonOffersNo0L1.png' class='respPic'></div></div>","null","9","Matthew","11","Shared","0.2,0.8","12","0.2","trustrating_stim/white_00898_960530_fa_edt.bmp","6","128","27"
"html-keyboard-response","217","308327","0.0-19.0-3.26","60429021c960ed190edaedca","bdp_trlrn","Tue Mar 14 2023 19:54:11 GMT-0500 (Central Daylight Time)","571034","Untrustworthy,Trustworthy","","null","","","","feedback","","<div class='trialDiv'><img src='trustrating_stim/white_00898_960530_fa_edt.bmp'><br><font class='baseline'><strong>Matthew</strong><p>Received: <strong>4</strong></font> &nbsp; &nbsp; &nbsp; &nbsp; &nbsp; &nbsp;<font class='posOutcome'>Shared back: <strong>2</strong></font></font><div class='respPicDiv'><img src='img/responseButtonOffersNo0_wht.png' class='respPic'></div></div>","null","9","Matthew","11","Shared","0.2,0.8","12","0.2","trustrating_stim/white_00898_960530_fa_edt.bmp","6","130","27"
"html-keyboard-response","218","308685","0.0-19.0-1.27","60429021c960ed190edaedca","bdp_trlrn","Tue Mar 14 2023 19:54:11 GMT-0500 (Central Daylight Time)","571034","Untrustworthy,Trustworthy","","356","","","","decision","","<div class='trialDiv'><img src='trustrating_stim/white_mw097.bmp'><br><font class='baseline'><strong>Jason</strong><p>Choose number of points to send.</font><div class='respPicDiv'><img src='img/responseButtonOffersNo0L.png' class='respPic'></div></div>","5","10","Jason","0","Kept","0.65,0.2","11","0.65","trustrating_stim/white_mw097.bmp","3","135","28"
"html-keyboard-response","219","308937","0.0-19.0-2.27","60429021c960ed190edaedca","bdp_trlrn","Tue Mar 14 2023 19:54:11 GMT-0500 (Central Daylight Time)","571034","Untrustworthy,Trustworthy","","null","","","","decisionFB","","<div class='trialDiv'><img src='trustrating_stim/white_mw097.bmp'><br><font class='baseline'><strong>Jason</strong><p>Choose number of points to send.</font><div class='respPicDiv'><img src='img/responseButtonOffersNo0L5.png' class='respPic'></div></div>","null","10","Jason","0","Kept","0.65,0.2","11","0.65","trustrating_stim/white_mw097.bmp","3","130","28"
"html-keyboard-response","220","309939","0.0-19.0-3.27","60429021c960ed190edaedca","bdp_trlrn","Tue Mar 14 2023 19:54:11 GMT-0500 (Central Daylight Time)","571034","Untrustworthy,Trustworthy","","null","","","","feedback","","<div class='trialDiv'><img src='trustrating_stim/white_mw097.bmp'><br><font class='baseline'><strong>Jason</strong><p>Received: <strong>20</strong></font> &nbsp; &nbsp; &nbsp; &nbsp; &nbsp; &nbsp;<font class='negOutcome'>Shared back: <strong>0</strong></font></font><div class='respPicDiv'><img src='img/responseButtonOffersNo0_wht.png' class='respPic'></div></div>","null","10","Jason","0","Kept","0.65,0.2","11","0.65","trustrating_stim/white_mw097.bmp","3","130","28"
"html-keyboard-response","221","310296","0.0-19.0-1.28","60429021c960ed190edaedca","bdp_trlrn","Tue Mar 14 2023 19:54:11 GMT-0500 (Central Daylight Time)","571034","Untrustworthy,Trustworthy","","356","","","","decision","","<div class='trialDiv'><img src='trustrating_stim/white_00898_960530_fa_edt.bmp'><br><font class='baseline'><strong>Matthew</strong><p>Choose number of points to send.</font><div class='respPicDiv'><img src='img/responseButtonOffersNo0L.png' class='respPic'></div></div>","1","10","Matthew","11","Shared","0.2,0.8","12","0.2","trustrating_stim/white_00898_960530_fa_edt.bmp","6","135","29"
