"trial_type","trial_index","time_elapsed","internal_node_id","subject_id","task","startTime","totalTime","labels","view_history","rt","event","trial","time","trialtype","success","stimulus","key_press","aground","name","faceID","outcome","agenttype","agentswpt","agentcurrpshare","face","avgRating","point_total","round"
"pavlovia","0","2","0.0-0.0","5bfb5784a66aa500019dabef","bdp_trlrn","Sat Apr 08 2023 10:33:23 GMT-0500 (Central Daylight Time)","551691","Untrustworthy,Trustworthy","","","","","","","","","","","","","","","","","","","",""
"instructions","1","1547","0.0-1.0","5bfb5784a66aa500019dabef","bdp_trlrn","Sat Apr 08 2023 10:33:23 GMT-0500 (Central Daylight Time)","551691","Untrustworthy,Trustworthy","[{""page_index"":0,""viewing_time"":1545}]","1545","","","","","","","","","","","","","","","","","",""
"","","","","5bfb5784a66aa500019dabef","bdp_trlrn","Sat Apr 08 2023 10:33:23 GMT-0500 (Central Daylight Time)","551691","Untrustworthy,Trustworthy","","","fullscreenenter","2","4812","fullscreenenter","","","","","","","","","","","","","",""
"fullscreen","2","5807","0.0-2.0","5bfb5784a66aa500019dabef","bdp_trlrn","Sat Apr 08 2023 10:33:23 GMT-0500 (Central Daylight Time)","551691","Untrustworthy,Trustworthy","","","","","","","true","","","","","","","","","","","","",""
"instructions","3","19882","0.0-4.0","5bfb5784a66aa500019dabef","bdp_trlrn","Sat Apr 08 2023 10:33:23 GMT-0500 (Central Daylight Time)","551691","Untrustworthy,Trustworthy","[{""page_index"":0,""viewing_time"":9571},{""page_index"":1,""viewing_time"":4503}]","14074","","","","","","","","","","","","","","","","","",""
"instructions","4","21114","0.0-5.0","5bfb5784a66aa500019dabef","bdp_trlrn","Sat Apr 08 2023 10:33:23 GMT-0500 (Central Daylight Time)","551691","Untrustworthy,Trustworthy","[{""page_index"":0,""viewing_time"":1231}]","1231","","","","","","","","","","","","","","","","","",""
"image-keyboard-response","5","22547","0.0-6.0-1.0","5bfb5784a66aa500019dabef","bdp_trlrn","Sat Apr 08 2023 10:33:23 GMT-0500 (Central Daylight Time)","551691","Untrustworthy,Trustworthy","","1327","","","","rating","","trustrating_stim/white_00299_940422_fa_edt.bmp","7","","","","","","","","","","",""
"image-keyboard-response","6","22747","0.0-6.0-2.0","5bfb5784a66aa500019dabef","bdp_trlrn","Sat Apr 08 2023 10:33:23 GMT-0500 (Central Daylight Time)","551691","Untrustworthy,Trustworthy","","null","","","","ratingFB","","trustrating_stim/white_00299_940422_fa_edt.bmp","null","","","","","","","","","","",""
"image-keyboard-response","7","24275","0.0-6.0-1.1","5bfb5784a66aa500019dabef","bdp_trlrn","Sat Apr 08 2023 10:33:23 GMT-0500 (Central Daylight Time)","551691","Untrustworthy,Trustworthy","","1417","","","","rating","","trustrating_stim/white_00807_941205_fb_edt.bmp","6","","","","","","","","","","",""
"image-keyboard-response","8","24476","0.0-6.0-2.1","5bfb5784a66aa500019dabef","bdp_trlrn","Sat Apr 08 2023 10:33:23 GMT-0500 (Central Daylight Time)","551691","Untrustworthy,Trustworthy","","null","","","","ratingFB","","trustrating_stim/white_00807_941205_fb_edt.bmp","null","","","","","","","","","","",""
"image-keyboard-response","9","25594","0.0-6.0-1.2","5bfb5784a66aa500019dabef","bdp_trlrn","Sat Apr 08 2023 10:33:23 GMT-0500 (Central Daylight Time)","551691","Untrustworthy,Trustworthy","","1008","","","","rating","","trustrating_stim/white_00120_931230_fa_edt.bmp","7","","","","","","","","","","",""
"image-keyboard-response","10","25799","0.0-6.0-2.2","5bfb5784a66aa500019dabef","bdp_trlrn","Sat Apr 08 2023 10:33:23 GMT-0500 (Central Daylight Time)","551691","Untrustworthy,Trustworthy","","null","","","","ratingFB","","trustrating_stim/white_00120_931230_fa_edt.bmp","null","","","","","","","","","","",""
"image-keyboard-response","11","27018","0.0-6.0-1.3","5bfb5784a66aa500019dabef","bdp_trlrn","Sat Apr 08 2023 10:33:23 GMT-0500 (Central Daylight Time)","551691","Untrustworthy,Trustworthy","","1110","","","","rating","","trustrating_stim/white_mw046.bmp","7","","","","","","","","","","",""
"image-keyboard-response","12","27234","0.0-6.0-2.3","5bfb5784a66aa500019dabef","bdp_trlrn","Sat Apr 08 2023 10:33:23 GMT-0500 (Central Daylight Time)","551691","Untrustworthy,Trustworthy","","null","","","","ratingFB","","trustrating_stim/white_mw046.bmp","null","","","","","","","","","","",""
"image-keyboard-response","13","28555","0.0-6.0-1.4","5bfb5784a66aa500019dabef","bdp_trlrn","Sat Apr 08 2023 10:33:23 GMT-0500 (Central Daylight Time)","551691","Untrustworthy,Trustworthy","","1211","","","","rating","","trustrating_stim/white_mw071.bmp","6","","","","","","","","","","",""
"image-keyboard-response","14","28756","0.0-6.0-2.4","5bfb5784a66aa500019dabef","bdp_trlrn","Sat Apr 08 2023 10:33:23 GMT-0500 (Central Daylight Time)","551691","Untrustworthy,Trustworthy","","null","","","","ratingFB","","trustrating_stim/white_mw071.bmp","null","","","","","","","","","","",""
"image-keyboard-response","15","29755","0.0-6.0-1.5","5bfb5784a66aa500019dabef","bdp_trlrn","Sat Apr 08 2023 10:33:23 GMT-0500 (Central Daylight Time)","551691","Untrustworthy,Trustworthy","","888","","","","rating","","trustrating_stim/white_mw033.bmp","7","","","","","","","","","","",""
"image-keyboard-response","16","29956","0.0-6.0-2.5","5bfb5784a66aa500019dabef","bdp_trlrn","Sat Apr 08 2023 10:33:23 GMT-0500 (Central Daylight Time)","551691","Untrustworthy,Trustworthy","","null","","","","ratingFB","","trustrating_stim/white_mw033.bmp","null","","","","","","","","","","",""
"image-keyboard-response","17","31146","0.0-6.0-1.6","5bfb5784a66aa500019dabef","bdp_trlrn","Sat Apr 08 2023 10:33:23 GMT-0500 (Central Daylight Time)","551691","Untrustworthy,Trustworthy","","1090","","","","rating","","trustrating_stim/white_mw053.bmp","6","","","","","","","","","","",""
"image-keyboard-response","18","31347","0.0-6.0-2.6","5bfb5784a66aa500019dabef","bdp_trlrn","Sat Apr 08 2023 10:33:23 GMT-0500 (Central Daylight Time)","551691","Untrustworthy,Trustworthy","","null","","","","ratingFB","","trustrating_stim/white_mw053.bmp","null","","","","","","","","","","",""
"image-keyboard-response","19","32859","0.0-6.0-1.7","5bfb5784a66aa500019dabef","bdp_trlrn","Sat Apr 08 2023 10:33:23 GMT-0500 (Central Daylight Time)","551691","Untrustworthy,Trustworthy","","1410","","","","rating","","trustrating_stim/white_00129_931230_fb_edt.bmp","4","","","","","","","","","","",""
"image-keyboard-response","20","33060","0.0-6.0-2.7","5bfb5784a66aa500019dabef","bdp_trlrn","Sat Apr 08 2023 10:33:23 GMT-0500 (Central Daylight Time)","551691","Untrustworthy,Trustworthy","","null","","","","ratingFB","","trustrating_stim/white_00129_931230_fb_edt.bmp","null","","","","","","","","","","",""
"image-keyboard-response","21","34403","0.0-6.0-1.8","5bfb5784a66aa500019dabef","bdp_trlrn","Sat Apr 08 2023 10:33:23 GMT-0500 (Central Daylight Time)","551691","Untrustworthy,Trustworthy","","1242","","","","rating","","trustrating_stim/white_mw049.bmp","8","","","","","","","","","","",""
"image-keyboard-response","22","34603","0.0-6.0-2.8","5bfb5784a66aa500019dabef","bdp_trlrn","Sat Apr 08 2023 10:33:23 GMT-0500 (Central Daylight Time)","551691","Untrustworthy,Trustworthy","","null","","","","ratingFB","","trustrating_stim/white_mw049.bmp","null","","","","","","","","","","",""
"image-keyboard-response","23","36147","0.0-6.0-1.9","5bfb5784a66aa500019dabef","bdp_trlrn","Sat Apr 08 2023 10:33:23 GMT-0500 (Central Daylight Time)","551691","Untrustworthy,Trustworthy","","1442","","","","rating","","trustrating_stim/white_00602_940928_fb_edt.bmp","4","","","","","","","","","","",""
"image-keyboard-response","24","36348","0.0-6.0-2.9","5bfb5784a66aa500019dabef","bdp_trlrn","Sat Apr 08 2023 10:33:23 GMT-0500 (Central Daylight Time)","551691","Untrustworthy,Trustworthy","","null","","","","ratingFB","","trustrating_stim/white_00602_940928_fb_edt.bmp","null","","","","","","","","","","",""
"image-keyboard-response","25","37450","0.0-6.0-1.10","5bfb5784a66aa500019dabef","bdp_trlrn","Sat Apr 08 2023 10:33:23 GMT-0500 (Central Daylight Time)","551691","Untrustworthy,Trustworthy","","1001","","","","rating","","trustrating_stim/white_mw063.bmp","3","","","","","","","","","","",""
"image-keyboard-response","26","37652","0.0-6.0-2.10","5bfb5784a66aa500019dabef","bdp_trlrn","Sat Apr 08 2023 10:33:23 GMT-0500 (Central Daylight Time)","551691","Untrustworthy,Trustworthy","","null","","","","ratingFB","","trustrating_stim/white_mw063.bmp","null","","","","","","","","","","",""
"image-keyboard-response","27","38651","0.0-6.0-1.11","5bfb5784a66aa500019dabef","bdp_trlrn","Sat Apr 08 2023 10:33:23 GMT-0500 (Central Daylight Time)","551691","Untrustworthy,Trustworthy","","897","","","","rating","","trustrating_stim/white_mw048.bmp","2","","","","","","","","","","",""
"image-keyboard-response","28","38852","0.0-6.0-2.11","5bfb5784a66aa500019dabef","bdp_trlrn","Sat Apr 08 2023 10:33:23 GMT-0500 (Central Daylight Time)","551691","Untrustworthy,Trustworthy","","null","","","","ratingFB","","trustrating_stim/white_mw048.bmp","null","","","","","","","","","","",""
"image-keyboard-response","29","40011","0.0-6.0-1.12","5bfb5784a66aa500019dabef","bdp_trlrn","Sat Apr 08 2023 10:33:23 GMT-0500 (Central Daylight Time)","551691","Untrustworthy,Trustworthy","","1058","","","","rating","","trustrating_stim/white_mw035.bmp","6","","","","","","","","","","",""
"image-keyboard-response","30","40212","0.0-6.0-2.12","5bfb5784a66aa500019dabef","bdp_trlrn","Sat Apr 08 2023 10:33:23 GMT-0500 (Central Daylight Time)","551691","Untrustworthy,Trustworthy","","null","","","","ratingFB","","trustrating_stim/white_mw035.bmp","null","","","","","","","","","","",""
"image-keyboard-response","31","41515","0.0-6.0-1.13","5bfb5784a66aa500019dabef","bdp_trlrn","Sat Apr 08 2023 10:33:23 GMT-0500 (Central Daylight Time)","551691","Untrustworthy,Trustworthy","","1201","","","","rating","","trustrating_stim/white_mw066.bmp","6","","","","","","","","","","",""
"image-keyboard-response","32","41716","0.0-6.0-2.13","5bfb5784a66aa500019dabef","bdp_trlrn","Sat Apr 08 2023 10:33:23 GMT-0500 (Central Daylight Time)","551691","Untrustworthy,Trustworthy","","null","","","","ratingFB","","trustrating_stim/white_mw066.bmp","null","","","","","","","","","","",""
"image-keyboard-response","33","42667","0.0-6.0-1.14","5bfb5784a66aa500019dabef","bdp_trlrn","Sat Apr 08 2023 10:33:23 GMT-0500 (Central Daylight Time)","551691","Untrustworthy,Trustworthy","","850","","","","rating","","trustrating_stim/white_00223_940128_fb_edt.bmp","4","","","","","","","","","","",""
"image-keyboard-response","34","42868","0.0-6.0-2.14","5bfb5784a66aa500019dabef","bdp_trlrn","Sat Apr 08 2023 10:33:23 GMT-0500 (Central Daylight Time)","551691","Untrustworthy,Trustworthy","","null","","","","ratingFB","","trustrating_stim/white_00223_940128_fb_edt.bmp","null","","","","","","","","","","",""
"image-keyboard-response","35","44379","0.0-6.0-1.15","5bfb5784a66aa500019dabef","bdp_trlrn","Sat Apr 08 2023 10:33:23 GMT-0500 (Central Daylight Time)","551691","Untrustworthy,Trustworthy","","1410","","","","rating","","trustrating_stim/white_00785_941205_fb_edt.bmp","4","","","","","","","","","","",""
"image-keyboard-response","36","44580","0.0-6.0-2.15","5bfb5784a66aa500019dabef","bdp_trlrn","Sat Apr 08 2023 10:33:23 GMT-0500 (Central Daylight Time)","551691","Untrustworthy,Trustworthy","","null","","","","ratingFB","","trustrating_stim/white_00785_941205_fb_edt.bmp","null","","","","","","","","","","",""
"image-keyboard-response","37","45459","0.0-6.0-1.16","5bfb5784a66aa500019dabef","bdp_trlrn","Sat Apr 08 2023 10:33:23 GMT-0500 (Central Daylight Time)","551691","Untrustworthy,Trustworthy","","778","","","","rating","","trustrating_stim/white_mw084.bmp","3","","","","","","","","","","",""
"image-keyboard-response","38","45661","0.0-6.0-2.16","5bfb5784a66aa500019dabef","bdp_trlrn","Sat Apr 08 2023 10:33:23 GMT-0500 (Central Daylight Time)","551691","Untrustworthy,Trustworthy","","null","","","","ratingFB","","trustrating_stim/white_mw084.bmp","null","","","","","","","","","","",""
"image-keyboard-response","39","46963","0.0-6.0-1.17","5bfb5784a66aa500019dabef","bdp_trlrn","Sat Apr 08 2023 10:33:23 GMT-0500 (Central Daylight Time)","551691","Untrustworthy,Trustworthy","","1201","","","","rating","","trustrating_stim/white_00109_931230_fa_edt.bmp","6","","","","","","","","","","",""
"image-keyboard-response","40","47163","0.0-6.0-2.17","5bfb5784a66aa500019dabef","bdp_trlrn","Sat Apr 08 2023 10:33:23 GMT-0500 (Central Daylight Time)","551691","Untrustworthy,Trustworthy","","null","","","","ratingFB","","trustrating_stim/white_00109_931230_fa_edt.bmp","null","","","","","","","","","","",""
"image-keyboard-response","41","48403","0.0-6.0-1.18","5bfb5784a66aa500019dabef","bdp_trlrn","Sat Apr 08 2023 10:33:23 GMT-0500 (Central Daylight Time)","551691","Untrustworthy,Trustworthy","","1137","","","","rating","","trustrating_stim/white_mw089.bmp","4","","","","","","","","","","",""
"image-keyboard-response","42","48604","0.0-6.0-2.18","5bfb5784a66aa500019dabef","bdp_trlrn","Sat Apr 08 2023 10:33:23 GMT-0500 (Central Daylight Time)","551691","Untrustworthy,Trustworthy","","null","","","","ratingFB","","trustrating_stim/white_mw089.bmp","null","","","","","","","","","","",""
"image-keyboard-response","43","49803","0.0-6.0-1.19","5bfb5784a66aa500019dabef","bdp_trlrn","Sat Apr 08 2023 10:33:23 GMT-0500 (Central Daylight Time)","551691","Untrustworthy,Trustworthy","","1097","","","","rating","","trustrating_stim/white_00898_960530_fa_edt.bmp","7","","","","","","","","","","",""
"image-keyboard-response","44","50004","0.0-6.0-2.19","5bfb5784a66aa500019dabef","bdp_trlrn","Sat Apr 08 2023 10:33:23 GMT-0500 (Central Daylight Time)","551691","Untrustworthy,Trustworthy","","null","","","","ratingFB","","trustrating_stim/white_00898_960530_fa_edt.bmp","null","","","","","","","","","","",""
"image-keyboard-response","45","51282","0.0-6.0-1.20","5bfb5784a66aa500019dabef","bdp_trlrn","Sat Apr 08 2023 10:33:23 GMT-0500 (Central Daylight Time)","551691","Untrustworthy,Trustworthy","","1177","","","","rating","","trustrating_stim/white_00577_940928_fa_edt.bmp","4","","","","","","","","","","",""
"image-keyboard-response","46","51483","0.0-6.0-2.20","5bfb5784a66aa500019dabef","bdp_trlrn","Sat Apr 08 2023 10:33:23 GMT-0500 (Central Daylight Time)","551691","Untrustworthy,Trustworthy","","null","","","","ratingFB","","trustrating_stim/white_00577_940928_fa_edt.bmp","null","","","","","","","","","","",""
"image-keyboard-response","47","52747","0.0-6.0-1.21","5bfb5784a66aa500019dabef","bdp_trlrn","Sat Apr 08 2023 10:33:23 GMT-0500 (Central Daylight Time)","551691","Untrustworthy,Trustworthy","","1163","","","","rating","","trustrating_stim/white_mw056.bmp","6","","","","","","","","","","",""
"image-keyboard-response","48","52949","0.0-6.0-2.21","5bfb5784a66aa500019dabef","bdp_trlrn","Sat Apr 08 2023 10:33:23 GMT-0500 (Central Daylight Time)","551691","Untrustworthy,Trustworthy","","null","","","","ratingFB","","trustrating_stim/white_mw056.bmp","null","","","","","","","","","","",""
"image-keyboard-response","49","53915","0.0-6.0-1.22","5bfb5784a66aa500019dabef","bdp_trlrn","Sat Apr 08 2023 10:33:23 GMT-0500 (Central Daylight Time)","551691","Untrustworthy,Trustworthy","","861","","","","rating","","trustrating_stim/white_00659_941121_fa_edt.bmp","4","","","","","","","","","","",""
"image-keyboard-response","50","54115","0.0-6.0-2.22","5bfb5784a66aa500019dabef","bdp_trlrn","Sat Apr 08 2023 10:33:23 GMT-0500 (Central Daylight Time)","551691","Untrustworthy,Trustworthy","","null","","","","ratingFB","","trustrating_stim/white_00659_941121_fa_edt.bmp","null","","","","","","","","","","",""
"image-keyboard-response","51","55434","0.0-6.0-1.23","5bfb5784a66aa500019dabef","bdp_trlrn","Sat Apr 08 2023 10:33:23 GMT-0500 (Central Daylight Time)","551691","Untrustworthy,Trustworthy","","1217","","","","rating","","trustrating_stim/white_00761_941201_fb_edt.bmp","8","","","","","","","","","","",""
"image-keyboard-response","52","55636","0.0-6.0-2.23","5bfb5784a66aa500019dabef","bdp_trlrn","Sat Apr 08 2023 10:33:23 GMT-0500 (Central Daylight Time)","551691","Untrustworthy,Trustworthy","","null","","","","ratingFB","","trustrating_stim/white_00761_941201_fb_edt.bmp","null","","","","","","","","","","",""
"image-keyboard-response","53","56995","0.0-6.0-1.24","5bfb5784a66aa500019dabef","bdp_trlrn","Sat Apr 08 2023 10:33:23 GMT-0500 (Central Daylight Time)","551691","Untrustworthy,Trustworthy","","1258","","","","rating","","trustrating_stim/white_00757_941201_fa_edt.bmp","4","","","","","","","","","","",""
"image-keyboard-response","54","57196","0.0-6.0-2.24","5bfb5784a66aa500019dabef","bdp_trlrn","Sat Apr 08 2023 10:33:23 GMT-0500 (Central Daylight Time)","551691","Untrustworthy,Trustworthy","","null","","","","ratingFB","","trustrating_stim/white_00757_941201_fa_edt.bmp","null","","","","","","","","","","",""
"image-keyboard-response","55","58659","0.0-6.0-1.25","5bfb5784a66aa500019dabef","bdp_trlrn","Sat Apr 08 2023 10:33:23 GMT-0500 (Central Daylight Time)","551691","Untrustworthy,Trustworthy","","1362","","","","rating","","trustrating_stim/white_00519_940519_fb_edt.bmp","7","","","","","","","","","","",""
"image-keyboard-response","56","58859","0.0-6.0-2.25","5bfb5784a66aa500019dabef","bdp_trlrn","Sat Apr 08 2023 10:33:23 GMT-0500 (Central Daylight Time)","551691","Untrustworthy,Trustworthy","","null","","","","ratingFB","","trustrating_stim/white_00519_940519_fb_edt.bmp","null","","","","","","","","","","",""
"image-keyboard-response","57","60051","0.0-6.0-1.26","5bfb5784a66aa500019dabef","bdp_trlrn","Sat Apr 08 2023 10:33:23 GMT-0500 (Central Daylight Time)","551691","Untrustworthy,Trustworthy","","1090","","","","rating","","trustrating_stim/white_mw060.bmp","3","","","","","","","","","","",""
"image-keyboard-response","58","60252","0.0-6.0-2.26","5bfb5784a66aa500019dabef","bdp_trlrn","Sat Apr 08 2023 10:33:23 GMT-0500 (Central Daylight Time)","551691","Untrustworthy,Trustworthy","","null","","","","ratingFB","","trustrating_stim/white_mw060.bmp","null","","","","","","","","","","",""
"image-keyboard-response","59","61459","0.0-6.0-1.27","5bfb5784a66aa500019dabef","bdp_trlrn","Sat Apr 08 2023 10:33:23 GMT-0500 (Central Daylight Time)","551691","Untrustworthy,Trustworthy","","1106","","","","rating","","trustrating_stim/white_mw099.bmp","6","","","","","","","","","","",""
"image-keyboard-response","60","61659","0.0-6.0-2.27","5bfb5784a66aa500019dabef","bdp_trlrn","Sat Apr 08 2023 10:33:23 GMT-0500 (Central Daylight Time)","551691","Untrustworthy,Trustworthy","","null","","","","ratingFB","","trustrating_stim/white_mw099.bmp","null","","","","","","","","","","",""
"image-keyboard-response","61","62891","0.0-6.0-1.28","5bfb5784a66aa500019dabef","bdp_trlrn","Sat Apr 08 2023 10:33:23 GMT-0500 (Central Daylight Time)","551691","Untrustworthy,Trustworthy","","1130","","","","rating","","trustrating_stim/white_00340_940422_fa_edt.bmp","3","","","","","","","","","","",""
"image-keyboard-response","62","63091","0.0-6.0-2.28","5bfb5784a66aa500019dabef","bdp_trlrn","Sat Apr 08 2023 10:33:23 GMT-0500 (Central Daylight Time)","551691","Untrustworthy,Trustworthy","","null","","","","ratingFB","","trustrating_stim/white_00340_940422_fa_edt.bmp","null","","","","","","","","","","",""
"image-keyboard-response","63","64355","0.0-6.0-1.29","5bfb5784a66aa500019dabef","bdp_trlrn","Sat Apr 08 2023 10:33:23 GMT-0500 (Central Daylight Time)","551691","Untrustworthy,Trustworthy","","1163","","","","rating","","trustrating_stim/white_mw097.bmp","6","","","","","","","","","","",""
"image-keyboard-response","64","64556","0.0-6.0-2.29","5bfb5784a66aa500019dabef","bdp_trlrn","Sat Apr 08 2023 10:33:23 GMT-0500 (Central Daylight Time)","551691","Untrustworthy,Trustworthy","","null","","","","ratingFB","","trustrating_stim/white_mw097.bmp","null","","","","","","","","","","",""
"image-keyboard-response","65","65579","0.0-6.0-1.30","5bfb5784a66aa500019dabef","bdp_trlrn","Sat Apr 08 2023 10:33:23 GMT-0500 (Central Daylight Time)","551691","Untrustworthy,Trustworthy","","922","","","","rating","","trustrating_stim/white_00223_940128_fb_edt.bmp","4","","","","","","","","","","",""
"image-keyboard-response","66","65781","0.0-6.0-2.30","5bfb5784a66aa500019dabef","bdp_trlrn","Sat Apr 08 2023 10:33:23 GMT-0500 (Central Daylight Time)","551691","Untrustworthy,Trustworthy","","null","","","","ratingFB","","trustrating_stim/white_00223_940128_fb_edt.bmp","null","","","","","","","","","","",""
"image-keyboard-response","67","67163","0.0-6.0-1.31","5bfb5784a66aa500019dabef","bdp_trlrn","Sat Apr 08 2023 10:33:23 GMT-0500 (Central Daylight Time)","551691","Untrustworthy,Trustworthy","","1282","","","","rating","","trustrating_stim/white_mw089.bmp","4","","","","","","","","","","",""
"image-keyboard-response","68","67363","0.0-6.0-2.31","5bfb5784a66aa500019dabef","bdp_trlrn","Sat Apr 08 2023 10:33:23 GMT-0500 (Central Daylight Time)","551691","Untrustworthy,Trustworthy","","null","","","","ratingFB","","trustrating_stim/white_mw089.bmp","null","","","","","","","","","","",""
"image-keyboard-response","69","69395","0.0-6.0-1.32","5bfb5784a66aa500019dabef","bdp_trlrn","Sat Apr 08 2023 10:33:23 GMT-0500 (Central Daylight Time)","551691","Untrustworthy,Trustworthy","","1931","","","","rating","","trustrating_stim/white_mw048.bmp","3","","","","","","","","","","",""
"image-keyboard-response","70","69596","0.0-6.0-2.32","5bfb5784a66aa500019dabef","bdp_trlrn","Sat Apr 08 2023 10:33:23 GMT-0500 (Central Daylight Time)","551691","Untrustworthy,Trustworthy","","null","","","","ratingFB","","trustrating_stim/white_mw048.bmp","null","","","","","","","","","","",""
"image-keyboard-response","71","70827","0.0-6.0-1.33","5bfb5784a66aa500019dabef","bdp_trlrn","Sat Apr 08 2023 10:33:23 GMT-0500 (Central Daylight Time)","551691","Untrustworthy,Trustworthy","","1130","","","","rating","","trustrating_stim/white_00761_941201_fb_edt.bmp","8","","","","","","","","","","",""
"image-keyboard-response","72","71027","0.0-6.0-2.33","5bfb5784a66aa500019dabef","bdp_trlrn","Sat Apr 08 2023 10:33:23 GMT-0500 (Central Daylight Time)","551691","Untrustworthy,Trustworthy","","null","","","","ratingFB","","trustrating_stim/white_00761_941201_fb_edt.bmp","null","","","","","","","","","","",""
"image-keyboard-response","73","72283","0.0-6.0-1.34","5bfb5784a66aa500019dabef","bdp_trlrn","Sat Apr 08 2023 10:33:23 GMT-0500 (Central Daylight Time)","551691","Untrustworthy,Trustworthy","","1155","","","","rating","","trustrating_stim/white_00519_940519_fb_edt.bmp","7","","","","","","","","","","",""
"image-keyboard-response","74","72484","0.0-6.0-2.34","5bfb5784a66aa500019dabef","bdp_trlrn","Sat Apr 08 2023 10:33:23 GMT-0500 (Central Daylight Time)","551691","Untrustworthy,Trustworthy","","null","","","","ratingFB","","trustrating_stim/white_00519_940519_fb_edt.bmp","null","","","","","","","","","","",""
"image-keyboard-response","75","74155","0.0-6.0-1.35","5bfb5784a66aa500019dabef","bdp_trlrn","Sat Apr 08 2023 10:33:23 GMT-0500 (Central Daylight Time)","551691","Untrustworthy,Trustworthy","","1569","","","","rating","","trustrating_stim/white_00340_940422_fa_edt.bmp","4","","","","","","","","","","",""
"image-keyboard-response","76","74356","0.0-6.0-2.35","5bfb5784a66aa500019dabef","bdp_trlrn","Sat Apr 08 2023 10:33:23 GMT-0500 (Central Daylight Time)","551691","Untrustworthy,Trustworthy","","null","","","","ratingFB","","trustrating_stim/white_00340_940422_fa_edt.bmp","null","","","","","","","","","","",""
"image-keyboard-response","77","77387","0.0-6.0-1.36","5bfb5784a66aa500019dabef","bdp_trlrn","Sat Apr 08 2023 10:33:23 GMT-0500 (Central Daylight Time)","551691","Untrustworthy,Trustworthy","","2930","","","","rating","","trustrating_stim/white_mw084.bmp","4","","","","","","","","","","",""
"image-keyboard-response","78","77588","0.0-6.0-2.36","5bfb5784a66aa500019dabef","bdp_trlrn","Sat Apr 08 2023 10:33:23 GMT-0500 (Central Daylight Time)","551691","Untrustworthy,Trustworthy","","null","","","","ratingFB","","trustrating_stim/white_mw084.bmp","null","","","","","","","","","","",""
"image-keyboard-response","79","78515","0.0-6.0-1.37","5bfb5784a66aa500019dabef","bdp_trlrn","Sat Apr 08 2023 10:33:23 GMT-0500 (Central Daylight Time)","551691","Untrustworthy,Trustworthy","","826","","","","rating","","trustrating_stim/white_mw066.bmp","7","","","","","","","","","","",""
"image-keyboard-response","80","78716","0.0-6.0-2.37","5bfb5784a66aa500019dabef","bdp_trlrn","Sat Apr 08 2023 10:33:23 GMT-0500 (Central Daylight Time)","551691","Untrustworthy,Trustworthy","","null","","","","ratingFB","","trustrating_stim/white_mw066.bmp","null","","","","","","","","","","",""
"image-keyboard-response","81","79747","0.0-6.0-1.38","5bfb5784a66aa500019dabef","bdp_trlrn","Sat Apr 08 2023 10:33:23 GMT-0500 (Central Daylight Time)","551691","Untrustworthy,Trustworthy","","930","","","","rating","","trustrating_stim/white_00757_941201_fa_edt.bmp","4","","","","","","","","","","",""
"image-keyboard-response","82","79948","0.0-6.0-2.38","5bfb5784a66aa500019dabef","bdp_trlrn","Sat Apr 08 2023 10:33:23 GMT-0500 (Central Daylight Time)","551691","Untrustworthy,Trustworthy","","null","","","","ratingFB","","trustrating_stim/white_00757_941201_fa_edt.bmp","null","","","","","","","","","","",""
"image-keyboard-response","83","81579","0.0-6.0-1.39","5bfb5784a66aa500019dabef","bdp_trlrn","Sat Apr 08 2023 10:33:23 GMT-0500 (Central Daylight Time)","551691","Untrustworthy,Trustworthy","","1530","","","","rating","","trustrating_stim/white_mw097.bmp","5","","","","","","","","","","",""
"image-keyboard-response","84","81779","0.0-6.0-2.39","5bfb5784a66aa500019dabef","bdp_trlrn","Sat Apr 08 2023 10:33:23 GMT-0500 (Central Daylight Time)","551691","Untrustworthy,Trustworthy","","null","","","","ratingFB","","trustrating_stim/white_mw097.bmp","null","","","","","","","","","","",""
"image-keyboard-response","85","83579","0.0-6.0-1.40","5bfb5784a66aa500019dabef","bdp_trlrn","Sat Apr 08 2023 10:33:23 GMT-0500 (Central Daylight Time)","551691","Untrustworthy,Trustworthy","","1698","","","","rating","","trustrating_stim/white_mw049.bmp","7","","","","","","","","","","",""
"image-keyboard-response","86","83780","0.0-6.0-2.40","5bfb5784a66aa500019dabef","bdp_trlrn","Sat Apr 08 2023 10:33:23 GMT-0500 (Central Daylight Time)","551691","Untrustworthy,Trustworthy","","null","","","","ratingFB","","trustrating_stim/white_mw049.bmp","null","","","","","","","","","","",""
"image-keyboard-response","87","85395","0.0-6.0-1.41","5bfb5784a66aa500019dabef","bdp_trlrn","Sat Apr 08 2023 10:33:23 GMT-0500 (Central Daylight Time)","551691","Untrustworthy,Trustworthy","","1515","","","","rating","","trustrating_stim/white_mw056.bmp","4","","","","","","","","","","",""
"image-keyboard-response","88","85596","0.0-6.0-2.41","5bfb5784a66aa500019dabef","bdp_trlrn","Sat Apr 08 2023 10:33:23 GMT-0500 (Central Daylight Time)","551691","Untrustworthy,Trustworthy","","null","","","","ratingFB","","trustrating_stim/white_mw056.bmp","null","","","","","","","","","","",""
"image-keyboard-response","89","87499","0.0-6.0-1.42","5bfb5784a66aa500019dabef","bdp_trlrn","Sat Apr 08 2023 10:33:23 GMT-0500 (Central Daylight Time)","551691","Untrustworthy,Trustworthy","","1801","","","","rating","","trustrating_stim/white_00602_940928_fb_edt.bmp","6","","","","","","","","","","",""
"image-keyboard-response","90","87700","0.0-6.0-2.42","5bfb5784a66aa500019dabef","bdp_trlrn","Sat Apr 08 2023 10:33:23 GMT-0500 (Central Daylight Time)","551691","Untrustworthy,Trustworthy","","null","","","","ratingFB","","trustrating_stim/white_00602_940928_fb_edt.bmp","null","","","","","","","","","","",""
"image-keyboard-response","91","88771","0.0-6.0-1.43","5bfb5784a66aa500019dabef","bdp_trlrn","Sat Apr 08 2023 10:33:23 GMT-0500 (Central Daylight Time)","551691","Untrustworthy,Trustworthy","","955","","","","rating","","trustrating_stim/white_00577_940928_fa_edt.bmp","3","","","","","","","","","","",""
"image-keyboard-response","92","88971","0.0-6.0-2.43","5bfb5784a66aa500019dabef","bdp_trlrn","Sat Apr 08 2023 10:33:23 GMT-0500 (Central Daylight Time)","551691","Untrustworthy,Trustworthy","","null","","","","ratingFB","","trustrating_stim/white_00577_940928_fa_edt.bmp","null","","","","","","","","","","",""
"image-keyboard-response","93","91387","0.0-6.0-1.44","5bfb5784a66aa500019dabef","bdp_trlrn","Sat Apr 08 2023 10:33:23 GMT-0500 (Central Daylight Time)","551691","Untrustworthy,Trustworthy","","2315","","","","rating","","trustrating_stim/white_mw033.bmp","4","","","","","","","","","","",""
"image-keyboard-response","94","91588","0.0-6.0-2.44","5bfb5784a66aa500019dabef","bdp_trlrn","Sat Apr 08 2023 10:33:23 GMT-0500 (Central Daylight Time)","551691","Untrustworthy,Trustworthy","","null","","","","ratingFB","","trustrating_stim/white_mw033.bmp","null","","","","","","","","","","",""
"image-keyboard-response","95","93235","0.0-6.0-1.45","5bfb5784a66aa500019dabef","bdp_trlrn","Sat Apr 08 2023 10:33:23 GMT-0500 (Central Daylight Time)","551691","Untrustworthy,Trustworthy","","1546","","","","rating","","trustrating_stim/white_mw071.bmp","5","","","","","","","","","","",""
"image-keyboard-response","96","93436","0.0-6.0-2.45","5bfb5784a66aa500019dabef","bdp_trlrn","Sat Apr 08 2023 10:33:23 GMT-0500 (Central Daylight Time)","551691","Untrustworthy,Trustworthy","","null","","","","ratingFB","","trustrating_stim/white_mw071.bmp","null","","","","","","","","","","",""
"image-keyboard-response","97","94523","0.0-6.0-1.46","5bfb5784a66aa500019dabef","bdp_trlrn","Sat Apr 08 2023 10:33:23 GMT-0500 (Central Daylight Time)","551691","Untrustworthy,Trustworthy","","986","","","","rating","","trustrating_stim/white_mw063.bmp","3","","","","","","","","","","",""
"image-keyboard-response","98","94725","0.0-6.0-2.46","5bfb5784a66aa500019dabef","bdp_trlrn","Sat Apr 08 2023 10:33:23 GMT-0500 (Central Daylight Time)","551691","Untrustworthy,Trustworthy","","null","","","","ratingFB","","trustrating_stim/white_mw063.bmp","null","","","","","","","","","","",""
"image-keyboard-response","99","96963","0.0-6.0-1.47","5bfb5784a66aa500019dabef","bdp_trlrn","Sat Apr 08 2023 10:33:23 GMT-0500 (Central Daylight Time)","551691","Untrustworthy,Trustworthy","","2137","","","","rating","","trustrating_stim/white_00129_931230_fb_edt.bmp","5","","","","","","","","","","",""
"image-keyboard-response","100","97164","0.0-6.0-2.47","5bfb5784a66aa500019dabef","bdp_trlrn","Sat Apr 08 2023 10:33:23 GMT-0500 (Central Daylight Time)","551691","Untrustworthy,Trustworthy","","null","","","","ratingFB","","trustrating_stim/white_00129_931230_fb_edt.bmp","null","","","","","","","","","","",""
"image-keyboard-response","101","98187","0.0-6.0-1.48","5bfb5784a66aa500019dabef","bdp_trlrn","Sat Apr 08 2023 10:33:23 GMT-0500 (Central Daylight Time)","551691","Untrustworthy,Trustworthy","","922","","","","rating","","trustrating_stim/white_mw035.bmp","7","","","","","","","","","","",""
"image-keyboard-response","102","98388","0.0-6.0-2.48","5bfb5784a66aa500019dabef","bdp_trlrn","Sat Apr 08 2023 10:33:23 GMT-0500 (Central Daylight Time)","551691","Untrustworthy,Trustworthy","","null","","","","ratingFB","","trustrating_stim/white_mw035.bmp","null","","","","","","","","","","",""
"image-keyboard-response","103","99483","0.0-6.0-1.49","5bfb5784a66aa500019dabef","bdp_trlrn","Sat Apr 08 2023 10:33:23 GMT-0500 (Central Daylight Time)","551691","Untrustworthy,Trustworthy","","994","","","","rating","","trustrating_stim/white_00109_931230_fa_edt.bmp","8","","","","","","","","","","",""
"image-keyboard-response","104","99684","0.0-6.0-2.49","5bfb5784a66aa500019dabef","bdp_trlrn","Sat Apr 08 2023 10:33:23 GMT-0500 (Central Daylight Time)","551691","Untrustworthy,Trustworthy","","null","","","","ratingFB","","trustrating_stim/white_00109_931230_fa_edt.bmp","null","","","","","","","","","","",""
"image-keyboard-response","105","101131","0.0-6.0-1.50","5bfb5784a66aa500019dabef","bdp_trlrn","Sat Apr 08 2023 10:33:23 GMT-0500 (Central Daylight Time)","551691","Untrustworthy,Trustworthy","","1346","","","","rating","","trustrating_stim/white_00785_941205_fb_edt.bmp","6","","","","","","","","","","",""
"image-keyboard-response","106","101331","0.0-6.0-2.50","5bfb5784a66aa500019dabef","bdp_trlrn","Sat Apr 08 2023 10:33:23 GMT-0500 (Central Daylight Time)","551691","Untrustworthy,Trustworthy","","null","","","","ratingFB","","trustrating_stim/white_00785_941205_fb_edt.bmp","null","","","","","","","","","","",""
"image-keyboard-response","107","102347","0.0-6.0-1.51","5bfb5784a66aa500019dabef","bdp_trlrn","Sat Apr 08 2023 10:33:23 GMT-0500 (Central Daylight Time)","551691","Untrustworthy,Trustworthy","","914","","","","rating","","trustrating_stim/white_mw060.bmp","4","","","","","","","","","","",""
"image-keyboard-response","108","102548","0.0-6.0-2.51","5bfb5784a66aa500019dabef","bdp_trlrn","Sat Apr 08 2023 10:33:23 GMT-0500 (Central Daylight Time)","551691","Untrustworthy,Trustworthy","","null","","","","ratingFB","","trustrating_stim/white_mw060.bmp","null","","","","","","","","","","",""
"image-keyboard-response","109","103691","0.0-6.0-1.52","5bfb5784a66aa500019dabef","bdp_trlrn","Sat Apr 08 2023 10:33:23 GMT-0500 (Central Daylight Time)","551691","Untrustworthy,Trustworthy","","1041","","","","rating","","trustrating_stim/white_mw099.bmp","6","","","","","","","","","","",""
"image-keyboard-response","110","103892","0.0-6.0-2.52","5bfb5784a66aa500019dabef","bdp_trlrn","Sat Apr 08 2023 10:33:23 GMT-0500 (Central Daylight Time)","551691","Untrustworthy,Trustworthy","","null","","","","ratingFB","","trustrating_stim/white_mw099.bmp","null","","","","","","","","","","",""
"image-keyboard-response","111","105219","0.0-6.0-1.53","5bfb5784a66aa500019dabef","bdp_trlrn","Sat Apr 08 2023 10:33:23 GMT-0500 (Central Daylight Time)","551691","Untrustworthy,Trustworthy","","1226","","","","rating","","trustrating_stim/white_00898_960530_fa_edt.bmp","7","","","","","","","","","","",""
"image-keyboard-response","112","105420","0.0-6.0-2.53","5bfb5784a66aa500019dabef","bdp_trlrn","Sat Apr 08 2023 10:33:23 GMT-0500 (Central Daylight Time)","551691","Untrustworthy,Trustworthy","","null","","","","ratingFB","","trustrating_stim/white_00898_960530_fa_edt.bmp","null","","","","","","","","","","",""
"image-keyboard-response","113","106643","0.0-6.0-1.54","5bfb5784a66aa500019dabef","bdp_trlrn","Sat Apr 08 2023 10:33:23 GMT-0500 (Central Daylight Time)","551691","Untrustworthy,Trustworthy","","1122","","","","rating","","trustrating_stim/white_00120_931230_fa_edt.bmp","8","","","","","","","","","","",""
"image-keyboard-response","114","106845","0.0-6.0-2.54","5bfb5784a66aa500019dabef","bdp_trlrn","Sat Apr 08 2023 10:33:23 GMT-0500 (Central Daylight Time)","551691","Untrustworthy,Trustworthy","","null","","","","ratingFB","","trustrating_stim/white_00120_931230_fa_edt.bmp","null","","","","","","","","","","",""
"image-keyboard-response","115","108163","0.0-6.0-1.55","5bfb5784a66aa500019dabef","bdp_trlrn","Sat Apr 08 2023 10:33:23 GMT-0500 (Central Daylight Time)","551691","Untrustworthy,Trustworthy","","1216","","","","rating","","trustrating_stim/white_00659_941121_fa_edt.bmp","4","","","","","","","","","","",""
"image-keyboard-response","116","108364","0.0-6.0-2.55","5bfb5784a66aa500019dabef","bdp_trlrn","Sat Apr 08 2023 10:33:23 GMT-0500 (Central Daylight Time)","551691","Untrustworthy,Trustworthy","","null","","","","ratingFB","","trustrating_stim/white_00659_941121_fa_edt.bmp","null","","","","","","","","","","",""
"image-keyboard-response","117","110803","0.0-6.0-1.56","5bfb5784a66aa500019dabef","bdp_trlrn","Sat Apr 08 2023 10:33:23 GMT-0500 (Central Daylight Time)","551691","Untrustworthy,Trustworthy","","2337","","","","rating","","trustrating_stim/white_00299_940422_fa_edt.bmp","6","","","","","","","","","","",""
"image-keyboard-response","118","111004","0.0-6.0-2.56","5bfb5784a66aa500019dabef","bdp_trlrn","Sat Apr 08 2023 10:33:23 GMT-0500 (Central Daylight Time)","551691","Untrustworthy,Trustworthy","","null","","","","ratingFB","","trustrating_stim/white_00299_940422_fa_edt.bmp","null","","","","","","","","","","",""
"image-keyboard-response","119","112203","0.0-6.0-1.57","5bfb5784a66aa500019dabef","bdp_trlrn","Sat Apr 08 2023 10:33:23 GMT-0500 (Central Daylight Time)","551691","Untrustworthy,Trustworthy","","1097","","","","rating","","trustrating_stim/white_00807_941205_fb_edt.bmp","6","","","","","","","","","","",""
"image-keyboard-response","120","112404","0.0-6.0-2.57","5bfb5784a66aa500019dabef","bdp_trlrn","Sat Apr 08 2023 10:33:23 GMT-0500 (Central Daylight Time)","551691","Untrustworthy,Trustworthy","","null","","","","ratingFB","","trustrating_stim/white_00807_941205_fb_edt.bmp","null","","","","","","","","","","",""
"image-keyboard-response","121","113507","0.0-6.0-1.58","5bfb5784a66aa500019dabef","bdp_trlrn","Sat Apr 08 2023 10:33:23 GMT-0500 (Central Daylight Time)","551691","Untrustworthy,Trustworthy","","1002","","","","rating","","trustrating_stim/white_mw046.bmp","7","","","","","","","","","","",""
"image-keyboard-response","122","113707","0.0-6.0-2.58","5bfb5784a66aa500019dabef","bdp_trlrn","Sat Apr 08 2023 10:33:23 GMT-0500 (Central Daylight Time)","551691","Untrustworthy,Trustworthy","","null","","","","ratingFB","","trustrating_stim/white_mw046.bmp","null","","","","","","","","","","",""
"image-keyboard-response","123","114667","0.0-6.0-1.59","5bfb5784a66aa500019dabef","bdp_trlrn","Sat Apr 08 2023 10:33:23 GMT-0500 (Central Daylight Time)","551691","Untrustworthy,Trustworthy","","859","","","","rating","","trustrating_stim/white_mw053.bmp","7","","","","","","","","","","",""
"image-keyboard-response","124","114867","0.0-6.0-2.59","5bfb5784a66aa500019dabef","bdp_trlrn","Sat Apr 08 2023 10:33:23 GMT-0500 (Central Daylight Time)","551691","Untrustworthy,Trustworthy","","null","","","","ratingFB","","trustrating_stim/white_mw053.bmp","null","","","","","","","","","","",""
"instructions","125","116243","0.0-7.0","5bfb5784a66aa500019dabef","bdp_trlrn","Sat Apr 08 2023 10:33:23 GMT-0500 (Central Daylight Time)","551691","Untrustworthy,Trustworthy","[{""page_index"":0,""viewing_time"":1274}]","1274","","","","","","","","","","","","","","","","","",""
"instructions","126","226283","0.0-8.0","5bfb5784a66aa500019dabef","bdp_trlrn","Sat Apr 08 2023 10:33:23 GMT-0500 (Central Daylight Time)","551691","Untrustworthy,Trustworthy","[{""page_index"":0,""viewing_time"":8154},{""page_index"":1,""viewing_time"":35760},{""page_index"":2,""viewing_time"":3280},{""page_index"":3,""viewing_time"":7112},{""page_index"":4,""viewing_time"":8383},{""page_index"":5,""viewing_time"":17569},{""page_index"":6,""viewing_time"":28160},{""page_index"":7,""viewing_time"":1520}]","109938","","","","","","","","","","","","","","","","","",""
"html-keyboard-response","127","231827","0.0-9.0","5bfb5784a66aa500019dabef","bdp_trlrn","Sat Apr 08 2023 10:33:23 GMT-0500 (Central Daylight Time)","551691","Untrustworthy,Trustworthy","","5544","","","","","","<div class='header' style='text-align:left; position: absolute; top: 5%; left: 5%;'><small>Task 3 of 5</small></div><div class='instruxDiv'><p><strong>1) What is the minimum number of points you can choose to send to your partner?</strong></p><p>a) 0</p><p>b) 1</p><p>c) 5</p>","B","","","","","","","","","","",""
"html-keyboard-response","128","234995","0.0-10.0","5bfb5784a66aa500019dabef","bdp_trlrn","Sat Apr 08 2023 10:33:23 GMT-0500 (Central Daylight Time)","551691","Untrustworthy,Trustworthy","","3066","","","","","","<div class='header' style='text-align:left; position: absolute; top: 5%; left: 5%;'><small>Task 3 of 5</small></div><div class='instruxDiv'><p><strong>1) What is the minimum number of points you can choose to send to your partner?</strong></p><p>a) 0</p><p style='color:#00FF00'>b) 1</p><p>c) 5</p><h3 style='color:#00FF00'>Correct!</h3><h3 class='center-content'>The correct response is b).</h3><h3 class='center-content'>The minimum number of points you can choose to send to your partner is 1 point.</h3><p><em>Press SPACEBAR to continue</em></p></div>"," ","","","","","","","","","","",""
"html-keyboard-response","129","241867","0.0-11.0","5bfb5784a66aa500019dabef","bdp_trlrn","Sat Apr 08 2023 10:33:23 GMT-0500 (Central Daylight Time)","551691","Untrustworthy,Trustworthy","","6771","","","","","","<div class='header' style='text-align:left; position: absolute; top: 5%; left: 5%;'><small>Task 3 of 5</small></div><div class='instruxDiv'><p><strong>2) What is the maximum number of points you can choose to send to your partner?</strong></p><p>a) 8</p><p>b) 5</p><p>c) 3</p>","B","","","","","","","","","","",""
"html-keyboard-response","130","243251","0.0-12.0","5bfb5784a66aa500019dabef","bdp_trlrn","Sat Apr 08 2023 10:33:23 GMT-0500 (Central Daylight Time)","551691","Untrustworthy,Trustworthy","","1283","","","","","","<div class='header' style='text-align:left; position: absolute; top: 5%; left: 5%;'><small>Task 3 of 5</small></div><div class='instruxDiv'><p><strong>2) What is the maximum number of points you can choose to send to your partner?</strong></p><p>a) 8</p><p style='color:#00FF00'>b) 5</p><p>c) 3</p><h3 style='color:#00FF00'>Correct!</h3><h3 class='center-content'>The correct response is b).</h3><h3 class='center-content'>The maximum number of points you can choose to send to your partner is 5 points.</h3><p><em>Press SPACEBAR to continue</em></p></div>"," ","","","","","","","","","","",""
"html-keyboard-response","131","248955","0.0-13.0","5bfb5784a66aa500019dabef","bdp_trlrn","Sat Apr 08 2023 10:33:23 GMT-0500 (Central Daylight Time)","551691","Untrustworthy,Trustworthy","","5603","","","","","","<div class='header' style='text-align:left; position: absolute; top: 5%; left: 5%;'><small>Task 3 of 5</small></div><div class='instruxDiv'><p><strong>3) What happens to the amount of points you send to your partner?</strong></p><p>a) Nothing</p><p>b) It doubles</p><p>c) It quadruples</p>","C","","","","","","","","","","",""
"html-keyboard-response","132","250203","0.0-14.0","5bfb5784a66aa500019dabef","bdp_trlrn","Sat Apr 08 2023 10:33:23 GMT-0500 (Central Daylight Time)","551691","Untrustworthy,Trustworthy","","1146","","","","","","<div class='header' style='text-align:left; position: absolute; top: 5%; left: 5%;'><small>Task 3 of 5</small></div><div class='instruxDiv'><p><strong>3) What happens to the amount of points you send to your partner?</strong></p><p>a) Nothing</p><p>b) It doubles</p><p style='color:#00FF00'>c) It quadruples</p><h3 style='color:#00FF00'>Correct!</h3><h3 class='center-content'>The correct response is c).</h3><h3 class='center-content'>The amount of points you send to your partner quadruples.</h3><p><em>Press SPACEBAR to continue</em></p></div>"," ","","","","","","","","","","",""
"html-keyboard-response","133","258811","0.0-15.0","5bfb5784a66aa500019dabef","bdp_trlrn","Sat Apr 08 2023 10:33:23 GMT-0500 (Central Daylight Time)","551691","Untrustworthy,Trustworthy","","8506","","","","","","<div class='header' style='text-align:left; position: absolute; top: 5%; left: 5%;'><small>Task 3 of 5</small></div><div class='instruxDiv'><p><strong>4) If you decided to share 4 out of 5 points with your partner, and they decided to share half of the amount they received with you, how many points would you receive back from them on this round?</strong></p><p>a) 16</p><p>b) 0</p><p>c) 8</p>","C","","","","","","","","","","",""
"html-keyboard-response","134","261243","0.0-16.0","5bfb5784a66aa500019dabef","bdp_trlrn","Sat Apr 08 2023 10:33:23 GMT-0500 (Central Daylight Time)","551691","Untrustworthy,Trustworthy","","2332","","","","","","<div class='header' style='text-align:left; position: absolute; top: 5%; left: 5%;'><small>Task 3 of 5</small></div><div class='instruxDiv'><p><strong>4) If you decided to share 4 out of 5 points with your partner, and they decided to share half of the amount they received with you, how many points would you receive back from them on this round?</strong></p><p>a) 16</p><p>b) 0</p><p style='color:#00FF00'>c) 8</p><h3 style='color:#00FF00'>Correct!</h3><h3 class='center-content'>The correct response is c).</h3><h3 class='center-content'>If you shared 4 out of 5 points with your partner and they decided to share half of the amount they received with you, you would receive 8 points back (i.e. (4 x 4)/2 = 8).</h3><p><em>Press SPACEBAR to continue</em></p></div>"," ","","","","","","","","","","",""
"html-keyboard-response","135","266344","0.0-17.0","5bfb5784a66aa500019dabef","bdp_trlrn","Sat Apr 08 2023 10:33:23 GMT-0500 (Central Daylight Time)","551691","Untrustworthy,Trustworthy","","null","","","","","","<div class='header' style='text-align:left; position: absolute; top: 5%; left: 5%;'><small>Task 3 of 5</small></div><div class='instruxDiv'><p>Thank you for completing the quiz<p>These are the actual partners you will be interacting with in the next block:<p><div class='tc' align='center'><img class='introPic' src='trustrating_stim/white_mw063.bmp'><br><strong>Anthony</strong></div><div class='bl' align='center'><img class='introPic' src='trustrating_stim/white_00602_940928_fb_edt.bmp'><br><strong>James</strong></div><div class='br' align='center'><img class='introPic' src='trustrating_stim/white_mw049.bmp'><br><strong>Timothy</strong></div></div><p>Across <strong>66 rounds</strong> you will interact with each partner <strong>22 times</strong> (in random order).<p style='align:center; color:white'><font <em>Press SPACEBAR to continue</em></p>","null","","","","","","","","","","",""
"instructions","136","269148","0.0-18.0","5bfb5784a66aa500019dabef","bdp_trlrn","Sat Apr 08 2023 10:33:23 GMT-0500 (Central Daylight Time)","551691","Untrustworthy,Trustworthy","[{""page_index"":0,""viewing_time"":1706},{""page_index"":1,""viewing_time"":1097}]","2803","","","","","","","","","","","","","","","","","",""
"html-keyboard-response","137","270923","0.0-19.0-1.0","5bfb5784a66aa500019dabef","bdp_trlrn","Sat Apr 08 2023 10:33:23 GMT-0500 (Central Daylight Time)","551691","Untrustworthy,Trustworthy","","1674","","","","decision","","<div class='trialDiv'><img src='trustrating_stim/white_mw063.bmp'><br><font class='baseline'><strong>Anthony</strong><p>Choose number of points to send.</font><div class='respPicDiv'><img src='img/responseButtonOffersNo0L.png' class='respPic'></div></div>","2","1","Anthony","1","Kept","0.2,0.65","13","0.2","trustrating_stim/white_mw063.bmp","3","5","1"
"html-keyboard-response","138","271174","0.0-19.0-2.0","5bfb5784a66aa500019dabef","bdp_trlrn","Sat Apr 08 2023 10:33:23 GMT-0500 (Central Daylight Time)","551691","Untrustworthy,Trustworthy","","null","","","","decisionFB","","<div class='trialDiv'><img src='trustrating_stim/white_mw063.bmp'><br><font class='baseline'><strong>Anthony</strong><p>Choose number of points to send.</font><div class='respPicDiv'><img src='img/responseButtonOffersNo0L2.png' class='respPic'></div></div>","null","1","Anthony","1","Kept","0.2,0.65","13","0.2","trustrating_stim/white_mw063.bmp","3","3","1"
"html-keyboard-response","139","272175","0.0-19.0-3.0","5bfb5784a66aa500019dabef","bdp_trlrn","Sat Apr 08 2023 10:33:23 GMT-0500 (Central Daylight Time)","551691","Untrustworthy,Trustworthy","","null","","","","feedback","","<div class='trialDiv'><img src='trustrating_stim/white_mw063.bmp'><br><font class='baseline'><strong>Anthony</strong><p>Received: <strong>8</strong></font> &nbsp; &nbsp; &nbsp; &nbsp; &nbsp; &nbsp;<font class='negOutcome'>Shared back: <strong>0</strong></font></font><div class='respPicDiv'><img src='img/responseButtonOffersNo0_wht.png' class='respPic'></div></div>","null","1","Anthony","1","Kept","0.2,0.65","13","0.2","trustrating_stim/white_mw063.bmp","3","3","1"
"html-keyboard-response","140","273763","0.0-19.0-1.1","5bfb5784a66aa500019dabef","bdp_trlrn","Sat Apr 08 2023 10:33:23 GMT-0500 (Central Daylight Time)","551691","Untrustworthy,Trustworthy","","1588","","","","decision","","<div class='trialDiv'><img src='trustrating_stim/white_mw049.bmp'><br><font class='baseline'><strong>Timothy</strong><p>Choose number of points to send.</font><div class='respPicDiv'><img src='img/responseButtonOffersNo0L.png' class='respPic'></div></div>","4","1","Timothy","10","Kept","0.65,0.2","10","0.65","trustrating_stim/white_mw049.bmp","7.5","8","2"
"html-keyboard-response","141","274014","0.0-19.0-2.1","5bfb5784a66aa500019dabef","bdp_trlrn","Sat Apr 08 2023 10:33:23 GMT-0500 (Central Daylight Time)","551691","Untrustworthy,Trustworthy","","null","","","","decisionFB","","<div class='trialDiv'><img src='trustrating_stim/white_mw049.bmp'><br><font class='baseline'><strong>Timothy</strong><p>Choose number of points to send.</font><div class='respPicDiv'><img src='img/responseButtonOffersNo0L4.png' class='respPic'></div></div>","null","1","Timothy","10","Kept","0.65,0.2","10","0.65","trustrating_stim/white_mw049.bmp","7.5","4","2"
"html-keyboard-response","142","275015","0.0-19.0-3.1","5bfb5784a66aa500019dabef","bdp_trlrn","Sat Apr 08 2023 10:33:23 GMT-0500 (Central Daylight Time)","551691","Untrustworthy,Trustworthy","","null","","","","feedback","","<div class='trialDiv'><img src='trustrating_stim/white_mw049.bmp'><br><font class='baseline'><strong>Timothy</strong><p>Received: <strong>16</strong></font> &nbsp; &nbsp; &nbsp; &nbsp; &nbsp; &nbsp;<font class='negOutcome'>Shared back: <strong>0</strong></font></font><div class='respPicDiv'><img src='img/responseButtonOffersNo0_wht.png' class='respPic'></div></div>","null","1","Timothy","10","Kept","0.65,0.2","10","0.65","trustrating_stim/white_mw049.bmp","7.5","4","2"
"html-keyboard-response","143","275731","0.0-19.0-1.2","5bfb5784a66aa500019dabef","bdp_trlrn","Sat Apr 08 2023 10:33:23 GMT-0500 (Central Daylight Time)","551691","Untrustworthy,Trustworthy","","716","","","","decision","","<div class='trialDiv'><img src='trustrating_stim/white_00602_940928_fb_edt.bmp'><br><font class='baseline'><strong>James</strong><p>Choose number of points to send.</font><div class='respPicDiv'><img src='img/responseButtonOffersNo0L.png' class='respPic'></div></div>","4","1","James","4","Kept","0.2,0.8","12","0.2","trustrating_stim/white_00602_940928_fb_edt.bmp","5","9","3"
"html-keyboard-response","144","275982","0.0-19.0-2.2","5bfb5784a66aa500019dabef","bdp_trlrn","Sat Apr 08 2023 10:33:23 GMT-0500 (Central Daylight Time)","551691","Untrustworthy,Trustworthy","","null","","","","decisionFB","","<div class='trialDiv'><img src='trustrating_stim/white_00602_940928_fb_edt.bmp'><br><font class='baseline'><strong>James</strong><p>Choose number of points to send.</font><div class='respPicDiv'><img src='img/responseButtonOffersNo0L4.png' class='respPic'></div></div>","null","1","James","4","Kept","0.2,0.8","12","0.2","trustrating_stim/white_00602_940928_fb_edt.bmp","5","5","3"
"html-keyboard-response","145","276982","0.0-19.0-3.2","5bfb5784a66aa500019dabef","bdp_trlrn","Sat Apr 08 2023 10:33:23 GMT-0500 (Central Daylight Time)","551691","Untrustworthy,Trustworthy","","null","","","","feedback","","<div class='trialDiv'><img src='trustrating_stim/white_00602_940928_fb_edt.bmp'><br><font class='baseline'><strong>James</strong><p>Received: <strong>16</strong></font> &nbsp; &nbsp; &nbsp; &nbsp; &nbsp; &nbsp;<font class='negOutcome'>Shared back: <strong>0</strong></font></font><div class='respPicDiv'><img src='img/responseButtonOffersNo0_wht.png' class='respPic'></div></div>","null","1","James","4","Kept","0.2,0.8","12","0.2","trustrating_stim/white_00602_940928_fb_edt.bmp","5","5","3"
"html-keyboard-response","146","278283","0.0-19.0-1.3","5bfb5784a66aa500019dabef","bdp_trlrn","Sat Apr 08 2023 10:33:23 GMT-0500 (Central Daylight Time)","551691","Untrustworthy,Trustworthy","","1300","","","","decision","","<div class='trialDiv'><img src='trustrating_stim/white_mw063.bmp'><br><font class='baseline'><strong>Anthony</strong><p>Choose number of points to send.</font><div class='respPicDiv'><img src='img/responseButtonOffersNo0L.png' class='respPic'></div></div>","2","2","Anthony","1","Shared","0.2,0.65","13","0.2","trustrating_stim/white_mw063.bmp","3","10","4"
"html-keyboard-response","147","278534","0.0-19.0-2.3","5bfb5784a66aa500019dabef","bdp_trlrn","Sat Apr 08 2023 10:33:23 GMT-0500 (Central Daylight Time)","551691","Untrustworthy,Trustworthy","","null","","","","decisionFB","","<div class='trialDiv'><img src='trustrating_stim/white_mw063.bmp'><br><font class='baseline'><strong>Anthony</strong><p>Choose number of points to send.</font><div class='respPicDiv'><img src='img/responseButtonOffersNo0L2.png' class='respPic'></div></div>","null","2","Anthony","1","Shared","0.2,0.65","13","0.2","trustrating_stim/white_mw063.bmp","3","8","4"
"html-keyboard-response","148","279535","0.0-19.0-3.3","5bfb5784a66aa500019dabef","bdp_trlrn","Sat Apr 08 2023 10:33:23 GMT-0500 (Central Daylight Time)","551691","Untrustworthy,Trustworthy","","null","","","","feedback","","<div class='trialDiv'><img src='trustrating_stim/white_mw063.bmp'><br><font class='baseline'><strong>Anthony</strong><p>Received: <strong>8</strong></font> &nbsp; &nbsp; &nbsp; &nbsp; &nbsp; &nbsp;<font class='posOutcome'>Shared back: <strong>4</strong></font></font><div class='respPicDiv'><img src='img/responseButtonOffersNo0_wht.png' class='respPic'></div></div>","null","2","Anthony","1","Shared","0.2,0.65","13","0.2","trustrating_stim/white_mw063.bmp","3","12","4"
"html-keyboard-response","149","280811","0.0-19.0-1.4","5bfb5784a66aa500019dabef","bdp_trlrn","Sat Apr 08 2023 10:33:23 GMT-0500 (Central Daylight Time)","551691","Untrustworthy,Trustworthy","","1275","","","","decision","","<div class='trialDiv'><img src='trustrating_stim/white_mw049.bmp'><br><font class='baseline'><strong>Timothy</strong><p>Choose number of points to send.</font><div class='respPicDiv'><img src='img/responseButtonOffersNo0L.png' class='respPic'></div></div>","2","2","Timothy","10","Kept","0.65,0.2","10","0.65","trustrating_stim/white_mw049.bmp","7.5","17","5"
"html-keyboard-response","150","281062","0.0-19.0-2.4","5bfb5784a66aa500019dabef","bdp_trlrn","Sat Apr 08 2023 10:33:23 GMT-0500 (Central Daylight Time)","551691","Untrustworthy,Trustworthy","","null","","","","decisionFB","","<div class='trialDiv'><img src='trustrating_stim/white_mw049.bmp'><br><font class='baseline'><strong>Timothy</strong><p>Choose number of points to send.</font><div class='respPicDiv'><img src='img/responseButtonOffersNo0L2.png' class='respPic'></div></div>","null","2","Timothy","10","Kept","0.65,0.2","10","0.65","trustrating_stim/white_mw049.bmp","7.5","15","5"
"html-keyboard-response","151","282064","0.0-19.0-3.4","5bfb5784a66aa500019dabef","bdp_trlrn","Sat Apr 08 2023 10:33:23 GMT-0500 (Central Daylight Time)","551691","Untrustworthy,Trustworthy","","null","","","","feedback","","<div class='trialDiv'><img src='trustrating_stim/white_mw049.bmp'><br><font class='baseline'><strong>Timothy</strong><p>Received: <strong>8</strong></font> &nbsp; &nbsp; &nbsp; &nbsp; &nbsp; &nbsp;<font class='negOutcome'>Shared back: <strong>0</strong></font></font><div class='respPicDiv'><img src='img/responseButtonOffersNo0_wht.png' class='respPic'></div></div>","null","2","Timothy","10","Kept","0.65,0.2","10","0.65","trustrating_stim/white_mw049.bmp","7.5","15","5"
"html-keyboard-response","152","282883","0.0-19.0-1.5","5bfb5784a66aa500019dabef","bdp_trlrn","Sat Apr 08 2023 10:33:23 GMT-0500 (Central Daylight Time)","551691","Untrustworthy,Trustworthy","","819","","","","decision","","<div class='trialDiv'><img src='trustrating_stim/white_00602_940928_fb_edt.bmp'><br><font class='baseline'><strong>James</strong><p>Choose number of points to send.</font><div class='respPicDiv'><img src='img/responseButtonOffersNo0L.png' class='respPic'></div></div>","2","2","James","4","Shared","0.2,0.8","12","0.2","trustrating_stim/white_00602_940928_fb_edt.bmp","5","20","6"
"html-keyboard-response","153","283135","0.0-19.0-2.5","5bfb5784a66aa500019dabef","bdp_trlrn","Sat Apr 08 2023 10:33:23 GMT-0500 (Central Daylight Time)","551691","Untrustworthy,Trustworthy","","null","","","","decisionFB","","<div class='trialDiv'><img src='trustrating_stim/white_00602_940928_fb_edt.bmp'><br><font class='baseline'><strong>James</strong><p>Choose number of points to send.</font><div class='respPicDiv'><img src='img/responseButtonOffersNo0L2.png' class='respPic'></div></div>","null","2","James","4","Shared","0.2,0.8","12","0.2","trustrating_stim/white_00602_940928_fb_edt.bmp","5","18","6"
"html-keyboard-response","154","284137","0.0-19.0-3.5","5bfb5784a66aa500019dabef","bdp_trlrn","Sat Apr 08 2023 10:33:23 GMT-0500 (Central Daylight Time)","551691","Untrustworthy,Trustworthy","","null","","","","feedback","","<div class='trialDiv'><img src='trustrating_stim/white_00602_940928_fb_edt.bmp'><br><font class='baseline'><strong>James</strong><p>Received: <strong>8</strong></font> &nbsp; &nbsp; &nbsp; &nbsp; &nbsp; &nbsp;<font class='posOutcome'>Shared back: <strong>4</strong></font></font><div class='respPicDiv'><img src='img/responseButtonOffersNo0_wht.png' class='respPic'></div></div>","null","2","James","4","Shared","0.2,0.8","12","0.2","trustrating_stim/white_00602_940928_fb_edt.bmp","5","22","6"
"html-keyboard-response","155","285355","0.0-19.0-1.6","5bfb5784a66aa500019dabef","bdp_trlrn","Sat Apr 08 2023 10:33:23 GMT-0500 (Central Daylight Time)","551691","Untrustworthy,Trustworthy","","1218","","","","decision","","<div class='trialDiv'><img src='trustrating_stim/white_mw063.bmp'><br><font class='baseline'><strong>Anthony</strong><p>Choose number of points to send.</font><div class='respPicDiv'><img src='img/responseButtonOffersNo0L.png' class='respPic'></div></div>","3","3","Anthony","1","Kept","0.2,0.65","13","0.2","trustrating_stim/white_mw063.bmp","3","27","7"
"html-keyboard-response","156","285607","0.0-19.0-2.6","5bfb5784a66aa500019dabef","bdp_trlrn","Sat Apr 08 2023 10:33:23 GMT-0500 (Central Daylight Time)","551691","Untrustworthy,Trustworthy","","null","","","","decisionFB","","<div class='trialDiv'><img src='trustrating_stim/white_mw063.bmp'><br><font class='baseline'><strong>Anthony</strong><p>Choose number of points to send.</font><div class='respPicDiv'><img src='img/responseButtonOffersNo0L3.png' class='respPic'></div></div>","null","3","Anthony","1","Kept","0.2,0.65","13","0.2","trustrating_stim/white_mw063.bmp","3","24","7"
"html-keyboard-response","157","286608","0.0-19.0-3.6","5bfb5784a66aa500019dabef","bdp_trlrn","Sat Apr 08 2023 10:33:23 GMT-0500 (Central Daylight Time)","551691","Untrustworthy,Trustworthy","","null","","","","feedback","","<div class='trialDiv'><img src='trustrating_stim/white_mw063.bmp'><br><font class='baseline'><strong>Anthony</strong><p>Received: <strong>12</strong></font> &nbsp; &nbsp; &nbsp; &nbsp; &nbsp; &nbsp;<font class='negOutcome'>Shared back: <strong>0</strong></font></font><div class='respPicDiv'><img src='img/responseButtonOffersNo0_wht.png' class='respPic'></div></div>","null","3","Anthony","1","Kept","0.2,0.65","13","0.2","trustrating_stim/white_mw063.bmp","3","24","7"
"html-keyboard-response","158","287563","0.0-19.0-1.7","5bfb5784a66aa500019dabef","bdp_trlrn","Sat Apr 08 2023 10:33:23 GMT-0500 (Central Daylight Time)","551691","Untrustworthy,Trustworthy","","955","","","","decision","","<div class='trialDiv'><img src='trustrating_stim/white_00602_940928_fb_edt.bmp'><br><font class='baseline'><strong>James</strong><p>Choose number of points to send.</font><div class='respPicDiv'><img src='img/responseButtonOffersNo0L.png' class='respPic'></div></div>","2","3","James","4","Kept","0.2,0.8","12","0.2","trustrating_stim/white_00602_940928_fb_edt.bmp","5","29","8"
"html-keyboard-response","159","287814","0.0-19.0-2.7","5bfb5784a66aa500019dabef","bdp_trlrn","Sat Apr 08 2023 10:33:23 GMT-0500 (Central Daylight Time)","551691","Untrustworthy,Trustworthy","","null","","","","decisionFB","","<div class='trialDiv'><img src='trustrating_stim/white_00602_940928_fb_edt.bmp'><br><font class='baseline'><strong>James</strong><p>Choose number of points to send.</font><div class='respPicDiv'><img src='img/responseButtonOffersNo0L2.png' class='respPic'></div></div>","null","3","James","4","Kept","0.2,0.8","12","0.2","trustrating_stim/white_00602_940928_fb_edt.bmp","5","27","8"
"html-keyboard-response","160","288816","0.0-19.0-3.7","5bfb5784a66aa500019dabef","bdp_trlrn","Sat Apr 08 2023 10:33:23 GMT-0500 (Central Daylight Time)","551691","Untrustworthy,Trustworthy","","null","","","","feedback","","<div class='trialDiv'><img src='trustrating_stim/white_00602_940928_fb_edt.bmp'><br><font class='baseline'><strong>James</strong><p>Received: <strong>8</strong></font> &nbsp; &nbsp; &nbsp; &nbsp; &nbsp; &nbsp;<font class='negOutcome'>Shared back: <strong>0</strong></font></font><div class='respPicDiv'><img src='img/responseButtonOffersNo0_wht.png' class='respPic'></div></div>","null","3","James","4","Kept","0.2,0.8","12","0.2","trustrating_stim/white_00602_940928_fb_edt.bmp","5","27","8"
"html-keyboard-response","161","290091","0.0-19.0-1.8","5bfb5784a66aa500019dabef","bdp_trlrn","Sat Apr 08 2023 10:33:23 GMT-0500 (Central Daylight Time)","551691","Untrustworthy,Trustworthy","","1275","","","","decision","","<div class='trialDiv'><img src='trustrating_stim/white_mw049.bmp'><br><font class='baseline'><strong>Timothy</strong><p>Choose number of points to send.</font><div class='respPicDiv'><img src='img/responseButtonOffersNo0L.png' class='respPic'></div></div>","2","3","Timothy","10","Shared","0.65,0.2","10","0.65","trustrating_stim/white_mw049.bmp","7.5","32","9"
"html-keyboard-response","162","290342","0.0-19.0-2.8","5bfb5784a66aa500019dabef","bdp_trlrn","Sat Apr 08 2023 10:33:23 GMT-0500 (Central Daylight Time)","551691","Untrustworthy,Trustworthy","","null","","","","decisionFB","","<div class='trialDiv'><img src='trustrating_stim/white_mw049.bmp'><br><font class='baseline'><strong>Timothy</strong><p>Choose number of points to send.</font><div class='respPicDiv'><img src='img/responseButtonOffersNo0L2.png' class='respPic'></div></div>","null","3","Timothy","10","Shared","0.65,0.2","10","0.65","trustrating_stim/white_mw049.bmp","7.5","30","9"
"html-keyboard-response","163","291343","0.0-19.0-3.8","5bfb5784a66aa500019dabef","bdp_trlrn","Sat Apr 08 2023 10:33:23 GMT-0500 (Central Daylight Time)","551691","Untrustworthy,Trustworthy","","null","","","","feedback","","<div class='trialDiv'><img src='trustrating_stim/white_mw049.bmp'><br><font class='baseline'><strong>Timothy</strong><p>Received: <strong>8</strong></font> &nbsp; &nbsp; &nbsp; &nbsp; &nbsp; &nbsp;<font class='posOutcome'>Shared back: <strong>4</strong></font></font><div class='respPicDiv'><img src='img/responseButtonOffersNo0_wht.png' class='respPic'></div></div>","null","3","Timothy","10","Shared","0.65,0.2","10","0.65","trustrating_stim/white_mw049.bmp","7.5","34","9"
"html-keyboard-response","164","292659","0.0-19.0-1.9","5bfb5784a66aa500019dabef","bdp_trlrn","Sat Apr 08 2023 10:33:23 GMT-0500 (Central Daylight Time)","551691","Untrustworthy,Trustworthy","","1316","","","","decision","","<div class='trialDiv'><img src='trustrating_stim/white_00602_940928_fb_edt.bmp'><br><font class='baseline'><strong>James</strong><p>Choose number of points to send.</font><div class='respPicDiv'><img src='img/responseButtonOffersNo0L.png' class='respPic'></div></div>","3","4","James","4","Kept","0.2,0.8","12","0.2","trustrating_stim/white_00602_940928_fb_edt.bmp","5","39","10"
"html-keyboard-response","165","292910","0.0-19.0-2.9","5bfb5784a66aa500019dabef","bdp_trlrn","Sat Apr 08 2023 10:33:23 GMT-0500 (Central Daylight Time)","551691","Untrustworthy,Trustworthy","","null","","","","decisionFB","","<div class='trialDiv'><img src='trustrating_stim/white_00602_940928_fb_edt.bmp'><br><font class='baseline'><strong>James</strong><p>Choose number of points to send.</font><div class='respPicDiv'><img src='img/responseButtonOffersNo0L3.png' class='respPic'></div></div>","null","4","James","4","Kept","0.2,0.8","12","0.2","trustrating_stim/white_00602_940928_fb_edt.bmp","5","36","10"
"html-keyboard-response","166","293911","0.0-19.0-3.9","5bfb5784a66aa500019dabef","bdp_trlrn","Sat Apr 08 2023 10:33:23 GMT-0500 (Central Daylight Time)","551691","Untrustworthy,Trustworthy","","null","","","","feedback","","<div class='trialDiv'><img src='trustrating_stim/white_00602_940928_fb_edt.bmp'><br><font class='baseline'><strong>James</strong><p>Received: <strong>12</strong></font> &nbsp; &nbsp; &nbsp; &nbsp; &nbsp; &nbsp;<font class='negOutcome'>Shared back: <strong>0</strong></font></font><div class='respPicDiv'><img src='img/responseButtonOffersNo0_wht.png' class='respPic'></div></div>","null","4","James","4","Kept","0.2,0.8","12","0.2","trustrating_stim/white_00602_940928_fb_edt.bmp","5","36","10"
"html-keyboard-response","167","295059","0.0-19.0-1.10","5bfb5784a66aa500019dabef","bdp_trlrn","Sat Apr 08 2023 10:33:23 GMT-0500 (Central Daylight Time)","551691","Untrustworthy,Trustworthy","","1148","","","","decision","","<div class='trialDiv'><img src='trustrating_stim/white_mw049.bmp'><br><font class='baseline'><strong>Timothy</strong><p>Choose number of points to send.</font><div class='respPicDiv'><img src='img/responseButtonOffersNo0L.png' class='respPic'></div></div>","4","4","Timothy","10","Kept","0.65,0.2","10","0.65","trustrating_stim/white_mw049.bmp","7.5","41","11"
"html-keyboard-response","168","295310","0.0-19.0-2.10","5bfb5784a66aa500019dabef","bdp_trlrn","Sat Apr 08 2023 10:33:23 GMT-0500 (Central Daylight Time)","551691","Untrustworthy,Trustworthy","","null","","","","decisionFB","","<div class='trialDiv'><img src='trustrating_stim/white_mw049.bmp'><br><font class='baseline'><strong>Timothy</strong><p>Choose number of points to send.</font><div class='respPicDiv'><img src='img/responseButtonOffersNo0L4.png' class='respPic'></div></div>","null","4","Timothy","10","Kept","0.65,0.2","10","0.65","trustrating_stim/white_mw049.bmp","7.5","37","11"
"html-keyboard-response","169","296311","0.0-19.0-3.10","5bfb5784a66aa500019dabef","bdp_trlrn","Sat Apr 08 2023 10:33:23 GMT-0500 (Central Daylight Time)","551691","Untrustworthy,Trustworthy","","null","","","","feedback","","<div class='trialDiv'><img src='trustrating_stim/white_mw049.bmp'><br><font class='baseline'><strong>Timothy</strong><p>Received: <strong>16</strong></font> &nbsp; &nbsp; &nbsp; &nbsp; &nbsp; &nbsp;<font class='negOutcome'>Shared back: <strong>0</strong></font></font><div class='respPicDiv'><img src='img/responseButtonOffersNo0_wht.png' class='respPic'></div></div>","null","4","Timothy","10","Kept","0.65,0.2","10","0.65","trustrating_stim/white_mw049.bmp","7.5","37","11"
"html-keyboard-response","170","297467","0.0-19.0-1.11","5bfb5784a66aa500019dabef","bdp_trlrn","Sat Apr 08 2023 10:33:23 GMT-0500 (Central Daylight Time)","551691","Untrustworthy,Trustworthy","","1156","","","","decision","","<div class='trialDiv'><img src='trustrating_stim/white_mw063.bmp'><br><font class='baseline'><strong>Anthony</strong><p>Choose number of points to send.</font><div class='respPicDiv'><img src='img/responseButtonOffersNo0L.png' class='respPic'></div></div>","2","4","Anthony","1","Shared","0.2,0.65","13","0.2","trustrating_stim/white_mw063.bmp","3","42","12"
"html-keyboard-response","171","297719","0.0-19.0-2.11","5bfb5784a66aa500019dabef","bdp_trlrn","Sat Apr 08 2023 10:33:23 GMT-0500 (Central Daylight Time)","551691","Untrustworthy,Trustworthy","","null","","","","decisionFB","","<div class='trialDiv'><img src='trustrating_stim/white_mw063.bmp'><br><font class='baseline'><strong>Anthony</strong><p>Choose number of points to send.</font><div class='respPicDiv'><img src='img/responseButtonOffersNo0L2.png' class='respPic'></div></div>","null","4","Anthony","1","Shared","0.2,0.65","13","0.2","trustrating_stim/white_mw063.bmp","3","40","12"
"html-keyboard-response","172","298721","0.0-19.0-3.11","5bfb5784a66aa500019dabef","bdp_trlrn","Sat Apr 08 2023 10:33:23 GMT-0500 (Central Daylight Time)","551691","Untrustworthy,Trustworthy","","null","","","","feedback","","<div class='trialDiv'><img src='trustrating_stim/white_mw063.bmp'><br><font class='baseline'><strong>Anthony</strong><p>Received: <strong>8</strong></font> &nbsp; &nbsp; &nbsp; &nbsp; &nbsp; &nbsp;<font class='posOutcome'>Shared back: <strong>4</strong></font></font><div class='respPicDiv'><img src='img/responseButtonOffersNo0_wht.png' class='respPic'></div></div>","null","4","Anthony","1","Shared","0.2,0.65","13","0.2","trustrating_stim/white_mw063.bmp","3","44","12"
"html-keyboard-response","173","299683","0.0-19.0-1.12","5bfb5784a66aa500019dabef","bdp_trlrn","Sat Apr 08 2023 10:33:23 GMT-0500 (Central Daylight Time)","551691","Untrustworthy,Trustworthy","","962","","","","decision","","<div class='trialDiv'><img src='trustrating_stim/white_00602_940928_fb_edt.bmp'><br><font class='baseline'><strong>James</strong><p>Choose number of points to send.</font><div class='respPicDiv'><img src='img/responseButtonOffersNo0L.png' class='respPic'></div></div>","2","5","James","4","Kept","0.2,0.8","12","0.2","trustrating_stim/white_00602_940928_fb_edt.bmp","5","49","13"
"html-keyboard-response","174","299935","0.0-19.0-2.12","5bfb5784a66aa500019dabef","bdp_trlrn","Sat Apr 08 2023 10:33:23 GMT-0500 (Central Daylight Time)","551691","Untrustworthy,Trustworthy","","null","","","","decisionFB","","<div class='trialDiv'><img src='trustrating_stim/white_00602_940928_fb_edt.bmp'><br><font class='baseline'><strong>James</strong><p>Choose number of points to send.</font><div class='respPicDiv'><img src='img/responseButtonOffersNo0L2.png' class='respPic'></div></div>","null","5","James","4","Kept","0.2,0.8","12","0.2","trustrating_stim/white_00602_940928_fb_edt.bmp","5","47","13"
"html-keyboard-response","175","300937","0.0-19.0-3.12","5bfb5784a66aa500019dabef","bdp_trlrn","Sat Apr 08 2023 10:33:23 GMT-0500 (Central Daylight Time)","551691","Untrustworthy,Trustworthy","","null","","","","feedback","","<div class='trialDiv'><img src='trustrating_stim/white_00602_940928_fb_edt.bmp'><br><font class='baseline'><strong>James</strong><p>Received: <strong>8</strong></font> &nbsp; &nbsp; &nbsp; &nbsp; &nbsp; &nbsp;<font class='negOutcome'>Shared back: <strong>0</strong></font></font><div class='respPicDiv'><img src='img/responseButtonOffersNo0_wht.png' class='respPic'></div></div>","null","5","James","4","Kept","0.2,0.8","12","0.2","trustrating_stim/white_00602_940928_fb_edt.bmp","5","47","13"
"html-keyboard-response","176","302419","0.0-19.0-1.13","5bfb5784a66aa500019dabef","bdp_trlrn","Sat Apr 08 2023 10:33:23 GMT-0500 (Central Daylight Time)","551691","Untrustworthy,Trustworthy","","1482","","","","decision","","<div class='trialDiv'><img src='trustrating_stim/white_mw049.bmp'><br><font class='baseline'><strong>Timothy</strong><p>Choose number of points to send.</font><div class='respPicDiv'><img src='img/responseButtonOffersNo0L.png' class='respPic'></div></div>","2","5","Timothy","10","Kept","0.65,0.2","10","0.65","trustrating_stim/white_mw049.bmp","7.5","52","14"
"html-keyboard-response","177","302670","0.0-19.0-2.13","5bfb5784a66aa500019dabef","bdp_trlrn","Sat Apr 08 2023 10:33:23 GMT-0500 (Central Daylight Time)","551691","Untrustworthy,Trustworthy","","null","","","","decisionFB","","<div class='trialDiv'><img src='trustrating_stim/white_mw049.bmp'><br><font class='baseline'><strong>Timothy</strong><p>Choose number of points to send.</font><div class='respPicDiv'><img src='img/responseButtonOffersNo0L2.png' class='respPic'></div></div>","null","5","Timothy","10","Kept","0.65,0.2","10","0.65","trustrating_stim/white_mw049.bmp","7.5","50","14"
"html-keyboard-response","178","303671","0.0-19.0-3.13","5bfb5784a66aa500019dabef","bdp_trlrn","Sat Apr 08 2023 10:33:23 GMT-0500 (Central Daylight Time)","551691","Untrustworthy,Trustworthy","","null","","","","feedback","","<div class='trialDiv'><img src='trustrating_stim/white_mw049.bmp'><br><font class='baseline'><strong>Timothy</strong><p>Received: <strong>8</strong></font> &nbsp; &nbsp; &nbsp; &nbsp; &nbsp; &nbsp;<font class='negOutcome'>Shared back: <strong>0</strong></font></font><div class='respPicDiv'><img src='img/responseButtonOffersNo0_wht.png' class='respPic'></div></div>","null","5","Timothy","10","Kept","0.65,0.2","10","0.65","trustrating_stim/white_mw049.bmp","7.5","50","14"
"html-keyboard-response","179","304579","0.0-19.0-1.14","5bfb5784a66aa500019dabef","bdp_trlrn","Sat Apr 08 2023 10:33:23 GMT-0500 (Central Daylight Time)","551691","Untrustworthy,Trustworthy","","907","","","","decision","","<div class='trialDiv'><img src='trustrating_stim/white_mw063.bmp'><br><font class='baseline'><strong>Anthony</strong><p>Choose number of points to send.</font><div class='respPicDiv'><img src='img/responseButtonOffersNo0L.png' class='respPic'></div></div>","3","5","Anthony","1","Kept","0.2,0.65","13","0.2","trustrating_stim/white_mw063.bmp","3","55","15"
"html-keyboard-response","180","304830","0.0-19.0-2.14","5bfb5784a66aa500019dabef","bdp_trlrn","Sat Apr 08 2023 10:33:23 GMT-0500 (Central Daylight Time)","551691","Untrustworthy,Trustworthy","","null","","","","decisionFB","","<div class='trialDiv'><img src='trustrating_stim/white_mw063.bmp'><br><font class='baseline'><strong>Anthony</strong><p>Choose number of points to send.</font><div class='respPicDiv'><img src='img/responseButtonOffersNo0L3.png' class='respPic'></div></div>","null","5","Anthony","1","Kept","0.2,0.65","13","0.2","trustrating_stim/white_mw063.bmp","3","52","15"
"html-keyboard-response","181","305831","0.0-19.0-3.14","5bfb5784a66aa500019dabef","bdp_trlrn","Sat Apr 08 2023 10:33:23 GMT-0500 (Central Daylight Time)","551691","Untrustworthy,Trustworthy","","null","","","","feedback","","<div class='trialDiv'><img src='trustrating_stim/white_mw063.bmp'><br><font class='baseline'><strong>Anthony</strong><p>Received: <strong>12</strong></font> &nbsp; &nbsp; &nbsp; &nbsp; &nbsp; &nbsp;<font class='negOutcome'>Shared back: <strong>0</strong></font></font><div class='respPicDiv'><img src='img/responseButtonOffersNo0_wht.png' class='respPic'></div></div>","null","5","Anthony","1","Kept","0.2,0.65","13","0.2","trustrating_stim/white_mw063.bmp","3","52","15"
"html-keyboard-response","182","306890","0.0-19.0-1.15","5bfb5784a66aa500019dabef","bdp_trlrn","Sat Apr 08 2023 10:33:23 GMT-0500 (Central Daylight Time)","551691","Untrustworthy,Trustworthy","","1059","","","","decision","","<div class='trialDiv'><img src='trustrating_stim/white_00602_940928_fb_edt.bmp'><br><font class='baseline'><strong>James</strong><p>Choose number of points to send.</font><div class='respPicDiv'><img src='img/responseButtonOffersNo0L.png' class='respPic'></div></div>","1","6","James","4","Kept","0.2,0.8","12","0.2","trustrating_stim/white_00602_940928_fb_edt.bmp","5","57","16"
"html-keyboard-response","183","307142","0.0-19.0-2.15","5bfb5784a66aa500019dabef","bdp_trlrn","Sat Apr 08 2023 10:33:23 GMT-0500 (Central Daylight Time)","551691","Untrustworthy,Trustworthy","","null","","","","decisionFB","","<div class='trialDiv'><img src='trustrating_stim/white_00602_940928_fb_edt.bmp'><br><font class='baseline'><strong>James</strong><p>Choose number of points to send.</font><div class='respPicDiv'><img src='img/responseButtonOffersNo0L1.png' class='respPic'></div></div>","null","6","James","4","Kept","0.2,0.8","12","0.2","trustrating_stim/white_00602_940928_fb_edt.bmp","5","56","16"
"html-keyboard-response","184","308142","0.0-19.0-3.15","5bfb5784a66aa500019dabef","bdp_trlrn","Sat Apr 08 2023 10:33:23 GMT-0500 (Central Daylight Time)","551691","Untrustworthy,Trustworthy","","null","","","","feedback","","<div class='trialDiv'><img src='trustrating_stim/white_00602_940928_fb_edt.bmp'><br><font class='baseline'><strong>James</strong><p>Received: <strong>4</strong></font> &nbsp; &nbsp; &nbsp; &nbsp; &nbsp; &nbsp;<font class='negOutcome'>Shared back: <strong>0</strong></font></font><div class='respPicDiv'><img src='img/responseButtonOffersNo0_wht.png' class='respPic'></div></div>","null","6","James","4","Kept","0.2,0.8","12","0.2","trustrating_stim/white_00602_940928_fb_edt.bmp","5","56","16"
"html-keyboard-response","185","308803","0.0-19.0-1.16","5bfb5784a66aa500019dabef","bdp_trlrn","Sat Apr 08 2023 10:33:23 GMT-0500 (Central Daylight Time)","551691","Untrustworthy,Trustworthy","","660","","","","decision","","<div class='trialDiv'><img src='trustrating_stim/white_mw063.bmp'><br><font class='baseline'><strong>Anthony</strong><p>Choose number of points to send.</font><div class='respPicDiv'><img src='img/responseButtonOffersNo0L.png' class='respPic'></div></div>","1","6","Anthony","1","Kept","0.2,0.65","13","0.2","trustrating_stim/white_mw063.bmp","3","61","17"
"html-keyboard-response","186","309054","0.0-19.0-2.16","5bfb5784a66aa500019dabef","bdp_trlrn","Sat Apr 08 2023 10:33:23 GMT-0500 (Central Daylight Time)","551691","Untrustworthy,Trustworthy","","null","","","","decisionFB","","<div class='trialDiv'><img src='trustrating_stim/white_mw063.bmp'><br><font class='baseline'><strong>Anthony</strong><p>Choose number of points to send.</font><div class='respPicDiv'><img src='img/responseButtonOffersNo0L1.png' class='respPic'></div></div>","null","6","Anthony","1","Kept","0.2,0.65","13","0.2","trustrating_stim/white_mw063.bmp","3","60","17"
"html-keyboard-response","187","310055","0.0-19.0-3.16","5bfb5784a66aa500019dabef","bdp_trlrn","Sat Apr 08 2023 10:33:23 GMT-0500 (Central Daylight Time)","551691","Untrustworthy,Trustworthy","","null","","","","feedback","","<div class='trialDiv'><img src='trustrating_stim/white_mw063.bmp'><br><font class='baseline'><strong>Anthony</strong><p>Received: <strong>4</strong></font> &nbsp; &nbsp; &nbsp; &nbsp; &nbsp; &nbsp;<font class='negOutcome'>Shared back: <strong>0</strong></font></font><div class='respPicDiv'><img src='img/responseButtonOffersNo0_wht.png' class='respPic'></div></div>","null","6","Anthony","1","Kept","0.2,0.65","13","0.2","trustrating_stim/white_mw063.bmp","3","60","17"
"html-keyboard-response","188","310531","0.0-19.0-1.17","5bfb5784a66aa500019dabef","bdp_trlrn","Sat Apr 08 2023 10:33:23 GMT-0500 (Central Daylight Time)","551691","Untrustworthy,Trustworthy","","475","","","","decision","","<div class='trialDiv'><img src='trustrating_stim/white_mw049.bmp'><br><font class='baseline'><strong>Timothy</strong><p>Choose number of points to send.</font><div class='respPicDiv'><img src='img/responseButtonOffersNo0L.png' class='respPic'></div></div>","1","6","Timothy","10","Shared","0.65,0.2","10","0.65","trustrating_stim/white_mw049.bmp","7.5","65","18"
"html-keyboard-response","189","310783","0.0-19.0-2.17","5bfb5784a66aa500019dabef","bdp_trlrn","Sat Apr 08 2023 10:33:23 GMT-0500 (Central Daylight Time)","551691","Untrustworthy,Trustworthy","","null","","","","decisionFB","","<div class='trialDiv'><img src='trustrating_stim/white_mw049.bmp'><br><font class='baseline'><strong>Timothy</strong><p>Choose number of points to send.</font><div class='respPicDiv'><img src='img/responseButtonOffersNo0L1.png' class='respPic'></div></div>","null","6","Timothy","10","Shared","0.65,0.2","10","0.65","trustrating_stim/white_mw049.bmp","7.5","64","18"
"html-keyboard-response","190","311783","0.0-19.0-3.17","5bfb5784a66aa500019dabef","bdp_trlrn","Sat Apr 08 2023 10:33:23 GMT-0500 (Central Daylight Time)","551691","Untrustworthy,Trustworthy","","null","","","","feedback","","<div class='trialDiv'><img src='trustrating_stim/white_mw049.bmp'><br><font class='baseline'><strong>Timothy</strong><p>Received: <strong>4</strong></font> &nbsp; &nbsp; &nbsp; &nbsp; &nbsp; &nbsp;<font class='posOutcome'>Shared back: <strong>2</strong></font></font><div class='respPicDiv'><img src='img/responseButtonOffersNo0_wht.png' class='respPic'></div></div>","null","6","Timothy","10","Shared","0.65,0.2","10","0.65","trustrating_stim/white_mw049.bmp","7.5","66","18"
"html-keyboard-response","191","312723","0.0-19.0-1.18","5bfb5784a66aa500019dabef","bdp_trlrn","Sat Apr 08 2023 10:33:23 GMT-0500 (Central Daylight Time)","551691","Untrustworthy,Trustworthy","","940","","","","decision","","<div class='trialDiv'><img src='trustrating_stim/white_mw063.bmp'><br><font class='baseline'><strong>Anthony</strong><p>Choose number of points to send.</font><div class='respPicDiv'><img src='img/responseButtonOffersNo0L.png' class='respPic'></div></div>","1","7","Anthony","1","Kept","0.2,0.65","13","0.2","trustrating_stim/white_mw063.bmp","3","71","19"
"html-keyboard-response","192","312974","0.0-19.0-2.18","5bfb5784a66aa500019dabef","bdp_trlrn","Sat Apr 08 2023 10:33:23 GMT-0500 (Central Daylight Time)","551691","Untrustworthy,Trustworthy","","null","","","","decisionFB","","<div class='trialDiv'><img src='trustrating_stim/white_mw063.bmp'><br><font class='baseline'><strong>Anthony</strong><p>Choose number of points to send.</font><div class='respPicDiv'><img src='img/responseButtonOffersNo0L1.png' class='respPic'></div></div>","null","7","Anthony","1","Kept","0.2,0.65","13","0.2","trustrating_stim/white_mw063.bmp","3","70","19"
"html-keyboard-response","193","313974","0.0-19.0-3.18","5bfb5784a66aa500019dabef","bdp_trlrn","Sat Apr 08 2023 10:33:23 GMT-0500 (Central Daylight Time)","551691","Untrustworthy,Trustworthy","","null","","","","feedback","","<div class='trialDiv'><img src='trustrating_stim/white_mw063.bmp'><br><font class='baseline'><strong>Anthony</strong><p>Received: <strong>4</strong></font> &nbsp; &nbsp; &nbsp; &nbsp; &nbsp; &nbsp;<font class='negOutcome'>Shared back: <strong>0</strong></font></font><div class='respPicDiv'><img src='img/responseButtonOffersNo0_wht.png' class='respPic'></div></div>","null","7","Anthony","1","Kept","0.2,0.65","13","0.2","trustrating_stim/white_mw063.bmp","3","70","19"
"html-keyboard-response","194","315051","0.0-19.0-1.19","5bfb5784a66aa500019dabef","bdp_trlrn","Sat Apr 08 2023 10:33:23 GMT-0500 (Central Daylight Time)","551691","Untrustworthy,Trustworthy","","1076","","","","decision","","<div class='trialDiv'><img src='trustrating_stim/white_mw049.bmp'><br><font class='baseline'><strong>Timothy</strong><p>Choose number of points to send.</font><div class='respPicDiv'><img src='img/responseButtonOffersNo0L.png' class='respPic'></div></div>","2","7","Timothy","10","Shared","0.65,0.2","10","0.65","trustrating_stim/white_mw049.bmp","7.5","75","20"
"html-keyboard-response","195","315303","0.0-19.0-2.19","5bfb5784a66aa500019dabef","bdp_trlrn","Sat Apr 08 2023 10:33:23 GMT-0500 (Central Daylight Time)","551691","Untrustworthy,Trustworthy","","null","","","","decisionFB","","<div class='trialDiv'><img src='trustrating_stim/white_mw049.bmp'><br><font class='baseline'><strong>Timothy</strong><p>Choose number of points to send.</font><div class='respPicDiv'><img src='img/responseButtonOffersNo0L2.png' class='respPic'></div></div>","null","7","Timothy","10","Shared","0.65,0.2","10","0.65","trustrating_stim/white_mw049.bmp","7.5","73","20"
"html-keyboard-response","196","316304","0.0-19.0-3.19","5bfb5784a66aa500019dabef","bdp_trlrn","Sat Apr 08 2023 10:33:23 GMT-0500 (Central Daylight Time)","551691","Untrustworthy,Trustworthy","","null","","","","feedback","","<div class='trialDiv'><img src='trustrating_stim/white_mw049.bmp'><br><font class='baseline'><strong>Timothy</strong><p>Received: <strong>8</strong></font> &nbsp; &nbsp; &nbsp; &nbsp; &nbsp; &nbsp;<font class='posOutcome'>Shared back: <strong>4</strong></font></font><div class='respPicDiv'><img src='img/responseButtonOffersNo0_wht.png' class='respPic'></div></div>","null","7","Timothy","10","Shared","0.65,0.2","10","0.65","trustrating_stim/white_mw049.bmp","7.5","77","20"
"html-keyboard-response","197","317059","0.0-19.0-1.20","5bfb5784a66aa500019dabef","bdp_trlrn","Sat Apr 08 2023 10:33:23 GMT-0500 (Central Daylight Time)","551691","Untrustworthy,Trustworthy","","754","","","","decision","","<div class='trialDiv'><img src='trustrating_stim/white_00602_940928_fb_edt.bmp'><br><font class='baseline'><strong>James</strong><p>Choose number of points to send.</font><div class='respPicDiv'><img src='img/responseButtonOffersNo0L.png' class='respPic'></div></div>","1","7","James","4","Kept","0.2,0.8","12","0.2","trustrating_stim/white_00602_940928_fb_edt.bmp","5","82","21"
"html-keyboard-response","198","317310","0.0-19.0-2.20","5bfb5784a66aa500019dabef","bdp_trlrn","Sat Apr 08 2023 10:33:23 GMT-0500 (Central Daylight Time)","551691","Untrustworthy,Trustworthy","","null","","","","decisionFB","","<div class='trialDiv'><img src='trustrating_stim/white_00602_940928_fb_edt.bmp'><br><font class='baseline'><strong>James</strong><p>Choose number of points to send.</font><div class='respPicDiv'><img src='img/responseButtonOffersNo0L1.png' class='respPic'></div></div>","null","7","James","4","Kept","0.2,0.8","12","0.2","trustrating_stim/white_00602_940928_fb_edt.bmp","5","81","21"
"html-keyboard-response","199","318310","0.0-19.0-3.20","5bfb5784a66aa500019dabef","bdp_trlrn","Sat Apr 08 2023 10:33:23 GMT-0500 (Central Daylight Time)","551691","Untrustworthy,Trustworthy","","null","","","","feedback","","<div class='trialDiv'><img src='trustrating_stim/white_00602_940928_fb_edt.bmp'><br><font class='baseline'><strong>James</strong><p>Received: <strong>4</strong></font> &nbsp; &nbsp; &nbsp; &nbsp; &nbsp; &nbsp;<font class='negOutcome'>Shared back: <strong>0</strong></font></font><div class='respPicDiv'><img src='img/responseButtonOffersNo0_wht.png' class='respPic'></div></div>","null","7","James","4","Kept","0.2,0.8","12","0.2","trustrating_stim/white_00602_940928_fb_edt.bmp","5","81","21"
"html-keyboard-response","200","318971","0.0-19.0-1.21","5bfb5784a66aa500019dabef","bdp_trlrn","Sat Apr 08 2023 10:33:23 GMT-0500 (Central Daylight Time)","551691","Untrustworthy,Trustworthy","","660","","","","decision","","<div class='trialDiv'><img src='trustrating_stim/white_mw049.bmp'><br><font class='baseline'><strong>Timothy</strong><p>Choose number of points to send.</font><div class='respPicDiv'><img src='img/responseButtonOffersNo0L.png' class='respPic'></div></div>","2","8","Timothy","10","Kept","0.65,0.2","10","0.65","trustrating_stim/white_mw049.bmp","7.5","86","22"
"html-keyboard-response","201","319223","0.0-19.0-2.21","5bfb5784a66aa500019dabef","bdp_trlrn","Sat Apr 08 2023 10:33:23 GMT-0500 (Central Daylight Time)","551691","Untrustworthy,Trustworthy","","null","","","","decisionFB","","<div class='trialDiv'><img src='trustrating_stim/white_mw049.bmp'><br><font class='baseline'><strong>Timothy</strong><p>Choose number of points to send.</font><div class='respPicDiv'><img src='img/responseButtonOffersNo0L2.png' class='respPic'></div></div>","null","8","Timothy","10","Kept","0.65,0.2","10","0.65","trustrating_stim/white_mw049.bmp","7.5","84","22"
"html-keyboard-response","202","320224","0.0-19.0-3.21","5bfb5784a66aa500019dabef","bdp_trlrn","Sat Apr 08 2023 10:33:23 GMT-0500 (Central Daylight Time)","551691","Untrustworthy,Trustworthy","","null","","","","feedback","","<div class='trialDiv'><img src='trustrating_stim/white_mw049.bmp'><br><font class='baseline'><strong>Timothy</strong><p>Received: <strong>8</strong></font> &nbsp; &nbsp; &nbsp; &nbsp; &nbsp; &nbsp;<font class='negOutcome'>Shared back: <strong>0</strong></font></font><div class='respPicDiv'><img src='img/responseButtonOffersNo0_wht.png' class='respPic'></div></div>","null","8","Timothy","10","Kept","0.65,0.2","10","0.65","trustrating_stim/white_mw049.bmp","7.5","84","22"
"html-keyboard-response","203","320843","0.0-19.0-1.22","5bfb5784a66aa500019dabef","bdp_trlrn","Sat Apr 08 2023 10:33:23 GMT-0500 (Central Daylight Time)","551691","Untrustworthy,Trustworthy","","619","","","","decision","","<div class='trialDiv'><img src='trustrating_stim/white_mw063.bmp'><br><font class='baseline'><strong>Anthony</strong><p>Choose number of points to send.</font><div class='respPicDiv'><img src='img/responseButtonOffersNo0L.png' class='respPic'></div></div>","1","8","Anthony","1","Kept","0.2,0.65","13","0.2","trustrating_stim/white_mw063.bmp","3","89","23"
"html-keyboard-response","204","321095","0.0-19.0-2.22","5bfb5784a66aa500019dabef","bdp_trlrn","Sat Apr 08 2023 10:33:23 GMT-0500 (Central Daylight Time)","551691","Untrustworthy,Trustworthy","","null","","","","decisionFB","","<div class='trialDiv'><img src='trustrating_stim/white_mw063.bmp'><br><font class='baseline'><strong>Anthony</strong><p>Choose number of points to send.</font><div class='respPicDiv'><img src='img/responseButtonOffersNo0L1.png' class='respPic'></div></div>","null","8","Anthony","1","Kept","0.2,0.65","13","0.2","trustrating_stim/white_mw063.bmp","3","88","23"
"html-keyboard-response","205","322096","0.0-19.0-3.22","5bfb5784a66aa500019dabef","bdp_trlrn","Sat Apr 08 2023 10:33:23 GMT-0500 (Central Daylight Time)","551691","Untrustworthy,Trustworthy","","null","","","","feedback","","<div class='trialDiv'><img src='trustrating_stim/white_mw063.bmp'><br><font class='baseline'><strong>Anthony</strong><p>Received: <strong>4</strong></font> &nbsp; &nbsp; &nbsp; &nbsp; &nbsp; &nbsp;<font class='negOutcome'>Shared back: <strong>0</strong></font></font><div class='respPicDiv'><img src='img/responseButtonOffersNo0_wht.png' class='respPic'></div></div>","null","8","Anthony","1","Kept","0.2,0.65","13","0.2","trustrating_stim/white_mw063.bmp","3","88","23"
"html-keyboard-response","206","322635","0.0-19.0-1.23","5bfb5784a66aa500019dabef","bdp_trlrn","Sat Apr 08 2023 10:33:23 GMT-0500 (Central Daylight Time)","551691","Untrustworthy,Trustworthy","","539","","","","decision","","<div class='trialDiv'><img src='trustrating_stim/white_00602_940928_fb_edt.bmp'><br><font class='baseline'><strong>James</strong><p>Choose number of points to send.</font><div class='respPicDiv'><img src='img/responseButtonOffersNo0L.png' class='respPic'></div></div>","1","8","James","4","Kept","0.2,0.8","12","0.2","trustrating_stim/white_00602_940928_fb_edt.bmp","5","93","24"
"html-keyboard-response","207","322886","0.0-19.0-2.23","5bfb5784a66aa500019dabef","bdp_trlrn","Sat Apr 08 2023 10:33:23 GMT-0500 (Central Daylight Time)","551691","Untrustworthy,Trustworthy","","null","","","","decisionFB","","<div class='trialDiv'><img src='trustrating_stim/white_00602_940928_fb_edt.bmp'><br><font class='baseline'><strong>James</strong><p>Choose number of points to send.</font><div class='respPicDiv'><img src='img/responseButtonOffersNo0L1.png' class='respPic'></div></div>","null","8","James","4","Kept","0.2,0.8","12","0.2","trustrating_stim/white_00602_940928_fb_edt.bmp","5","92","24"
"html-keyboard-response","208","323888","0.0-19.0-3.23","5bfb5784a66aa500019dabef","bdp_trlrn","Sat Apr 08 2023 10:33:23 GMT-0500 (Central Daylight Time)","551691","Untrustworthy,Trustworthy","","null","","","","feedback","","<div class='trialDiv'><img src='trustrating_stim/white_00602_940928_fb_edt.bmp'><br><font class='baseline'><strong>James</strong><p>Received: <strong>4</strong></font> &nbsp; &nbsp; &nbsp; &nbsp; &nbsp; &nbsp;<font class='negOutcome'>Shared back: <strong>0</strong></font></font><div class='respPicDiv'><img src='img/responseButtonOffersNo0_wht.png' class='respPic'></div></div>","null","8","James","4","Kept","0.2,0.8","12","0.2","trustrating_stim/white_00602_940928_fb_edt.bmp","5","92","24"
"html-keyboard-response","209","324571","0.0-19.0-1.24","5bfb5784a66aa500019dabef","bdp_trlrn","Sat Apr 08 2023 10:33:23 GMT-0500 (Central Daylight Time)","551691","Untrustworthy,Trustworthy","","683","","","","decision","","<div class='trialDiv'><img src='trustrating_stim/white_mw049.bmp'><br><font class='baseline'><strong>Timothy</strong><p>Choose number of points to send.</font><div class='respPicDiv'><img src='img/responseButtonOffersNo0L.png' class='respPic'></div></div>","1","9","Timothy","10","Kept","0.65,0.2","10","0.65","trustrating_stim/white_mw049.bmp","7.5","97","25"
"html-keyboard-response","210","324822","0.0-19.0-2.24","5bfb5784a66aa500019dabef","bdp_trlrn","Sat Apr 08 2023 10:33:23 GMT-0500 (Central Daylight Time)","551691","Untrustworthy,Trustworthy","","null","","","","decisionFB","","<div class='trialDiv'><img src='trustrating_stim/white_mw049.bmp'><br><font class='baseline'><strong>Timothy</strong><p>Choose number of points to send.</font><div class='respPicDiv'><img src='img/responseButtonOffersNo0L1.png' class='respPic'></div></div>","null","9","Timothy","10","Kept","0.65,0.2","10","0.65","trustrating_stim/white_mw049.bmp","7.5","96","25"
"html-keyboard-response","211","325824","0.0-19.0-3.24","5bfb5784a66aa500019dabef","bdp_trlrn","Sat Apr 08 2023 10:33:23 GMT-0500 (Central Daylight Time)","551691","Untrustworthy,Trustworthy","","null","","","","feedback","","<div class='trialDiv'><img src='trustrating_stim/white_mw049.bmp'><br><font class='baseline'><strong>Timothy</strong><p>Received: <strong>4</strong></font> &nbsp; &nbsp; &nbsp; &nbsp; &nbsp; &nbsp;<font class='negOutcome'>Shared back: <strong>0</strong></font></font><div class='respPicDiv'><img src='img/responseButtonOffersNo0_wht.png' class='respPic'></div></div>","null","9","Timothy","10","Kept","0.65,0.2","10","0.65","trustrating_stim/white_mw049.bmp","7.5","96","25"
"html-keyboard-response","212","326315","0.0-19.0-1.25","5bfb5784a66aa500019dabef","bdp_trlrn","Sat Apr 08 2023 10:33:23 GMT-0500 (Central Daylight Time)","551691","Untrustworthy,Trustworthy","","491","","","","decision","","<div class='trialDiv'><img src='trustrating_stim/white_00602_940928_fb_edt.bmp'><br><font class='baseline'><strong>James</strong><p>Choose number of points to send.</font><div class='respPicDiv'><img src='img/responseButtonOffersNo0L.png' class='respPic'></div></div>","1","9","James","4","Kept","0.2,0.8","12","0.2","trustrating_stim/white_00602_940928_fb_edt.bmp","5","101","26"
"html-keyboard-response","213","326566","0.0-19.0-2.25","5bfb5784a66aa500019dabef","bdp_trlrn","Sat Apr 08 2023 10:33:23 GMT-0500 (Central Daylight Time)","551691","Untrustworthy,Trustworthy","","null","","","","decisionFB","","<div class='trialDiv'><img src='trustrating_stim/white_00602_940928_fb_edt.bmp'><br><font class='baseline'><strong>James</strong><p>Choose number of points to send.</font><div class='respPicDiv'><img src='img/responseButtonOffersNo0L1.png' class='respPic'></div></div>","null","9","James","4","Kept","0.2,0.8","12","0.2","trustrating_stim/white_00602_940928_fb_edt.bmp","5","100","26"
"html-keyboard-response","214","327567","0.0-19.0-3.25","5bfb5784a66aa500019dabef","bdp_trlrn","Sat Apr 08 2023 10:33:23 GMT-0500 (Central Daylight Time)","551691","Untrustworthy,Trustworthy","","null","","","","feedback","","<div class='trialDiv'><img src='trustrating_stim/white_00602_940928_fb_edt.bmp'><br><font class='baseline'><strong>James</strong><p>Received: <strong>4</strong></font> &nbsp; &nbsp; &nbsp; &nbsp; &nbsp; &nbsp;<font class='negOutcome'>Shared back: <strong>0</strong></font></font><div class='respPicDiv'><img src='img/responseButtonOffersNo0_wht.png' class='respPic'></div></div>","null","9","James","4","Kept","0.2,0.8","12","0.2","trustrating_stim/white_00602_940928_fb_edt.bmp","5","100","26"
"html-keyboard-response","215","328235","0.0-19.0-1.26","5bfb5784a66aa500019dabef","bdp_trlrn","Sat Apr 08 2023 10:33:23 GMT-0500 (Central Daylight Time)","551691","Untrustworthy,Trustworthy","","667","","","","decision","","<div class='trialDiv'><img src='trustrating_stim/white_mw063.bmp'><br><font class='baseline'><strong>Anthony</strong><p>Choose number of points to send.</font><div class='respPicDiv'><img src='img/responseButtonOffersNo0L.png' class='respPic'></div></div>","2","9","Anthony","1","Kept","0.2,0.65","13","0.2","trustrating_stim/white_mw063.bmp","3","105","27"
"html-keyboard-response","216","328486","0.0-19.0-2.26","5bfb5784a66aa500019dabef","bdp_trlrn","Sat Apr 08 2023 10:33:23 GMT-0500 (Central Daylight Time)","551691","Untrustworthy,Trustworthy","","null","","","","decisionFB","","<div class='trialDiv'><img src='trustrating_stim/white_mw063.bmp'><br><font class='baseline'><strong>Anthony</strong><p>Choose number of points to send.</font><div class='respPicDiv'><img src='img/responseButtonOffersNo0L2.png' class='respPic'></div></div>","null","9","Anthony","1","Kept","0.2,0.65","13","0.2","trustrating_stim/white_mw063.bmp","3","103","27"
"html-keyboard-response","217","329487","0.0-19.0-3.26","5bfb5784a66aa500019dabef","bdp_trlrn","Sat Apr 08 2023 10:33:23 GMT-0500 (Central Daylight Time)","551691","Untrustworthy,Trustworthy","","null","","","","feedback","","<div class='trialDiv'><img src='trustrating_stim/white_mw063.bmp'><br><font class='baseline'><strong>Anthony</strong><p>Received: <strong>8</strong></font> &nbsp; &nbsp; &nbsp; &nbsp; &nbsp; &nbsp;<font class='negOutcome'>Shared back: <strong>0</strong></font></font><div class='respPicDiv'><img src='img/responseButtonOffersNo0_wht.png' class='respPic'></div></div>","null","9","Anthony","1","Kept","0.2,0.65","13","0.2","trustrating_stim/white_mw063.bmp","3","103","27"
"html-keyboard-response","218","330019","0.0-19.0-1.27","5bfb5784a66aa500019dabef","bdp_trlrn","Sat Apr 08 2023 10:33:23 GMT-0500 (Central Daylight Time)","551691","Untrustworthy,Trustworthy","","532","","","","decision","","<div class='trialDiv'><img src='trustrating_stim/white_mw049.bmp'><br><font class='baseline'><strong>Timothy</strong><p>Choose number of points to send.</font><div class='respPicDiv'><img src='img/responseButtonOffersNo0L.png' class='respPic'></div></div>","2","10","Timothy","10","Kept","0.65,0.2","10","0.65","trustrating_stim/white_mw049.bmp","7.5","108","28"
"html-keyboard-response","219","330272","0.0-19.0-2.27","5bfb5784a66aa500019dabef","bdp_trlrn","Sat Apr 08 2023 10:33:23 GMT-0500 (Central Daylight Time)","551691","Untrustworthy,Trustworthy","","null","","","","decisionFB","","<div class='trialDiv'><img src='trustrating_stim/white_mw049.bmp'><br><font class='baseline'><strong>Timothy</strong><p>Choose number of points to send.</font><div class='respPicDiv'><img src='img/responseButtonOffersNo0L2.png' class='respPic'></div></div>","null","10","Timothy","10","Kept","0.65,0.2","10","0.65","trustrating_stim/white_mw049.bmp","7.5","106","28"
"html-keyboard-response","220","331272","0.0-19.0-3.27","5bfb5784a66aa500019dabef","bdp_trlrn","Sat Apr 08 2023 10:33:23 GMT-0500 (Central Daylight Time)","551691","Untrustworthy,Trustworthy","","null","","","","feedback","","<div class='trialDiv'><img src='trustrating_stim/white_mw049.bmp'><br><font class='baseline'><strong>Timothy</strong><p>Received: <strong>8</strong></font> &nbsp; &nbsp; &nbsp; &nbsp; &nbsp; &nbsp;<font class='negOutcome'>Shared back: <strong>0</strong></font></font><div class='respPicDiv'><img src='img/responseButtonOffersNo0_wht.png' class='respPic'></div></div>","null","10","Timothy","10","Kept","0.65,0.2","10","0.65","trustrating_stim/white_mw049.bmp","7.5","106","28"
"html-keyboard-response","221","332067","0.0-19.0-1.28","5bfb5784a66aa500019dabef","bdp_trlrn","Sat Apr 08 2023 10:33:23 GMT-0500 (Central Daylight Time)","551691","Untrustworthy,Trustworthy","","794","","","","decision","","<div class='trialDiv'><img src='trustrating_stim/white_00602_940928_fb_edt.bmp'><br><font class='baseline'><strong>James</strong><p>Choose number of points to send.</font><div class='respPicDiv'><img src='img/responseButtonOffersNo0L.png' class='respPic'></div></div>","2","10","James","4","Shared","0.2,0.8","12","0.2","trustrating_stim/white_00602_940928_fb_edt.bmp","5","111","29"
