"trial_type","trial_index","time_elapsed","internal_node_id","subject_id","task","startTime","totalTime","labels","view_history","rt","event","trial","time","trialtype","success","stimulus","key_press","aground","name","faceID","outcome","agenttype","agentswpt","agentcurrpshare","face","avgRating","point_total","round"
"pavlovia","0","2","0.0-0.0","63b6cc23f13731158517f900","bdp_trlrn","Sat Apr 08 2023 10:42:56 GMT-0600 (Mountain Daylight Time)","714577","Untrustworthy,Trustworthy","","","","","","","","","","","","","","","","","","","",""
"instructions","1","5293","0.0-1.0","63b6cc23f13731158517f900","bdp_trlrn","Sat Apr 08 2023 10:42:56 GMT-0600 (Mountain Daylight Time)","714577","Untrustworthy,Trustworthy","[{""page_index"":0,""viewing_time"":5291}]","5291","","","","","","","","","","","","","","","","","",""
"","","","","63b6cc23f13731158517f900","bdp_trlrn","Sat Apr 08 2023 10:42:56 GMT-0600 (Mountain Daylight Time)","714577","Untrustworthy,Trustworthy","","","fullscreenenter","2","7571","fullscreenenter","","","","","","","","","","","","","",""
"fullscreen","2","8568","0.0-2.0","63b6cc23f13731158517f900","bdp_trlrn","Sat Apr 08 2023 10:42:56 GMT-0600 (Mountain Daylight Time)","714577","Untrustworthy,Trustworthy","","","","","","","true","","","","","","","","","","","","",""
"instructions","3","15324","0.0-4.0","63b6cc23f13731158517f900","bdp_trlrn","Sat Apr 08 2023 10:42:56 GMT-0600 (Mountain Daylight Time)","714577","Untrustworthy,Trustworthy","[{""page_index"":0,""viewing_time"":3471},{""page_index"":1,""viewing_time"":3284}]","6755","","","","","","","","","","","","","","","","","",""
"instructions","4","16161","0.0-5.0","63b6cc23f13731158517f900","bdp_trlrn","Sat Apr 08 2023 10:42:56 GMT-0600 (Mountain Daylight Time)","714577","Untrustworthy,Trustworthy","[{""page_index"":0,""viewing_time"":837}]","837","","","","","","","","","","","","","","","","","",""
"image-keyboard-response","5","19901","0.0-6.0-1.0","63b6cc23f13731158517f900","bdp_trlrn","Sat Apr 08 2023 10:42:56 GMT-0600 (Mountain Daylight Time)","714577","Untrustworthy,Trustworthy","","3626","","","","rating","","trustrating_stim/white_mw071.bmp","5","","","","","","","","","","",""
"image-keyboard-response","6","20103","0.0-6.0-2.0","63b6cc23f13731158517f900","bdp_trlrn","Sat Apr 08 2023 10:42:56 GMT-0600 (Mountain Daylight Time)","714577","Untrustworthy,Trustworthy","","null","","","","ratingFB","","trustrating_stim/white_mw071.bmp","null","","","","","","","","","","",""
"image-keyboard-response","7","21878","0.0-6.0-1.1","63b6cc23f13731158517f900","bdp_trlrn","Sat Apr 08 2023 10:42:56 GMT-0600 (Mountain Daylight Time)","714577","Untrustworthy,Trustworthy","","1666","","","","rating","","trustrating_stim/white_00785_941205_fb_edt.bmp","5","","","","","","","","","","",""
"image-keyboard-response","8","22086","0.0-6.0-2.1","63b6cc23f13731158517f900","bdp_trlrn","Sat Apr 08 2023 10:42:56 GMT-0600 (Mountain Daylight Time)","714577","Untrustworthy,Trustworthy","","null","","","","ratingFB","","trustrating_stim/white_00785_941205_fb_edt.bmp","null","","","","","","","","","","",""
"image-keyboard-response","9","25707","0.0-6.0-1.2","63b6cc23f13731158517f900","bdp_trlrn","Sat Apr 08 2023 10:42:56 GMT-0600 (Mountain Daylight Time)","714577","Untrustworthy,Trustworthy","","3512","","","","rating","","trustrating_stim/white_00757_941201_fa_edt.bmp","5","","","","","","","","","","",""
"image-keyboard-response","10","25918","0.0-6.0-2.2","63b6cc23f13731158517f900","bdp_trlrn","Sat Apr 08 2023 10:42:56 GMT-0600 (Mountain Daylight Time)","714577","Untrustworthy,Trustworthy","","null","","","","ratingFB","","trustrating_stim/white_00757_941201_fa_edt.bmp","null","","","","","","","","","","",""
"image-keyboard-response","11","30344","0.0-6.0-1.3","63b6cc23f13731158517f900","bdp_trlrn","Sat Apr 08 2023 10:42:56 GMT-0600 (Mountain Daylight Time)","714577","Untrustworthy,Trustworthy","","4318","","","","rating","","trustrating_stim/white_mw049.bmp","6","","","","","","","","","","",""
"image-keyboard-response","12","30545","0.0-6.0-2.3","63b6cc23f13731158517f900","bdp_trlrn","Sat Apr 08 2023 10:42:56 GMT-0600 (Mountain Daylight Time)","714577","Untrustworthy,Trustworthy","","null","","","","ratingFB","","trustrating_stim/white_mw049.bmp","null","","","","","","","","","","",""
"image-keyboard-response","13","33005","0.0-6.0-1.4","63b6cc23f13731158517f900","bdp_trlrn","Sat Apr 08 2023 10:42:56 GMT-0600 (Mountain Daylight Time)","714577","Untrustworthy,Trustworthy","","2359","","","","rating","","trustrating_stim/white_mw046.bmp","1","","","","","","","","","","",""
"image-keyboard-response","14","33206","0.0-6.0-2.4","63b6cc23f13731158517f900","bdp_trlrn","Sat Apr 08 2023 10:42:56 GMT-0600 (Mountain Daylight Time)","714577","Untrustworthy,Trustworthy","","null","","","","ratingFB","","trustrating_stim/white_mw046.bmp","null","","","","","","","","","","",""
"image-keyboard-response","15","38415","0.0-6.0-1.5","63b6cc23f13731158517f900","bdp_trlrn","Sat Apr 08 2023 10:42:56 GMT-0600 (Mountain Daylight Time)","714577","Untrustworthy,Trustworthy","","5108","","","","rating","","trustrating_stim/white_mw033.bmp","3","","","","","","","","","","",""
"image-keyboard-response","16","38616","0.0-6.0-2.5","63b6cc23f13731158517f900","bdp_trlrn","Sat Apr 08 2023 10:42:56 GMT-0600 (Mountain Daylight Time)","714577","Untrustworthy,Trustworthy","","null","","","","ratingFB","","trustrating_stim/white_mw033.bmp","null","","","","","","","","","","",""
"image-keyboard-response","17","42969","0.0-6.0-1.6","63b6cc23f13731158517f900","bdp_trlrn","Sat Apr 08 2023 10:42:56 GMT-0600 (Mountain Daylight Time)","714577","Untrustworthy,Trustworthy","","4250","","","","rating","","trustrating_stim/white_mw035.bmp","7","","","","","","","","","","",""
"image-keyboard-response","18","43170","0.0-6.0-2.6","63b6cc23f13731158517f900","bdp_trlrn","Sat Apr 08 2023 10:42:56 GMT-0600 (Mountain Daylight Time)","714577","Untrustworthy,Trustworthy","","null","","","","ratingFB","","trustrating_stim/white_mw035.bmp","null","","","","","","","","","","",""
"image-keyboard-response","19","44989","0.0-6.0-1.7","63b6cc23f13731158517f900","bdp_trlrn","Sat Apr 08 2023 10:42:56 GMT-0600 (Mountain Daylight Time)","714577","Untrustworthy,Trustworthy","","1717","","","","rating","","trustrating_stim/white_00129_931230_fb_edt.bmp","2","","","","","","","","","","",""
"image-keyboard-response","20","45190","0.0-6.0-2.7","63b6cc23f13731158517f900","bdp_trlrn","Sat Apr 08 2023 10:42:56 GMT-0600 (Mountain Daylight Time)","714577","Untrustworthy,Trustworthy","","null","","","","ratingFB","","trustrating_stim/white_00129_931230_fb_edt.bmp","null","","","","","","","","","","",""
"image-keyboard-response","21","47765","0.0-6.0-1.8","63b6cc23f13731158517f900","bdp_trlrn","Sat Apr 08 2023 10:42:56 GMT-0600 (Mountain Daylight Time)","714577","Untrustworthy,Trustworthy","","2474","","","","rating","","trustrating_stim/white_mw084.bmp","2","","","","","","","","","","",""
"image-keyboard-response","22","47966","0.0-6.0-2.8","63b6cc23f13731158517f900","bdp_trlrn","Sat Apr 08 2023 10:42:56 GMT-0600 (Mountain Daylight Time)","714577","Untrustworthy,Trustworthy","","null","","","","ratingFB","","trustrating_stim/white_mw084.bmp","null","","","","","","","","","","",""
"image-keyboard-response","23","50112","0.0-6.0-1.9","63b6cc23f13731158517f900","bdp_trlrn","Sat Apr 08 2023 10:42:56 GMT-0600 (Mountain Daylight Time)","714577","Untrustworthy,Trustworthy","","2045","","","","rating","","trustrating_stim/white_00519_940519_fb_edt.bmp","1","","","","","","","","","","",""
"image-keyboard-response","24","50313","0.0-6.0-2.9","63b6cc23f13731158517f900","bdp_trlrn","Sat Apr 08 2023 10:42:56 GMT-0600 (Mountain Daylight Time)","714577","Untrustworthy,Trustworthy","","null","","","","ratingFB","","trustrating_stim/white_00519_940519_fb_edt.bmp","null","","","","","","","","","","",""
"image-keyboard-response","25","53383","0.0-6.0-1.10","63b6cc23f13731158517f900","bdp_trlrn","Sat Apr 08 2023 10:42:56 GMT-0600 (Mountain Daylight Time)","714577","Untrustworthy,Trustworthy","","2969","","","","rating","","trustrating_stim/white_mw056.bmp","2","","","","","","","","","","",""
"image-keyboard-response","26","53584","0.0-6.0-2.10","63b6cc23f13731158517f900","bdp_trlrn","Sat Apr 08 2023 10:42:56 GMT-0600 (Mountain Daylight Time)","714577","Untrustworthy,Trustworthy","","null","","","","ratingFB","","trustrating_stim/white_mw056.bmp","null","","","","","","","","","","",""
"image-keyboard-response","27","58958","0.0-6.0-1.11","63b6cc23f13731158517f900","bdp_trlrn","Sat Apr 08 2023 10:42:56 GMT-0600 (Mountain Daylight Time)","714577","Untrustworthy,Trustworthy","","5272","","","","rating","","trustrating_stim/white_00807_941205_fb_edt.bmp","1","","","","","","","","","","",""
"image-keyboard-response","28","59159","0.0-6.0-2.11","63b6cc23f13731158517f900","bdp_trlrn","Sat Apr 08 2023 10:42:56 GMT-0600 (Mountain Daylight Time)","714577","Untrustworthy,Trustworthy","","null","","","","ratingFB","","trustrating_stim/white_00807_941205_fb_edt.bmp","null","","","","","","","","","","",""
"image-keyboard-response","29","61676","0.0-6.0-1.12","63b6cc23f13731158517f900","bdp_trlrn","Sat Apr 08 2023 10:42:56 GMT-0600 (Mountain Daylight Time)","714577","Untrustworthy,Trustworthy","","2415","","","","rating","","trustrating_stim/white_00120_931230_fa_edt.bmp","8","","","","","","","","","","",""
"image-keyboard-response","30","61878","0.0-6.0-2.12","63b6cc23f13731158517f900","bdp_trlrn","Sat Apr 08 2023 10:42:56 GMT-0600 (Mountain Daylight Time)","714577","Untrustworthy,Trustworthy","","null","","","","ratingFB","","trustrating_stim/white_00120_931230_fa_edt.bmp","null","","","","","","","","","","",""
"image-keyboard-response","31","66564","0.0-6.0-1.13","63b6cc23f13731158517f900","bdp_trlrn","Sat Apr 08 2023 10:42:56 GMT-0600 (Mountain Daylight Time)","714577","Untrustworthy,Trustworthy","","4585","","","","rating","","trustrating_stim/white_mw066.bmp","3","","","","","","","","","","",""
"image-keyboard-response","32","66765","0.0-6.0-2.13","63b6cc23f13731158517f900","bdp_trlrn","Sat Apr 08 2023 10:42:56 GMT-0600 (Mountain Daylight Time)","714577","Untrustworthy,Trustworthy","","null","","","","ratingFB","","trustrating_stim/white_mw066.bmp","null","","","","","","","","","","",""
"image-keyboard-response","33","69062","0.0-6.0-1.14","63b6cc23f13731158517f900","bdp_trlrn","Sat Apr 08 2023 10:42:56 GMT-0600 (Mountain Daylight Time)","714577","Untrustworthy,Trustworthy","","2196","","","","rating","","trustrating_stim/white_mw089.bmp","1","","","","","","","","","","",""
"image-keyboard-response","34","69263","0.0-6.0-2.14","63b6cc23f13731158517f900","bdp_trlrn","Sat Apr 08 2023 10:42:56 GMT-0600 (Mountain Daylight Time)","714577","Untrustworthy,Trustworthy","","null","","","","ratingFB","","trustrating_stim/white_mw089.bmp","null","","","","","","","","","","",""
"image-keyboard-response","35","71483","0.0-6.0-1.15","63b6cc23f13731158517f900","bdp_trlrn","Sat Apr 08 2023 10:42:56 GMT-0600 (Mountain Daylight Time)","714577","Untrustworthy,Trustworthy","","2115","","","","rating","","trustrating_stim/white_00577_940928_fa_edt.bmp","1","","","","","","","","","","",""
"image-keyboard-response","36","71684","0.0-6.0-2.15","63b6cc23f13731158517f900","bdp_trlrn","Sat Apr 08 2023 10:42:56 GMT-0600 (Mountain Daylight Time)","714577","Untrustworthy,Trustworthy","","null","","","","ratingFB","","trustrating_stim/white_00577_940928_fa_edt.bmp","null","","","","","","","","","","",""
"image-keyboard-response","37","77237","0.0-6.0-1.16","63b6cc23f13731158517f900","bdp_trlrn","Sat Apr 08 2023 10:42:56 GMT-0600 (Mountain Daylight Time)","714577","Untrustworthy,Trustworthy","","5452","","","","rating","","trustrating_stim/white_00659_941121_fa_edt.bmp","3","","","","","","","","","","",""
"image-keyboard-response","38","77439","0.0-6.0-2.16","63b6cc23f13731158517f900","bdp_trlrn","Sat Apr 08 2023 10:42:56 GMT-0600 (Mountain Daylight Time)","714577","Untrustworthy,Trustworthy","","null","","","","ratingFB","","trustrating_stim/white_00659_941121_fa_edt.bmp","null","","","","","","","","","","",""
"image-keyboard-response","39","78678","0.0-6.0-1.17","63b6cc23f13731158517f900","bdp_trlrn","Sat Apr 08 2023 10:42:56 GMT-0600 (Mountain Daylight Time)","714577","Untrustworthy,Trustworthy","","1137","","","","rating","","trustrating_stim/white_mw048.bmp","3","","","","","","","","","","",""
"image-keyboard-response","40","78878","0.0-6.0-2.17","63b6cc23f13731158517f900","bdp_trlrn","Sat Apr 08 2023 10:42:56 GMT-0600 (Mountain Daylight Time)","714577","Untrustworthy,Trustworthy","","null","","","","ratingFB","","trustrating_stim/white_mw048.bmp","null","","","","","","","","","","",""
"image-keyboard-response","41","80338","0.0-6.0-1.18","63b6cc23f13731158517f900","bdp_trlrn","Sat Apr 08 2023 10:42:56 GMT-0600 (Mountain Daylight Time)","714577","Untrustworthy,Trustworthy","","1356","","","","rating","","trustrating_stim/white_00223_940128_fb_edt.bmp","3","","","","","","","","","","",""
"image-keyboard-response","42","80539","0.0-6.0-2.18","63b6cc23f13731158517f900","bdp_trlrn","Sat Apr 08 2023 10:42:56 GMT-0600 (Mountain Daylight Time)","714577","Untrustworthy,Trustworthy","","null","","","","ratingFB","","trustrating_stim/white_00223_940128_fb_edt.bmp","null","","","","","","","","","","",""
"image-keyboard-response","43","83365","0.0-6.0-1.19","63b6cc23f13731158517f900","bdp_trlrn","Sat Apr 08 2023 10:42:56 GMT-0600 (Mountain Daylight Time)","714577","Untrustworthy,Trustworthy","","2725","","","","rating","","trustrating_stim/white_00602_940928_fb_edt.bmp","5","","","","","","","","","","",""
"image-keyboard-response","44","83566","0.0-6.0-2.19","63b6cc23f13731158517f900","bdp_trlrn","Sat Apr 08 2023 10:42:56 GMT-0600 (Mountain Daylight Time)","714577","Untrustworthy,Trustworthy","","null","","","","ratingFB","","trustrating_stim/white_00602_940928_fb_edt.bmp","null","","","","","","","","","","",""
"image-keyboard-response","45","88652","0.0-6.0-1.20","63b6cc23f13731158517f900","bdp_trlrn","Sat Apr 08 2023 10:42:56 GMT-0600 (Mountain Daylight Time)","714577","Untrustworthy,Trustworthy","","4985","","","","rating","","trustrating_stim/white_00898_960530_fa_edt.bmp","5","","","","","","","","","","",""
"image-keyboard-response","46","88854","0.0-6.0-2.20","63b6cc23f13731158517f900","bdp_trlrn","Sat Apr 08 2023 10:42:56 GMT-0600 (Mountain Daylight Time)","714577","Untrustworthy,Trustworthy","","null","","","","ratingFB","","trustrating_stim/white_00898_960530_fa_edt.bmp","null","","","","","","","","","","",""
"image-keyboard-response","47","92003","0.0-6.0-1.21","63b6cc23f13731158517f900","bdp_trlrn","Sat Apr 08 2023 10:42:56 GMT-0600 (Mountain Daylight Time)","714577","Untrustworthy,Trustworthy","","3046","","","","rating","","trustrating_stim/white_00340_940422_fa_edt.bmp","5","","","","","","","","","","",""
"image-keyboard-response","48","92204","0.0-6.0-2.21","63b6cc23f13731158517f900","bdp_trlrn","Sat Apr 08 2023 10:42:56 GMT-0600 (Mountain Daylight Time)","714577","Untrustworthy,Trustworthy","","null","","","","ratingFB","","trustrating_stim/white_00340_940422_fa_edt.bmp","null","","","","","","","","","","",""
"image-keyboard-response","49","94396","0.0-6.0-1.22","63b6cc23f13731158517f900","bdp_trlrn","Sat Apr 08 2023 10:42:56 GMT-0600 (Mountain Daylight Time)","714577","Untrustworthy,Trustworthy","","2091","","","","rating","","trustrating_stim/white_mw063.bmp","5","","","","","","","","","","",""
"image-keyboard-response","50","94597","0.0-6.0-2.22","63b6cc23f13731158517f900","bdp_trlrn","Sat Apr 08 2023 10:42:56 GMT-0600 (Mountain Daylight Time)","714577","Untrustworthy,Trustworthy","","null","","","","ratingFB","","trustrating_stim/white_mw063.bmp","null","","","","","","","","","","",""
"image-keyboard-response","51","95601","0.0-6.0-1.23","63b6cc23f13731158517f900","bdp_trlrn","Sat Apr 08 2023 10:42:56 GMT-0600 (Mountain Daylight Time)","714577","Untrustworthy,Trustworthy","","903","","","","rating","","trustrating_stim/white_mw097.bmp","1","","","","","","","","","","",""
"image-keyboard-response","52","95802","0.0-6.0-2.23","63b6cc23f13731158517f900","bdp_trlrn","Sat Apr 08 2023 10:42:56 GMT-0600 (Mountain Daylight Time)","714577","Untrustworthy,Trustworthy","","null","","","","ratingFB","","trustrating_stim/white_mw097.bmp","null","","","","","","","","","","",""
"image-keyboard-response","53","96816","0.0-6.0-1.24","63b6cc23f13731158517f900","bdp_trlrn","Sat Apr 08 2023 10:42:56 GMT-0600 (Mountain Daylight Time)","714577","Untrustworthy,Trustworthy","","913","","","","rating","","trustrating_stim/white_mw099.bmp","1","","","","","","","","","","",""
"image-keyboard-response","54","97017","0.0-6.0-2.24","63b6cc23f13731158517f900","bdp_trlrn","Sat Apr 08 2023 10:42:56 GMT-0600 (Mountain Daylight Time)","714577","Untrustworthy,Trustworthy","","null","","","","ratingFB","","trustrating_stim/white_mw099.bmp","null","","","","","","","","","","",""
"image-keyboard-response","55","99694","0.0-6.0-1.25","63b6cc23f13731158517f900","bdp_trlrn","Sat Apr 08 2023 10:42:56 GMT-0600 (Mountain Daylight Time)","714577","Untrustworthy,Trustworthy","","2575","","","","rating","","trustrating_stim/white_00109_931230_fa_edt.bmp","3","","","","","","","","","","",""
"image-keyboard-response","56","99895","0.0-6.0-2.25","63b6cc23f13731158517f900","bdp_trlrn","Sat Apr 08 2023 10:42:56 GMT-0600 (Mountain Daylight Time)","714577","Untrustworthy,Trustworthy","","null","","","","ratingFB","","trustrating_stim/white_00109_931230_fa_edt.bmp","null","","","","","","","","","","",""
"image-keyboard-response","57","103217","0.0-6.0-1.26","63b6cc23f13731158517f900","bdp_trlrn","Sat Apr 08 2023 10:42:56 GMT-0600 (Mountain Daylight Time)","714577","Untrustworthy,Trustworthy","","3208","","","","rating","","trustrating_stim/white_00299_940422_fa_edt.bmp","5","","","","","","","","","","",""
"image-keyboard-response","58","103418","0.0-6.0-2.26","63b6cc23f13731158517f900","bdp_trlrn","Sat Apr 08 2023 10:42:56 GMT-0600 (Mountain Daylight Time)","714577","Untrustworthy,Trustworthy","","null","","","","ratingFB","","trustrating_stim/white_00299_940422_fa_edt.bmp","null","","","","","","","","","","",""
"image-keyboard-response","59","105170","0.0-6.0-1.27","63b6cc23f13731158517f900","bdp_trlrn","Sat Apr 08 2023 10:42:56 GMT-0600 (Mountain Daylight Time)","714577","Untrustworthy,Trustworthy","","1651","","","","rating","","trustrating_stim/white_mw053.bmp","3","","","","","","","","","","",""
"image-keyboard-response","60","105372","0.0-6.0-2.27","63b6cc23f13731158517f900","bdp_trlrn","Sat Apr 08 2023 10:42:56 GMT-0600 (Mountain Daylight Time)","714577","Untrustworthy,Trustworthy","","null","","","","ratingFB","","trustrating_stim/white_mw053.bmp","null","","","","","","","","","","",""
"image-keyboard-response","61","107849","0.0-6.0-1.28","63b6cc23f13731158517f900","bdp_trlrn","Sat Apr 08 2023 10:42:56 GMT-0600 (Mountain Daylight Time)","714577","Untrustworthy,Trustworthy","","2375","","","","rating","","trustrating_stim/white_mw060.bmp","3","","","","","","","","","","",""
"image-keyboard-response","62","108049","0.0-6.0-2.28","63b6cc23f13731158517f900","bdp_trlrn","Sat Apr 08 2023 10:42:56 GMT-0600 (Mountain Daylight Time)","714577","Untrustworthy,Trustworthy","","null","","","","ratingFB","","trustrating_stim/white_mw060.bmp","null","","","","","","","","","","",""
"image-keyboard-response","63","110259","0.0-6.0-1.29","63b6cc23f13731158517f900","bdp_trlrn","Sat Apr 08 2023 10:42:56 GMT-0600 (Mountain Daylight Time)","714577","Untrustworthy,Trustworthy","","2109","","","","rating","","trustrating_stim/white_00761_941201_fb_edt.bmp","1","","","","","","","","","","",""
"image-keyboard-response","64","110461","0.0-6.0-2.29","63b6cc23f13731158517f900","bdp_trlrn","Sat Apr 08 2023 10:42:56 GMT-0600 (Mountain Daylight Time)","714577","Untrustworthy,Trustworthy","","null","","","","ratingFB","","trustrating_stim/white_00761_941201_fb_edt.bmp","null","","","","","","","","","","",""
"image-keyboard-response","65","113258","0.0-6.0-1.30","63b6cc23f13731158517f900","bdp_trlrn","Sat Apr 08 2023 10:42:56 GMT-0600 (Mountain Daylight Time)","714577","Untrustworthy,Trustworthy","","2696","","","","rating","","trustrating_stim/white_mw046.bmp","1","","","","","","","","","","",""
"image-keyboard-response","66","113459","0.0-6.0-2.30","63b6cc23f13731158517f900","bdp_trlrn","Sat Apr 08 2023 10:42:56 GMT-0600 (Mountain Daylight Time)","714577","Untrustworthy,Trustworthy","","null","","","","ratingFB","","trustrating_stim/white_mw046.bmp","null","","","","","","","","","","",""
"image-keyboard-response","67","119641","0.0-6.0-1.31","63b6cc23f13731158517f900","bdp_trlrn","Sat Apr 08 2023 10:42:56 GMT-0600 (Mountain Daylight Time)","714577","Untrustworthy,Trustworthy","","6080","","","","rating","","trustrating_stim/white_00577_940928_fa_edt.bmp","1","","","","","","","","","","",""
"image-keyboard-response","68","119842","0.0-6.0-2.31","63b6cc23f13731158517f900","bdp_trlrn","Sat Apr 08 2023 10:42:56 GMT-0600 (Mountain Daylight Time)","714577","Untrustworthy,Trustworthy","","null","","","","ratingFB","","trustrating_stim/white_00577_940928_fa_edt.bmp","null","","","","","","","","","","",""
"image-keyboard-response","69","130317","0.0-6.0-1.32","63b6cc23f13731158517f900","bdp_trlrn","Sat Apr 08 2023 10:42:56 GMT-0600 (Mountain Daylight Time)","714577","Untrustworthy,Trustworthy","","10373","","","","rating","","trustrating_stim/white_mw033.bmp","3","","","","","","","","","","",""
"image-keyboard-response","70","130518","0.0-6.0-2.32","63b6cc23f13731158517f900","bdp_trlrn","Sat Apr 08 2023 10:42:56 GMT-0600 (Mountain Daylight Time)","714577","Untrustworthy,Trustworthy","","null","","","","ratingFB","","trustrating_stim/white_mw033.bmp","null","","","","","","","","","","",""
"image-keyboard-response","71","131931","0.0-6.0-1.33","63b6cc23f13731158517f900","bdp_trlrn","Sat Apr 08 2023 10:42:56 GMT-0600 (Mountain Daylight Time)","714577","Untrustworthy,Trustworthy","","1311","","","","rating","","trustrating_stim/white_mw035.bmp","3","","","","","","","","","","",""
"image-keyboard-response","72","132132","0.0-6.0-2.33","63b6cc23f13731158517f900","bdp_trlrn","Sat Apr 08 2023 10:42:56 GMT-0600 (Mountain Daylight Time)","714577","Untrustworthy,Trustworthy","","null","","","","ratingFB","","trustrating_stim/white_mw035.bmp","null","","","","","","","","","","",""
"image-keyboard-response","73","135309","0.0-6.0-1.34","63b6cc23f13731158517f900","bdp_trlrn","Sat Apr 08 2023 10:42:56 GMT-0600 (Mountain Daylight Time)","714577","Untrustworthy,Trustworthy","","3076","","","","rating","","trustrating_stim/white_mw063.bmp","3","","","","","","","","","","",""
"image-keyboard-response","74","135511","0.0-6.0-2.34","63b6cc23f13731158517f900","bdp_trlrn","Sat Apr 08 2023 10:42:56 GMT-0600 (Mountain Daylight Time)","714577","Untrustworthy,Trustworthy","","null","","","","ratingFB","","trustrating_stim/white_mw063.bmp","null","","","","","","","","","","",""
"image-keyboard-response","75","138431","0.0-6.0-1.35","63b6cc23f13731158517f900","bdp_trlrn","Sat Apr 08 2023 10:42:56 GMT-0600 (Mountain Daylight Time)","714577","Untrustworthy,Trustworthy","","2818","","","","rating","","trustrating_stim/white_00898_960530_fa_edt.bmp","3","","","","","","","","","","",""
"image-keyboard-response","76","138632","0.0-6.0-2.35","63b6cc23f13731158517f900","bdp_trlrn","Sat Apr 08 2023 10:42:56 GMT-0600 (Mountain Daylight Time)","714577","Untrustworthy,Trustworthy","","null","","","","ratingFB","","trustrating_stim/white_00898_960530_fa_edt.bmp","null","","","","","","","","","","",""
"image-keyboard-response","77","142994","0.0-6.0-1.36","63b6cc23f13731158517f900","bdp_trlrn","Sat Apr 08 2023 10:42:56 GMT-0600 (Mountain Daylight Time)","714577","Untrustworthy,Trustworthy","","4261","","","","rating","","trustrating_stim/white_00129_931230_fb_edt.bmp","3","","","","","","","","","","",""
"image-keyboard-response","78","143196","0.0-6.0-2.36","63b6cc23f13731158517f900","bdp_trlrn","Sat Apr 08 2023 10:42:56 GMT-0600 (Mountain Daylight Time)","714577","Untrustworthy,Trustworthy","","null","","","","ratingFB","","trustrating_stim/white_00129_931230_fb_edt.bmp","null","","","","","","","","","","",""
"image-keyboard-response","79","146289","0.0-6.0-1.37","63b6cc23f13731158517f900","bdp_trlrn","Sat Apr 08 2023 10:42:56 GMT-0600 (Mountain Daylight Time)","714577","Untrustworthy,Trustworthy","","2992","","","","rating","","trustrating_stim/white_00785_941205_fb_edt.bmp","5","","","","","","","","","","",""
"image-keyboard-response","80","146490","0.0-6.0-2.37","63b6cc23f13731158517f900","bdp_trlrn","Sat Apr 08 2023 10:42:56 GMT-0600 (Mountain Daylight Time)","714577","Untrustworthy,Trustworthy","","null","","","","ratingFB","","trustrating_stim/white_00785_941205_fb_edt.bmp","null","","","","","","","","","","",""
"image-keyboard-response","81","147609","0.0-6.0-1.38","63b6cc23f13731158517f900","bdp_trlrn","Sat Apr 08 2023 10:42:56 GMT-0600 (Mountain Daylight Time)","714577","Untrustworthy,Trustworthy","","1018","","","","rating","","trustrating_stim/white_00761_941201_fb_edt.bmp","1","","","","","","","","","","",""
"image-keyboard-response","82","147811","0.0-6.0-2.38","63b6cc23f13731158517f900","bdp_trlrn","Sat Apr 08 2023 10:42:56 GMT-0600 (Mountain Daylight Time)","714577","Untrustworthy,Trustworthy","","null","","","","ratingFB","","trustrating_stim/white_00761_941201_fb_edt.bmp","null","","","","","","","","","","",""
"image-keyboard-response","83","148819","0.0-6.0-1.39","63b6cc23f13731158517f900","bdp_trlrn","Sat Apr 08 2023 10:42:56 GMT-0600 (Mountain Daylight Time)","714577","Untrustworthy,Trustworthy","","907","","","","rating","","trustrating_stim/white_mw089.bmp","1","","","","","","","","","","",""
"image-keyboard-response","84","149020","0.0-6.0-2.39","63b6cc23f13731158517f900","bdp_trlrn","Sat Apr 08 2023 10:42:56 GMT-0600 (Mountain Daylight Time)","714577","Untrustworthy,Trustworthy","","null","","","","ratingFB","","trustrating_stim/white_mw089.bmp","null","","","","","","","","","","",""
"image-keyboard-response","85","152909","0.0-6.0-1.40","63b6cc23f13731158517f900","bdp_trlrn","Sat Apr 08 2023 10:42:56 GMT-0600 (Mountain Daylight Time)","714577","Untrustworthy,Trustworthy","","3788","","","","rating","","trustrating_stim/white_mw048.bmp","3","","","","","","","","","","",""
"image-keyboard-response","86","153111","0.0-6.0-2.40","63b6cc23f13731158517f900","bdp_trlrn","Sat Apr 08 2023 10:42:56 GMT-0600 (Mountain Daylight Time)","714577","Untrustworthy,Trustworthy","","null","","","","ratingFB","","trustrating_stim/white_mw048.bmp","null","","","","","","","","","","",""
"image-keyboard-response","87","154291","0.0-6.0-1.41","63b6cc23f13731158517f900","bdp_trlrn","Sat Apr 08 2023 10:42:56 GMT-0600 (Mountain Daylight Time)","714577","Untrustworthy,Trustworthy","","1079","","","","rating","","trustrating_stim/white_00519_940519_fb_edt.bmp","1","","","","","","","","","","",""
"image-keyboard-response","88","154492","0.0-6.0-2.41","63b6cc23f13731158517f900","bdp_trlrn","Sat Apr 08 2023 10:42:56 GMT-0600 (Mountain Daylight Time)","714577","Untrustworthy,Trustworthy","","null","","","","ratingFB","","trustrating_stim/white_00519_940519_fb_edt.bmp","null","","","","","","","","","","",""
"image-keyboard-response","89","157037","0.0-6.0-1.42","63b6cc23f13731158517f900","bdp_trlrn","Sat Apr 08 2023 10:42:56 GMT-0600 (Mountain Daylight Time)","714577","Untrustworthy,Trustworthy","","2443","","","","rating","","trustrating_stim/white_00223_940128_fb_edt.bmp","3","","","","","","","","","","",""
"image-keyboard-response","90","157238","0.0-6.0-2.42","63b6cc23f13731158517f900","bdp_trlrn","Sat Apr 08 2023 10:42:56 GMT-0600 (Mountain Daylight Time)","714577","Untrustworthy,Trustworthy","","null","","","","ratingFB","","trustrating_stim/white_00223_940128_fb_edt.bmp","null","","","","","","","","","","",""
"image-keyboard-response","91","159063","0.0-6.0-1.43","63b6cc23f13731158517f900","bdp_trlrn","Sat Apr 08 2023 10:42:56 GMT-0600 (Mountain Daylight Time)","714577","Untrustworthy,Trustworthy","","1724","","","","rating","","trustrating_stim/white_00602_940928_fb_edt.bmp","3","","","","","","","","","","",""
"image-keyboard-response","92","159264","0.0-6.0-2.43","63b6cc23f13731158517f900","bdp_trlrn","Sat Apr 08 2023 10:42:56 GMT-0600 (Mountain Daylight Time)","714577","Untrustworthy,Trustworthy","","null","","","","ratingFB","","trustrating_stim/white_00602_940928_fb_edt.bmp","null","","","","","","","","","","",""
"image-keyboard-response","93","160441","0.0-6.0-1.44","63b6cc23f13731158517f900","bdp_trlrn","Sat Apr 08 2023 10:42:56 GMT-0600 (Mountain Daylight Time)","714577","Untrustworthy,Trustworthy","","1076","","","","rating","","trustrating_stim/white_mw053.bmp","1","","","","","","","","","","",""
"image-keyboard-response","94","160642","0.0-6.0-2.44","63b6cc23f13731158517f900","bdp_trlrn","Sat Apr 08 2023 10:42:56 GMT-0600 (Mountain Daylight Time)","714577","Untrustworthy,Trustworthy","","null","","","","ratingFB","","trustrating_stim/white_mw053.bmp","null","","","","","","","","","","",""
"image-keyboard-response","95","162595","0.0-6.0-1.45","63b6cc23f13731158517f900","bdp_trlrn","Sat Apr 08 2023 10:42:56 GMT-0600 (Mountain Daylight Time)","714577","Untrustworthy,Trustworthy","","1851","","","","rating","","trustrating_stim/white_00109_931230_fa_edt.bmp","3","","","","","","","","","","",""
"image-keyboard-response","96","162796","0.0-6.0-2.45","63b6cc23f13731158517f900","bdp_trlrn","Sat Apr 08 2023 10:42:56 GMT-0600 (Mountain Daylight Time)","714577","Untrustworthy,Trustworthy","","null","","","","ratingFB","","trustrating_stim/white_00109_931230_fa_edt.bmp","null","","","","","","","","","","",""
"image-keyboard-response","97","167653","0.0-6.0-1.46","63b6cc23f13731158517f900","bdp_trlrn","Sat Apr 08 2023 10:42:56 GMT-0600 (Mountain Daylight Time)","714577","Untrustworthy,Trustworthy","","4756","","","","rating","","trustrating_stim/white_mw060.bmp","3","","","","","","","","","","",""
"image-keyboard-response","98","167855","0.0-6.0-2.46","63b6cc23f13731158517f900","bdp_trlrn","Sat Apr 08 2023 10:42:56 GMT-0600 (Mountain Daylight Time)","714577","Untrustworthy,Trustworthy","","null","","","","ratingFB","","trustrating_stim/white_mw060.bmp","null","","","","","","","","","","",""
"image-keyboard-response","99","169214","0.0-6.0-1.47","63b6cc23f13731158517f900","bdp_trlrn","Sat Apr 08 2023 10:42:56 GMT-0600 (Mountain Daylight Time)","714577","Untrustworthy,Trustworthy","","1257","","","","rating","","trustrating_stim/white_00757_941201_fa_edt.bmp","3","","","","","","","","","","",""
"image-keyboard-response","100","169415","0.0-6.0-2.47","63b6cc23f13731158517f900","bdp_trlrn","Sat Apr 08 2023 10:42:56 GMT-0600 (Mountain Daylight Time)","714577","Untrustworthy,Trustworthy","","null","","","","ratingFB","","trustrating_stim/white_00757_941201_fa_edt.bmp","null","","","","","","","","","","",""
"image-keyboard-response","101","171693","0.0-6.0-1.48","63b6cc23f13731158517f900","bdp_trlrn","Sat Apr 08 2023 10:42:56 GMT-0600 (Mountain Daylight Time)","714577","Untrustworthy,Trustworthy","","2177","","","","rating","","trustrating_stim/white_00807_941205_fb_edt.bmp","3","","","","","","","","","","",""
"image-keyboard-response","102","171894","0.0-6.0-2.48","63b6cc23f13731158517f900","bdp_trlrn","Sat Apr 08 2023 10:42:56 GMT-0600 (Mountain Daylight Time)","714577","Untrustworthy,Trustworthy","","null","","","","ratingFB","","trustrating_stim/white_00807_941205_fb_edt.bmp","null","","","","","","","","","","",""
"image-keyboard-response","103","174255","0.0-6.0-1.49","63b6cc23f13731158517f900","bdp_trlrn","Sat Apr 08 2023 10:42:56 GMT-0600 (Mountain Daylight Time)","714577","Untrustworthy,Trustworthy","","2260","","","","rating","","trustrating_stim/white_mw056.bmp","3","","","","","","","","","","",""
"image-keyboard-response","104","174456","0.0-6.0-2.49","63b6cc23f13731158517f900","bdp_trlrn","Sat Apr 08 2023 10:42:56 GMT-0600 (Mountain Daylight Time)","714577","Untrustworthy,Trustworthy","","null","","","","ratingFB","","trustrating_stim/white_mw056.bmp","null","","","","","","","","","","",""
"image-keyboard-response","105","177015","0.0-6.0-1.50","63b6cc23f13731158517f900","bdp_trlrn","Sat Apr 08 2023 10:42:56 GMT-0600 (Mountain Daylight Time)","714577","Untrustworthy,Trustworthy","","2447","","","","rating","","trustrating_stim/white_mw066.bmp","3","","","","","","","","","","",""
"image-keyboard-response","106","177216","0.0-6.0-2.50","63b6cc23f13731158517f900","bdp_trlrn","Sat Apr 08 2023 10:42:56 GMT-0600 (Mountain Daylight Time)","714577","Untrustworthy,Trustworthy","","null","","","","ratingFB","","trustrating_stim/white_mw066.bmp","null","","","","","","","","","","",""
"image-keyboard-response","107","178378","0.0-6.0-1.51","63b6cc23f13731158517f900","bdp_trlrn","Sat Apr 08 2023 10:42:56 GMT-0600 (Mountain Daylight Time)","714577","Untrustworthy,Trustworthy","","1060","","","","rating","","trustrating_stim/white_00299_940422_fa_edt.bmp","3","","","","","","","","","","",""
"image-keyboard-response","108","178580","0.0-6.0-2.51","63b6cc23f13731158517f900","bdp_trlrn","Sat Apr 08 2023 10:42:56 GMT-0600 (Mountain Daylight Time)","714577","Untrustworthy,Trustworthy","","null","","","","ratingFB","","trustrating_stim/white_00299_940422_fa_edt.bmp","null","","","","","","","","","","",""
"image-keyboard-response","109","183475","0.0-6.0-1.52","63b6cc23f13731158517f900","bdp_trlrn","Sat Apr 08 2023 10:42:56 GMT-0600 (Mountain Daylight Time)","714577","Untrustworthy,Trustworthy","","4794","","","","rating","","trustrating_stim/white_00120_931230_fa_edt.bmp","3","","","","","","","","","","",""
"image-keyboard-response","110","183677","0.0-6.0-2.52","63b6cc23f13731158517f900","bdp_trlrn","Sat Apr 08 2023 10:42:56 GMT-0600 (Mountain Daylight Time)","714577","Untrustworthy,Trustworthy","","null","","","","ratingFB","","trustrating_stim/white_00120_931230_fa_edt.bmp","null","","","","","","","","","","",""
"image-keyboard-response","111","184775","0.0-6.0-1.53","63b6cc23f13731158517f900","bdp_trlrn","Sat Apr 08 2023 10:42:56 GMT-0600 (Mountain Daylight Time)","714577","Untrustworthy,Trustworthy","","996","","","","rating","","trustrating_stim/white_mw097.bmp","1","","","","","","","","","","",""
"image-keyboard-response","112","184976","0.0-6.0-2.53","63b6cc23f13731158517f900","bdp_trlrn","Sat Apr 08 2023 10:42:56 GMT-0600 (Mountain Daylight Time)","714577","Untrustworthy,Trustworthy","","null","","","","ratingFB","","trustrating_stim/white_mw097.bmp","null","","","","","","","","","","",""
"image-keyboard-response","113","189064","0.0-6.0-1.54","63b6cc23f13731158517f900","bdp_trlrn","Sat Apr 08 2023 10:42:56 GMT-0600 (Mountain Daylight Time)","714577","Untrustworthy,Trustworthy","","3987","","","","rating","","trustrating_stim/white_00659_941121_fa_edt.bmp","3","","","","","","","","","","",""
"image-keyboard-response","114","189265","0.0-6.0-2.54","63b6cc23f13731158517f900","bdp_trlrn","Sat Apr 08 2023 10:42:56 GMT-0600 (Mountain Daylight Time)","714577","Untrustworthy,Trustworthy","","null","","","","ratingFB","","trustrating_stim/white_00659_941121_fa_edt.bmp","null","","","","","","","","","","",""
"image-keyboard-response","115","191092","0.0-6.0-1.55","63b6cc23f13731158517f900","bdp_trlrn","Sat Apr 08 2023 10:42:56 GMT-0600 (Mountain Daylight Time)","714577","Untrustworthy,Trustworthy","","1726","","","","rating","","trustrating_stim/white_mw084.bmp","3","","","","","","","","","","",""
"image-keyboard-response","116","191293","0.0-6.0-2.55","63b6cc23f13731158517f900","bdp_trlrn","Sat Apr 08 2023 10:42:56 GMT-0600 (Mountain Daylight Time)","714577","Untrustworthy,Trustworthy","","null","","","","ratingFB","","trustrating_stim/white_mw084.bmp","null","","","","","","","","","","",""
"image-keyboard-response","117","192497","0.0-6.0-1.56","63b6cc23f13731158517f900","bdp_trlrn","Sat Apr 08 2023 10:42:56 GMT-0600 (Mountain Daylight Time)","714577","Untrustworthy,Trustworthy","","1103","","","","rating","","trustrating_stim/white_00340_940422_fa_edt.bmp","1","","","","","","","","","","",""
"image-keyboard-response","118","192698","0.0-6.0-2.56","63b6cc23f13731158517f900","bdp_trlrn","Sat Apr 08 2023 10:42:56 GMT-0600 (Mountain Daylight Time)","714577","Untrustworthy,Trustworthy","","null","","","","ratingFB","","trustrating_stim/white_00340_940422_fa_edt.bmp","null","","","","","","","","","","",""
"image-keyboard-response","119","195495","0.0-6.0-1.57","63b6cc23f13731158517f900","bdp_trlrn","Sat Apr 08 2023 10:42:56 GMT-0600 (Mountain Daylight Time)","714577","Untrustworthy,Trustworthy","","2695","","","","rating","","trustrating_stim/white_mw071.bmp","1","","","","","","","","","","",""
"image-keyboard-response","120","195696","0.0-6.0-2.57","63b6cc23f13731158517f900","bdp_trlrn","Sat Apr 08 2023 10:42:56 GMT-0600 (Mountain Daylight Time)","714577","Untrustworthy,Trustworthy","","null","","","","ratingFB","","trustrating_stim/white_mw071.bmp","null","","","","","","","","","","",""
"image-keyboard-response","121","199481","0.0-6.0-1.58","63b6cc23f13731158517f900","bdp_trlrn","Sat Apr 08 2023 10:42:56 GMT-0600 (Mountain Daylight Time)","714577","Untrustworthy,Trustworthy","","3683","","","","rating","","trustrating_stim/white_mw099.bmp","1","","","","","","","","","","",""
"image-keyboard-response","122","199682","0.0-6.0-2.58","63b6cc23f13731158517f900","bdp_trlrn","Sat Apr 08 2023 10:42:56 GMT-0600 (Mountain Daylight Time)","714577","Untrustworthy,Trustworthy","","null","","","","ratingFB","","trustrating_stim/white_mw099.bmp","null","","","","","","","","","","",""
"image-keyboard-response","123","205393","0.0-6.0-1.59","63b6cc23f13731158517f900","bdp_trlrn","Sat Apr 08 2023 10:42:56 GMT-0600 (Mountain Daylight Time)","714577","Untrustworthy,Trustworthy","","5609","","","","rating","","trustrating_stim/white_mw049.bmp","6","","","","","","","","","","",""
"image-keyboard-response","124","205594","0.0-6.0-2.59","63b6cc23f13731158517f900","bdp_trlrn","Sat Apr 08 2023 10:42:56 GMT-0600 (Mountain Daylight Time)","714577","Untrustworthy,Trustworthy","","null","","","","ratingFB","","trustrating_stim/white_mw049.bmp","null","","","","","","","","","","",""
"instructions","125","206889","0.0-7.0","63b6cc23f13731158517f900","bdp_trlrn","Sat Apr 08 2023 10:42:56 GMT-0600 (Mountain Daylight Time)","714577","Untrustworthy,Trustworthy","[{""page_index"":0,""viewing_time"":1194}]","1194","","","","","","","","","","","","","","","","","",""
"instructions","126","271329","0.0-8.0","63b6cc23f13731158517f900","bdp_trlrn","Sat Apr 08 2023 10:42:56 GMT-0600 (Mountain Daylight Time)","714577","Untrustworthy,Trustworthy","[{""page_index"":0,""viewing_time"":3464},{""page_index"":1,""viewing_time"":10458},{""page_index"":2,""viewing_time"":13091},{""page_index"":3,""viewing_time"":7253},{""page_index"":4,""viewing_time"":15515},{""page_index"":5,""viewing_time"":3423},{""page_index"":6,""viewing_time"":8930},{""page_index"":7,""viewing_time"":2205}]","64339","","","","","","","","","","","","","","","","","",""
"html-keyboard-response","127","276189","0.0-9.0","63b6cc23f13731158517f900","bdp_trlrn","Sat Apr 08 2023 10:42:56 GMT-0600 (Mountain Daylight Time)","714577","Untrustworthy,Trustworthy","","4858","","","","","","<div class='header' style='text-align:left; position: absolute; top: 5%; left: 5%;'><small>Task 3 of 5</small></div><div class='instruxDiv'><p><strong>1) What is the minimum number of points you can choose to send to your partner?</strong></p><p>a) 0</p><p>b) 1</p><p>c) 5</p>","B","","","","","","","","","","",""
"html-keyboard-response","128","277515","0.0-10.0","63b6cc23f13731158517f900","bdp_trlrn","Sat Apr 08 2023 10:42:56 GMT-0600 (Mountain Daylight Time)","714577","Untrustworthy,Trustworthy","","1225","","","","","","<div class='header' style='text-align:left; position: absolute; top: 5%; left: 5%;'><small>Task 3 of 5</small></div><div class='instruxDiv'><p><strong>1) What is the minimum number of points you can choose to send to your partner?</strong></p><p>a) 0</p><p style='color:#00FF00'>b) 1</p><p>c) 5</p><h3 style='color:#00FF00'>Correct!</h3><h3 class='center-content'>The correct response is b).</h3><h3 class='center-content'>The minimum number of points you can choose to send to your partner is 1 point.</h3><p><em>Press SPACEBAR to continue</em></p></div>"," ","","","","","","","","","","",""
"html-keyboard-response","129","279263","0.0-11.0","63b6cc23f13731158517f900","bdp_trlrn","Sat Apr 08 2023 10:42:56 GMT-0600 (Mountain Daylight Time)","714577","Untrustworthy,Trustworthy","","1648","","","","","","<div class='header' style='text-align:left; position: absolute; top: 5%; left: 5%;'><small>Task 3 of 5</small></div><div class='instruxDiv'><p><strong>2) What is the maximum number of points you can choose to send to your partner?</strong></p><p>a) 8</p><p>b) 5</p><p>c) 3</p>","B","","","","","","","","","","",""
"html-keyboard-response","130","280092","0.0-12.0","63b6cc23f13731158517f900","bdp_trlrn","Sat Apr 08 2023 10:42:56 GMT-0600 (Mountain Daylight Time)","714577","Untrustworthy,Trustworthy","","728","","","","","","<div class='header' style='text-align:left; position: absolute; top: 5%; left: 5%;'><small>Task 3 of 5</small></div><div class='instruxDiv'><p><strong>2) What is the maximum number of points you can choose to send to your partner?</strong></p><p>a) 8</p><p style='color:#00FF00'>b) 5</p><p>c) 3</p><h3 style='color:#00FF00'>Correct!</h3><h3 class='center-content'>The correct response is b).</h3><h3 class='center-content'>The maximum number of points you can choose to send to your partner is 5 points.</h3><p><em>Press SPACEBAR to continue</em></p></div>"," ","","","","","","","","","","",""
"html-keyboard-response","131","283024","0.0-13.0","63b6cc23f13731158517f900","bdp_trlrn","Sat Apr 08 2023 10:42:56 GMT-0600 (Mountain Daylight Time)","714577","Untrustworthy,Trustworthy","","2831","","","","","","<div class='header' style='text-align:left; position: absolute; top: 5%; left: 5%;'><small>Task 3 of 5</small></div><div class='instruxDiv'><p><strong>3) What happens to the amount of points you send to your partner?</strong></p><p>a) Nothing</p><p>b) It doubles</p><p>c) It quadruples</p>","C","","","","","","","","","","",""
"html-keyboard-response","132","284092","0.0-14.0","63b6cc23f13731158517f900","bdp_trlrn","Sat Apr 08 2023 10:42:56 GMT-0600 (Mountain Daylight Time)","714577","Untrustworthy,Trustworthy","","968","","","","","","<div class='header' style='text-align:left; position: absolute; top: 5%; left: 5%;'><small>Task 3 of 5</small></div><div class='instruxDiv'><p><strong>3) What happens to the amount of points you send to your partner?</strong></p><p>a) Nothing</p><p>b) It doubles</p><p style='color:#00FF00'>c) It quadruples</p><h3 style='color:#00FF00'>Correct!</h3><h3 class='center-content'>The correct response is c).</h3><h3 class='center-content'>The amount of points you send to your partner quadruples.</h3><p><em>Press SPACEBAR to continue</em></p></div>"," ","","","","","","","","","","",""
"html-keyboard-response","133","291604","0.0-15.0","63b6cc23f13731158517f900","bdp_trlrn","Sat Apr 08 2023 10:42:56 GMT-0600 (Mountain Daylight Time)","714577","Untrustworthy,Trustworthy","","7411","","","","","","<div class='header' style='text-align:left; position: absolute; top: 5%; left: 5%;'><small>Task 3 of 5</small></div><div class='instruxDiv'><p><strong>4) If you decided to share 4 out of 5 points with your partner, and they decided to share half of the amount they received with you, how many points would you receive back from them on this round?</strong></p><p>a) 16</p><p>b) 0</p><p>c) 8</p>","C","","","","","","","","","","",""
"html-keyboard-response","134","292743","0.0-16.0","63b6cc23f13731158517f900","bdp_trlrn","Sat Apr 08 2023 10:42:56 GMT-0600 (Mountain Daylight Time)","714577","Untrustworthy,Trustworthy","","1036","","","","","","<div class='header' style='text-align:left; position: absolute; top: 5%; left: 5%;'><small>Task 3 of 5</small></div><div class='instruxDiv'><p><strong>4) If you decided to share 4 out of 5 points with your partner, and they decided to share half of the amount they received with you, how many points would you receive back from them on this round?</strong></p><p>a) 16</p><p>b) 0</p><p style='color:#00FF00'>c) 8</p><h3 style='color:#00FF00'>Correct!</h3><h3 class='center-content'>The correct response is c).</h3><h3 class='center-content'>If you shared 4 out of 5 points with your partner and they decided to share half of the amount they received with you, you would receive 8 points back (i.e. (4 x 4)/2 = 8).</h3><p><em>Press SPACEBAR to continue</em></p></div>"," ","","","","","","","","","","",""
"html-keyboard-response","135","297844","0.0-17.0","63b6cc23f13731158517f900","bdp_trlrn","Sat Apr 08 2023 10:42:56 GMT-0600 (Mountain Daylight Time)","714577","Untrustworthy,Trustworthy","","null","","","","","","<div class='header' style='text-align:left; position: absolute; top: 5%; left: 5%;'><small>Task 3 of 5</small></div><div class='instruxDiv'><p>Thank you for completing the quiz<p>These are the actual partners you will be interacting with in the next block:<p><div class='tc' align='center'><img class='introPic' src='trustrating_stim/white_mw097.bmp'><br><strong>Brian</strong></div><div class='bl' align='center'><img class='introPic' src='trustrating_stim/white_00659_941121_fa_edt.bmp'><br><strong>James</strong></div><div class='br' align='center'><img class='introPic' src='trustrating_stim/white_00120_931230_fa_edt.bmp'><br><strong>David</strong></div></div><p>Across <strong>66 rounds</strong> you will interact with each partner <strong>22 times</strong> (in random order).<p style='align:center; color:white'><font <em>Press SPACEBAR to continue</em></p>","null","","","","","","","","","","",""
"instructions","136","303432","0.0-18.0","63b6cc23f13731158517f900","bdp_trlrn","Sat Apr 08 2023 10:42:56 GMT-0600 (Mountain Daylight Time)","714577","Untrustworthy,Trustworthy","[{""page_index"":0,""viewing_time"":3664},{""page_index"":1,""viewing_time"":1923}]","5587","","","","","","","","","","","","","","","","","",""
"html-keyboard-response","137","308439","0.0-19.0-1.0","63b6cc23f13731158517f900","bdp_trlrn","Sat Apr 08 2023 10:42:56 GMT-0600 (Mountain Daylight Time)","714577","Untrustworthy,Trustworthy","","4905","","","","decision","","<div class='trialDiv'><img src='trustrating_stim/white_00120_931230_fa_edt.bmp'><br><font class='baseline'><strong>David</strong><p>Choose number of points to send.</font><div class='respPicDiv'><img src='img/responseButtonOffersNo0L.png' class='respPic'></div></div>","4","1","David","10","Kept","0.65,0.2","8","0.65","trustrating_stim/white_00120_931230_fa_edt.bmp","5.5","5","1"
"html-keyboard-response","138","308690","0.0-19.0-2.0","63b6cc23f13731158517f900","bdp_trlrn","Sat Apr 08 2023 10:42:56 GMT-0600 (Mountain Daylight Time)","714577","Untrustworthy,Trustworthy","","null","","","","decisionFB","","<div class='trialDiv'><img src='trustrating_stim/white_00120_931230_fa_edt.bmp'><br><font class='baseline'><strong>David</strong><p>Choose number of points to send.</font><div class='respPicDiv'><img src='img/responseButtonOffersNo0L4.png' class='respPic'></div></div>","null","1","David","10","Kept","0.65,0.2","8","0.65","trustrating_stim/white_00120_931230_fa_edt.bmp","5.5","1","1"
"html-keyboard-response","139","309692","0.0-19.0-3.0","63b6cc23f13731158517f900","bdp_trlrn","Sat Apr 08 2023 10:42:56 GMT-0600 (Mountain Daylight Time)","714577","Untrustworthy,Trustworthy","","null","","","","feedback","","<div class='trialDiv'><img src='trustrating_stim/white_00120_931230_fa_edt.bmp'><br><font class='baseline'><strong>David</strong><p>Received: <strong>16</strong></font> &nbsp; &nbsp; &nbsp; &nbsp; &nbsp; &nbsp;<font class='negOutcome'>Shared back: <strong>0</strong></font></font><div class='respPicDiv'><img src='img/responseButtonOffersNo0_wht.png' class='respPic'></div></div>","null","1","David","10","Kept","0.65,0.2","8","0.65","trustrating_stim/white_00120_931230_fa_edt.bmp","5.5","1","1"
"html-keyboard-response","140","311695","0.0-19.0-1.1","63b6cc23f13731158517f900","bdp_trlrn","Sat Apr 08 2023 10:42:56 GMT-0600 (Mountain Daylight Time)","714577","Untrustworthy,Trustworthy","","2003","","","","decision","","<div class='trialDiv'><img src='trustrating_stim/white_mw097.bmp'><br><font class='baseline'><strong>Brian</strong><p>Choose number of points to send.</font><div class='respPicDiv'><img src='img/responseButtonOffersNo0L.png' class='respPic'></div></div>","4","1","Brian","1","Shared","0.35,0.8","14","0.35","trustrating_stim/white_mw097.bmp","1","6","2"
"html-keyboard-response","141","311946","0.0-19.0-2.1","63b6cc23f13731158517f900","bdp_trlrn","Sat Apr 08 2023 10:42:56 GMT-0600 (Mountain Daylight Time)","714577","Untrustworthy,Trustworthy","","null","","","","decisionFB","","<div class='trialDiv'><img src='trustrating_stim/white_mw097.bmp'><br><font class='baseline'><strong>Brian</strong><p>Choose number of points to send.</font><div class='respPicDiv'><img src='img/responseButtonOffersNo0L4.png' class='respPic'></div></div>","null","1","Brian","1","Shared","0.35,0.8","14","0.35","trustrating_stim/white_mw097.bmp","1","2","2"
"html-keyboard-response","142","312948","0.0-19.0-3.1","63b6cc23f13731158517f900","bdp_trlrn","Sat Apr 08 2023 10:42:56 GMT-0600 (Mountain Daylight Time)","714577","Untrustworthy,Trustworthy","","null","","","","feedback","","<div class='trialDiv'><img src='trustrating_stim/white_mw097.bmp'><br><font class='baseline'><strong>Brian</strong><p>Received: <strong>16</strong></font> &nbsp; &nbsp; &nbsp; &nbsp; &nbsp; &nbsp;<font class='posOutcome'>Shared back: <strong>8</strong></font></font><div class='respPicDiv'><img src='img/responseButtonOffersNo0_wht.png' class='respPic'></div></div>","null","1","Brian","1","Shared","0.35,0.8","14","0.35","trustrating_stim/white_mw097.bmp","1","10","2"
"html-keyboard-response","143","314254","0.0-19.0-1.2","63b6cc23f13731158517f900","bdp_trlrn","Sat Apr 08 2023 10:42:56 GMT-0600 (Mountain Daylight Time)","714577","Untrustworthy,Trustworthy","","1306","","","","decision","","<div class='trialDiv'><img src='trustrating_stim/white_00659_941121_fa_edt.bmp'><br><font class='baseline'><strong>James</strong><p>Choose number of points to send.</font><div class='respPicDiv'><img src='img/responseButtonOffersNo0L.png' class='respPic'></div></div>","4","1","James","7","Kept","0.2,0.8","11","0.2","trustrating_stim/white_00659_941121_fa_edt.bmp","3","15","3"
"html-keyboard-response","144","314505","0.0-19.0-2.2","63b6cc23f13731158517f900","bdp_trlrn","Sat Apr 08 2023 10:42:56 GMT-0600 (Mountain Daylight Time)","714577","Untrustworthy,Trustworthy","","null","","","","decisionFB","","<div class='trialDiv'><img src='trustrating_stim/white_00659_941121_fa_edt.bmp'><br><font class='baseline'><strong>James</strong><p>Choose number of points to send.</font><div class='respPicDiv'><img src='img/responseButtonOffersNo0L4.png' class='respPic'></div></div>","null","1","James","7","Kept","0.2,0.8","11","0.2","trustrating_stim/white_00659_941121_fa_edt.bmp","3","11","3"
"html-keyboard-response","145","315506","0.0-19.0-3.2","63b6cc23f13731158517f900","bdp_trlrn","Sat Apr 08 2023 10:42:56 GMT-0600 (Mountain Daylight Time)","714577","Untrustworthy,Trustworthy","","null","","","","feedback","","<div class='trialDiv'><img src='trustrating_stim/white_00659_941121_fa_edt.bmp'><br><font class='baseline'><strong>James</strong><p>Received: <strong>16</strong></font> &nbsp; &nbsp; &nbsp; &nbsp; &nbsp; &nbsp;<font class='negOutcome'>Shared back: <strong>0</strong></font></font><div class='respPicDiv'><img src='img/responseButtonOffersNo0_wht.png' class='respPic'></div></div>","null","1","James","7","Kept","0.2,0.8","11","0.2","trustrating_stim/white_00659_941121_fa_edt.bmp","3","11","3"
"html-keyboard-response","146","319424","0.0-19.0-1.3","63b6cc23f13731158517f900","bdp_trlrn","Sat Apr 08 2023 10:42:56 GMT-0600 (Mountain Daylight Time)","714577","Untrustworthy,Trustworthy","","3917","","","","decision","","<div class='trialDiv'><img src='trustrating_stim/white_mw097.bmp'><br><font class='baseline'><strong>Brian</strong><p>Choose number of points to send.</font><div class='respPicDiv'><img src='img/responseButtonOffersNo0L.png' class='respPic'></div></div>","5","2","Brian","1","Kept","0.35,0.8","14","0.35","trustrating_stim/white_mw097.bmp","1","16","4"
"html-keyboard-response","147","319675","0.0-19.0-2.3","63b6cc23f13731158517f900","bdp_trlrn","Sat Apr 08 2023 10:42:56 GMT-0600 (Mountain Daylight Time)","714577","Untrustworthy,Trustworthy","","null","","","","decisionFB","","<div class='trialDiv'><img src='trustrating_stim/white_mw097.bmp'><br><font class='baseline'><strong>Brian</strong><p>Choose number of points to send.</font><div class='respPicDiv'><img src='img/responseButtonOffersNo0L5.png' class='respPic'></div></div>","null","2","Brian","1","Kept","0.35,0.8","14","0.35","trustrating_stim/white_mw097.bmp","1","11","4"
"html-keyboard-response","148","320676","0.0-19.0-3.3","63b6cc23f13731158517f900","bdp_trlrn","Sat Apr 08 2023 10:42:56 GMT-0600 (Mountain Daylight Time)","714577","Untrustworthy,Trustworthy","","null","","","","feedback","","<div class='trialDiv'><img src='trustrating_stim/white_mw097.bmp'><br><font class='baseline'><strong>Brian</strong><p>Received: <strong>20</strong></font> &nbsp; &nbsp; &nbsp; &nbsp; &nbsp; &nbsp;<font class='negOutcome'>Shared back: <strong>0</strong></font></font><div class='respPicDiv'><img src='img/responseButtonOffersNo0_wht.png' class='respPic'></div></div>","null","2","Brian","1","Kept","0.35,0.8","14","0.35","trustrating_stim/white_mw097.bmp","1","11","4"
"html-keyboard-response","149","321951","0.0-19.0-1.4","63b6cc23f13731158517f900","bdp_trlrn","Sat Apr 08 2023 10:42:56 GMT-0600 (Mountain Daylight Time)","714577","Untrustworthy,Trustworthy","","1273","","","","decision","","<div class='trialDiv'><img src='trustrating_stim/white_00659_941121_fa_edt.bmp'><br><font class='baseline'><strong>James</strong><p>Choose number of points to send.</font><div class='respPicDiv'><img src='img/responseButtonOffersNo0L.png' class='respPic'></div></div>","1","2","James","7","Kept","0.2,0.8","11","0.2","trustrating_stim/white_00659_941121_fa_edt.bmp","3","16","5"
"html-keyboard-response","150","322203","0.0-19.0-2.4","63b6cc23f13731158517f900","bdp_trlrn","Sat Apr 08 2023 10:42:56 GMT-0600 (Mountain Daylight Time)","714577","Untrustworthy,Trustworthy","","null","","","","decisionFB","","<div class='trialDiv'><img src='trustrating_stim/white_00659_941121_fa_edt.bmp'><br><font class='baseline'><strong>James</strong><p>Choose number of points to send.</font><div class='respPicDiv'><img src='img/responseButtonOffersNo0L1.png' class='respPic'></div></div>","null","2","James","7","Kept","0.2,0.8","11","0.2","trustrating_stim/white_00659_941121_fa_edt.bmp","3","15","5"
"html-keyboard-response","151","323204","0.0-19.0-3.4","63b6cc23f13731158517f900","bdp_trlrn","Sat Apr 08 2023 10:42:56 GMT-0600 (Mountain Daylight Time)","714577","Untrustworthy,Trustworthy","","null","","","","feedback","","<div class='trialDiv'><img src='trustrating_stim/white_00659_941121_fa_edt.bmp'><br><font class='baseline'><strong>James</strong><p>Received: <strong>4</strong></font> &nbsp; &nbsp; &nbsp; &nbsp; &nbsp; &nbsp;<font class='negOutcome'>Shared back: <strong>0</strong></font></font><div class='respPicDiv'><img src='img/responseButtonOffersNo0_wht.png' class='respPic'></div></div>","null","2","James","7","Kept","0.2,0.8","11","0.2","trustrating_stim/white_00659_941121_fa_edt.bmp","3","15","5"
"html-keyboard-response","152","324391","0.0-19.0-1.5","63b6cc23f13731158517f900","bdp_trlrn","Sat Apr 08 2023 10:42:56 GMT-0600 (Mountain Daylight Time)","714577","Untrustworthy,Trustworthy","","1185","","","","decision","","<div class='trialDiv'><img src='trustrating_stim/white_00120_931230_fa_edt.bmp'><br><font class='baseline'><strong>David</strong><p>Choose number of points to send.</font><div class='respPicDiv'><img src='img/responseButtonOffersNo0L.png' class='respPic'></div></div>","1","2","David","10","Kept","0.65,0.2","8","0.65","trustrating_stim/white_00120_931230_fa_edt.bmp","5.5","20","6"
"html-keyboard-response","153","324641","0.0-19.0-2.5","63b6cc23f13731158517f900","bdp_trlrn","Sat Apr 08 2023 10:42:56 GMT-0600 (Mountain Daylight Time)","714577","Untrustworthy,Trustworthy","","null","","","","decisionFB","","<div class='trialDiv'><img src='trustrating_stim/white_00120_931230_fa_edt.bmp'><br><font class='baseline'><strong>David</strong><p>Choose number of points to send.</font><div class='respPicDiv'><img src='img/responseButtonOffersNo0L1.png' class='respPic'></div></div>","null","2","David","10","Kept","0.65,0.2","8","0.65","trustrating_stim/white_00120_931230_fa_edt.bmp","5.5","19","6"
"html-keyboard-response","154","325643","0.0-19.0-3.5","63b6cc23f13731158517f900","bdp_trlrn","Sat Apr 08 2023 10:42:56 GMT-0600 (Mountain Daylight Time)","714577","Untrustworthy,Trustworthy","","null","","","","feedback","","<div class='trialDiv'><img src='trustrating_stim/white_00120_931230_fa_edt.bmp'><br><font class='baseline'><strong>David</strong><p>Received: <strong>4</strong></font> &nbsp; &nbsp; &nbsp; &nbsp; &nbsp; &nbsp;<font class='negOutcome'>Shared back: <strong>0</strong></font></font><div class='respPicDiv'><img src='img/responseButtonOffersNo0_wht.png' class='respPic'></div></div>","null","2","David","10","Kept","0.65,0.2","8","0.65","trustrating_stim/white_00120_931230_fa_edt.bmp","5.5","19","6"
"html-keyboard-response","155","328228","0.0-19.0-1.6","63b6cc23f13731158517f900","bdp_trlrn","Sat Apr 08 2023 10:42:56 GMT-0600 (Mountain Daylight Time)","714577","Untrustworthy,Trustworthy","","2585","","","","decision","","<div class='trialDiv'><img src='trustrating_stim/white_mw097.bmp'><br><font class='baseline'><strong>Brian</strong><p>Choose number of points to send.</font><div class='respPicDiv'><img src='img/responseButtonOffersNo0L.png' class='respPic'></div></div>","1","3","Brian","1","Shared","0.35,0.8","14","0.35","trustrating_stim/white_mw097.bmp","1","24","7"
"html-keyboard-response","156","328479","0.0-19.0-2.6","63b6cc23f13731158517f900","bdp_trlrn","Sat Apr 08 2023 10:42:56 GMT-0600 (Mountain Daylight Time)","714577","Untrustworthy,Trustworthy","","null","","","","decisionFB","","<div class='trialDiv'><img src='trustrating_stim/white_mw097.bmp'><br><font class='baseline'><strong>Brian</strong><p>Choose number of points to send.</font><div class='respPicDiv'><img src='img/responseButtonOffersNo0L1.png' class='respPic'></div></div>","null","3","Brian","1","Shared","0.35,0.8","14","0.35","trustrating_stim/white_mw097.bmp","1","23","7"
"html-keyboard-response","157","329480","0.0-19.0-3.6","63b6cc23f13731158517f900","bdp_trlrn","Sat Apr 08 2023 10:42:56 GMT-0600 (Mountain Daylight Time)","714577","Untrustworthy,Trustworthy","","null","","","","feedback","","<div class='trialDiv'><img src='trustrating_stim/white_mw097.bmp'><br><font class='baseline'><strong>Brian</strong><p>Received: <strong>4</strong></font> &nbsp; &nbsp; &nbsp; &nbsp; &nbsp; &nbsp;<font class='posOutcome'>Shared back: <strong>2</strong></font></font><div class='respPicDiv'><img src='img/responseButtonOffersNo0_wht.png' class='respPic'></div></div>","null","3","Brian","1","Shared","0.35,0.8","14","0.35","trustrating_stim/white_mw097.bmp","1","25","7"
"html-keyboard-response","158","330620","0.0-19.0-1.7","63b6cc23f13731158517f900","bdp_trlrn","Sat Apr 08 2023 10:42:56 GMT-0600 (Mountain Daylight Time)","714577","Untrustworthy,Trustworthy","","1140","","","","decision","","<div class='trialDiv'><img src='trustrating_stim/white_00659_941121_fa_edt.bmp'><br><font class='baseline'><strong>James</strong><p>Choose number of points to send.</font><div class='respPicDiv'><img src='img/responseButtonOffersNo0L.png' class='respPic'></div></div>","1","3","James","7","Kept","0.2,0.8","11","0.2","trustrating_stim/white_00659_941121_fa_edt.bmp","3","30","8"
"html-keyboard-response","159","330871","0.0-19.0-2.7","63b6cc23f13731158517f900","bdp_trlrn","Sat Apr 08 2023 10:42:56 GMT-0600 (Mountain Daylight Time)","714577","Untrustworthy,Trustworthy","","null","","","","decisionFB","","<div class='trialDiv'><img src='trustrating_stim/white_00659_941121_fa_edt.bmp'><br><font class='baseline'><strong>James</strong><p>Choose number of points to send.</font><div class='respPicDiv'><img src='img/responseButtonOffersNo0L1.png' class='respPic'></div></div>","null","3","James","7","Kept","0.2,0.8","11","0.2","trustrating_stim/white_00659_941121_fa_edt.bmp","3","29","8"
"html-keyboard-response","160","331872","0.0-19.0-3.7","63b6cc23f13731158517f900","bdp_trlrn","Sat Apr 08 2023 10:42:56 GMT-0600 (Mountain Daylight Time)","714577","Untrustworthy,Trustworthy","","null","","","","feedback","","<div class='trialDiv'><img src='trustrating_stim/white_00659_941121_fa_edt.bmp'><br><font class='baseline'><strong>James</strong><p>Received: <strong>4</strong></font> &nbsp; &nbsp; &nbsp; &nbsp; &nbsp; &nbsp;<font class='negOutcome'>Shared back: <strong>0</strong></font></font><div class='respPicDiv'><img src='img/responseButtonOffersNo0_wht.png' class='respPic'></div></div>","null","3","James","7","Kept","0.2,0.8","11","0.2","trustrating_stim/white_00659_941121_fa_edt.bmp","3","29","8"
"html-keyboard-response","161","332293","0.0-19.0-1.8","63b6cc23f13731158517f900","bdp_trlrn","Sat Apr 08 2023 10:42:56 GMT-0600 (Mountain Daylight Time)","714577","Untrustworthy,Trustworthy","","420","","","","decision","","<div class='trialDiv'><img src='trustrating_stim/white_00120_931230_fa_edt.bmp'><br><font class='baseline'><strong>David</strong><p>Choose number of points to send.</font><div class='respPicDiv'><img src='img/responseButtonOffersNo0L.png' class='respPic'></div></div>","1","3","David","10","Shared","0.65,0.2","8","0.65","trustrating_stim/white_00120_931230_fa_edt.bmp","5.5","34","9"
"html-keyboard-response","162","332545","0.0-19.0-2.8","63b6cc23f13731158517f900","bdp_trlrn","Sat Apr 08 2023 10:42:56 GMT-0600 (Mountain Daylight Time)","714577","Untrustworthy,Trustworthy","","null","","","","decisionFB","","<div class='trialDiv'><img src='trustrating_stim/white_00120_931230_fa_edt.bmp'><br><font class='baseline'><strong>David</strong><p>Choose number of points to send.</font><div class='respPicDiv'><img src='img/responseButtonOffersNo0L1.png' class='respPic'></div></div>","null","3","David","10","Shared","0.65,0.2","8","0.65","trustrating_stim/white_00120_931230_fa_edt.bmp","5.5","33","9"
"html-keyboard-response","163","333546","0.0-19.0-3.8","63b6cc23f13731158517f900","bdp_trlrn","Sat Apr 08 2023 10:42:56 GMT-0600 (Mountain Daylight Time)","714577","Untrustworthy,Trustworthy","","null","","","","feedback","","<div class='trialDiv'><img src='trustrating_stim/white_00120_931230_fa_edt.bmp'><br><font class='baseline'><strong>David</strong><p>Received: <strong>4</strong></font> &nbsp; &nbsp; &nbsp; &nbsp; &nbsp; &nbsp;<font class='posOutcome'>Shared back: <strong>2</strong></font></font><div class='respPicDiv'><img src='img/responseButtonOffersNo0_wht.png' class='respPic'></div></div>","null","3","David","10","Shared","0.65,0.2","8","0.65","trustrating_stim/white_00120_931230_fa_edt.bmp","5.5","35","9"
"html-keyboard-response","164","334851","0.0-19.0-1.9","63b6cc23f13731158517f900","bdp_trlrn","Sat Apr 08 2023 10:42:56 GMT-0600 (Mountain Daylight Time)","714577","Untrustworthy,Trustworthy","","1304","","","","decision","","<div class='trialDiv'><img src='trustrating_stim/white_mw097.bmp'><br><font class='baseline'><strong>Brian</strong><p>Choose number of points to send.</font><div class='respPicDiv'><img src='img/responseButtonOffersNo0L.png' class='respPic'></div></div>","5","4","Brian","1","Kept","0.35,0.8","14","0.35","trustrating_stim/white_mw097.bmp","1","40","10"
"html-keyboard-response","165","335102","0.0-19.0-2.9","63b6cc23f13731158517f900","bdp_trlrn","Sat Apr 08 2023 10:42:56 GMT-0600 (Mountain Daylight Time)","714577","Untrustworthy,Trustworthy","","null","","","","decisionFB","","<div class='trialDiv'><img src='trustrating_stim/white_mw097.bmp'><br><font class='baseline'><strong>Brian</strong><p>Choose number of points to send.</font><div class='respPicDiv'><img src='img/responseButtonOffersNo0L5.png' class='respPic'></div></div>","null","4","Brian","1","Kept","0.35,0.8","14","0.35","trustrating_stim/white_mw097.bmp","1","35","10"
"html-keyboard-response","166","336103","0.0-19.0-3.9","63b6cc23f13731158517f900","bdp_trlrn","Sat Apr 08 2023 10:42:56 GMT-0600 (Mountain Daylight Time)","714577","Untrustworthy,Trustworthy","","null","","","","feedback","","<div class='trialDiv'><img src='trustrating_stim/white_mw097.bmp'><br><font class='baseline'><strong>Brian</strong><p>Received: <strong>20</strong></font> &nbsp; &nbsp; &nbsp; &nbsp; &nbsp; &nbsp;<font class='negOutcome'>Shared back: <strong>0</strong></font></font><div class='respPicDiv'><img src='img/responseButtonOffersNo0_wht.png' class='respPic'></div></div>","null","4","Brian","1","Kept","0.35,0.8","14","0.35","trustrating_stim/white_mw097.bmp","1","35","10"
"html-keyboard-response","167","340118","0.0-19.0-1.10","63b6cc23f13731158517f900","bdp_trlrn","Sat Apr 08 2023 10:42:56 GMT-0600 (Mountain Daylight Time)","714577","Untrustworthy,Trustworthy","","4015","","","","decision","","<div class='trialDiv'><img src='trustrating_stim/white_00659_941121_fa_edt.bmp'><br><font class='baseline'><strong>James</strong><p>Choose number of points to send.</font><div class='respPicDiv'><img src='img/responseButtonOffersNo0L.png' class='respPic'></div></div>","1","4","James","7","Shared","0.2,0.8","11","0.2","trustrating_stim/white_00659_941121_fa_edt.bmp","3","40","11"
"html-keyboard-response","168","340369","0.0-19.0-2.10","63b6cc23f13731158517f900","bdp_trlrn","Sat Apr 08 2023 10:42:56 GMT-0600 (Mountain Daylight Time)","714577","Untrustworthy,Trustworthy","","null","","","","decisionFB","","<div class='trialDiv'><img src='trustrating_stim/white_00659_941121_fa_edt.bmp'><br><font class='baseline'><strong>James</strong><p>Choose number of points to send.</font><div class='respPicDiv'><img src='img/responseButtonOffersNo0L1.png' class='respPic'></div></div>","null","4","James","7","Shared","0.2,0.8","11","0.2","trustrating_stim/white_00659_941121_fa_edt.bmp","3","39","11"
"html-keyboard-response","169","341371","0.0-19.0-3.10","63b6cc23f13731158517f900","bdp_trlrn","Sat Apr 08 2023 10:42:56 GMT-0600 (Mountain Daylight Time)","714577","Untrustworthy,Trustworthy","","null","","","","feedback","","<div class='trialDiv'><img src='trustrating_stim/white_00659_941121_fa_edt.bmp'><br><font class='baseline'><strong>James</strong><p>Received: <strong>4</strong></font> &nbsp; &nbsp; &nbsp; &nbsp; &nbsp; &nbsp;<font class='posOutcome'>Shared back: <strong>2</strong></font></font><div class='respPicDiv'><img src='img/responseButtonOffersNo0_wht.png' class='respPic'></div></div>","null","4","James","7","Shared","0.2,0.8","11","0.2","trustrating_stim/white_00659_941121_fa_edt.bmp","3","41","11"
"html-keyboard-response","170","344841","0.0-19.0-1.11","63b6cc23f13731158517f900","bdp_trlrn","Sat Apr 08 2023 10:42:56 GMT-0600 (Mountain Daylight Time)","714577","Untrustworthy,Trustworthy","","3470","","","","decision","","<div class='trialDiv'><img src='trustrating_stim/white_00120_931230_fa_edt.bmp'><br><font class='baseline'><strong>David</strong><p>Choose number of points to send.</font><div class='respPicDiv'><img src='img/responseButtonOffersNo0L.png' class='respPic'></div></div>","1","4","David","10","Shared","0.65,0.2","8","0.65","trustrating_stim/white_00120_931230_fa_edt.bmp","5.5","46","12"
"html-keyboard-response","171","345092","0.0-19.0-2.11","63b6cc23f13731158517f900","bdp_trlrn","Sat Apr 08 2023 10:42:56 GMT-0600 (Mountain Daylight Time)","714577","Untrustworthy,Trustworthy","","null","","","","decisionFB","","<div class='trialDiv'><img src='trustrating_stim/white_00120_931230_fa_edt.bmp'><br><font class='baseline'><strong>David</strong><p>Choose number of points to send.</font><div class='respPicDiv'><img src='img/responseButtonOffersNo0L1.png' class='respPic'></div></div>","null","4","David","10","Shared","0.65,0.2","8","0.65","trustrating_stim/white_00120_931230_fa_edt.bmp","5.5","45","12"
"html-keyboard-response","172","346093","0.0-19.0-3.11","63b6cc23f13731158517f900","bdp_trlrn","Sat Apr 08 2023 10:42:56 GMT-0600 (Mountain Daylight Time)","714577","Untrustworthy,Trustworthy","","null","","","","feedback","","<div class='trialDiv'><img src='trustrating_stim/white_00120_931230_fa_edt.bmp'><br><font class='baseline'><strong>David</strong><p>Received: <strong>4</strong></font> &nbsp; &nbsp; &nbsp; &nbsp; &nbsp; &nbsp;<font class='posOutcome'>Shared back: <strong>2</strong></font></font><div class='respPicDiv'><img src='img/responseButtonOffersNo0_wht.png' class='respPic'></div></div>","null","4","David","10","Shared","0.65,0.2","8","0.65","trustrating_stim/white_00120_931230_fa_edt.bmp","5.5","47","12"
"html-keyboard-response","173","346798","0.0-19.0-1.12","63b6cc23f13731158517f900","bdp_trlrn","Sat Apr 08 2023 10:42:56 GMT-0600 (Mountain Daylight Time)","714577","Untrustworthy,Trustworthy","","705","","","","decision","","<div class='trialDiv'><img src='trustrating_stim/white_mw097.bmp'><br><font class='baseline'><strong>Brian</strong><p>Choose number of points to send.</font><div class='respPicDiv'><img src='img/responseButtonOffersNo0L.png' class='respPic'></div></div>","1","5","Brian","1","Kept","0.35,0.8","14","0.35","trustrating_stim/white_mw097.bmp","1","52","13"
"html-keyboard-response","174","347050","0.0-19.0-2.12","63b6cc23f13731158517f900","bdp_trlrn","Sat Apr 08 2023 10:42:56 GMT-0600 (Mountain Daylight Time)","714577","Untrustworthy,Trustworthy","","null","","","","decisionFB","","<div class='trialDiv'><img src='trustrating_stim/white_mw097.bmp'><br><font class='baseline'><strong>Brian</strong><p>Choose number of points to send.</font><div class='respPicDiv'><img src='img/responseButtonOffersNo0L1.png' class='respPic'></div></div>","null","5","Brian","1","Kept","0.35,0.8","14","0.35","trustrating_stim/white_mw097.bmp","1","51","13"
"html-keyboard-response","175","348051","0.0-19.0-3.12","63b6cc23f13731158517f900","bdp_trlrn","Sat Apr 08 2023 10:42:56 GMT-0600 (Mountain Daylight Time)","714577","Untrustworthy,Trustworthy","","null","","","","feedback","","<div class='trialDiv'><img src='trustrating_stim/white_mw097.bmp'><br><font class='baseline'><strong>Brian</strong><p>Received: <strong>4</strong></font> &nbsp; &nbsp; &nbsp; &nbsp; &nbsp; &nbsp;<font class='negOutcome'>Shared back: <strong>0</strong></font></font><div class='respPicDiv'><img src='img/responseButtonOffersNo0_wht.png' class='respPic'></div></div>","null","5","Brian","1","Kept","0.35,0.8","14","0.35","trustrating_stim/white_mw097.bmp","1","51","13"
"html-keyboard-response","176","349881","0.0-19.0-1.13","63b6cc23f13731158517f900","bdp_trlrn","Sat Apr 08 2023 10:42:56 GMT-0600 (Mountain Daylight Time)","714577","Untrustworthy,Trustworthy","","1830","","","","decision","","<div class='trialDiv'><img src='trustrating_stim/white_00120_931230_fa_edt.bmp'><br><font class='baseline'><strong>David</strong><p>Choose number of points to send.</font><div class='respPicDiv'><img src='img/responseButtonOffersNo0L.png' class='respPic'></div></div>","5","5","David","10","Shared","0.65,0.2","8","0.65","trustrating_stim/white_00120_931230_fa_edt.bmp","5.5","56","14"
"html-keyboard-response","177","350132","0.0-19.0-2.13","63b6cc23f13731158517f900","bdp_trlrn","Sat Apr 08 2023 10:42:56 GMT-0600 (Mountain Daylight Time)","714577","Untrustworthy,Trustworthy","","null","","","","decisionFB","","<div class='trialDiv'><img src='trustrating_stim/white_00120_931230_fa_edt.bmp'><br><font class='baseline'><strong>David</strong><p>Choose number of points to send.</font><div class='respPicDiv'><img src='img/responseButtonOffersNo0L5.png' class='respPic'></div></div>","null","5","David","10","Shared","0.65,0.2","8","0.65","trustrating_stim/white_00120_931230_fa_edt.bmp","5.5","51","14"
"html-keyboard-response","178","351134","0.0-19.0-3.13","63b6cc23f13731158517f900","bdp_trlrn","Sat Apr 08 2023 10:42:56 GMT-0600 (Mountain Daylight Time)","714577","Untrustworthy,Trustworthy","","null","","","","feedback","","<div class='trialDiv'><img src='trustrating_stim/white_00120_931230_fa_edt.bmp'><br><font class='baseline'><strong>David</strong><p>Received: <strong>20</strong></font> &nbsp; &nbsp; &nbsp; &nbsp; &nbsp; &nbsp;<font class='posOutcome'>Shared back: <strong>10</strong></font></font><div class='respPicDiv'><img src='img/responseButtonOffersNo0_wht.png' class='respPic'></div></div>","null","5","David","10","Shared","0.65,0.2","8","0.65","trustrating_stim/white_00120_931230_fa_edt.bmp","5.5","61","14"
"html-keyboard-response","179","352562","0.0-19.0-1.14","63b6cc23f13731158517f900","bdp_trlrn","Sat Apr 08 2023 10:42:56 GMT-0600 (Mountain Daylight Time)","714577","Untrustworthy,Trustworthy","","1427","","","","decision","","<div class='trialDiv'><img src='trustrating_stim/white_00659_941121_fa_edt.bmp'><br><font class='baseline'><strong>James</strong><p>Choose number of points to send.</font><div class='respPicDiv'><img src='img/responseButtonOffersNo0L.png' class='respPic'></div></div>","5","5","James","7","Kept","0.2,0.8","11","0.2","trustrating_stim/white_00659_941121_fa_edt.bmp","3","66","15"
"html-keyboard-response","180","352814","0.0-19.0-2.14","63b6cc23f13731158517f900","bdp_trlrn","Sat Apr 08 2023 10:42:56 GMT-0600 (Mountain Daylight Time)","714577","Untrustworthy,Trustworthy","","null","","","","decisionFB","","<div class='trialDiv'><img src='trustrating_stim/white_00659_941121_fa_edt.bmp'><br><font class='baseline'><strong>James</strong><p>Choose number of points to send.</font><div class='respPicDiv'><img src='img/responseButtonOffersNo0L5.png' class='respPic'></div></div>","null","5","James","7","Kept","0.2,0.8","11","0.2","trustrating_stim/white_00659_941121_fa_edt.bmp","3","61","15"
"html-keyboard-response","181","353816","0.0-19.0-3.14","63b6cc23f13731158517f900","bdp_trlrn","Sat Apr 08 2023 10:42:56 GMT-0600 (Mountain Daylight Time)","714577","Untrustworthy,Trustworthy","","null","","","","feedback","","<div class='trialDiv'><img src='trustrating_stim/white_00659_941121_fa_edt.bmp'><br><font class='baseline'><strong>James</strong><p>Received: <strong>20</strong></font> &nbsp; &nbsp; &nbsp; &nbsp; &nbsp; &nbsp;<font class='negOutcome'>Shared back: <strong>0</strong></font></font><div class='respPicDiv'><img src='img/responseButtonOffersNo0_wht.png' class='respPic'></div></div>","null","5","James","7","Kept","0.2,0.8","11","0.2","trustrating_stim/white_00659_941121_fa_edt.bmp","3","61","15"
"html-keyboard-response","182","355206","0.0-19.0-1.15","63b6cc23f13731158517f900","bdp_trlrn","Sat Apr 08 2023 10:42:56 GMT-0600 (Mountain Daylight Time)","714577","Untrustworthy,Trustworthy","","1390","","","","decision","","<div class='trialDiv'><img src='trustrating_stim/white_mw097.bmp'><br><font class='baseline'><strong>Brian</strong><p>Choose number of points to send.</font><div class='respPicDiv'><img src='img/responseButtonOffersNo0L.png' class='respPic'></div></div>","1","6","Brian","1","Kept","0.35,0.8","14","0.35","trustrating_stim/white_mw097.bmp","1","66","16"
"html-keyboard-response","183","355457","0.0-19.0-2.15","63b6cc23f13731158517f900","bdp_trlrn","Sat Apr 08 2023 10:42:56 GMT-0600 (Mountain Daylight Time)","714577","Untrustworthy,Trustworthy","","null","","","","decisionFB","","<div class='trialDiv'><img src='trustrating_stim/white_mw097.bmp'><br><font class='baseline'><strong>Brian</strong><p>Choose number of points to send.</font><div class='respPicDiv'><img src='img/responseButtonOffersNo0L1.png' class='respPic'></div></div>","null","6","Brian","1","Kept","0.35,0.8","14","0.35","trustrating_stim/white_mw097.bmp","1","65","16"
"html-keyboard-response","184","356458","0.0-19.0-3.15","63b6cc23f13731158517f900","bdp_trlrn","Sat Apr 08 2023 10:42:56 GMT-0600 (Mountain Daylight Time)","714577","Untrustworthy,Trustworthy","","null","","","","feedback","","<div class='trialDiv'><img src='trustrating_stim/white_mw097.bmp'><br><font class='baseline'><strong>Brian</strong><p>Received: <strong>4</strong></font> &nbsp; &nbsp; &nbsp; &nbsp; &nbsp; &nbsp;<font class='negOutcome'>Shared back: <strong>0</strong></font></font><div class='respPicDiv'><img src='img/responseButtonOffersNo0_wht.png' class='respPic'></div></div>","null","6","Brian","1","Kept","0.35,0.8","14","0.35","trustrating_stim/white_mw097.bmp","1","65","16"
"html-keyboard-response","185","359776","0.0-19.0-1.16","63b6cc23f13731158517f900","bdp_trlrn","Sat Apr 08 2023 10:42:56 GMT-0600 (Mountain Daylight Time)","714577","Untrustworthy,Trustworthy","","3317","","","","decision","","<div class='trialDiv'><img src='trustrating_stim/white_00659_941121_fa_edt.bmp'><br><font class='baseline'><strong>James</strong><p>Choose number of points to send.</font><div class='respPicDiv'><img src='img/responseButtonOffersNo0L.png' class='respPic'></div></div>","5","6","James","7","Kept","0.2,0.8","11","0.2","trustrating_stim/white_00659_941121_fa_edt.bmp","3","70","17"
"html-keyboard-response","186","360027","0.0-19.0-2.16","63b6cc23f13731158517f900","bdp_trlrn","Sat Apr 08 2023 10:42:56 GMT-0600 (Mountain Daylight Time)","714577","Untrustworthy,Trustworthy","","null","","","","decisionFB","","<div class='trialDiv'><img src='trustrating_stim/white_00659_941121_fa_edt.bmp'><br><font class='baseline'><strong>James</strong><p>Choose number of points to send.</font><div class='respPicDiv'><img src='img/responseButtonOffersNo0L5.png' class='respPic'></div></div>","null","6","James","7","Kept","0.2,0.8","11","0.2","trustrating_stim/white_00659_941121_fa_edt.bmp","3","65","17"
"html-keyboard-response","187","361035","0.0-19.0-3.16","63b6cc23f13731158517f900","bdp_trlrn","Sat Apr 08 2023 10:42:56 GMT-0600 (Mountain Daylight Time)","714577","Untrustworthy,Trustworthy","","null","","","","feedback","","<div class='trialDiv'><img src='trustrating_stim/white_00659_941121_fa_edt.bmp'><br><font class='baseline'><strong>James</strong><p>Received: <strong>20</strong></font> &nbsp; &nbsp; &nbsp; &nbsp; &nbsp; &nbsp;<font class='negOutcome'>Shared back: <strong>0</strong></font></font><div class='respPicDiv'><img src='img/responseButtonOffersNo0_wht.png' class='respPic'></div></div>","null","6","James","7","Kept","0.2,0.8","11","0.2","trustrating_stim/white_00659_941121_fa_edt.bmp","3","65","17"
"html-keyboard-response","188","362015","0.0-19.0-1.17","63b6cc23f13731158517f900","bdp_trlrn","Sat Apr 08 2023 10:42:56 GMT-0600 (Mountain Daylight Time)","714577","Untrustworthy,Trustworthy","","980","","","","decision","","<div class='trialDiv'><img src='trustrating_stim/white_00120_931230_fa_edt.bmp'><br><font class='baseline'><strong>David</strong><p>Choose number of points to send.</font><div class='respPicDiv'><img src='img/responseButtonOffersNo0L.png' class='respPic'></div></div>","5","6","David","10","Kept","0.65,0.2","8","0.65","trustrating_stim/white_00120_931230_fa_edt.bmp","5.5","70","18"
"html-keyboard-response","189","362266","0.0-19.0-2.17","63b6cc23f13731158517f900","bdp_trlrn","Sat Apr 08 2023 10:42:56 GMT-0600 (Mountain Daylight Time)","714577","Untrustworthy,Trustworthy","","null","","","","decisionFB","","<div class='trialDiv'><img src='trustrating_stim/white_00120_931230_fa_edt.bmp'><br><font class='baseline'><strong>David</strong><p>Choose number of points to send.</font><div class='respPicDiv'><img src='img/responseButtonOffersNo0L5.png' class='respPic'></div></div>","null","6","David","10","Kept","0.65,0.2","8","0.65","trustrating_stim/white_00120_931230_fa_edt.bmp","5.5","65","18"
"html-keyboard-response","190","363268","0.0-19.0-3.17","63b6cc23f13731158517f900","bdp_trlrn","Sat Apr 08 2023 10:42:56 GMT-0600 (Mountain Daylight Time)","714577","Untrustworthy,Trustworthy","","null","","","","feedback","","<div class='trialDiv'><img src='trustrating_stim/white_00120_931230_fa_edt.bmp'><br><font class='baseline'><strong>David</strong><p>Received: <strong>20</strong></font> &nbsp; &nbsp; &nbsp; &nbsp; &nbsp; &nbsp;<font class='negOutcome'>Shared back: <strong>0</strong></font></font><div class='respPicDiv'><img src='img/responseButtonOffersNo0_wht.png' class='respPic'></div></div>","null","6","David","10","Kept","0.65,0.2","8","0.65","trustrating_stim/white_00120_931230_fa_edt.bmp","5.5","65","18"
"html-keyboard-response","191","364066","0.0-19.0-1.18","63b6cc23f13731158517f900","bdp_trlrn","Sat Apr 08 2023 10:42:56 GMT-0600 (Mountain Daylight Time)","714577","Untrustworthy,Trustworthy","","798","","","","decision","","<div class='trialDiv'><img src='trustrating_stim/white_mw097.bmp'><br><font class='baseline'><strong>Brian</strong><p>Choose number of points to send.</font><div class='respPicDiv'><img src='img/responseButtonOffersNo0L.png' class='respPic'></div></div>","5","7","Brian","1","Shared","0.35,0.8","14","0.35","trustrating_stim/white_mw097.bmp","1","70","19"
"html-keyboard-response","192","364318","0.0-19.0-2.18","63b6cc23f13731158517f900","bdp_trlrn","Sat Apr 08 2023 10:42:56 GMT-0600 (Mountain Daylight Time)","714577","Untrustworthy,Trustworthy","","null","","","","decisionFB","","<div class='trialDiv'><img src='trustrating_stim/white_mw097.bmp'><br><font class='baseline'><strong>Brian</strong><p>Choose number of points to send.</font><div class='respPicDiv'><img src='img/responseButtonOffersNo0L5.png' class='respPic'></div></div>","null","7","Brian","1","Shared","0.35,0.8","14","0.35","trustrating_stim/white_mw097.bmp","1","65","19"
"html-keyboard-response","193","365319","0.0-19.0-3.18","63b6cc23f13731158517f900","bdp_trlrn","Sat Apr 08 2023 10:42:56 GMT-0600 (Mountain Daylight Time)","714577","Untrustworthy,Trustworthy","","null","","","","feedback","","<div class='trialDiv'><img src='trustrating_stim/white_mw097.bmp'><br><font class='baseline'><strong>Brian</strong><p>Received: <strong>20</strong></font> &nbsp; &nbsp; &nbsp; &nbsp; &nbsp; &nbsp;<font class='posOutcome'>Shared back: <strong>10</strong></font></font><div class='respPicDiv'><img src='img/responseButtonOffersNo0_wht.png' class='respPic'></div></div>","null","7","Brian","1","Shared","0.35,0.8","14","0.35","trustrating_stim/white_mw097.bmp","1","75","19"
"html-keyboard-response","194","368245","0.0-19.0-1.19","63b6cc23f13731158517f900","bdp_trlrn","Sat Apr 08 2023 10:42:56 GMT-0600 (Mountain Daylight Time)","714577","Untrustworthy,Trustworthy","","2926","","","","decision","","<div class='trialDiv'><img src='trustrating_stim/white_00659_941121_fa_edt.bmp'><br><font class='baseline'><strong>James</strong><p>Choose number of points to send.</font><div class='respPicDiv'><img src='img/responseButtonOffersNo0L.png' class='respPic'></div></div>","5","7","James","7","Shared","0.2,0.8","11","0.2","trustrating_stim/white_00659_941121_fa_edt.bmp","3","80","20"
"html-keyboard-response","195","368496","0.0-19.0-2.19","63b6cc23f13731158517f900","bdp_trlrn","Sat Apr 08 2023 10:42:56 GMT-0600 (Mountain Daylight Time)","714577","Untrustworthy,Trustworthy","","null","","","","decisionFB","","<div class='trialDiv'><img src='trustrating_stim/white_00659_941121_fa_edt.bmp'><br><font class='baseline'><strong>James</strong><p>Choose number of points to send.</font><div class='respPicDiv'><img src='img/responseButtonOffersNo0L5.png' class='respPic'></div></div>","null","7","James","7","Shared","0.2,0.8","11","0.2","trustrating_stim/white_00659_941121_fa_edt.bmp","3","75","20"
"html-keyboard-response","196","369497","0.0-19.0-3.19","63b6cc23f13731158517f900","bdp_trlrn","Sat Apr 08 2023 10:42:56 GMT-0600 (Mountain Daylight Time)","714577","Untrustworthy,Trustworthy","","null","","","","feedback","","<div class='trialDiv'><img src='trustrating_stim/white_00659_941121_fa_edt.bmp'><br><font class='baseline'><strong>James</strong><p>Received: <strong>20</strong></font> &nbsp; &nbsp; &nbsp; &nbsp; &nbsp; &nbsp;<font class='posOutcome'>Shared back: <strong>10</strong></font></font><div class='respPicDiv'><img src='img/responseButtonOffersNo0_wht.png' class='respPic'></div></div>","null","7","James","7","Shared","0.2,0.8","11","0.2","trustrating_stim/white_00659_941121_fa_edt.bmp","3","85","20"
"html-keyboard-response","197","371254","0.0-19.0-1.20","63b6cc23f13731158517f900","bdp_trlrn","Sat Apr 08 2023 10:42:56 GMT-0600 (Mountain Daylight Time)","714577","Untrustworthy,Trustworthy","","1755","","","","decision","","<div class='trialDiv'><img src='trustrating_stim/white_00120_931230_fa_edt.bmp'><br><font class='baseline'><strong>David</strong><p>Choose number of points to send.</font><div class='respPicDiv'><img src='img/responseButtonOffersNo0L.png' class='respPic'></div></div>","5","7","David","10","Kept","0.65,0.2","8","0.65","trustrating_stim/white_00120_931230_fa_edt.bmp","5.5","90","21"
"html-keyboard-response","198","371505","0.0-19.0-2.20","63b6cc23f13731158517f900","bdp_trlrn","Sat Apr 08 2023 10:42:56 GMT-0600 (Mountain Daylight Time)","714577","Untrustworthy,Trustworthy","","null","","","","decisionFB","","<div class='trialDiv'><img src='trustrating_stim/white_00120_931230_fa_edt.bmp'><br><font class='baseline'><strong>David</strong><p>Choose number of points to send.</font><div class='respPicDiv'><img src='img/responseButtonOffersNo0L5.png' class='respPic'></div></div>","null","7","David","10","Kept","0.65,0.2","8","0.65","trustrating_stim/white_00120_931230_fa_edt.bmp","5.5","85","21"
"html-keyboard-response","199","372506","0.0-19.0-3.20","63b6cc23f13731158517f900","bdp_trlrn","Sat Apr 08 2023 10:42:56 GMT-0600 (Mountain Daylight Time)","714577","Untrustworthy,Trustworthy","","null","","","","feedback","","<div class='trialDiv'><img src='trustrating_stim/white_00120_931230_fa_edt.bmp'><br><font class='baseline'><strong>David</strong><p>Received: <strong>20</strong></font> &nbsp; &nbsp; &nbsp; &nbsp; &nbsp; &nbsp;<font class='negOutcome'>Shared back: <strong>0</strong></font></font><div class='respPicDiv'><img src='img/responseButtonOffersNo0_wht.png' class='respPic'></div></div>","null","7","David","10","Kept","0.65,0.2","8","0.65","trustrating_stim/white_00120_931230_fa_edt.bmp","5.5","85","21"
"html-keyboard-response","200","374030","0.0-19.0-1.21","63b6cc23f13731158517f900","bdp_trlrn","Sat Apr 08 2023 10:42:56 GMT-0600 (Mountain Daylight Time)","714577","Untrustworthy,Trustworthy","","1523","","","","decision","","<div class='trialDiv'><img src='trustrating_stim/white_mw097.bmp'><br><font class='baseline'><strong>Brian</strong><p>Choose number of points to send.</font><div class='respPicDiv'><img src='img/responseButtonOffersNo0L.png' class='respPic'></div></div>","1","8","Brian","1","Kept","0.35,0.8","14","0.35","trustrating_stim/white_mw097.bmp","1","90","22"
"html-keyboard-response","201","374283","0.0-19.0-2.21","63b6cc23f13731158517f900","bdp_trlrn","Sat Apr 08 2023 10:42:56 GMT-0600 (Mountain Daylight Time)","714577","Untrustworthy,Trustworthy","","null","","","","decisionFB","","<div class='trialDiv'><img src='trustrating_stim/white_mw097.bmp'><br><font class='baseline'><strong>Brian</strong><p>Choose number of points to send.</font><div class='respPicDiv'><img src='img/responseButtonOffersNo0L1.png' class='respPic'></div></div>","null","8","Brian","1","Kept","0.35,0.8","14","0.35","trustrating_stim/white_mw097.bmp","1","89","22"
"html-keyboard-response","202","375284","0.0-19.0-3.21","63b6cc23f13731158517f900","bdp_trlrn","Sat Apr 08 2023 10:42:56 GMT-0600 (Mountain Daylight Time)","714577","Untrustworthy,Trustworthy","","null","","","","feedback","","<div class='trialDiv'><img src='trustrating_stim/white_mw097.bmp'><br><font class='baseline'><strong>Brian</strong><p>Received: <strong>4</strong></font> &nbsp; &nbsp; &nbsp; &nbsp; &nbsp; &nbsp;<font class='negOutcome'>Shared back: <strong>0</strong></font></font><div class='respPicDiv'><img src='img/responseButtonOffersNo0_wht.png' class='respPic'></div></div>","null","8","Brian","1","Kept","0.35,0.8","14","0.35","trustrating_stim/white_mw097.bmp","1","89","22"
"html-keyboard-response","203","376856","0.0-19.0-1.22","63b6cc23f13731158517f900","bdp_trlrn","Sat Apr 08 2023 10:42:56 GMT-0600 (Mountain Daylight Time)","714577","Untrustworthy,Trustworthy","","1572","","","","decision","","<div class='trialDiv'><img src='trustrating_stim/white_00120_931230_fa_edt.bmp'><br><font class='baseline'><strong>David</strong><p>Choose number of points to send.</font><div class='respPicDiv'><img src='img/responseButtonOffersNo0L.png' class='respPic'></div></div>","1","8","David","10","Kept","0.65,0.2","8","0.65","trustrating_stim/white_00120_931230_fa_edt.bmp","5.5","94","23"
"html-keyboard-response","204","377108","0.0-19.0-2.22","63b6cc23f13731158517f900","bdp_trlrn","Sat Apr 08 2023 10:42:56 GMT-0600 (Mountain Daylight Time)","714577","Untrustworthy,Trustworthy","","null","","","","decisionFB","","<div class='trialDiv'><img src='trustrating_stim/white_00120_931230_fa_edt.bmp'><br><font class='baseline'><strong>David</strong><p>Choose number of points to send.</font><div class='respPicDiv'><img src='img/responseButtonOffersNo0L1.png' class='respPic'></div></div>","null","8","David","10","Kept","0.65,0.2","8","0.65","trustrating_stim/white_00120_931230_fa_edt.bmp","5.5","93","23"
"html-keyboard-response","205","378109","0.0-19.0-3.22","63b6cc23f13731158517f900","bdp_trlrn","Sat Apr 08 2023 10:42:56 GMT-0600 (Mountain Daylight Time)","714577","Untrustworthy,Trustworthy","","null","","","","feedback","","<div class='trialDiv'><img src='trustrating_stim/white_00120_931230_fa_edt.bmp'><br><font class='baseline'><strong>David</strong><p>Received: <strong>4</strong></font> &nbsp; &nbsp; &nbsp; &nbsp; &nbsp; &nbsp;<font class='negOutcome'>Shared back: <strong>0</strong></font></font><div class='respPicDiv'><img src='img/responseButtonOffersNo0_wht.png' class='respPic'></div></div>","null","8","David","10","Kept","0.65,0.2","8","0.65","trustrating_stim/white_00120_931230_fa_edt.bmp","5.5","93","23"
"html-keyboard-response","206","378839","0.0-19.0-1.23","63b6cc23f13731158517f900","bdp_trlrn","Sat Apr 08 2023 10:42:56 GMT-0600 (Mountain Daylight Time)","714577","Untrustworthy,Trustworthy","","730","","","","decision","","<div class='trialDiv'><img src='trustrating_stim/white_00659_941121_fa_edt.bmp'><br><font class='baseline'><strong>James</strong><p>Choose number of points to send.</font><div class='respPicDiv'><img src='img/responseButtonOffersNo0L.png' class='respPic'></div></div>","5","8","James","7","Kept","0.2,0.8","11","0.2","trustrating_stim/white_00659_941121_fa_edt.bmp","3","98","24"
"html-keyboard-response","207","379090","0.0-19.0-2.23","63b6cc23f13731158517f900","bdp_trlrn","Sat Apr 08 2023 10:42:56 GMT-0600 (Mountain Daylight Time)","714577","Untrustworthy,Trustworthy","","null","","","","decisionFB","","<div class='trialDiv'><img src='trustrating_stim/white_00659_941121_fa_edt.bmp'><br><font class='baseline'><strong>James</strong><p>Choose number of points to send.</font><div class='respPicDiv'><img src='img/responseButtonOffersNo0L5.png' class='respPic'></div></div>","null","8","James","7","Kept","0.2,0.8","11","0.2","trustrating_stim/white_00659_941121_fa_edt.bmp","3","93","24"
"html-keyboard-response","208","380091","0.0-19.0-3.23","63b6cc23f13731158517f900","bdp_trlrn","Sat Apr 08 2023 10:42:56 GMT-0600 (Mountain Daylight Time)","714577","Untrustworthy,Trustworthy","","null","","","","feedback","","<div class='trialDiv'><img src='trustrating_stim/white_00659_941121_fa_edt.bmp'><br><font class='baseline'><strong>James</strong><p>Received: <strong>20</strong></font> &nbsp; &nbsp; &nbsp; &nbsp; &nbsp; &nbsp;<font class='negOutcome'>Shared back: <strong>0</strong></font></font><div class='respPicDiv'><img src='img/responseButtonOffersNo0_wht.png' class='respPic'></div></div>","null","8","James","7","Kept","0.2,0.8","11","0.2","trustrating_stim/white_00659_941121_fa_edt.bmp","3","93","24"
"html-keyboard-response","209","381524","0.0-19.0-1.24","63b6cc23f13731158517f900","bdp_trlrn","Sat Apr 08 2023 10:42:56 GMT-0600 (Mountain Daylight Time)","714577","Untrustworthy,Trustworthy","","1432","","","","decision","","<div class='trialDiv'><img src='trustrating_stim/white_mw097.bmp'><br><font class='baseline'><strong>Brian</strong><p>Choose number of points to send.</font><div class='respPicDiv'><img src='img/responseButtonOffersNo0L.png' class='respPic'></div></div>","1","9","Brian","1","Shared","0.35,0.8","14","0.35","trustrating_stim/white_mw097.bmp","1","98","25"
"html-keyboard-response","210","381775","0.0-19.0-2.24","63b6cc23f13731158517f900","bdp_trlrn","Sat Apr 08 2023 10:42:56 GMT-0600 (Mountain Daylight Time)","714577","Untrustworthy,Trustworthy","","null","","","","decisionFB","","<div class='trialDiv'><img src='trustrating_stim/white_mw097.bmp'><br><font class='baseline'><strong>Brian</strong><p>Choose number of points to send.</font><div class='respPicDiv'><img src='img/responseButtonOffersNo0L1.png' class='respPic'></div></div>","null","9","Brian","1","Shared","0.35,0.8","14","0.35","trustrating_stim/white_mw097.bmp","1","97","25"
"html-keyboard-response","211","382777","0.0-19.0-3.24","63b6cc23f13731158517f900","bdp_trlrn","Sat Apr 08 2023 10:42:56 GMT-0600 (Mountain Daylight Time)","714577","Untrustworthy,Trustworthy","","null","","","","feedback","","<div class='trialDiv'><img src='trustrating_stim/white_mw097.bmp'><br><font class='baseline'><strong>Brian</strong><p>Received: <strong>4</strong></font> &nbsp; &nbsp; &nbsp; &nbsp; &nbsp; &nbsp;<font class='posOutcome'>Shared back: <strong>2</strong></font></font><div class='respPicDiv'><img src='img/responseButtonOffersNo0_wht.png' class='respPic'></div></div>","null","9","Brian","1","Shared","0.35,0.8","14","0.35","trustrating_stim/white_mw097.bmp","1","99","25"
"html-keyboard-response","212","386144","0.0-19.0-1.25","63b6cc23f13731158517f900","bdp_trlrn","Sat Apr 08 2023 10:42:56 GMT-0600 (Mountain Daylight Time)","714577","Untrustworthy,Trustworthy","","3367","","","","decision","","<div class='trialDiv'><img src='trustrating_stim/white_00120_931230_fa_edt.bmp'><br><font class='baseline'><strong>David</strong><p>Choose number of points to send.</font><div class='respPicDiv'><img src='img/responseButtonOffersNo0L.png' class='respPic'></div></div>","1","9","David","10","Kept","0.65,0.2","8","0.65","trustrating_stim/white_00120_931230_fa_edt.bmp","5.5","104","26"
"html-keyboard-response","213","386396","0.0-19.0-2.25","63b6cc23f13731158517f900","bdp_trlrn","Sat Apr 08 2023 10:42:56 GMT-0600 (Mountain Daylight Time)","714577","Untrustworthy,Trustworthy","","null","","","","decisionFB","","<div class='trialDiv'><img src='trustrating_stim/white_00120_931230_fa_edt.bmp'><br><font class='baseline'><strong>David</strong><p>Choose number of points to send.</font><div class='respPicDiv'><img src='img/responseButtonOffersNo0L1.png' class='respPic'></div></div>","null","9","David","10","Kept","0.65,0.2","8","0.65","trustrating_stim/white_00120_931230_fa_edt.bmp","5.5","103","26"
"html-keyboard-response","214","387410","0.0-19.0-3.25","63b6cc23f13731158517f900","bdp_trlrn","Sat Apr 08 2023 10:42:56 GMT-0600 (Mountain Daylight Time)","714577","Untrustworthy,Trustworthy","","null","","","","feedback","","<div class='trialDiv'><img src='trustrating_stim/white_00120_931230_fa_edt.bmp'><br><font class='baseline'><strong>David</strong><p>Received: <strong>4</strong></font> &nbsp; &nbsp; &nbsp; &nbsp; &nbsp; &nbsp;<font class='negOutcome'>Shared back: <strong>0</strong></font></font><div class='respPicDiv'><img src='img/responseButtonOffersNo0_wht.png' class='respPic'></div></div>","null","9","David","10","Kept","0.65,0.2","8","0.65","trustrating_stim/white_00120_931230_fa_edt.bmp","5.5","103","26"
"html-keyboard-response","215","388095","0.0-19.0-1.26","63b6cc23f13731158517f900","bdp_trlrn","Sat Apr 08 2023 10:42:56 GMT-0600 (Mountain Daylight Time)","714577","Untrustworthy,Trustworthy","","684","","","","decision","","<div class='trialDiv'><img src='trustrating_stim/white_00659_941121_fa_edt.bmp'><br><font class='baseline'><strong>James</strong><p>Choose number of points to send.</font><div class='respPicDiv'><img src='img/responseButtonOffersNo0L.png' class='respPic'></div></div>","5","9","James","7","Kept","0.2,0.8","11","0.2","trustrating_stim/white_00659_941121_fa_edt.bmp","3","108","27"
"html-keyboard-response","216","388346","0.0-19.0-2.26","63b6cc23f13731158517f900","bdp_trlrn","Sat Apr 08 2023 10:42:56 GMT-0600 (Mountain Daylight Time)","714577","Untrustworthy,Trustworthy","","null","","","","decisionFB","","<div class='trialDiv'><img src='trustrating_stim/white_00659_941121_fa_edt.bmp'><br><font class='baseline'><strong>James</strong><p>Choose number of points to send.</font><div class='respPicDiv'><img src='img/responseButtonOffersNo0L5.png' class='respPic'></div></div>","null","9","James","7","Kept","0.2,0.8","11","0.2","trustrating_stim/white_00659_941121_fa_edt.bmp","3","103","27"
"html-keyboard-response","217","389348","0.0-19.0-3.26","63b6cc23f13731158517f900","bdp_trlrn","Sat Apr 08 2023 10:42:56 GMT-0600 (Mountain Daylight Time)","714577","Untrustworthy,Trustworthy","","null","","","","feedback","","<div class='trialDiv'><img src='trustrating_stim/white_00659_941121_fa_edt.bmp'><br><font class='baseline'><strong>James</strong><p>Received: <strong>20</strong></font> &nbsp; &nbsp; &nbsp; &nbsp; &nbsp; &nbsp;<font class='negOutcome'>Shared back: <strong>0</strong></font></font><div class='respPicDiv'><img src='img/responseButtonOffersNo0_wht.png' class='respPic'></div></div>","null","9","James","7","Kept","0.2,0.8","11","0.2","trustrating_stim/white_00659_941121_fa_edt.bmp","3","103","27"
"html-keyboard-response","218","391221","0.0-19.0-1.27","63b6cc23f13731158517f900","bdp_trlrn","Sat Apr 08 2023 10:42:56 GMT-0600 (Mountain Daylight Time)","714577","Untrustworthy,Trustworthy","","1872","","","","decision","","<div class='trialDiv'><img src='trustrating_stim/white_00120_931230_fa_edt.bmp'><br><font class='baseline'><strong>David</strong><p>Choose number of points to send.</font><div class='respPicDiv'><img src='img/responseButtonOffersNo0L.png' class='respPic'></div></div>","1","10","David","10","Kept","0.65,0.2","8","0.65","trustrating_stim/white_00120_931230_fa_edt.bmp","5.5","108","28"
"html-keyboard-response","219","391471","0.0-19.0-2.27","63b6cc23f13731158517f900","bdp_trlrn","Sat Apr 08 2023 10:42:56 GMT-0600 (Mountain Daylight Time)","714577","Untrustworthy,Trustworthy","","null","","","","decisionFB","","<div class='trialDiv'><img src='trustrating_stim/white_00120_931230_fa_edt.bmp'><br><font class='baseline'><strong>David</strong><p>Choose number of points to send.</font><div class='respPicDiv'><img src='img/responseButtonOffersNo0L1.png' class='respPic'></div></div>","null","10","David","10","Kept","0.65,0.2","8","0.65","trustrating_stim/white_00120_931230_fa_edt.bmp","5.5","107","28"
