"event","trial","time","trialtype","subject_id","task","startTime","totalTime","labels","trial_type","trial_index","time_elapsed","internal_node_id","numBlurs","view_history","rt","success","stimulus","key_press","aground","name","faceID","outcome","agenttype","agentswpt","agentcurrpshare","face","avgRating","point_total","round"
"focus","0","0","focusevent","5f2e0b28c642b31678638a21","bdp_trlrn","Tue Mar 14 2023 12:56:34 GMT-0400 (Eastern Daylight Time)","761851","Trustworthy,Untrustworthy","","","","","","","","","","","","","","","","","","","","",""
"","","","","5f2e0b28c642b31678638a21","bdp_trlrn","Tue Mar 14 2023 12:56:34 GMT-0400 (Eastern Daylight Time)","761851","Trustworthy,Untrustworthy","pavlovia","0","5","0.0-0.0","","","","","","","","","","","","","","","","",""
"blur","1","62","blurevent","5f2e0b28c642b31678638a21","bdp_trlrn","Tue Mar 14 2023 12:56:34 GMT-0400 (Eastern Daylight Time)","761851","Trustworthy,Untrustworthy","","","","","1","","","","","","","","","","","","","","","",""
"focus","1","1806","focusevent","5f2e0b28c642b31678638a21","bdp_trlrn","Tue Mar 14 2023 12:56:34 GMT-0400 (Eastern Daylight Time)","761851","Trustworthy,Untrustworthy","","","","","","","","","","","","","","","","","","","","",""
"","","","","5f2e0b28c642b31678638a21","bdp_trlrn","Tue Mar 14 2023 12:56:34 GMT-0400 (Eastern Daylight Time)","761851","Trustworthy,Untrustworthy","instructions","1","6183","0.0-1.0","","[{""page_index"":0,""viewing_time"":6177}]","6177","","","","","","","","","","","","","",""
"fullscreenexit","2","8123","fullscreenexit","5f2e0b28c642b31678638a21","bdp_trlrn","Tue Mar 14 2023 12:56:34 GMT-0400 (Eastern Daylight Time)","761851","Trustworthy,Untrustworthy","","","","","","","","","","","","","","","","","","","","",""
"","","","","5f2e0b28c642b31678638a21","bdp_trlrn","Tue Mar 14 2023 12:56:34 GMT-0400 (Eastern Daylight Time)","761851","Trustworthy,Untrustworthy","fullscreen","2","9123","0.0-2.0","","","","true","","","","","","","","","","","","",""
"","","","fullscreenfail","5f2e0b28c642b31678638a21","bdp_trlrn","Tue Mar 14 2023 12:56:34 GMT-0400 (Eastern Daylight Time)","761851","Trustworthy,Untrustworthy","image-keyboard-response","3","15100","0.0-3.0-0.0","","","5974","","","32","","","","","","","","","","",""
"","","","","5f2e0b28c642b31678638a21","bdp_trlrn","Tue Mar 14 2023 12:56:34 GMT-0400 (Eastern Daylight Time)","761851","Trustworthy,Untrustworthy","instructions","4","31795","0.0-4.0","","[{""page_index"":0,""viewing_time"":7218},{""page_index"":1,""viewing_time"":9216}]","16434","","","","","","","","","","","","","",""
"","","","","5f2e0b28c642b31678638a21","bdp_trlrn","Tue Mar 14 2023 12:56:34 GMT-0400 (Eastern Daylight Time)","761851","Trustworthy,Untrustworthy","instructions","5","35104","0.0-5.0","","[{""page_index"":0,""viewing_time"":3308}]","3308","","","","","","","","","","","","","",""
"","","","rating","5f2e0b28c642b31678638a21","bdp_trlrn","Tue Mar 14 2023 12:56:34 GMT-0400 (Eastern Daylight Time)","761851","Trustworthy,Untrustworthy","image-keyboard-response","6","45145","0.0-6.0-1.0","","","9936","","trustrating_stim/white_mw035.bmp","5","","","","","","","","","","",""
"","","","ratingFB","5f2e0b28c642b31678638a21","bdp_trlrn","Tue Mar 14 2023 12:56:34 GMT-0400 (Eastern Daylight Time)","761851","Trustworthy,Untrustworthy","image-keyboard-response","7","45346","0.0-6.0-2.0","","","null","","trustrating_stim/white_mw035.bmp","null","","","","","","","","","","",""
"","","","rating","5f2e0b28c642b31678638a21","bdp_trlrn","Tue Mar 14 2023 12:56:34 GMT-0400 (Eastern Daylight Time)","761851","Trustworthy,Untrustworthy","image-keyboard-response","8","50401","0.0-6.0-1.1","","","4945","","trustrating_stim/white_00129_931230_fb_edt.bmp","4","","","","","","","","","","",""
"","","","ratingFB","5f2e0b28c642b31678638a21","bdp_trlrn","Tue Mar 14 2023 12:56:34 GMT-0400 (Eastern Daylight Time)","761851","Trustworthy,Untrustworthy","image-keyboard-response","9","50601","0.0-6.0-2.1","","","null","","trustrating_stim/white_00129_931230_fb_edt.bmp","null","","","","","","","","","","",""
"","","","rating","5f2e0b28c642b31678638a21","bdp_trlrn","Tue Mar 14 2023 12:56:34 GMT-0400 (Eastern Daylight Time)","761851","Trustworthy,Untrustworthy","image-keyboard-response","10","57348","0.0-6.0-1.2","","","6637","","trustrating_stim/white_mw097.bmp","7","","","","","","","","","","",""
"","","","ratingFB","5f2e0b28c642b31678638a21","bdp_trlrn","Tue Mar 14 2023 12:56:34 GMT-0400 (Eastern Daylight Time)","761851","Trustworthy,Untrustworthy","image-keyboard-response","11","57553","0.0-6.0-2.2","","","null","","trustrating_stim/white_mw097.bmp","null","","","","","","","","","","",""
"","","","rating","5f2e0b28c642b31678638a21","bdp_trlrn","Tue Mar 14 2023 12:56:34 GMT-0400 (Eastern Daylight Time)","761851","Trustworthy,Untrustworthy","image-keyboard-response","12","64252","0.0-6.0-1.3","","","6589","","trustrating_stim/white_00109_931230_fa_edt.bmp","5","","","","","","","","","","",""
"","","","ratingFB","5f2e0b28c642b31678638a21","bdp_trlrn","Tue Mar 14 2023 12:56:34 GMT-0400 (Eastern Daylight Time)","761851","Trustworthy,Untrustworthy","image-keyboard-response","13","64458","0.0-6.0-2.3","","","null","","trustrating_stim/white_00109_931230_fa_edt.bmp","null","","","","","","","","","","",""
"","","","rating","5f2e0b28c642b31678638a21","bdp_trlrn","Tue Mar 14 2023 12:56:34 GMT-0400 (Eastern Daylight Time)","761851","Trustworthy,Untrustworthy","image-keyboard-response","14","68313","0.0-6.0-1.4","","","3744","","trustrating_stim/white_00761_941201_fb_edt.bmp","7","","","","","","","","","","",""
"","","","ratingFB","5f2e0b28c642b31678638a21","bdp_trlrn","Tue Mar 14 2023 12:56:34 GMT-0400 (Eastern Daylight Time)","761851","Trustworthy,Untrustworthy","image-keyboard-response","15","68514","0.0-6.0-2.4","","","null","","trustrating_stim/white_00761_941201_fb_edt.bmp","null","","","","","","","","","","",""
"","","","rating","5f2e0b28c642b31678638a21","bdp_trlrn","Tue Mar 14 2023 12:56:34 GMT-0400 (Eastern Daylight Time)","761851","Trustworthy,Untrustworthy","image-keyboard-response","16","71910","0.0-6.0-1.5","","","3285","","trustrating_stim/white_00519_940519_fb_edt.bmp","7","","","","","","","","","","",""
"","","","ratingFB","5f2e0b28c642b31678638a21","bdp_trlrn","Tue Mar 14 2023 12:56:34 GMT-0400 (Eastern Daylight Time)","761851","Trustworthy,Untrustworthy","image-keyboard-response","17","72122","0.0-6.0-2.5","","","null","","trustrating_stim/white_00519_940519_fb_edt.bmp","null","","","","","","","","","","",""
"","","","rating","5f2e0b28c642b31678638a21","bdp_trlrn","Tue Mar 14 2023 12:56:34 GMT-0400 (Eastern Daylight Time)","761851","Trustworthy,Untrustworthy","image-keyboard-response","18","74567","0.0-6.0-1.6","","","2332","","trustrating_stim/white_00299_940422_fa_edt.bmp","6","","","","","","","","","","",""
"","","","ratingFB","5f2e0b28c642b31678638a21","bdp_trlrn","Tue Mar 14 2023 12:56:34 GMT-0400 (Eastern Daylight Time)","761851","Trustworthy,Untrustworthy","image-keyboard-response","19","74783","0.0-6.0-2.6","","","null","","trustrating_stim/white_00299_940422_fa_edt.bmp","null","","","","","","","","","","",""
"","","","rating","5f2e0b28c642b31678638a21","bdp_trlrn","Tue Mar 14 2023 12:56:34 GMT-0400 (Eastern Daylight Time)","761851","Trustworthy,Untrustworthy","image-keyboard-response","20","77806","0.0-6.0-1.7","","","2912","","trustrating_stim/white_00602_940928_fb_edt.bmp","4","","","","","","","","","","",""
"","","","ratingFB","5f2e0b28c642b31678638a21","bdp_trlrn","Tue Mar 14 2023 12:56:34 GMT-0400 (Eastern Daylight Time)","761851","Trustworthy,Untrustworthy","image-keyboard-response","21","78008","0.0-6.0-2.7","","","null","","trustrating_stim/white_00602_940928_fb_edt.bmp","null","","","","","","","","","","",""
"","","","rating","5f2e0b28c642b31678638a21","bdp_trlrn","Tue Mar 14 2023 12:56:34 GMT-0400 (Eastern Daylight Time)","761851","Trustworthy,Untrustworthy","image-keyboard-response","22","81473","0.0-6.0-1.8","","","3354","","trustrating_stim/white_00223_940128_fb_edt.bmp","7","","","","","","","","","","",""
"","","","ratingFB","5f2e0b28c642b31678638a21","bdp_trlrn","Tue Mar 14 2023 12:56:34 GMT-0400 (Eastern Daylight Time)","761851","Trustworthy,Untrustworthy","image-keyboard-response","23","81678","0.0-6.0-2.8","","","null","","trustrating_stim/white_00223_940128_fb_edt.bmp","null","","","","","","","","","","",""
"","","","rating","5f2e0b28c642b31678638a21","bdp_trlrn","Tue Mar 14 2023 12:56:34 GMT-0400 (Eastern Daylight Time)","761851","Trustworthy,Untrustworthy","image-keyboard-response","24","85288","0.0-6.0-1.9","","","3501","","trustrating_stim/white_00659_941121_fa_edt.bmp","7","","","","","","","","","","",""
"","","","ratingFB","5f2e0b28c642b31678638a21","bdp_trlrn","Tue Mar 14 2023 12:56:34 GMT-0400 (Eastern Daylight Time)","761851","Trustworthy,Untrustworthy","image-keyboard-response","25","85494","0.0-6.0-2.9","","","null","","trustrating_stim/white_00659_941121_fa_edt.bmp","null","","","","","","","","","","",""
"","","","rating","5f2e0b28c642b31678638a21","bdp_trlrn","Tue Mar 14 2023 12:56:34 GMT-0400 (Eastern Daylight Time)","761851","Trustworthy,Untrustworthy","image-keyboard-response","26","87911","0.0-6.0-1.10","","","2306","","trustrating_stim/white_mw063.bmp","7","","","","","","","","","","",""
"","","","ratingFB","5f2e0b28c642b31678638a21","bdp_trlrn","Tue Mar 14 2023 12:56:34 GMT-0400 (Eastern Daylight Time)","761851","Trustworthy,Untrustworthy","image-keyboard-response","27","88115","0.0-6.0-2.10","","","null","","trustrating_stim/white_mw063.bmp","null","","","","","","","","","","",""
"","","","rating","5f2e0b28c642b31678638a21","bdp_trlrn","Tue Mar 14 2023 12:56:34 GMT-0400 (Eastern Daylight Time)","761851","Trustworthy,Untrustworthy","image-keyboard-response","28","91520","0.0-6.0-1.11","","","3294","","trustrating_stim/white_mw071.bmp","8","","","","","","","","","","",""
"","","","ratingFB","5f2e0b28c642b31678638a21","bdp_trlrn","Tue Mar 14 2023 12:56:34 GMT-0400 (Eastern Daylight Time)","761851","Trustworthy,Untrustworthy","image-keyboard-response","29","91724","0.0-6.0-2.11","","","null","","trustrating_stim/white_mw071.bmp","null","","","","","","","","","","",""
"","","","rating","5f2e0b28c642b31678638a21","bdp_trlrn","Tue Mar 14 2023 12:56:34 GMT-0400 (Eastern Daylight Time)","761851","Trustworthy,Untrustworthy","image-keyboard-response","30","93765","0.0-6.0-1.12","","","1931","","trustrating_stim/white_mw046.bmp","7","","","","","","","","","","",""
"","","","ratingFB","5f2e0b28c642b31678638a21","bdp_trlrn","Tue Mar 14 2023 12:56:34 GMT-0400 (Eastern Daylight Time)","761851","Trustworthy,Untrustworthy","image-keyboard-response","31","93979","0.0-6.0-2.12","","","null","","trustrating_stim/white_mw046.bmp","null","","","","","","","","","","",""
"","","","rating","5f2e0b28c642b31678638a21","bdp_trlrn","Tue Mar 14 2023 12:56:34 GMT-0400 (Eastern Daylight Time)","761851","Trustworthy,Untrustworthy","image-keyboard-response","32","97790","0.0-6.0-1.13","","","3699","","trustrating_stim/white_mw053.bmp","5","","","","","","","","","","",""
"","","","ratingFB","5f2e0b28c642b31678638a21","bdp_trlrn","Tue Mar 14 2023 12:56:34 GMT-0400 (Eastern Daylight Time)","761851","Trustworthy,Untrustworthy","image-keyboard-response","33","97997","0.0-6.0-2.13","","","null","","trustrating_stim/white_mw053.bmp","null","","","","","","","","","","",""
"","","","rating","5f2e0b28c642b31678638a21","bdp_trlrn","Tue Mar 14 2023 12:56:34 GMT-0400 (Eastern Daylight Time)","761851","Trustworthy,Untrustworthy","image-keyboard-response","34","101106","0.0-6.0-1.14","","","2999","","trustrating_stim/white_00577_940928_fa_edt.bmp","5","","","","","","","","","","",""
"","","","ratingFB","5f2e0b28c642b31678638a21","bdp_trlrn","Tue Mar 14 2023 12:56:34 GMT-0400 (Eastern Daylight Time)","761851","Trustworthy,Untrustworthy","image-keyboard-response","35","101318","0.0-6.0-2.14","","","null","","trustrating_stim/white_00577_940928_fa_edt.bmp","null","","","","","","","","","","",""
"","","","rating","5f2e0b28c642b31678638a21","bdp_trlrn","Tue Mar 14 2023 12:56:34 GMT-0400 (Eastern Daylight Time)","761851","Trustworthy,Untrustworthy","image-keyboard-response","36","104342","0.0-6.0-1.15","","","2911","","trustrating_stim/white_00898_960530_fa_edt.bmp","4","","","","","","","","","","",""
"","","","ratingFB","5f2e0b28c642b31678638a21","bdp_trlrn","Tue Mar 14 2023 12:56:34 GMT-0400 (Eastern Daylight Time)","761851","Trustworthy,Untrustworthy","image-keyboard-response","37","104546","0.0-6.0-2.15","","","null","","trustrating_stim/white_00898_960530_fa_edt.bmp","null","","","","","","","","","","",""
"","","","rating","5f2e0b28c642b31678638a21","bdp_trlrn","Tue Mar 14 2023 12:56:34 GMT-0400 (Eastern Daylight Time)","761851","Trustworthy,Untrustworthy","image-keyboard-response","38","108759","0.0-6.0-1.16","","","4101","","trustrating_stim/white_00340_940422_fa_edt.bmp","6","","","","","","","","","","",""
"","","","ratingFB","5f2e0b28c642b31678638a21","bdp_trlrn","Tue Mar 14 2023 12:56:34 GMT-0400 (Eastern Daylight Time)","761851","Trustworthy,Untrustworthy","image-keyboard-response","39","108966","0.0-6.0-2.16","","","null","","trustrating_stim/white_00340_940422_fa_edt.bmp","null","","","","","","","","","","",""
"","","","rating","5f2e0b28c642b31678638a21","bdp_trlrn","Tue Mar 14 2023 12:56:34 GMT-0400 (Eastern Daylight Time)","761851","Trustworthy,Untrustworthy","image-keyboard-response","40","111694","0.0-6.0-1.17","","","2617","","trustrating_stim/white_00120_931230_fa_edt.bmp","4","","","","","","","","","","",""
"","","","ratingFB","5f2e0b28c642b31678638a21","bdp_trlrn","Tue Mar 14 2023 12:56:34 GMT-0400 (Eastern Daylight Time)","761851","Trustworthy,Untrustworthy","image-keyboard-response","41","111906","0.0-6.0-2.17","","","null","","trustrating_stim/white_00120_931230_fa_edt.bmp","null","","","","","","","","","","",""
"","","","rating","5f2e0b28c642b31678638a21","bdp_trlrn","Tue Mar 14 2023 12:56:34 GMT-0400 (Eastern Daylight Time)","761851","Trustworthy,Untrustworthy","image-keyboard-response","42","114500","0.0-6.0-1.18","","","2484","","trustrating_stim/white_mw060.bmp","7","","","","","","","","","","",""
"","","","ratingFB","5f2e0b28c642b31678638a21","bdp_trlrn","Tue Mar 14 2023 12:56:34 GMT-0400 (Eastern Daylight Time)","761851","Trustworthy,Untrustworthy","image-keyboard-response","43","114710","0.0-6.0-2.18","","","null","","trustrating_stim/white_mw060.bmp","null","","","","","","","","","","",""
"","","","rating","5f2e0b28c642b31678638a21","bdp_trlrn","Tue Mar 14 2023 12:56:34 GMT-0400 (Eastern Daylight Time)","761851","Trustworthy,Untrustworthy","image-keyboard-response","44","116718","0.0-6.0-1.19","","","1898","","trustrating_stim/white_mw099.bmp","6","","","","","","","","","","",""
"","","","ratingFB","5f2e0b28c642b31678638a21","bdp_trlrn","Tue Mar 14 2023 12:56:34 GMT-0400 (Eastern Daylight Time)","761851","Trustworthy,Untrustworthy","image-keyboard-response","45","116931","0.0-6.0-2.19","","","null","","trustrating_stim/white_mw099.bmp","null","","","","","","","","","","",""
"","","","rating","5f2e0b28c642b31678638a21","bdp_trlrn","Tue Mar 14 2023 12:56:34 GMT-0400 (Eastern Daylight Time)","761851","Trustworthy,Untrustworthy","image-keyboard-response","46","119038","0.0-6.0-1.20","","","1996","","trustrating_stim/white_00757_941201_fa_edt.bmp","5","","","","","","","","","","",""
"","","","ratingFB","5f2e0b28c642b31678638a21","bdp_trlrn","Tue Mar 14 2023 12:56:34 GMT-0400 (Eastern Daylight Time)","761851","Trustworthy,Untrustworthy","image-keyboard-response","47","119245","0.0-6.0-2.20","","","null","","trustrating_stim/white_00757_941201_fa_edt.bmp","null","","","","","","","","","","",""
"","","","rating","5f2e0b28c642b31678638a21","bdp_trlrn","Tue Mar 14 2023 12:56:34 GMT-0400 (Eastern Daylight Time)","761851","Trustworthy,Untrustworthy","image-keyboard-response","48","120970","0.0-6.0-1.21","","","1615","","trustrating_stim/white_mw056.bmp","5","","","","","","","","","","",""
"","","","ratingFB","5f2e0b28c642b31678638a21","bdp_trlrn","Tue Mar 14 2023 12:56:34 GMT-0400 (Eastern Daylight Time)","761851","Trustworthy,Untrustworthy","image-keyboard-response","49","121177","0.0-6.0-2.21","","","null","","trustrating_stim/white_mw056.bmp","null","","","","","","","","","","",""
"","","","rating","5f2e0b28c642b31678638a21","bdp_trlrn","Tue Mar 14 2023 12:56:34 GMT-0400 (Eastern Daylight Time)","761851","Trustworthy,Untrustworthy","image-keyboard-response","50","124130","0.0-6.0-1.22","","","2841","","trustrating_stim/white_mw089.bmp","5","","","","","","","","","","",""
"","","","ratingFB","5f2e0b28c642b31678638a21","bdp_trlrn","Tue Mar 14 2023 12:56:34 GMT-0400 (Eastern Daylight Time)","761851","Trustworthy,Untrustworthy","image-keyboard-response","51","124337","0.0-6.0-2.22","","","null","","trustrating_stim/white_mw089.bmp","null","","","","","","","","","","",""
"","","","rating","5f2e0b28c642b31678638a21","bdp_trlrn","Tue Mar 14 2023 12:56:34 GMT-0400 (Eastern Daylight Time)","761851","Trustworthy,Untrustworthy","image-keyboard-response","52","126947","0.0-6.0-1.23","","","2500","","trustrating_stim/white_mw033.bmp","6","","","","","","","","","","",""
"","","","ratingFB","5f2e0b28c642b31678638a21","bdp_trlrn","Tue Mar 14 2023 12:56:34 GMT-0400 (Eastern Daylight Time)","761851","Trustworthy,Untrustworthy","image-keyboard-response","53","127148","0.0-6.0-2.23","","","null","","trustrating_stim/white_mw033.bmp","null","","","","","","","","","","",""
"","","","rating","5f2e0b28c642b31678638a21","bdp_trlrn","Tue Mar 14 2023 12:56:34 GMT-0400 (Eastern Daylight Time)","761851","Trustworthy,Untrustworthy","image-keyboard-response","54","129671","0.0-6.0-1.24","","","2413","","trustrating_stim/white_mw066.bmp","6","","","","","","","","","","",""
"","","","ratingFB","5f2e0b28c642b31678638a21","bdp_trlrn","Tue Mar 14 2023 12:56:34 GMT-0400 (Eastern Daylight Time)","761851","Trustworthy,Untrustworthy","image-keyboard-response","55","129883","0.0-6.0-2.24","","","null","","trustrating_stim/white_mw066.bmp","null","","","","","","","","","","",""
"","","","rating","5f2e0b28c642b31678638a21","bdp_trlrn","Tue Mar 14 2023 12:56:34 GMT-0400 (Eastern Daylight Time)","761851","Trustworthy,Untrustworthy","image-keyboard-response","56","133065","0.0-6.0-1.25","","","3073","","trustrating_stim/white_mw048.bmp","7","","","","","","","","","","",""
"","","","ratingFB","5f2e0b28c642b31678638a21","bdp_trlrn","Tue Mar 14 2023 12:56:34 GMT-0400 (Eastern Daylight Time)","761851","Trustworthy,Untrustworthy","image-keyboard-response","57","133280","0.0-6.0-2.25","","","null","","trustrating_stim/white_mw048.bmp","null","","","","","","","","","","",""
"","","","rating","5f2e0b28c642b31678638a21","bdp_trlrn","Tue Mar 14 2023 12:56:34 GMT-0400 (Eastern Daylight Time)","761851","Trustworthy,Untrustworthy","image-keyboard-response","58","137430","0.0-6.0-1.26","","","4039","","trustrating_stim/white_00807_941205_fb_edt.bmp","5","","","","","","","","","","",""
"","","","ratingFB","5f2e0b28c642b31678638a21","bdp_trlrn","Tue Mar 14 2023 12:56:34 GMT-0400 (Eastern Daylight Time)","761851","Trustworthy,Untrustworthy","image-keyboard-response","59","137635","0.0-6.0-2.26","","","null","","trustrating_stim/white_00807_941205_fb_edt.bmp","null","","","","","","","","","","",""
"","","","rating","5f2e0b28c642b31678638a21","bdp_trlrn","Tue Mar 14 2023 12:56:34 GMT-0400 (Eastern Daylight Time)","761851","Trustworthy,Untrustworthy","image-keyboard-response","60","140336","0.0-6.0-1.27","","","2590","","trustrating_stim/white_00785_941205_fb_edt.bmp","7","","","","","","","","","","",""
"","","","ratingFB","5f2e0b28c642b31678638a21","bdp_trlrn","Tue Mar 14 2023 12:56:34 GMT-0400 (Eastern Daylight Time)","761851","Trustworthy,Untrustworthy","image-keyboard-response","61","140539","0.0-6.0-2.27","","","null","","trustrating_stim/white_00785_941205_fb_edt.bmp","null","","","","","","","","","","",""
"","","","rating","5f2e0b28c642b31678638a21","bdp_trlrn","Tue Mar 14 2023 12:56:34 GMT-0400 (Eastern Daylight Time)","761851","Trustworthy,Untrustworthy","image-keyboard-response","62","142698","0.0-6.0-1.28","","","2048","","trustrating_stim/white_mw084.bmp","5","","","","","","","","","","",""
"","","","ratingFB","5f2e0b28c642b31678638a21","bdp_trlrn","Tue Mar 14 2023 12:56:34 GMT-0400 (Eastern Daylight Time)","761851","Trustworthy,Untrustworthy","image-keyboard-response","63","142908","0.0-6.0-2.28","","","null","","trustrating_stim/white_mw084.bmp","null","","","","","","","","","","",""
"","","","rating","5f2e0b28c642b31678638a21","bdp_trlrn","Tue Mar 14 2023 12:56:34 GMT-0400 (Eastern Daylight Time)","761851","Trustworthy,Untrustworthy","image-keyboard-response","64","146380","0.0-6.0-1.29","","","3362","","trustrating_stim/white_mw049.bmp","4","","","","","","","","","","",""
"","","","ratingFB","5f2e0b28c642b31678638a21","bdp_trlrn","Tue Mar 14 2023 12:56:34 GMT-0400 (Eastern Daylight Time)","761851","Trustworthy,Untrustworthy","image-keyboard-response","65","146584","0.0-6.0-2.29","","","null","","trustrating_stim/white_mw049.bmp","null","","","","","","","","","","",""
"","","","rating","5f2e0b28c642b31678638a21","bdp_trlrn","Tue Mar 14 2023 12:56:34 GMT-0400 (Eastern Daylight Time)","761851","Trustworthy,Untrustworthy","image-keyboard-response","66","150674","0.0-6.0-1.30","","","3979","","trustrating_stim/white_00577_940928_fa_edt.bmp","6","","","","","","","","","","",""
"","","","ratingFB","5f2e0b28c642b31678638a21","bdp_trlrn","Tue Mar 14 2023 12:56:34 GMT-0400 (Eastern Daylight Time)","761851","Trustworthy,Untrustworthy","image-keyboard-response","67","150879","0.0-6.0-2.30","","","null","","trustrating_stim/white_00577_940928_fa_edt.bmp","null","","","","","","","","","","",""
"","","","rating","5f2e0b28c642b31678638a21","bdp_trlrn","Tue Mar 14 2023 12:56:34 GMT-0400 (Eastern Daylight Time)","761851","Trustworthy,Untrustworthy","image-keyboard-response","68","152988","0.0-6.0-1.31","","","1996","","trustrating_stim/white_mw084.bmp","5","","","","","","","","","","",""
"","","","ratingFB","5f2e0b28c642b31678638a21","bdp_trlrn","Tue Mar 14 2023 12:56:34 GMT-0400 (Eastern Daylight Time)","761851","Trustworthy,Untrustworthy","image-keyboard-response","69","153196","0.0-6.0-2.31","","","null","","trustrating_stim/white_mw084.bmp","null","","","","","","","","","","",""
"","","","rating","5f2e0b28c642b31678638a21","bdp_trlrn","Tue Mar 14 2023 12:56:34 GMT-0400 (Eastern Daylight Time)","761851","Trustworthy,Untrustworthy","image-keyboard-response","70","157175","0.0-6.0-1.32","","","3868","","trustrating_stim/white_mw097.bmp","7","","","","","","","","","","",""
"","","","ratingFB","5f2e0b28c642b31678638a21","bdp_trlrn","Tue Mar 14 2023 12:56:34 GMT-0400 (Eastern Daylight Time)","761851","Trustworthy,Untrustworthy","image-keyboard-response","71","157377","0.0-6.0-2.32","","","null","","trustrating_stim/white_mw097.bmp","null","","","","","","","","","","",""
"","","","rating","5f2e0b28c642b31678638a21","bdp_trlrn","Tue Mar 14 2023 12:56:34 GMT-0400 (Eastern Daylight Time)","761851","Trustworthy,Untrustworthy","image-keyboard-response","72","159899","0.0-6.0-1.33","","","2413","","trustrating_stim/white_00602_940928_fb_edt.bmp","4","","","","","","","","","","",""
"","","","ratingFB","5f2e0b28c642b31678638a21","bdp_trlrn","Tue Mar 14 2023 12:56:34 GMT-0400 (Eastern Daylight Time)","761851","Trustworthy,Untrustworthy","image-keyboard-response","73","160103","0.0-6.0-2.33","","","null","","trustrating_stim/white_00602_940928_fb_edt.bmp","null","","","","","","","","","","",""
"","","","rating","5f2e0b28c642b31678638a21","bdp_trlrn","Tue Mar 14 2023 12:56:34 GMT-0400 (Eastern Daylight Time)","761851","Trustworthy,Untrustworthy","image-keyboard-response","74","162408","0.0-6.0-1.34","","","2196","","trustrating_stim/white_mw035.bmp","5","","","","","","","","","","",""
"","","","ratingFB","5f2e0b28c642b31678638a21","bdp_trlrn","Tue Mar 14 2023 12:56:34 GMT-0400 (Eastern Daylight Time)","761851","Trustworthy,Untrustworthy","image-keyboard-response","75","162621","0.0-6.0-2.34","","","null","","trustrating_stim/white_mw035.bmp","null","","","","","","","","","","",""
"","","","rating","5f2e0b28c642b31678638a21","bdp_trlrn","Tue Mar 14 2023 12:56:34 GMT-0400 (Eastern Daylight Time)","761851","Trustworthy,Untrustworthy","image-keyboard-response","76","165305","0.0-6.0-1.35","","","2573","","trustrating_stim/white_00120_931230_fa_edt.bmp","4","","","","","","","","","","",""
"","","","ratingFB","5f2e0b28c642b31678638a21","bdp_trlrn","Tue Mar 14 2023 12:56:34 GMT-0400 (Eastern Daylight Time)","761851","Trustworthy,Untrustworthy","image-keyboard-response","77","165511","0.0-6.0-2.35","","","null","","trustrating_stim/white_00120_931230_fa_edt.bmp","null","","","","","","","","","","",""
"","","","rating","5f2e0b28c642b31678638a21","bdp_trlrn","Tue Mar 14 2023 12:56:34 GMT-0400 (Eastern Daylight Time)","761851","Trustworthy,Untrustworthy","image-keyboard-response","78","167117","0.0-6.0-1.36","","","1496","","trustrating_stim/white_00807_941205_fb_edt.bmp","7","","","","","","","","","","",""
"","","","ratingFB","5f2e0b28c642b31678638a21","bdp_trlrn","Tue Mar 14 2023 12:56:34 GMT-0400 (Eastern Daylight Time)","761851","Trustworthy,Untrustworthy","image-keyboard-response","79","167329","0.0-6.0-2.36","","","null","","trustrating_stim/white_00807_941205_fb_edt.bmp","null","","","","","","","","","","",""
"","","","rating","5f2e0b28c642b31678638a21","bdp_trlrn","Tue Mar 14 2023 12:56:34 GMT-0400 (Eastern Daylight Time)","761851","Trustworthy,Untrustworthy","image-keyboard-response","80","169697","0.0-6.0-1.37","","","2257","","trustrating_stim/white_00223_940128_fb_edt.bmp","6","","","","","","","","","","",""
"","","","ratingFB","5f2e0b28c642b31678638a21","bdp_trlrn","Tue Mar 14 2023 12:56:34 GMT-0400 (Eastern Daylight Time)","761851","Trustworthy,Untrustworthy","image-keyboard-response","81","169905","0.0-6.0-2.37","","","null","","trustrating_stim/white_00223_940128_fb_edt.bmp","null","","","","","","","","","","",""
"","","","rating","5f2e0b28c642b31678638a21","bdp_trlrn","Tue Mar 14 2023 12:56:34 GMT-0400 (Eastern Daylight Time)","761851","Trustworthy,Untrustworthy","image-keyboard-response","82","171278","0.0-6.0-1.38","","","1262","","trustrating_stim/white_00761_941201_fb_edt.bmp","7","","","","","","","","","","",""
"","","","ratingFB","5f2e0b28c642b31678638a21","bdp_trlrn","Tue Mar 14 2023 12:56:34 GMT-0400 (Eastern Daylight Time)","761851","Trustworthy,Untrustworthy","image-keyboard-response","83","171487","0.0-6.0-2.38","","","null","","trustrating_stim/white_00761_941201_fb_edt.bmp","null","","","","","","","","","","",""
"","","","rating","5f2e0b28c642b31678638a21","bdp_trlrn","Tue Mar 14 2023 12:56:34 GMT-0400 (Eastern Daylight Time)","761851","Trustworthy,Untrustworthy","image-keyboard-response","84","174206","0.0-6.0-1.39","","","2608","","trustrating_stim/white_mw060.bmp","7","","","","","","","","","","",""
"","","","ratingFB","5f2e0b28c642b31678638a21","bdp_trlrn","Tue Mar 14 2023 12:56:34 GMT-0400 (Eastern Daylight Time)","761851","Trustworthy,Untrustworthy","image-keyboard-response","85","174412","0.0-6.0-2.39","","","null","","trustrating_stim/white_mw060.bmp","null","","","","","","","","","","",""
"","","","rating","5f2e0b28c642b31678638a21","bdp_trlrn","Tue Mar 14 2023 12:56:34 GMT-0400 (Eastern Daylight Time)","761851","Trustworthy,Untrustworthy","image-keyboard-response","86","176202","0.0-6.0-1.40","","","1678","","trustrating_stim/white_00659_941121_fa_edt.bmp","6","","","","","","","","","","",""
"","","","ratingFB","5f2e0b28c642b31678638a21","bdp_trlrn","Tue Mar 14 2023 12:56:34 GMT-0400 (Eastern Daylight Time)","761851","Trustworthy,Untrustworthy","image-keyboard-response","87","176416","0.0-6.0-2.40","","","null","","trustrating_stim/white_00659_941121_fa_edt.bmp","null","","","","","","","","","","",""
"","","","rating","5f2e0b28c642b31678638a21","bdp_trlrn","Tue Mar 14 2023 12:56:34 GMT-0400 (Eastern Daylight Time)","761851","Trustworthy,Untrustworthy","image-keyboard-response","88","178076","0.0-6.0-1.41","","","1550","","trustrating_stim/white_00757_941201_fa_edt.bmp","5","","","","","","","","","","",""
"","","","ratingFB","5f2e0b28c642b31678638a21","bdp_trlrn","Tue Mar 14 2023 12:56:34 GMT-0400 (Eastern Daylight Time)","761851","Trustworthy,Untrustworthy","image-keyboard-response","89","178286","0.0-6.0-2.41","","","null","","trustrating_stim/white_00757_941201_fa_edt.bmp","null","","","","","","","","","","",""
"","","","rating","5f2e0b28c642b31678638a21","bdp_trlrn","Tue Mar 14 2023 12:56:34 GMT-0400 (Eastern Daylight Time)","761851","Trustworthy,Untrustworthy","image-keyboard-response","90","180343","0.0-6.0-1.42","","","1946","","trustrating_stim/white_00519_940519_fb_edt.bmp","6","","","","","","","","","","",""
"","","","ratingFB","5f2e0b28c642b31678638a21","bdp_trlrn","Tue Mar 14 2023 12:56:34 GMT-0400 (Eastern Daylight Time)","761851","Trustworthy,Untrustworthy","image-keyboard-response","91","180557","0.0-6.0-2.42","","","null","","trustrating_stim/white_00519_940519_fb_edt.bmp","null","","","","","","","","","","",""
"","","","rating","5f2e0b28c642b31678638a21","bdp_trlrn","Tue Mar 14 2023 12:56:34 GMT-0400 (Eastern Daylight Time)","761851","Trustworthy,Untrustworthy","image-keyboard-response","92","181764","0.0-6.0-1.43","","","1095","","trustrating_stim/white_mw048.bmp","7","","","","","","","","","","",""
"","","","ratingFB","5f2e0b28c642b31678638a21","bdp_trlrn","Tue Mar 14 2023 12:56:34 GMT-0400 (Eastern Daylight Time)","761851","Trustworthy,Untrustworthy","image-keyboard-response","93","181966","0.0-6.0-2.43","","","null","","trustrating_stim/white_mw048.bmp","null","","","","","","","","","","",""
"","","","rating","5f2e0b28c642b31678638a21","bdp_trlrn","Tue Mar 14 2023 12:56:34 GMT-0400 (Eastern Daylight Time)","761851","Trustworthy,Untrustworthy","image-keyboard-response","94","183400","0.0-6.0-1.44","","","1323","","trustrating_stim/white_mw056.bmp","5","","","","","","","","","","",""
"","","","ratingFB","5f2e0b28c642b31678638a21","bdp_trlrn","Tue Mar 14 2023 12:56:34 GMT-0400 (Eastern Daylight Time)","761851","Trustworthy,Untrustworthy","image-keyboard-response","95","183600","0.0-6.0-2.44","","","null","","trustrating_stim/white_mw056.bmp","null","","","","","","","","","","",""
"","","","rating","5f2e0b28c642b31678638a21","bdp_trlrn","Tue Mar 14 2023 12:56:34 GMT-0400 (Eastern Daylight Time)","761851","Trustworthy,Untrustworthy","image-keyboard-response","96","185351","0.0-6.0-1.45","","","1640","","trustrating_stim/white_mw066.bmp","5","","","","","","","","","","",""
"","","","ratingFB","5f2e0b28c642b31678638a21","bdp_trlrn","Tue Mar 14 2023 12:56:34 GMT-0400 (Eastern Daylight Time)","761851","Trustworthy,Untrustworthy","image-keyboard-response","97","185567","0.0-6.0-2.45","","","null","","trustrating_stim/white_mw066.bmp","null","","","","","","","","","","",""
"","","","rating","5f2e0b28c642b31678638a21","bdp_trlrn","Tue Mar 14 2023 12:56:34 GMT-0400 (Eastern Daylight Time)","761851","Trustworthy,Untrustworthy","image-keyboard-response","98","191190","0.0-6.0-1.46","","","5513","","trustrating_stim/white_mw033.bmp","6","","","","","","","","","","",""
"","","","ratingFB","5f2e0b28c642b31678638a21","bdp_trlrn","Tue Mar 14 2023 12:56:34 GMT-0400 (Eastern Daylight Time)","761851","Trustworthy,Untrustworthy","image-keyboard-response","99","191402","0.0-6.0-2.46","","","null","","trustrating_stim/white_mw033.bmp","null","","","","","","","","","","",""
"","","","rating","5f2e0b28c642b31678638a21","bdp_trlrn","Tue Mar 14 2023 12:56:34 GMT-0400 (Eastern Daylight Time)","761851","Trustworthy,Untrustworthy","image-keyboard-response","100","194433","0.0-6.0-1.47","","","2921","","trustrating_stim/white_mw099.bmp","5","","","","","","","","","","",""
"","","","ratingFB","5f2e0b28c642b31678638a21","bdp_trlrn","Tue Mar 14 2023 12:56:34 GMT-0400 (Eastern Daylight Time)","761851","Trustworthy,Untrustworthy","image-keyboard-response","101","194636","0.0-6.0-2.47","","","null","","trustrating_stim/white_mw099.bmp","null","","","","","","","","","","",""
"","","","rating","5f2e0b28c642b31678638a21","bdp_trlrn","Tue Mar 14 2023 12:56:34 GMT-0400 (Eastern Daylight Time)","761851","Trustworthy,Untrustworthy","image-keyboard-response","102","197109","0.0-6.0-1.48","","","2363","","trustrating_stim/white_00898_960530_fa_edt.bmp","4","","","","","","","","","","",""
"","","","ratingFB","5f2e0b28c642b31678638a21","bdp_trlrn","Tue Mar 14 2023 12:56:34 GMT-0400 (Eastern Daylight Time)","761851","Trustworthy,Untrustworthy","image-keyboard-response","103","197318","0.0-6.0-2.48","","","null","","trustrating_stim/white_00898_960530_fa_edt.bmp","null","","","","","","","","","","",""
"","","","rating","5f2e0b28c642b31678638a21","bdp_trlrn","Tue Mar 14 2023 12:56:34 GMT-0400 (Eastern Daylight Time)","761851","Trustworthy,Untrustworthy","image-keyboard-response","104","199502","0.0-6.0-1.49","","","2072","","trustrating_stim/white_00785_941205_fb_edt.bmp","7","","","","","","","","","","",""
"","","","ratingFB","5f2e0b28c642b31678638a21","bdp_trlrn","Tue Mar 14 2023 12:56:34 GMT-0400 (Eastern Daylight Time)","761851","Trustworthy,Untrustworthy","image-keyboard-response","105","199714","0.0-6.0-2.49","","","null","","trustrating_stim/white_00785_941205_fb_edt.bmp","null","","","","","","","","","","",""
"","","","rating","5f2e0b28c642b31678638a21","bdp_trlrn","Tue Mar 14 2023 12:56:34 GMT-0400 (Eastern Daylight Time)","761851","Trustworthy,Untrustworthy","image-keyboard-response","106","201340","0.0-6.0-1.50","","","1516","","trustrating_stim/white_mw063.bmp","7","","","","","","","","","","",""
"","","","ratingFB","5f2e0b28c642b31678638a21","bdp_trlrn","Tue Mar 14 2023 12:56:34 GMT-0400 (Eastern Daylight Time)","761851","Trustworthy,Untrustworthy","image-keyboard-response","107","201554","0.0-6.0-2.50","","","null","","trustrating_stim/white_mw063.bmp","null","","","","","","","","","","",""
"","","","rating","5f2e0b28c642b31678638a21","bdp_trlrn","Tue Mar 14 2023 12:56:34 GMT-0400 (Eastern Daylight Time)","761851","Trustworthy,Untrustworthy","image-keyboard-response","108","203638","0.0-6.0-1.51","","","1974","","trustrating_stim/white_mw053.bmp","5","","","","","","","","","","",""
"","","","ratingFB","5f2e0b28c642b31678638a21","bdp_trlrn","Tue Mar 14 2023 12:56:34 GMT-0400 (Eastern Daylight Time)","761851","Trustworthy,Untrustworthy","image-keyboard-response","109","203840","0.0-6.0-2.51","","","null","","trustrating_stim/white_mw053.bmp","null","","","","","","","","","","",""
"","","","rating","5f2e0b28c642b31678638a21","bdp_trlrn","Tue Mar 14 2023 12:56:34 GMT-0400 (Eastern Daylight Time)","761851","Trustworthy,Untrustworthy","image-keyboard-response","110","206779","0.0-6.0-1.52","","","2827","","trustrating_stim/white_mw049.bmp","4","","","","","","","","","","",""
"","","","ratingFB","5f2e0b28c642b31678638a21","bdp_trlrn","Tue Mar 14 2023 12:56:34 GMT-0400 (Eastern Daylight Time)","761851","Trustworthy,Untrustworthy","image-keyboard-response","111","206985","0.0-6.0-2.52","","","null","","trustrating_stim/white_mw049.bmp","null","","","","","","","","","","",""
"","","","rating","5f2e0b28c642b31678638a21","bdp_trlrn","Tue Mar 14 2023 12:56:34 GMT-0400 (Eastern Daylight Time)","761851","Trustworthy,Untrustworthy","image-keyboard-response","112","210687","0.0-6.0-1.53","","","3592","","trustrating_stim/white_mw046.bmp","6","","","","","","","","","","",""
"","","","ratingFB","5f2e0b28c642b31678638a21","bdp_trlrn","Tue Mar 14 2023 12:56:34 GMT-0400 (Eastern Daylight Time)","761851","Trustworthy,Untrustworthy","image-keyboard-response","113","210889","0.0-6.0-2.53","","","null","","trustrating_stim/white_mw046.bmp","null","","","","","","","","","","",""
"","","","rating","5f2e0b28c642b31678638a21","bdp_trlrn","Tue Mar 14 2023 12:56:34 GMT-0400 (Eastern Daylight Time)","761851","Trustworthy,Untrustworthy","image-keyboard-response","114","214705","0.0-6.0-1.54","","","3706","","trustrating_stim/white_00109_931230_fa_edt.bmp","4","","","","","","","","","","",""
"","","","ratingFB","5f2e0b28c642b31678638a21","bdp_trlrn","Tue Mar 14 2023 12:56:34 GMT-0400 (Eastern Daylight Time)","761851","Trustworthy,Untrustworthy","image-keyboard-response","115","214920","0.0-6.0-2.54","","","null","","trustrating_stim/white_00109_931230_fa_edt.bmp","null","","","","","","","","","","",""
"","","","rating","5f2e0b28c642b31678638a21","bdp_trlrn","Tue Mar 14 2023 12:56:34 GMT-0400 (Eastern Daylight Time)","761851","Trustworthy,Untrustworthy","image-keyboard-response","116","216724","0.0-6.0-1.55","","","1693","","trustrating_stim/white_mw089.bmp","7","","","","","","","","","","",""
"","","","ratingFB","5f2e0b28c642b31678638a21","bdp_trlrn","Tue Mar 14 2023 12:56:34 GMT-0400 (Eastern Daylight Time)","761851","Trustworthy,Untrustworthy","image-keyboard-response","117","216934","0.0-6.0-2.55","","","null","","trustrating_stim/white_mw089.bmp","null","","","","","","","","","","",""
"","","","rating","5f2e0b28c642b31678638a21","bdp_trlrn","Tue Mar 14 2023 12:56:34 GMT-0400 (Eastern Daylight Time)","761851","Trustworthy,Untrustworthy","image-keyboard-response","118","219074","0.0-6.0-1.56","","","2029","","trustrating_stim/white_00129_931230_fb_edt.bmp","4","","","","","","","","","","",""
"","","","ratingFB","5f2e0b28c642b31678638a21","bdp_trlrn","Tue Mar 14 2023 12:56:34 GMT-0400 (Eastern Daylight Time)","761851","Trustworthy,Untrustworthy","image-keyboard-response","119","219277","0.0-6.0-2.56","","","null","","trustrating_stim/white_00129_931230_fb_edt.bmp","null","","","","","","","","","","",""
"","","","rating","5f2e0b28c642b31678638a21","bdp_trlrn","Tue Mar 14 2023 12:56:34 GMT-0400 (Eastern Daylight Time)","761851","Trustworthy,Untrustworthy","image-keyboard-response","120","224662","0.0-6.0-1.57","","","5275","","trustrating_stim/white_00299_940422_fa_edt.bmp","6","","","","","","","","","","",""
"","","","ratingFB","5f2e0b28c642b31678638a21","bdp_trlrn","Tue Mar 14 2023 12:56:34 GMT-0400 (Eastern Daylight Time)","761851","Trustworthy,Untrustworthy","image-keyboard-response","121","224874","0.0-6.0-2.57","","","null","","trustrating_stim/white_00299_940422_fa_edt.bmp","null","","","","","","","","","","",""
"","","","rating","5f2e0b28c642b31678638a21","bdp_trlrn","Tue Mar 14 2023 12:56:34 GMT-0400 (Eastern Daylight Time)","761851","Trustworthy,Untrustworthy","image-keyboard-response","122","228183","0.0-6.0-1.58","","","3198","","trustrating_stim/white_mw071.bmp","7","","","","","","","","","","",""
"","","","ratingFB","5f2e0b28c642b31678638a21","bdp_trlrn","Tue Mar 14 2023 12:56:34 GMT-0400 (Eastern Daylight Time)","761851","Trustworthy,Untrustworthy","image-keyboard-response","123","228391","0.0-6.0-2.58","","","null","","trustrating_stim/white_mw071.bmp","null","","","","","","","","","","",""
"","","","rating","5f2e0b28c642b31678638a21","bdp_trlrn","Tue Mar 14 2023 12:56:34 GMT-0400 (Eastern Daylight Time)","761851","Trustworthy,Untrustworthy","image-keyboard-response","124","230481","0.0-6.0-1.59","","","1979","","trustrating_stim/white_00340_940422_fa_edt.bmp","6","","","","","","","","","","",""
"","","","ratingFB","5f2e0b28c642b31678638a21","bdp_trlrn","Tue Mar 14 2023 12:56:34 GMT-0400 (Eastern Daylight Time)","761851","Trustworthy,Untrustworthy","image-keyboard-response","125","230694","0.0-6.0-2.59","","","null","","trustrating_stim/white_00340_940422_fa_edt.bmp","null","","","","","","","","","","",""
"","","","","5f2e0b28c642b31678638a21","bdp_trlrn","Tue Mar 14 2023 12:56:34 GMT-0400 (Eastern Daylight Time)","761851","Trustworthy,Untrustworthy","instructions","126","233080","0.0-7.0","","[{""page_index"":0,""viewing_time"":2275}]","2275","","","","","","","","","","","","","",""
"","","","","5f2e0b28c642b31678638a21","bdp_trlrn","Tue Mar 14 2023 12:56:34 GMT-0400 (Eastern Daylight Time)","761851","Trustworthy,Untrustworthy","instructions","127","306334","0.0-8.0","","[{""page_index"":0,""viewing_time"":15430},{""page_index"":1,""viewing_time"":11380},{""page_index"":2,""viewing_time"":6324},{""page_index"":3,""viewing_time"":6382},{""page_index"":4,""viewing_time"":8880},{""page_index"":5,""viewing_time"":8829},{""page_index"":6,""viewing_time"":13748},{""page_index"":7,""viewing_time"":2173}]","73146","","","","","","","","","","","","","",""
"","","","","5f2e0b28c642b31678638a21","bdp_trlrn","Tue Mar 14 2023 12:56:34 GMT-0400 (Eastern Daylight Time)","761851","Trustworthy,Untrustworthy","html-keyboard-response","128","316296","0.0-9.0","","","9962","","<div class='header' style='text-align:left; position: absolute; top: 5%; left: 5%;'><small>Task 2 of 5</small></div><div class='instruxDiv'><p><strong>1) What is the minimum number of points you can choose to send to your partner?</strong></p><p>a) 0</p><p>b) 1</p><p>c) 5</p>","A","","","","","","","","","","",""
"","","","","5f2e0b28c642b31678638a21","bdp_trlrn","Tue Mar 14 2023 12:56:34 GMT-0400 (Eastern Daylight Time)","761851","Trustworthy,Untrustworthy","html-keyboard-response","129","320943","0.0-10.0","","","4536","","<div class='header' style='text-align:left; position: absolute; top: 5%; left: 5%;'><small>Task 2 of 5</small></div><div class='instruxDiv'><p><strong>1) What is the minimum number of points you can choose to send to your partner?</strong></p><p style='color:#FF0000'>a) 0</p><p>b) 1</p><p>c) 5</p><h3 style='color:#FF0000'>Incorrect!</h3><h3 class='center-content'>The correct response is b).</h3><h3 class='center-content'>The minimum number of points you can choose to send to your partner is 1 point.</h3><p><em>Press SPACEBAR to continue</em></p></div>"," ","","","","","","","","","","",""
"","","","","5f2e0b28c642b31678638a21","bdp_trlrn","Tue Mar 14 2023 12:56:34 GMT-0400 (Eastern Daylight Time)","761851","Trustworthy,Untrustworthy","html-keyboard-response","130","325456","0.0-11.0","","","4407","","<div class='header' style='text-align:left; position: absolute; top: 5%; left: 5%;'><small>Task 2 of 5</small></div><div class='instruxDiv'><p><strong>2) What is the maximum number of points you can choose to send to your partner?</strong></p><p>a) 8</p><p>b) 5</p><p>c) 3</p>","B","","","","","","","","","","",""
"","","","","5f2e0b28c642b31678638a21","bdp_trlrn","Tue Mar 14 2023 12:56:34 GMT-0400 (Eastern Daylight Time)","761851","Trustworthy,Untrustworthy","html-keyboard-response","131","327602","0.0-12.0","","","2039","","<div class='header' style='text-align:left; position: absolute; top: 5%; left: 5%;'><small>Task 2 of 5</small></div><div class='instruxDiv'><p><strong>2) What is the maximum number of points you can choose to send to your partner?</strong></p><p>a) 8</p><p style='color:#00FF00'>b) 5</p><p>c) 3</p><h3 style='color:#00FF00'>Correct!</h3><h3 class='center-content'>The correct response is b).</h3><h3 class='center-content'>The maximum number of points you can choose to send to your partner is 5 points.</h3><p><em>Press SPACEBAR to continue</em></p></div>"," ","","","","","","","","","","",""
"","","","","5f2e0b28c642b31678638a21","bdp_trlrn","Tue Mar 14 2023 12:56:34 GMT-0400 (Eastern Daylight Time)","761851","Trustworthy,Untrustworthy","html-keyboard-response","132","330681","0.0-13.0","","","2970","","<div class='header' style='text-align:left; position: absolute; top: 5%; left: 5%;'><small>Task 2 of 5</small></div><div class='instruxDiv'><p><strong>3) What happens to the amount of points you send to your partner?</strong></p><p>a) Nothing</p><p>b) It doubles</p><p>c) It quadruples</p>","C","","","","","","","","","","",""
"","","","","5f2e0b28c642b31678638a21","bdp_trlrn","Tue Mar 14 2023 12:56:34 GMT-0400 (Eastern Daylight Time)","761851","Trustworthy,Untrustworthy","html-keyboard-response","133","331625","0.0-14.0","","","837","","<div class='header' style='text-align:left; position: absolute; top: 5%; left: 5%;'><small>Task 2 of 5</small></div><div class='instruxDiv'><p><strong>3) What happens to the amount of points you send to your partner?</strong></p><p>a) Nothing</p><p>b) It doubles</p><p style='color:#00FF00'>c) It quadruples</p><h3 style='color:#00FF00'>Correct!</h3><h3 class='center-content'>The correct response is c).</h3><h3 class='center-content'>The amount of points you send to your partner quadruples.</h3><p><em>Press SPACEBAR to continue</em></p></div>"," ","","","","","","","","","","",""
"","","","","5f2e0b28c642b31678638a21","bdp_trlrn","Tue Mar 14 2023 12:56:34 GMT-0400 (Eastern Daylight Time)","761851","Trustworthy,Untrustworthy","html-keyboard-response","134","345368","0.0-15.0","","","13630","","<div class='header' style='text-align:left; position: absolute; top: 5%; left: 5%;'><small>Task 2 of 5</small></div><div class='instruxDiv'><p><strong>4) If you decided to share 4 out of 5 points with your partner, and they decided to share half of the amount they received with you, how many points would you receive back from them on this round?</strong></p><p>a) 16</p><p>b) 0</p><p>c) 8</p>","C","","","","","","","","","","",""
"","","","","5f2e0b28c642b31678638a21","bdp_trlrn","Tue Mar 14 2023 12:56:34 GMT-0400 (Eastern Daylight Time)","761851","Trustworthy,Untrustworthy","html-keyboard-response","135","346739","0.0-16.0","","","1263","","<div class='header' style='text-align:left; position: absolute; top: 5%; left: 5%;'><small>Task 2 of 5</small></div><div class='instruxDiv'><p><strong>4) If you decided to share 4 out of 5 points with your partner, and they decided to share half of the amount they received with you, how many points would you receive back from them on this round?</strong></p><p>a) 16</p><p>b) 0</p><p style='color:#00FF00'>c) 8</p><h3 style='color:#00FF00'>Correct!</h3><h3 class='center-content'>The correct response is c).</h3><h3 class='center-content'>If you shared 4 out of 5 points with your partner and they decided to share half of the amount they received with you, you would receive 8 points back (i.e. (4 x 4)/2 = 8).</h3><p><em>Press SPACEBAR to continue</em></p></div>"," ","","","","","","","","","","",""
"","","","","5f2e0b28c642b31678638a21","bdp_trlrn","Tue Mar 14 2023 12:56:34 GMT-0400 (Eastern Daylight Time)","761851","Trustworthy,Untrustworthy","html-keyboard-response","136","351856","0.0-17.0","","","null","","<div class='header' style='text-align:left; position: absolute; top: 5%; left: 5%;'><small>Task 2 of 5</small></div><div class='instruxDiv'><p>Thank you for completing the quiz<p>These are the actual partners you will be interacting with in the next block:<p><div class='tc' align='center'><img class='introPic' src='trustrating_stim/white_00602_940928_fb_edt.bmp'><br><strong>Richard</strong></div><div class='bl' align='center'><img class='introPic' src='trustrating_stim/white_mw033.bmp'><br><strong>Benjamin</strong></div><div class='br' align='center'><img class='introPic' src='trustrating_stim/white_mw071.bmp'><br><strong>Ethan</strong></div></div><p>Across <strong>66 rounds</strong> you will interact with each partner <strong>22 times</strong> (in random order).<p style='align:center; color:white'><font <em>Press SPACEBAR to continue</em></p>","null","","","","","","","","","","",""
"","","","","5f2e0b28c642b31678638a21","bdp_trlrn","Tue Mar 14 2023 12:56:34 GMT-0400 (Eastern Daylight Time)","761851","Trustworthy,Untrustworthy","instructions","137","355518","0.0-18.0","","[{""page_index"":0,""viewing_time"":840},{""page_index"":1,""viewing_time"":2822}]","3662","","","","","","","","","","","","","",""
"","","","decision","5f2e0b28c642b31678638a21","bdp_trlrn","Tue Mar 14 2023 12:56:34 GMT-0400 (Eastern Daylight Time)","761851","Trustworthy,Untrustworthy","html-keyboard-response","138","364619","0.0-19.0-1.0","","","8996","","<div class='trialDiv'><img src='trustrating_stim/white_mw033.bmp'><br><font class='baseline'><strong>Benjamin</strong><p>Choose number of points to send.</font><div class='respPicDiv'><img src='img/responseButtonOffersNo0L.png' class='respPic'></div></div>","3","1","Benjamin","5","Kept","0.2,0.65","12","0.2","trustrating_stim/white_mw033.bmp","6","5","1"
"","","","decisionFB","5f2e0b28c642b31678638a21","bdp_trlrn","Tue Mar 14 2023 12:56:34 GMT-0400 (Eastern Daylight Time)","761851","Trustworthy,Untrustworthy","html-keyboard-response","139","364880","0.0-19.0-2.0","","","null","","<div class='trialDiv'><img src='trustrating_stim/white_mw033.bmp'><br><font class='baseline'><strong>Benjamin</strong><p>Choose number of points to send.</font><div class='respPicDiv'><img src='img/responseButtonOffersNo0L3.png' class='respPic'></div></div>","null","1","Benjamin","5","Kept","0.2,0.65","12","0.2","trustrating_stim/white_mw033.bmp","6","2","1"
"","","","feedback","5f2e0b28c642b31678638a21","bdp_trlrn","Tue Mar 14 2023 12:56:34 GMT-0400 (Eastern Daylight Time)","761851","Trustworthy,Untrustworthy","html-keyboard-response","140","365896","0.0-19.0-3.0","","","null","","<div class='trialDiv'><img src='trustrating_stim/white_mw033.bmp'><br><font class='baseline'><strong>Benjamin</strong><p>Received: <strong>12</strong></font> &nbsp; &nbsp; &nbsp; &nbsp; &nbsp; &nbsp;<font class='negOutcome'>Shared back: <strong>0</strong></font></font><div class='respPicDiv'><img src='img/responseButtonOffersNo0_wht.png' class='respPic'></div></div>","null","1","Benjamin","5","Kept","0.2,0.65","12","0.2","trustrating_stim/white_mw033.bmp","6","2","1"
"","","","decision","5f2e0b28c642b31678638a21","bdp_trlrn","Tue Mar 14 2023 12:56:34 GMT-0400 (Eastern Daylight Time)","761851","Trustworthy,Untrustworthy","html-keyboard-response","141","369784","0.0-19.0-1.1","","","3888","","<div class='trialDiv'><img src='trustrating_stim/white_00602_940928_fb_edt.bmp'><br><font class='baseline'><strong>Richard</strong><p>Choose number of points to send.</font><div class='respPicDiv'><img src='img/responseButtonOffersNo0L.png' class='respPic'></div></div>","3","1","Richard","1","Shared","0.8,0.2","12","0.8","trustrating_stim/white_00602_940928_fb_edt.bmp","4","7","2"
"","","","decisionFB","5f2e0b28c642b31678638a21","bdp_trlrn","Tue Mar 14 2023 12:56:34 GMT-0400 (Eastern Daylight Time)","761851","Trustworthy,Untrustworthy","html-keyboard-response","142","370043","0.0-19.0-2.1","","","null","","<div class='trialDiv'><img src='trustrating_stim/white_00602_940928_fb_edt.bmp'><br><font class='baseline'><strong>Richard</strong><p>Choose number of points to send.</font><div class='respPicDiv'><img src='img/responseButtonOffersNo0L3.png' class='respPic'></div></div>","null","1","Richard","1","Shared","0.8,0.2","12","0.8","trustrating_stim/white_00602_940928_fb_edt.bmp","4","4","2"
"","","","feedback","5f2e0b28c642b31678638a21","bdp_trlrn","Tue Mar 14 2023 12:56:34 GMT-0400 (Eastern Daylight Time)","761851","Trustworthy,Untrustworthy","html-keyboard-response","143","371045","0.0-19.0-3.1","","","null","","<div class='trialDiv'><img src='trustrating_stim/white_00602_940928_fb_edt.bmp'><br><font class='baseline'><strong>Richard</strong><p>Received: <strong>12</strong></font> &nbsp; &nbsp; &nbsp; &nbsp; &nbsp; &nbsp;<font class='posOutcome'>Shared back: <strong>6</strong></font></font><div class='respPicDiv'><img src='img/responseButtonOffersNo0_wht.png' class='respPic'></div></div>","null","1","Richard","1","Shared","0.8,0.2","12","0.8","trustrating_stim/white_00602_940928_fb_edt.bmp","4","10","2"
"","","","decision","5f2e0b28c642b31678638a21","bdp_trlrn","Tue Mar 14 2023 12:56:34 GMT-0400 (Eastern Daylight Time)","761851","Trustworthy,Untrustworthy","html-keyboard-response","144","372748","0.0-19.0-1.2","","","1703","","<div class='trialDiv'><img src='trustrating_stim/white_mw071.bmp'><br><font class='baseline'><strong>Ethan</strong><p>Choose number of points to send.</font><div class='respPicDiv'><img src='img/responseButtonOffersNo0L.png' class='respPic'></div></div>","3","1","Ethan","11","Kept","0.65,0.2","9","0.65","trustrating_stim/white_mw071.bmp","7.5","15","3"
"","","","decisionFB","5f2e0b28c642b31678638a21","bdp_trlrn","Tue Mar 14 2023 12:56:34 GMT-0400 (Eastern Daylight Time)","761851","Trustworthy,Untrustworthy","html-keyboard-response","145","373006","0.0-19.0-2.2","","","null","","<div class='trialDiv'><img src='trustrating_stim/white_mw071.bmp'><br><font class='baseline'><strong>Ethan</strong><p>Choose number of points to send.</font><div class='respPicDiv'><img src='img/responseButtonOffersNo0L3.png' class='respPic'></div></div>","null","1","Ethan","11","Kept","0.65,0.2","9","0.65","trustrating_stim/white_mw071.bmp","7.5","12","3"
"","","","feedback","5f2e0b28c642b31678638a21","bdp_trlrn","Tue Mar 14 2023 12:56:34 GMT-0400 (Eastern Daylight Time)","761851","Trustworthy,Untrustworthy","html-keyboard-response","146","374010","0.0-19.0-3.2","","","null","","<div class='trialDiv'><img src='trustrating_stim/white_mw071.bmp'><br><font class='baseline'><strong>Ethan</strong><p>Received: <strong>12</strong></font> &nbsp; &nbsp; &nbsp; &nbsp; &nbsp; &nbsp;<font class='negOutcome'>Shared back: <strong>0</strong></font></font><div class='respPicDiv'><img src='img/responseButtonOffersNo0_wht.png' class='respPic'></div></div>","null","1","Ethan","11","Kept","0.65,0.2","9","0.65","trustrating_stim/white_mw071.bmp","7.5","12","3"
"","","","decision","5f2e0b28c642b31678638a21","bdp_trlrn","Tue Mar 14 2023 12:56:34 GMT-0400 (Eastern Daylight Time)","761851","Trustworthy,Untrustworthy","html-keyboard-response","147","375715","0.0-19.0-1.3","","","1704","","<div class='trialDiv'><img src='trustrating_stim/white_mw033.bmp'><br><font class='baseline'><strong>Benjamin</strong><p>Choose number of points to send.</font><div class='respPicDiv'><img src='img/responseButtonOffersNo0L.png' class='respPic'></div></div>","1","2","Benjamin","5","Shared","0.2,0.65","12","0.2","trustrating_stim/white_mw033.bmp","6","17","4"
"","","","decisionFB","5f2e0b28c642b31678638a21","bdp_trlrn","Tue Mar 14 2023 12:56:34 GMT-0400 (Eastern Daylight Time)","761851","Trustworthy,Untrustworthy","html-keyboard-response","148","375979","0.0-19.0-2.3","","","null","","<div class='trialDiv'><img src='trustrating_stim/white_mw033.bmp'><br><font class='baseline'><strong>Benjamin</strong><p>Choose number of points to send.</font><div class='respPicDiv'><img src='img/responseButtonOffersNo0L1.png' class='respPic'></div></div>","null","2","Benjamin","5","Shared","0.2,0.65","12","0.2","trustrating_stim/white_mw033.bmp","6","16","4"
"","","","feedback","5f2e0b28c642b31678638a21","bdp_trlrn","Tue Mar 14 2023 12:56:34 GMT-0400 (Eastern Daylight Time)","761851","Trustworthy,Untrustworthy","html-keyboard-response","149","376992","0.0-19.0-3.3","","","null","","<div class='trialDiv'><img src='trustrating_stim/white_mw033.bmp'><br><font class='baseline'><strong>Benjamin</strong><p>Received: <strong>4</strong></font> &nbsp; &nbsp; &nbsp; &nbsp; &nbsp; &nbsp;<font class='posOutcome'>Shared back: <strong>2</strong></font></font><div class='respPicDiv'><img src='img/responseButtonOffersNo0_wht.png' class='respPic'></div></div>","null","2","Benjamin","5","Shared","0.2,0.65","12","0.2","trustrating_stim/white_mw033.bmp","6","18","4"
"","","","decision","5f2e0b28c642b31678638a21","bdp_trlrn","Tue Mar 14 2023 12:56:34 GMT-0400 (Eastern Daylight Time)","761851","Trustworthy,Untrustworthy","html-keyboard-response","150","379848","0.0-19.0-1.4","","","2854","","<div class='trialDiv'><img src='trustrating_stim/white_mw071.bmp'><br><font class='baseline'><strong>Ethan</strong><p>Choose number of points to send.</font><div class='respPicDiv'><img src='img/responseButtonOffersNo0L.png' class='respPic'></div></div>","1","2","Ethan","11","Shared","0.65,0.2","9","0.65","trustrating_stim/white_mw071.bmp","7.5","23","5"
"","","","decisionFB","5f2e0b28c642b31678638a21","bdp_trlrn","Tue Mar 14 2023 12:56:34 GMT-0400 (Eastern Daylight Time)","761851","Trustworthy,Untrustworthy","html-keyboard-response","151","380104","0.0-19.0-2.4","","","null","","<div class='trialDiv'><img src='trustrating_stim/white_mw071.bmp'><br><font class='baseline'><strong>Ethan</strong><p>Choose number of points to send.</font><div class='respPicDiv'><img src='img/responseButtonOffersNo0L1.png' class='respPic'></div></div>","null","2","Ethan","11","Shared","0.65,0.2","9","0.65","trustrating_stim/white_mw071.bmp","7.5","22","5"
"","","","feedback","5f2e0b28c642b31678638a21","bdp_trlrn","Tue Mar 14 2023 12:56:34 GMT-0400 (Eastern Daylight Time)","761851","Trustworthy,Untrustworthy","html-keyboard-response","152","381120","0.0-19.0-3.4","","","null","","<div class='trialDiv'><img src='trustrating_stim/white_mw071.bmp'><br><font class='baseline'><strong>Ethan</strong><p>Received: <strong>4</strong></font> &nbsp; &nbsp; &nbsp; &nbsp; &nbsp; &nbsp;<font class='posOutcome'>Shared back: <strong>2</strong></font></font><div class='respPicDiv'><img src='img/responseButtonOffersNo0_wht.png' class='respPic'></div></div>","null","2","Ethan","11","Shared","0.65,0.2","9","0.65","trustrating_stim/white_mw071.bmp","7.5","24","5"
"","","","decision","5f2e0b28c642b31678638a21","bdp_trlrn","Tue Mar 14 2023 12:56:34 GMT-0400 (Eastern Daylight Time)","761851","Trustworthy,Untrustworthy","html-keyboard-response","153","383333","0.0-19.0-1.5","","","2213","","<div class='trialDiv'><img src='trustrating_stim/white_00602_940928_fb_edt.bmp'><br><font class='baseline'><strong>Richard</strong><p>Choose number of points to send.</font><div class='respPicDiv'><img src='img/responseButtonOffersNo0L.png' class='respPic'></div></div>","5","2","Richard","1","Shared","0.8,0.2","12","0.8","trustrating_stim/white_00602_940928_fb_edt.bmp","4","29","6"
"","","","decisionFB","5f2e0b28c642b31678638a21","bdp_trlrn","Tue Mar 14 2023 12:56:34 GMT-0400 (Eastern Daylight Time)","761851","Trustworthy,Untrustworthy","html-keyboard-response","154","383587","0.0-19.0-2.5","","","null","","<div class='trialDiv'><img src='trustrating_stim/white_00602_940928_fb_edt.bmp'><br><font class='baseline'><strong>Richard</strong><p>Choose number of points to send.</font><div class='respPicDiv'><img src='img/responseButtonOffersNo0L5.png' class='respPic'></div></div>","null","2","Richard","1","Shared","0.8,0.2","12","0.8","trustrating_stim/white_00602_940928_fb_edt.bmp","4","24","6"
"","","","feedback","5f2e0b28c642b31678638a21","bdp_trlrn","Tue Mar 14 2023 12:56:34 GMT-0400 (Eastern Daylight Time)","761851","Trustworthy,Untrustworthy","html-keyboard-response","155","384589","0.0-19.0-3.5","","","null","","<div class='trialDiv'><img src='trustrating_stim/white_00602_940928_fb_edt.bmp'><br><font class='baseline'><strong>Richard</strong><p>Received: <strong>20</strong></font> &nbsp; &nbsp; &nbsp; &nbsp; &nbsp; &nbsp;<font class='posOutcome'>Shared back: <strong>10</strong></font></font><div class='respPicDiv'><img src='img/responseButtonOffersNo0_wht.png' class='respPic'></div></div>","null","2","Richard","1","Shared","0.8,0.2","12","0.8","trustrating_stim/white_00602_940928_fb_edt.bmp","4","34","6"
"","","","decision","5f2e0b28c642b31678638a21","bdp_trlrn","Tue Mar 14 2023 12:56:34 GMT-0400 (Eastern Daylight Time)","761851","Trustworthy,Untrustworthy","html-keyboard-response","156","386572","0.0-19.0-1.6","","","1983","","<div class='trialDiv'><img src='trustrating_stim/white_mw033.bmp'><br><font class='baseline'><strong>Benjamin</strong><p>Choose number of points to send.</font><div class='respPicDiv'><img src='img/responseButtonOffersNo0L.png' class='respPic'></div></div>","1","3","Benjamin","5","Kept","0.2,0.65","12","0.2","trustrating_stim/white_mw033.bmp","6","39","7"
"","","","decisionFB","5f2e0b28c642b31678638a21","bdp_trlrn","Tue Mar 14 2023 12:56:34 GMT-0400 (Eastern Daylight Time)","761851","Trustworthy,Untrustworthy","html-keyboard-response","157","386824","0.0-19.0-2.6","","","null","","<div class='trialDiv'><img src='trustrating_stim/white_mw033.bmp'><br><font class='baseline'><strong>Benjamin</strong><p>Choose number of points to send.</font><div class='respPicDiv'><img src='img/responseButtonOffersNo0L1.png' class='respPic'></div></div>","null","3","Benjamin","5","Kept","0.2,0.65","12","0.2","trustrating_stim/white_mw033.bmp","6","38","7"
"","","","feedback","5f2e0b28c642b31678638a21","bdp_trlrn","Tue Mar 14 2023 12:56:34 GMT-0400 (Eastern Daylight Time)","761851","Trustworthy,Untrustworthy","html-keyboard-response","158","387827","0.0-19.0-3.6","","","null","","<div class='trialDiv'><img src='trustrating_stim/white_mw033.bmp'><br><font class='baseline'><strong>Benjamin</strong><p>Received: <strong>4</strong></font> &nbsp; &nbsp; &nbsp; &nbsp; &nbsp; &nbsp;<font class='negOutcome'>Shared back: <strong>0</strong></font></font><div class='respPicDiv'><img src='img/responseButtonOffersNo0_wht.png' class='respPic'></div></div>","null","3","Benjamin","5","Kept","0.2,0.65","12","0.2","trustrating_stim/white_mw033.bmp","6","38","7"
"","","","decision","5f2e0b28c642b31678638a21","bdp_trlrn","Tue Mar 14 2023 12:56:34 GMT-0400 (Eastern Daylight Time)","761851","Trustworthy,Untrustworthy","html-keyboard-response","159","392751","0.0-19.0-1.7","","","4923","","<div class='trialDiv'><img src='trustrating_stim/white_00602_940928_fb_edt.bmp'><br><font class='baseline'><strong>Richard</strong><p>Choose number of points to send.</font><div class='respPicDiv'><img src='img/responseButtonOffersNo0L.png' class='respPic'></div></div>","5","3","Richard","1","Kept","0.8,0.2","12","0.8","trustrating_stim/white_00602_940928_fb_edt.bmp","4","43","8"
"","","","decisionFB","5f2e0b28c642b31678638a21","bdp_trlrn","Tue Mar 14 2023 12:56:34 GMT-0400 (Eastern Daylight Time)","761851","Trustworthy,Untrustworthy","html-keyboard-response","160","393005","0.0-19.0-2.7","","","null","","<div class='trialDiv'><img src='trustrating_stim/white_00602_940928_fb_edt.bmp'><br><font class='baseline'><strong>Richard</strong><p>Choose number of points to send.</font><div class='respPicDiv'><img src='img/responseButtonOffersNo0L5.png' class='respPic'></div></div>","null","3","Richard","1","Kept","0.8,0.2","12","0.8","trustrating_stim/white_00602_940928_fb_edt.bmp","4","38","8"
"","","","feedback","5f2e0b28c642b31678638a21","bdp_trlrn","Tue Mar 14 2023 12:56:34 GMT-0400 (Eastern Daylight Time)","761851","Trustworthy,Untrustworthy","html-keyboard-response","161","394021","0.0-19.0-3.7","","","null","","<div class='trialDiv'><img src='trustrating_stim/white_00602_940928_fb_edt.bmp'><br><font class='baseline'><strong>Richard</strong><p>Received: <strong>20</strong></font> &nbsp; &nbsp; &nbsp; &nbsp; &nbsp; &nbsp;<font class='negOutcome'>Shared back: <strong>0</strong></font></font><div class='respPicDiv'><img src='img/responseButtonOffersNo0_wht.png' class='respPic'></div></div>","null","3","Richard","1","Kept","0.8,0.2","12","0.8","trustrating_stim/white_00602_940928_fb_edt.bmp","4","38","8"
"","","","decision","5f2e0b28c642b31678638a21","bdp_trlrn","Tue Mar 14 2023 12:56:34 GMT-0400 (Eastern Daylight Time)","761851","Trustworthy,Untrustworthy","html-keyboard-response","162","399198","0.0-19.0-1.8","","","5176","","<div class='trialDiv'><img src='trustrating_stim/white_mw071.bmp'><br><font class='baseline'><strong>Ethan</strong><p>Choose number of points to send.</font><div class='respPicDiv'><img src='img/responseButtonOffersNo0L.png' class='respPic'></div></div>","1","3","Ethan","11","Kept","0.65,0.2","9","0.65","trustrating_stim/white_mw071.bmp","7.5","43","9"
"","","","decisionFB","5f2e0b28c642b31678638a21","bdp_trlrn","Tue Mar 14 2023 12:56:34 GMT-0400 (Eastern Daylight Time)","761851","Trustworthy,Untrustworthy","html-keyboard-response","163","399456","0.0-19.0-2.8","","","null","","<div class='trialDiv'><img src='trustrating_stim/white_mw071.bmp'><br><font class='baseline'><strong>Ethan</strong><p>Choose number of points to send.</font><div class='respPicDiv'><img src='img/responseButtonOffersNo0L1.png' class='respPic'></div></div>","null","3","Ethan","11","Kept","0.65,0.2","9","0.65","trustrating_stim/white_mw071.bmp","7.5","42","9"
"","","","feedback","5f2e0b28c642b31678638a21","bdp_trlrn","Tue Mar 14 2023 12:56:34 GMT-0400 (Eastern Daylight Time)","761851","Trustworthy,Untrustworthy","html-keyboard-response","164","400470","0.0-19.0-3.8","","","null","","<div class='trialDiv'><img src='trustrating_stim/white_mw071.bmp'><br><font class='baseline'><strong>Ethan</strong><p>Received: <strong>4</strong></font> &nbsp; &nbsp; &nbsp; &nbsp; &nbsp; &nbsp;<font class='negOutcome'>Shared back: <strong>0</strong></font></font><div class='respPicDiv'><img src='img/responseButtonOffersNo0_wht.png' class='respPic'></div></div>","null","3","Ethan","11","Kept","0.65,0.2","9","0.65","trustrating_stim/white_mw071.bmp","7.5","42","9"
"","","","decision","5f2e0b28c642b31678638a21","bdp_trlrn","Tue Mar 14 2023 12:56:34 GMT-0400 (Eastern Daylight Time)","761851","Trustworthy,Untrustworthy","html-keyboard-response","165","404416","0.0-19.0-1.9","","","3946","","<div class='trialDiv'><img src='trustrating_stim/white_00602_940928_fb_edt.bmp'><br><font class='baseline'><strong>Richard</strong><p>Choose number of points to send.</font><div class='respPicDiv'><img src='img/responseButtonOffersNo0L.png' class='respPic'></div></div>","2","4","Richard","1","Kept","0.8,0.2","12","0.8","trustrating_stim/white_00602_940928_fb_edt.bmp","4","47","10"
"","","","decisionFB","5f2e0b28c642b31678638a21","bdp_trlrn","Tue Mar 14 2023 12:56:34 GMT-0400 (Eastern Daylight Time)","761851","Trustworthy,Untrustworthy","html-keyboard-response","166","404681","0.0-19.0-2.9","","","null","","<div class='trialDiv'><img src='trustrating_stim/white_00602_940928_fb_edt.bmp'><br><font class='baseline'><strong>Richard</strong><p>Choose number of points to send.</font><div class='respPicDiv'><img src='img/responseButtonOffersNo0L2.png' class='respPic'></div></div>","null","4","Richard","1","Kept","0.8,0.2","12","0.8","trustrating_stim/white_00602_940928_fb_edt.bmp","4","45","10"
"","","","feedback","5f2e0b28c642b31678638a21","bdp_trlrn","Tue Mar 14 2023 12:56:34 GMT-0400 (Eastern Daylight Time)","761851","Trustworthy,Untrustworthy","html-keyboard-response","167","405685","0.0-19.0-3.9","","","null","","<div class='trialDiv'><img src='trustrating_stim/white_00602_940928_fb_edt.bmp'><br><font class='baseline'><strong>Richard</strong><p>Received: <strong>8</strong></font> &nbsp; &nbsp; &nbsp; &nbsp; &nbsp; &nbsp;<font class='negOutcome'>Shared back: <strong>0</strong></font></font><div class='respPicDiv'><img src='img/responseButtonOffersNo0_wht.png' class='respPic'></div></div>","null","4","Richard","1","Kept","0.8,0.2","12","0.8","trustrating_stim/white_00602_940928_fb_edt.bmp","4","45","10"
"","","","decision","5f2e0b28c642b31678638a21","bdp_trlrn","Tue Mar 14 2023 12:56:34 GMT-0400 (Eastern Daylight Time)","761851","Trustworthy,Untrustworthy","html-keyboard-response","168","406985","0.0-19.0-1.10","","","1299","","<div class='trialDiv'><img src='trustrating_stim/white_mw071.bmp'><br><font class='baseline'><strong>Ethan</strong><p>Choose number of points to send.</font><div class='respPicDiv'><img src='img/responseButtonOffersNo0L.png' class='respPic'></div></div>","1","4","Ethan","11","Shared","0.65,0.2","9","0.65","trustrating_stim/white_mw071.bmp","7.5","50","11"
"","","","decisionFB","5f2e0b28c642b31678638a21","bdp_trlrn","Tue Mar 14 2023 12:56:34 GMT-0400 (Eastern Daylight Time)","761851","Trustworthy,Untrustworthy","html-keyboard-response","169","407238","0.0-19.0-2.10","","","null","","<div class='trialDiv'><img src='trustrating_stim/white_mw071.bmp'><br><font class='baseline'><strong>Ethan</strong><p>Choose number of points to send.</font><div class='respPicDiv'><img src='img/responseButtonOffersNo0L1.png' class='respPic'></div></div>","null","4","Ethan","11","Shared","0.65,0.2","9","0.65","trustrating_stim/white_mw071.bmp","7.5","49","11"
"","","","feedback","5f2e0b28c642b31678638a21","bdp_trlrn","Tue Mar 14 2023 12:56:34 GMT-0400 (Eastern Daylight Time)","761851","Trustworthy,Untrustworthy","html-keyboard-response","170","408239","0.0-19.0-3.10","","","null","","<div class='trialDiv'><img src='trustrating_stim/white_mw071.bmp'><br><font class='baseline'><strong>Ethan</strong><p>Received: <strong>4</strong></font> &nbsp; &nbsp; &nbsp; &nbsp; &nbsp; &nbsp;<font class='posOutcome'>Shared back: <strong>2</strong></font></font><div class='respPicDiv'><img src='img/responseButtonOffersNo0_wht.png' class='respPic'></div></div>","null","4","Ethan","11","Shared","0.65,0.2","9","0.65","trustrating_stim/white_mw071.bmp","7.5","51","11"
"","","","decision","5f2e0b28c642b31678638a21","bdp_trlrn","Tue Mar 14 2023 12:56:34 GMT-0400 (Eastern Daylight Time)","761851","Trustworthy,Untrustworthy","html-keyboard-response","171","410507","0.0-19.0-1.11","","","2267","","<div class='trialDiv'><img src='trustrating_stim/white_mw033.bmp'><br><font class='baseline'><strong>Benjamin</strong><p>Choose number of points to send.</font><div class='respPicDiv'><img src='img/responseButtonOffersNo0L.png' class='respPic'></div></div>","3","4","Benjamin","5","Kept","0.2,0.65","12","0.2","trustrating_stim/white_mw033.bmp","6","56","12"
"","","","decisionFB","5f2e0b28c642b31678638a21","bdp_trlrn","Tue Mar 14 2023 12:56:34 GMT-0400 (Eastern Daylight Time)","761851","Trustworthy,Untrustworthy","html-keyboard-response","172","410766","0.0-19.0-2.11","","","null","","<div class='trialDiv'><img src='trustrating_stim/white_mw033.bmp'><br><font class='baseline'><strong>Benjamin</strong><p>Choose number of points to send.</font><div class='respPicDiv'><img src='img/responseButtonOffersNo0L3.png' class='respPic'></div></div>","null","4","Benjamin","5","Kept","0.2,0.65","12","0.2","trustrating_stim/white_mw033.bmp","6","53","12"
"","","","feedback","5f2e0b28c642b31678638a21","bdp_trlrn","Tue Mar 14 2023 12:56:34 GMT-0400 (Eastern Daylight Time)","761851","Trustworthy,Untrustworthy","html-keyboard-response","173","411778","0.0-19.0-3.11","","","null","","<div class='trialDiv'><img src='trustrating_stim/white_mw033.bmp'><br><font class='baseline'><strong>Benjamin</strong><p>Received: <strong>12</strong></font> &nbsp; &nbsp; &nbsp; &nbsp; &nbsp; &nbsp;<font class='negOutcome'>Shared back: <strong>0</strong></font></font><div class='respPicDiv'><img src='img/responseButtonOffersNo0_wht.png' class='respPic'></div></div>","null","4","Benjamin","5","Kept","0.2,0.65","12","0.2","trustrating_stim/white_mw033.bmp","6","53","12"
"","","","decision","5f2e0b28c642b31678638a21","bdp_trlrn","Tue Mar 14 2023 12:56:34 GMT-0400 (Eastern Daylight Time)","761851","Trustworthy,Untrustworthy","html-keyboard-response","174","412988","0.0-19.0-1.12","","","1209","","<div class='trialDiv'><img src='trustrating_stim/white_00602_940928_fb_edt.bmp'><br><font class='baseline'><strong>Richard</strong><p>Choose number of points to send.</font><div class='respPicDiv'><img src='img/responseButtonOffersNo0L.png' class='respPic'></div></div>","1","5","Richard","1","Shared","0.8,0.2","12","0.8","trustrating_stim/white_00602_940928_fb_edt.bmp","4","58","13"
"","","","decisionFB","5f2e0b28c642b31678638a21","bdp_trlrn","Tue Mar 14 2023 12:56:34 GMT-0400 (Eastern Daylight Time)","761851","Trustworthy,Untrustworthy","html-keyboard-response","175","413250","0.0-19.0-2.12","","","null","","<div class='trialDiv'><img src='trustrating_stim/white_00602_940928_fb_edt.bmp'><br><font class='baseline'><strong>Richard</strong><p>Choose number of points to send.</font><div class='respPicDiv'><img src='img/responseButtonOffersNo0L1.png' class='respPic'></div></div>","null","5","Richard","1","Shared","0.8,0.2","12","0.8","trustrating_stim/white_00602_940928_fb_edt.bmp","4","57","13"
"","","","feedback","5f2e0b28c642b31678638a21","bdp_trlrn","Tue Mar 14 2023 12:56:34 GMT-0400 (Eastern Daylight Time)","761851","Trustworthy,Untrustworthy","html-keyboard-response","176","414251","0.0-19.0-3.12","","","null","","<div class='trialDiv'><img src='trustrating_stim/white_00602_940928_fb_edt.bmp'><br><font class='baseline'><strong>Richard</strong><p>Received: <strong>4</strong></font> &nbsp; &nbsp; &nbsp; &nbsp; &nbsp; &nbsp;<font class='posOutcome'>Shared back: <strong>2</strong></font></font><div class='respPicDiv'><img src='img/responseButtonOffersNo0_wht.png' class='respPic'></div></div>","null","5","Richard","1","Shared","0.8,0.2","12","0.8","trustrating_stim/white_00602_940928_fb_edt.bmp","4","59","13"
"","","","decision","5f2e0b28c642b31678638a21","bdp_trlrn","Tue Mar 14 2023 12:56:34 GMT-0400 (Eastern Daylight Time)","761851","Trustworthy,Untrustworthy","html-keyboard-response","177","416015","0.0-19.0-1.13","","","1763","","<div class='trialDiv'><img src='trustrating_stim/white_mw033.bmp'><br><font class='baseline'><strong>Benjamin</strong><p>Choose number of points to send.</font><div class='respPicDiv'><img src='img/responseButtonOffersNo0L.png' class='respPic'></div></div>","1","5","Benjamin","5","Kept","0.2,0.65","12","0.2","trustrating_stim/white_mw033.bmp","6","64","14"
"","","","decisionFB","5f2e0b28c642b31678638a21","bdp_trlrn","Tue Mar 14 2023 12:56:34 GMT-0400 (Eastern Daylight Time)","761851","Trustworthy,Untrustworthy","html-keyboard-response","178","416268","0.0-19.0-2.13","","","null","","<div class='trialDiv'><img src='trustrating_stim/white_mw033.bmp'><br><font class='baseline'><strong>Benjamin</strong><p>Choose number of points to send.</font><div class='respPicDiv'><img src='img/responseButtonOffersNo0L1.png' class='respPic'></div></div>","null","5","Benjamin","5","Kept","0.2,0.65","12","0.2","trustrating_stim/white_mw033.bmp","6","63","14"
"","","","feedback","5f2e0b28c642b31678638a21","bdp_trlrn","Tue Mar 14 2023 12:56:34 GMT-0400 (Eastern Daylight Time)","761851","Trustworthy,Untrustworthy","html-keyboard-response","179","417282","0.0-19.0-3.13","","","null","","<div class='trialDiv'><img src='trustrating_stim/white_mw033.bmp'><br><font class='baseline'><strong>Benjamin</strong><p>Received: <strong>4</strong></font> &nbsp; &nbsp; &nbsp; &nbsp; &nbsp; &nbsp;<font class='negOutcome'>Shared back: <strong>0</strong></font></font><div class='respPicDiv'><img src='img/responseButtonOffersNo0_wht.png' class='respPic'></div></div>","null","5","Benjamin","5","Kept","0.2,0.65","12","0.2","trustrating_stim/white_mw033.bmp","6","63","14"
"","","","decision","5f2e0b28c642b31678638a21","bdp_trlrn","Tue Mar 14 2023 12:56:34 GMT-0400 (Eastern Daylight Time)","761851","Trustworthy,Untrustworthy","html-keyboard-response","180","419096","0.0-19.0-1.14","","","1814","","<div class='trialDiv'><img src='trustrating_stim/white_mw071.bmp'><br><font class='baseline'><strong>Ethan</strong><p>Choose number of points to send.</font><div class='respPicDiv'><img src='img/responseButtonOffersNo0L.png' class='respPic'></div></div>","1","5","Ethan","11","Kept","0.65,0.2","9","0.65","trustrating_stim/white_mw071.bmp","7.5","68","15"
"","","","decisionFB","5f2e0b28c642b31678638a21","bdp_trlrn","Tue Mar 14 2023 12:56:34 GMT-0400 (Eastern Daylight Time)","761851","Trustworthy,Untrustworthy","html-keyboard-response","181","419359","0.0-19.0-2.14","","","null","","<div class='trialDiv'><img src='trustrating_stim/white_mw071.bmp'><br><font class='baseline'><strong>Ethan</strong><p>Choose number of points to send.</font><div class='respPicDiv'><img src='img/responseButtonOffersNo0L1.png' class='respPic'></div></div>","null","5","Ethan","11","Kept","0.65,0.2","9","0.65","trustrating_stim/white_mw071.bmp","7.5","67","15"
"","","","feedback","5f2e0b28c642b31678638a21","bdp_trlrn","Tue Mar 14 2023 12:56:34 GMT-0400 (Eastern Daylight Time)","761851","Trustworthy,Untrustworthy","html-keyboard-response","182","420370","0.0-19.0-3.14","","","null","","<div class='trialDiv'><img src='trustrating_stim/white_mw071.bmp'><br><font class='baseline'><strong>Ethan</strong><p>Received: <strong>4</strong></font> &nbsp; &nbsp; &nbsp; &nbsp; &nbsp; &nbsp;<font class='negOutcome'>Shared back: <strong>0</strong></font></font><div class='respPicDiv'><img src='img/responseButtonOffersNo0_wht.png' class='respPic'></div></div>","null","5","Ethan","11","Kept","0.65,0.2","9","0.65","trustrating_stim/white_mw071.bmp","7.5","67","15"
"","","","decision","5f2e0b28c642b31678638a21","bdp_trlrn","Tue Mar 14 2023 12:56:34 GMT-0400 (Eastern Daylight Time)","761851","Trustworthy,Untrustworthy","html-keyboard-response","183","421541","0.0-19.0-1.15","","","1171","","<div class='trialDiv'><img src='trustrating_stim/white_mw033.bmp'><br><font class='baseline'><strong>Benjamin</strong><p>Choose number of points to send.</font><div class='respPicDiv'><img src='img/responseButtonOffersNo0L.png' class='respPic'></div></div>","1","6","Benjamin","5","Kept","0.2,0.65","12","0.2","trustrating_stim/white_mw033.bmp","6","72","16"
"","","","decisionFB","5f2e0b28c642b31678638a21","bdp_trlrn","Tue Mar 14 2023 12:56:34 GMT-0400 (Eastern Daylight Time)","761851","Trustworthy,Untrustworthy","html-keyboard-response","184","421802","0.0-19.0-2.15","","","null","","<div class='trialDiv'><img src='trustrating_stim/white_mw033.bmp'><br><font class='baseline'><strong>Benjamin</strong><p>Choose number of points to send.</font><div class='respPicDiv'><img src='img/responseButtonOffersNo0L1.png' class='respPic'></div></div>","null","6","Benjamin","5","Kept","0.2,0.65","12","0.2","trustrating_stim/white_mw033.bmp","6","71","16"
"","","","feedback","5f2e0b28c642b31678638a21","bdp_trlrn","Tue Mar 14 2023 12:56:34 GMT-0400 (Eastern Daylight Time)","761851","Trustworthy,Untrustworthy","html-keyboard-response","185","422803","0.0-19.0-3.15","","","null","","<div class='trialDiv'><img src='trustrating_stim/white_mw033.bmp'><br><font class='baseline'><strong>Benjamin</strong><p>Received: <strong>4</strong></font> &nbsp; &nbsp; &nbsp; &nbsp; &nbsp; &nbsp;<font class='negOutcome'>Shared back: <strong>0</strong></font></font><div class='respPicDiv'><img src='img/responseButtonOffersNo0_wht.png' class='respPic'></div></div>","null","6","Benjamin","5","Kept","0.2,0.65","12","0.2","trustrating_stim/white_mw033.bmp","6","71","16"
"","","","decision","5f2e0b28c642b31678638a21","bdp_trlrn","Tue Mar 14 2023 12:56:34 GMT-0400 (Eastern Daylight Time)","761851","Trustworthy,Untrustworthy","html-keyboard-response","186","423728","0.0-19.0-1.16","","","923","","<div class='trialDiv'><img src='trustrating_stim/white_mw071.bmp'><br><font class='baseline'><strong>Ethan</strong><p>Choose number of points to send.</font><div class='respPicDiv'><img src='img/responseButtonOffersNo0L.png' class='respPic'></div></div>","1","6","Ethan","11","Kept","0.65,0.2","9","0.65","trustrating_stim/white_mw071.bmp","7.5","76","17"
"","","","decisionFB","5f2e0b28c642b31678638a21","bdp_trlrn","Tue Mar 14 2023 12:56:34 GMT-0400 (Eastern Daylight Time)","761851","Trustworthy,Untrustworthy","html-keyboard-response","187","423993","0.0-19.0-2.16","","","null","","<div class='trialDiv'><img src='trustrating_stim/white_mw071.bmp'><br><font class='baseline'><strong>Ethan</strong><p>Choose number of points to send.</font><div class='respPicDiv'><img src='img/responseButtonOffersNo0L1.png' class='respPic'></div></div>","null","6","Ethan","11","Kept","0.65,0.2","9","0.65","trustrating_stim/white_mw071.bmp","7.5","75","17"
"","","","feedback","5f2e0b28c642b31678638a21","bdp_trlrn","Tue Mar 14 2023 12:56:34 GMT-0400 (Eastern Daylight Time)","761851","Trustworthy,Untrustworthy","html-keyboard-response","188","425010","0.0-19.0-3.16","","","null","","<div class='trialDiv'><img src='trustrating_stim/white_mw071.bmp'><br><font class='baseline'><strong>Ethan</strong><p>Received: <strong>4</strong></font> &nbsp; &nbsp; &nbsp; &nbsp; &nbsp; &nbsp;<font class='negOutcome'>Shared back: <strong>0</strong></font></font><div class='respPicDiv'><img src='img/responseButtonOffersNo0_wht.png' class='respPic'></div></div>","null","6","Ethan","11","Kept","0.65,0.2","9","0.65","trustrating_stim/white_mw071.bmp","7.5","75","17"
"","","","decision","5f2e0b28c642b31678638a21","bdp_trlrn","Tue Mar 14 2023 12:56:34 GMT-0400 (Eastern Daylight Time)","761851","Trustworthy,Untrustworthy","html-keyboard-response","189","426830","0.0-19.0-1.17","","","1820","","<div class='trialDiv'><img src='trustrating_stim/white_00602_940928_fb_edt.bmp'><br><font class='baseline'><strong>Richard</strong><p>Choose number of points to send.</font><div class='respPicDiv'><img src='img/responseButtonOffersNo0L.png' class='respPic'></div></div>","1","6","Richard","1","Kept","0.8,0.2","12","0.8","trustrating_stim/white_00602_940928_fb_edt.bmp","4","80","18"
"","","","decisionFB","5f2e0b28c642b31678638a21","bdp_trlrn","Tue Mar 14 2023 12:56:34 GMT-0400 (Eastern Daylight Time)","761851","Trustworthy,Untrustworthy","html-keyboard-response","190","427091","0.0-19.0-2.17","","","null","","<div class='trialDiv'><img src='trustrating_stim/white_00602_940928_fb_edt.bmp'><br><font class='baseline'><strong>Richard</strong><p>Choose number of points to send.</font><div class='respPicDiv'><img src='img/responseButtonOffersNo0L1.png' class='respPic'></div></div>","null","6","Richard","1","Kept","0.8,0.2","12","0.8","trustrating_stim/white_00602_940928_fb_edt.bmp","4","79","18"
"","","","feedback","5f2e0b28c642b31678638a21","bdp_trlrn","Tue Mar 14 2023 12:56:34 GMT-0400 (Eastern Daylight Time)","761851","Trustworthy,Untrustworthy","html-keyboard-response","191","428102","0.0-19.0-3.17","","","null","","<div class='trialDiv'><img src='trustrating_stim/white_00602_940928_fb_edt.bmp'><br><font class='baseline'><strong>Richard</strong><p>Received: <strong>4</strong></font> &nbsp; &nbsp; &nbsp; &nbsp; &nbsp; &nbsp;<font class='negOutcome'>Shared back: <strong>0</strong></font></font><div class='respPicDiv'><img src='img/responseButtonOffersNo0_wht.png' class='respPic'></div></div>","null","6","Richard","1","Kept","0.8,0.2","12","0.8","trustrating_stim/white_00602_940928_fb_edt.bmp","4","79","18"
"","","","decision","5f2e0b28c642b31678638a21","bdp_trlrn","Tue Mar 14 2023 12:56:34 GMT-0400 (Eastern Daylight Time)","761851","Trustworthy,Untrustworthy","html-keyboard-response","192","432458","0.0-19.0-1.18","","","4356","","<div class='trialDiv'><img src='trustrating_stim/white_mw071.bmp'><br><font class='baseline'><strong>Ethan</strong><p>Choose number of points to send.</font><div class='respPicDiv'><img src='img/responseButtonOffersNo0L.png' class='respPic'></div></div>","1","7","Ethan","11","Shared","0.65,0.2","9","0.65","trustrating_stim/white_mw071.bmp","7.5","84","19"
"","","","decisionFB","5f2e0b28c642b31678638a21","bdp_trlrn","Tue Mar 14 2023 12:56:34 GMT-0400 (Eastern Daylight Time)","761851","Trustworthy,Untrustworthy","html-keyboard-response","193","432715","0.0-19.0-2.18","","","null","","<div class='trialDiv'><img src='trustrating_stim/white_mw071.bmp'><br><font class='baseline'><strong>Ethan</strong><p>Choose number of points to send.</font><div class='respPicDiv'><img src='img/responseButtonOffersNo0L1.png' class='respPic'></div></div>","null","7","Ethan","11","Shared","0.65,0.2","9","0.65","trustrating_stim/white_mw071.bmp","7.5","83","19"
"","","","feedback","5f2e0b28c642b31678638a21","bdp_trlrn","Tue Mar 14 2023 12:56:34 GMT-0400 (Eastern Daylight Time)","761851","Trustworthy,Untrustworthy","html-keyboard-response","194","433716","0.0-19.0-3.18","","","null","","<div class='trialDiv'><img src='trustrating_stim/white_mw071.bmp'><br><font class='baseline'><strong>Ethan</strong><p>Received: <strong>4</strong></font> &nbsp; &nbsp; &nbsp; &nbsp; &nbsp; &nbsp;<font class='posOutcome'>Shared back: <strong>2</strong></font></font><div class='respPicDiv'><img src='img/responseButtonOffersNo0_wht.png' class='respPic'></div></div>","null","7","Ethan","11","Shared","0.65,0.2","9","0.65","trustrating_stim/white_mw071.bmp","7.5","85","19"
"","","","decision","5f2e0b28c642b31678638a21","bdp_trlrn","Tue Mar 14 2023 12:56:34 GMT-0400 (Eastern Daylight Time)","761851","Trustworthy,Untrustworthy","html-keyboard-response","195","434670","0.0-19.0-1.19","","","954","","<div class='trialDiv'><img src='trustrating_stim/white_00602_940928_fb_edt.bmp'><br><font class='baseline'><strong>Richard</strong><p>Choose number of points to send.</font><div class='respPicDiv'><img src='img/responseButtonOffersNo0L.png' class='respPic'></div></div>","1","7","Richard","1","Shared","0.8,0.2","12","0.8","trustrating_stim/white_00602_940928_fb_edt.bmp","4","90","20"
"","","","decisionFB","5f2e0b28c642b31678638a21","bdp_trlrn","Tue Mar 14 2023 12:56:34 GMT-0400 (Eastern Daylight Time)","761851","Trustworthy,Untrustworthy","html-keyboard-response","196","434935","0.0-19.0-2.19","","","null","","<div class='trialDiv'><img src='trustrating_stim/white_00602_940928_fb_edt.bmp'><br><font class='baseline'><strong>Richard</strong><p>Choose number of points to send.</font><div class='respPicDiv'><img src='img/responseButtonOffersNo0L1.png' class='respPic'></div></div>","null","7","Richard","1","Shared","0.8,0.2","12","0.8","trustrating_stim/white_00602_940928_fb_edt.bmp","4","89","20"
"","","","feedback","5f2e0b28c642b31678638a21","bdp_trlrn","Tue Mar 14 2023 12:56:34 GMT-0400 (Eastern Daylight Time)","761851","Trustworthy,Untrustworthy","html-keyboard-response","197","435936","0.0-19.0-3.19","","","null","","<div class='trialDiv'><img src='trustrating_stim/white_00602_940928_fb_edt.bmp'><br><font class='baseline'><strong>Richard</strong><p>Received: <strong>4</strong></font> &nbsp; &nbsp; &nbsp; &nbsp; &nbsp; &nbsp;<font class='posOutcome'>Shared back: <strong>2</strong></font></font><div class='respPicDiv'><img src='img/responseButtonOffersNo0_wht.png' class='respPic'></div></div>","null","7","Richard","1","Shared","0.8,0.2","12","0.8","trustrating_stim/white_00602_940928_fb_edt.bmp","4","91","20"
"","","","decision","5f2e0b28c642b31678638a21","bdp_trlrn","Tue Mar 14 2023 12:56:34 GMT-0400 (Eastern Daylight Time)","761851","Trustworthy,Untrustworthy","html-keyboard-response","198","436890","0.0-19.0-1.20","","","954","","<div class='trialDiv'><img src='trustrating_stim/white_mw033.bmp'><br><font class='baseline'><strong>Benjamin</strong><p>Choose number of points to send.</font><div class='respPicDiv'><img src='img/responseButtonOffersNo0L.png' class='respPic'></div></div>","1","7","Benjamin","5","Kept","0.2,0.65","12","0.2","trustrating_stim/white_mw033.bmp","6","96","21"
"","","","decisionFB","5f2e0b28c642b31678638a21","bdp_trlrn","Tue Mar 14 2023 12:56:34 GMT-0400 (Eastern Daylight Time)","761851","Trustworthy,Untrustworthy","html-keyboard-response","199","437156","0.0-19.0-2.20","","","null","","<div class='trialDiv'><img src='trustrating_stim/white_mw033.bmp'><br><font class='baseline'><strong>Benjamin</strong><p>Choose number of points to send.</font><div class='respPicDiv'><img src='img/responseButtonOffersNo0L1.png' class='respPic'></div></div>","null","7","Benjamin","5","Kept","0.2,0.65","12","0.2","trustrating_stim/white_mw033.bmp","6","95","21"
"","","","feedback","5f2e0b28c642b31678638a21","bdp_trlrn","Tue Mar 14 2023 12:56:34 GMT-0400 (Eastern Daylight Time)","761851","Trustworthy,Untrustworthy","html-keyboard-response","200","438157","0.0-19.0-3.20","","","null","","<div class='trialDiv'><img src='trustrating_stim/white_mw033.bmp'><br><font class='baseline'><strong>Benjamin</strong><p>Received: <strong>4</strong></font> &nbsp; &nbsp; &nbsp; &nbsp; &nbsp; &nbsp;<font class='negOutcome'>Shared back: <strong>0</strong></font></font><div class='respPicDiv'><img src='img/responseButtonOffersNo0_wht.png' class='respPic'></div></div>","null","7","Benjamin","5","Kept","0.2,0.65","12","0.2","trustrating_stim/white_mw033.bmp","6","95","21"
"","","","decision","5f2e0b28c642b31678638a21","bdp_trlrn","Tue Mar 14 2023 12:56:34 GMT-0400 (Eastern Daylight Time)","761851","Trustworthy,Untrustworthy","html-keyboard-response","201","439272","0.0-19.0-1.21","","","1114","","<div class='trialDiv'><img src='trustrating_stim/white_mw071.bmp'><br><font class='baseline'><strong>Ethan</strong><p>Choose number of points to send.</font><div class='respPicDiv'><img src='img/responseButtonOffersNo0L.png' class='respPic'></div></div>","2","8","Ethan","11","Shared","0.65,0.2","9","0.65","trustrating_stim/white_mw071.bmp","7.5","100","22"
"","","","decisionFB","5f2e0b28c642b31678638a21","bdp_trlrn","Tue Mar 14 2023 12:56:34 GMT-0400 (Eastern Daylight Time)","761851","Trustworthy,Untrustworthy","html-keyboard-response","202","439532","0.0-19.0-2.21","","","null","","<div class='trialDiv'><img src='trustrating_stim/white_mw071.bmp'><br><font class='baseline'><strong>Ethan</strong><p>Choose number of points to send.</font><div class='respPicDiv'><img src='img/responseButtonOffersNo0L2.png' class='respPic'></div></div>","null","8","Ethan","11","Shared","0.65,0.2","9","0.65","trustrating_stim/white_mw071.bmp","7.5","98","22"
"","","","feedback","5f2e0b28c642b31678638a21","bdp_trlrn","Tue Mar 14 2023 12:56:34 GMT-0400 (Eastern Daylight Time)","761851","Trustworthy,Untrustworthy","html-keyboard-response","203","440547","0.0-19.0-3.21","","","null","","<div class='trialDiv'><img src='trustrating_stim/white_mw071.bmp'><br><font class='baseline'><strong>Ethan</strong><p>Received: <strong>8</strong></font> &nbsp; &nbsp; &nbsp; &nbsp; &nbsp; &nbsp;<font class='posOutcome'>Shared back: <strong>4</strong></font></font><div class='respPicDiv'><img src='img/responseButtonOffersNo0_wht.png' class='respPic'></div></div>","null","8","Ethan","11","Shared","0.65,0.2","9","0.65","trustrating_stim/white_mw071.bmp","7.5","102","22"
"","","","decision","5f2e0b28c642b31678638a21","bdp_trlrn","Tue Mar 14 2023 12:56:34 GMT-0400 (Eastern Daylight Time)","761851","Trustworthy,Untrustworthy","html-keyboard-response","204","441564","0.0-19.0-1.22","","","1017","","<div class='trialDiv'><img src='trustrating_stim/white_00602_940928_fb_edt.bmp'><br><font class='baseline'><strong>Richard</strong><p>Choose number of points to send.</font><div class='respPicDiv'><img src='img/responseButtonOffersNo0L.png' class='respPic'></div></div>","2","8","Richard","1","Shared","0.8,0.2","12","0.8","trustrating_stim/white_00602_940928_fb_edt.bmp","4","107","23"
"","","","decisionFB","5f2e0b28c642b31678638a21","bdp_trlrn","Tue Mar 14 2023 12:56:34 GMT-0400 (Eastern Daylight Time)","761851","Trustworthy,Untrustworthy","html-keyboard-response","205","441818","0.0-19.0-2.22","","","null","","<div class='trialDiv'><img src='trustrating_stim/white_00602_940928_fb_edt.bmp'><br><font class='baseline'><strong>Richard</strong><p>Choose number of points to send.</font><div class='respPicDiv'><img src='img/responseButtonOffersNo0L2.png' class='respPic'></div></div>","null","8","Richard","1","Shared","0.8,0.2","12","0.8","trustrating_stim/white_00602_940928_fb_edt.bmp","4","105","23"
"","","","feedback","5f2e0b28c642b31678638a21","bdp_trlrn","Tue Mar 14 2023 12:56:34 GMT-0400 (Eastern Daylight Time)","761851","Trustworthy,Untrustworthy","html-keyboard-response","206","442831","0.0-19.0-3.22","","","null","","<div class='trialDiv'><img src='trustrating_stim/white_00602_940928_fb_edt.bmp'><br><font class='baseline'><strong>Richard</strong><p>Received: <strong>8</strong></font> &nbsp; &nbsp; &nbsp; &nbsp; &nbsp; &nbsp;<font class='posOutcome'>Shared back: <strong>4</strong></font></font><div class='respPicDiv'><img src='img/responseButtonOffersNo0_wht.png' class='respPic'></div></div>","null","8","Richard","1","Shared","0.8,0.2","12","0.8","trustrating_stim/white_00602_940928_fb_edt.bmp","4","109","23"
"","","","decision","5f2e0b28c642b31678638a21","bdp_trlrn","Tue Mar 14 2023 12:56:34 GMT-0400 (Eastern Daylight Time)","761851","Trustworthy,Untrustworthy","html-keyboard-response","207","443755","0.0-19.0-1.23","","","921","","<div class='trialDiv'><img src='trustrating_stim/white_mw033.bmp'><br><font class='baseline'><strong>Benjamin</strong><p>Choose number of points to send.</font><div class='respPicDiv'><img src='img/responseButtonOffersNo0L.png' class='respPic'></div></div>","1","8","Benjamin","5","Kept","0.2,0.65","12","0.2","trustrating_stim/white_mw033.bmp","6","114","24"
"","","","decisionFB","5f2e0b28c642b31678638a21","bdp_trlrn","Tue Mar 14 2023 12:56:34 GMT-0400 (Eastern Daylight Time)","761851","Trustworthy,Untrustworthy","html-keyboard-response","208","444020","0.0-19.0-2.23","","","null","","<div class='trialDiv'><img src='trustrating_stim/white_mw033.bmp'><br><font class='baseline'><strong>Benjamin</strong><p>Choose number of points to send.</font><div class='respPicDiv'><img src='img/responseButtonOffersNo0L1.png' class='respPic'></div></div>","null","8","Benjamin","5","Kept","0.2,0.65","12","0.2","trustrating_stim/white_mw033.bmp","6","113","24"
"","","","feedback","5f2e0b28c642b31678638a21","bdp_trlrn","Tue Mar 14 2023 12:56:34 GMT-0400 (Eastern Daylight Time)","761851","Trustworthy,Untrustworthy","html-keyboard-response","209","445023","0.0-19.0-3.23","","","null","","<div class='trialDiv'><img src='trustrating_stim/white_mw033.bmp'><br><font class='baseline'><strong>Benjamin</strong><p>Received: <strong>4</strong></font> &nbsp; &nbsp; &nbsp; &nbsp; &nbsp; &nbsp;<font class='negOutcome'>Shared back: <strong>0</strong></font></font><div class='respPicDiv'><img src='img/responseButtonOffersNo0_wht.png' class='respPic'></div></div>","null","8","Benjamin","5","Kept","0.2,0.65","12","0.2","trustrating_stim/white_mw033.bmp","6","113","24"
"","","","decision","5f2e0b28c642b31678638a21","bdp_trlrn","Tue Mar 14 2023 12:56:34 GMT-0400 (Eastern Daylight Time)","761851","Trustworthy,Untrustworthy","html-keyboard-response","210","445656","0.0-19.0-1.24","","","632","","<div class='trialDiv'><img src='trustrating_stim/white_00602_940928_fb_edt.bmp'><br><font class='baseline'><strong>Richard</strong><p>Choose number of points to send.</font><div class='respPicDiv'><img src='img/responseButtonOffersNo0L.png' class='respPic'></div></div>","3","9","Richard","1","Shared","0.8,0.2","12","0.8","trustrating_stim/white_00602_940928_fb_edt.bmp","4","118","25"
"","","","decisionFB","5f2e0b28c642b31678638a21","bdp_trlrn","Tue Mar 14 2023 12:56:34 GMT-0400 (Eastern Daylight Time)","761851","Trustworthy,Untrustworthy","html-keyboard-response","211","445909","0.0-19.0-2.24","","","null","","<div class='trialDiv'><img src='trustrating_stim/white_00602_940928_fb_edt.bmp'><br><font class='baseline'><strong>Richard</strong><p>Choose number of points to send.</font><div class='respPicDiv'><img src='img/responseButtonOffersNo0L3.png' class='respPic'></div></div>","null","9","Richard","1","Shared","0.8,0.2","12","0.8","trustrating_stim/white_00602_940928_fb_edt.bmp","4","115","25"
"","","","feedback","5f2e0b28c642b31678638a21","bdp_trlrn","Tue Mar 14 2023 12:56:34 GMT-0400 (Eastern Daylight Time)","761851","Trustworthy,Untrustworthy","html-keyboard-response","212","446913","0.0-19.0-3.24","","","null","","<div class='trialDiv'><img src='trustrating_stim/white_00602_940928_fb_edt.bmp'><br><font class='baseline'><strong>Richard</strong><p>Received: <strong>12</strong></font> &nbsp; &nbsp; &nbsp; &nbsp; &nbsp; &nbsp;<font class='posOutcome'>Shared back: <strong>6</strong></font></font><div class='respPicDiv'><img src='img/responseButtonOffersNo0_wht.png' class='respPic'></div></div>","null","9","Richard","1","Shared","0.8,0.2","12","0.8","trustrating_stim/white_00602_940928_fb_edt.bmp","4","121","25"
"","","","decision","5f2e0b28c642b31678638a21","bdp_trlrn","Tue Mar 14 2023 12:56:34 GMT-0400 (Eastern Daylight Time)","761851","Trustworthy,Untrustworthy","html-keyboard-response","213","447546","0.0-19.0-1.25","","","632","","<div class='trialDiv'><img src='trustrating_stim/white_mw071.bmp'><br><font class='baseline'><strong>Ethan</strong><p>Choose number of points to send.</font><div class='respPicDiv'><img src='img/responseButtonOffersNo0L.png' class='respPic'></div></div>","3","9","Ethan","11","Kept","0.65,0.2","9","0.65","trustrating_stim/white_mw071.bmp","7.5","126","26"
"","","","decisionFB","5f2e0b28c642b31678638a21","bdp_trlrn","Tue Mar 14 2023 12:56:34 GMT-0400 (Eastern Daylight Time)","761851","Trustworthy,Untrustworthy","html-keyboard-response","214","447800","0.0-19.0-2.25","","","null","","<div class='trialDiv'><img src='trustrating_stim/white_mw071.bmp'><br><font class='baseline'><strong>Ethan</strong><p>Choose number of points to send.</font><div class='respPicDiv'><img src='img/responseButtonOffersNo0L3.png' class='respPic'></div></div>","null","9","Ethan","11","Kept","0.65,0.2","9","0.65","trustrating_stim/white_mw071.bmp","7.5","123","26"
"","","","feedback","5f2e0b28c642b31678638a21","bdp_trlrn","Tue Mar 14 2023 12:56:34 GMT-0400 (Eastern Daylight Time)","761851","Trustworthy,Untrustworthy","html-keyboard-response","215","448814","0.0-19.0-3.25","","","null","","<div class='trialDiv'><img src='trustrating_stim/white_mw071.bmp'><br><font class='baseline'><strong>Ethan</strong><p>Received: <strong>12</strong></font> &nbsp; &nbsp; &nbsp; &nbsp; &nbsp; &nbsp;<font class='negOutcome'>Shared back: <strong>0</strong></font></font><div class='respPicDiv'><img src='img/responseButtonOffersNo0_wht.png' class='respPic'></div></div>","null","9","Ethan","11","Kept","0.65,0.2","9","0.65","trustrating_stim/white_mw071.bmp","7.5","123","26"
"","","","decision","5f2e0b28c642b31678638a21","bdp_trlrn","Tue Mar 14 2023 12:56:34 GMT-0400 (Eastern Daylight Time)","761851","Trustworthy,Untrustworthy","html-keyboard-response","216","450039","0.0-19.0-1.26","","","1223","","<div class='trialDiv'><img src='trustrating_stim/white_mw033.bmp'><br><font class='baseline'><strong>Benjamin</strong><p>Choose number of points to send.</font><div class='respPicDiv'><img src='img/responseButtonOffersNo0L.png' class='respPic'></div></div>","1","9","Benjamin","5","Kept","0.2,0.65","12","0.2","trustrating_stim/white_mw033.bmp","6","128","27"
"","","","decisionFB","5f2e0b28c642b31678638a21","bdp_trlrn","Tue Mar 14 2023 12:56:34 GMT-0400 (Eastern Daylight Time)","761851","Trustworthy,Untrustworthy","html-keyboard-response","217","450302","0.0-19.0-2.26","","","null","","<div class='trialDiv'><img src='trustrating_stim/white_mw033.bmp'><br><font class='baseline'><strong>Benjamin</strong><p>Choose number of points to send.</font><div class='respPicDiv'><img src='img/responseButtonOffersNo0L1.png' class='respPic'></div></div>","null","9","Benjamin","5","Kept","0.2,0.65","12","0.2","trustrating_stim/white_mw033.bmp","6","127","27"
"","","","feedback","5f2e0b28c642b31678638a21","bdp_trlrn","Tue Mar 14 2023 12:56:34 GMT-0400 (Eastern Daylight Time)","761851","Trustworthy,Untrustworthy","html-keyboard-response","218","451317","0.0-19.0-3.26","","","null","","<div class='trialDiv'><img src='trustrating_stim/white_mw033.bmp'><br><font class='baseline'><strong>Benjamin</strong><p>Received: <strong>4</strong></font> &nbsp; &nbsp; &nbsp; &nbsp; &nbsp; &nbsp;<font class='negOutcome'>Shared back: <strong>0</strong></font></font><div class='respPicDiv'><img src='img/responseButtonOffersNo0_wht.png' class='respPic'></div></div>","null","9","Benjamin","5","Kept","0.2,0.65","12","0.2","trustrating_stim/white_mw033.bmp","6","127","27"
"","","","decision","5f2e0b28c642b31678638a21","bdp_trlrn","Tue Mar 14 2023 12:56:34 GMT-0400 (Eastern Daylight Time)","761851","Trustworthy,Untrustworthy","html-keyboard-response","219","452488","0.0-19.0-1.27","","","1169","","<div class='trialDiv'><img src='trustrating_stim/white_mw071.bmp'><br><font class='baseline'><strong>Ethan</strong><p>Choose number of points to send.</font><div class='respPicDiv'><img src='img/responseButtonOffersNo0L.png' class='respPic'></div></div>","2","10","Ethan","11","Kept","0.65,0.2","9","0.65","trustrating_stim/white_mw071.bmp","7.5","132","28"
