"trial_type","trial_index","time_elapsed","internal_node_id","subject_id","task","startTime","totalTime","labels","view_history","rt","event","trial","time","trialtype","numBlurs","success","stimulus","key_press","aground","name","faceID","outcome","agenttype","agentswpt","agentcurrpshare","face","avgRating","point_total","round"
"pavlovia","0","1","0.0-0.0","63e5c56c4ddeee504b9fa17f","bdp_trlrn","Wed Mar 15 2023 22:23:09 GMT-0700 (Pacific Daylight Time)","734958","Untrustworthy,Trustworthy","","","","","","","","","","","","","","","","","","","","",""
"instructions","1","2110","0.0-1.0","63e5c56c4ddeee504b9fa17f","bdp_trlrn","Wed Mar 15 2023 22:23:09 GMT-0700 (Pacific Daylight Time)","734958","Untrustworthy,Trustworthy","[{""page_index"":0,""viewing_time"":2109}]","2109","","","","","","","","","","","","","","","","","","",""
"","","","","63e5c56c4ddeee504b9fa17f","bdp_trlrn","Wed Mar 15 2023 22:23:09 GMT-0700 (Pacific Daylight Time)","734958","Untrustworthy,Trustworthy","","","blur","2","10523","blurevent","1","","","","","","","","","","","","","",""
"","","","","63e5c56c4ddeee504b9fa17f","bdp_trlrn","Wed Mar 15 2023 22:23:09 GMT-0700 (Pacific Daylight Time)","734958","Untrustworthy,Trustworthy","","","focus","2","45946","focusevent","","","","","","","","","","","","","","",""
"","","","","63e5c56c4ddeee504b9fa17f","bdp_trlrn","Wed Mar 15 2023 22:23:09 GMT-0700 (Pacific Daylight Time)","734958","Untrustworthy,Trustworthy","","","fullscreenenter","2","49549","fullscreenenter","","","","","","","","","","","","","","",""
"fullscreen","2","50530","0.0-2.0","63e5c56c4ddeee504b9fa17f","bdp_trlrn","Wed Mar 15 2023 22:23:09 GMT-0700 (Pacific Daylight Time)","734958","Untrustworthy,Trustworthy","","","","","","","","true","","","","","","","","","","","","",""
"instructions","3","57204","0.0-4.0","63e5c56c4ddeee504b9fa17f","bdp_trlrn","Wed Mar 15 2023 22:23:09 GMT-0700 (Pacific Daylight Time)","734958","Untrustworthy,Trustworthy","[{""page_index"":0,""viewing_time"":5852},{""page_index"":1,""viewing_time"":822}]","6674","","","","","","","","","","","","","","","","","","",""
"instructions","4","58094","0.0-5.0","63e5c56c4ddeee504b9fa17f","bdp_trlrn","Wed Mar 15 2023 22:23:09 GMT-0700 (Pacific Daylight Time)","734958","Untrustworthy,Trustworthy","[{""page_index"":0,""viewing_time"":890}]","890","","","","","","","","","","","","","","","","","","",""
"image-keyboard-response","5","62713","0.0-6.0-1.0","63e5c56c4ddeee504b9fa17f","bdp_trlrn","Wed Mar 15 2023 22:23:09 GMT-0700 (Pacific Daylight Time)","734958","Untrustworthy,Trustworthy","","4518","","","","rating","","","trustrating_stim/white_mw049.bmp","5","","","","","","","","","","",""
"image-keyboard-response","6","62914","0.0-6.0-2.0","63e5c56c4ddeee504b9fa17f","bdp_trlrn","Wed Mar 15 2023 22:23:09 GMT-0700 (Pacific Daylight Time)","734958","Untrustworthy,Trustworthy","","null","","","","ratingFB","","","trustrating_stim/white_mw049.bmp","null","","","","","","","","","","",""
"image-keyboard-response","7","68317","0.0-6.0-1.1","63e5c56c4ddeee504b9fa17f","bdp_trlrn","Wed Mar 15 2023 22:23:09 GMT-0700 (Pacific Daylight Time)","734958","Untrustworthy,Trustworthy","","5301","","","","rating","","","trustrating_stim/white_mw046.bmp","4","","","","","","","","","","",""
"image-keyboard-response","8","68519","0.0-6.0-2.1","63e5c56c4ddeee504b9fa17f","bdp_trlrn","Wed Mar 15 2023 22:23:09 GMT-0700 (Pacific Daylight Time)","734958","Untrustworthy,Trustworthy","","null","","","","ratingFB","","","trustrating_stim/white_mw046.bmp","null","","","","","","","","","","",""
"image-keyboard-response","9","72065","0.0-6.0-1.2","63e5c56c4ddeee504b9fa17f","bdp_trlrn","Wed Mar 15 2023 22:23:09 GMT-0700 (Pacific Daylight Time)","734958","Untrustworthy,Trustworthy","","3445","","","","rating","","","trustrating_stim/white_00807_941205_fb_edt.bmp","7","","","","","","","","","","",""
"image-keyboard-response","10","72267","0.0-6.0-2.2","63e5c56c4ddeee504b9fa17f","bdp_trlrn","Wed Mar 15 2023 22:23:09 GMT-0700 (Pacific Daylight Time)","734958","Untrustworthy,Trustworthy","","null","","","","ratingFB","","","trustrating_stim/white_00807_941205_fb_edt.bmp","null","","","","","","","","","","",""
"image-keyboard-response","11","76303","0.0-6.0-1.3","63e5c56c4ddeee504b9fa17f","bdp_trlrn","Wed Mar 15 2023 22:23:09 GMT-0700 (Pacific Daylight Time)","734958","Untrustworthy,Trustworthy","","3934","","","","rating","","","trustrating_stim/white_mw071.bmp","4","","","","","","","","","","",""
"image-keyboard-response","12","76504","0.0-6.0-2.3","63e5c56c4ddeee504b9fa17f","bdp_trlrn","Wed Mar 15 2023 22:23:09 GMT-0700 (Pacific Daylight Time)","734958","Untrustworthy,Trustworthy","","null","","","","ratingFB","","","trustrating_stim/white_mw071.bmp","null","","","","","","","","","","",""
"image-keyboard-response","13","78251","0.0-6.0-1.4","63e5c56c4ddeee504b9fa17f","bdp_trlrn","Wed Mar 15 2023 22:23:09 GMT-0700 (Pacific Daylight Time)","734958","Untrustworthy,Trustworthy","","1645","","","","rating","","","trustrating_stim/white_00299_940422_fa_edt.bmp","8","","","","","","","","","","",""
"image-keyboard-response","14","78453","0.0-6.0-2.4","63e5c56c4ddeee504b9fa17f","bdp_trlrn","Wed Mar 15 2023 22:23:09 GMT-0700 (Pacific Daylight Time)","734958","Untrustworthy,Trustworthy","","null","","","","ratingFB","","","trustrating_stim/white_00299_940422_fa_edt.bmp","null","","","","","","","","","","",""
"image-keyboard-response","15","81317","0.0-6.0-1.5","63e5c56c4ddeee504b9fa17f","bdp_trlrn","Wed Mar 15 2023 22:23:09 GMT-0700 (Pacific Daylight Time)","734958","Untrustworthy,Trustworthy","","2762","","","","rating","","","trustrating_stim/white_00519_940519_fb_edt.bmp","9","","","","","","","","","","",""
"image-keyboard-response","16","81517","0.0-6.0-2.5","63e5c56c4ddeee504b9fa17f","bdp_trlrn","Wed Mar 15 2023 22:23:09 GMT-0700 (Pacific Daylight Time)","734958","Untrustworthy,Trustworthy","","null","","","","ratingFB","","","trustrating_stim/white_00519_940519_fb_edt.bmp","null","","","","","","","","","","",""
"image-keyboard-response","17","84173","0.0-6.0-1.6","63e5c56c4ddeee504b9fa17f","bdp_trlrn","Wed Mar 15 2023 22:23:09 GMT-0700 (Pacific Daylight Time)","734958","Untrustworthy,Trustworthy","","2553","","","","rating","","","trustrating_stim/white_mw084.bmp","3","","","","","","","","","","",""
"image-keyboard-response","18","84374","0.0-6.0-2.6","63e5c56c4ddeee504b9fa17f","bdp_trlrn","Wed Mar 15 2023 22:23:09 GMT-0700 (Pacific Daylight Time)","734958","Untrustworthy,Trustworthy","","null","","","","ratingFB","","","trustrating_stim/white_mw084.bmp","null","","","","","","","","","","",""
"image-keyboard-response","19","86091","0.0-6.0-1.7","63e5c56c4ddeee504b9fa17f","bdp_trlrn","Wed Mar 15 2023 22:23:09 GMT-0700 (Pacific Daylight Time)","734958","Untrustworthy,Trustworthy","","1616","","","","rating","","","trustrating_stim/white_mw099.bmp","6","","","","","","","","","","",""
"image-keyboard-response","20","86293","0.0-6.0-2.7","63e5c56c4ddeee504b9fa17f","bdp_trlrn","Wed Mar 15 2023 22:23:09 GMT-0700 (Pacific Daylight Time)","734958","Untrustworthy,Trustworthy","","null","","","","ratingFB","","","trustrating_stim/white_mw099.bmp","null","","","","","","","","","","",""
"image-keyboard-response","21","92267","0.0-6.0-1.8","63e5c56c4ddeee504b9fa17f","bdp_trlrn","Wed Mar 15 2023 22:23:09 GMT-0700 (Pacific Daylight Time)","734958","Untrustworthy,Trustworthy","","5067","","","","rating","","","trustrating_stim/white_00757_941201_fa_edt.bmp","4","","","","","","","","","","",""
"image-keyboard-response","22","92468","0.0-6.0-2.8","63e5c56c4ddeee504b9fa17f","bdp_trlrn","Wed Mar 15 2023 22:23:09 GMT-0700 (Pacific Daylight Time)","734958","Untrustworthy,Trustworthy","","null","","","","ratingFB","","","trustrating_stim/white_00757_941201_fa_edt.bmp","null","","","","","","","","","","",""
"image-keyboard-response","23","96696","0.0-6.0-1.9","63e5c56c4ddeee504b9fa17f","bdp_trlrn","Wed Mar 15 2023 22:23:09 GMT-0700 (Pacific Daylight Time)","734958","Untrustworthy,Trustworthy","","4127","","","","rating","","","trustrating_stim/white_00785_941205_fb_edt.bmp","4","","","","","","","","","","",""
"image-keyboard-response","24","96897","0.0-6.0-2.9","63e5c56c4ddeee504b9fa17f","bdp_trlrn","Wed Mar 15 2023 22:23:09 GMT-0700 (Pacific Daylight Time)","734958","Untrustworthy,Trustworthy","","null","","","","ratingFB","","","trustrating_stim/white_00785_941205_fb_edt.bmp","null","","","","","","","","","","",""
"image-keyboard-response","25","98363","0.0-6.0-1.10","63e5c56c4ddeee504b9fa17f","bdp_trlrn","Wed Mar 15 2023 22:23:09 GMT-0700 (Pacific Daylight Time)","734958","Untrustworthy,Trustworthy","","1364","","","","rating","","","trustrating_stim/white_mw089.bmp","2","","","","","","","","","","",""
"image-keyboard-response","26","98564","0.0-6.0-2.10","63e5c56c4ddeee504b9fa17f","bdp_trlrn","Wed Mar 15 2023 22:23:09 GMT-0700 (Pacific Daylight Time)","734958","Untrustworthy,Trustworthy","","null","","","","ratingFB","","","trustrating_stim/white_mw089.bmp","null","","","","","","","","","","",""
"image-keyboard-response","27","100205","0.0-6.0-1.11","63e5c56c4ddeee504b9fa17f","bdp_trlrn","Wed Mar 15 2023 22:23:09 GMT-0700 (Pacific Daylight Time)","734958","Untrustworthy,Trustworthy","","1539","","","","rating","","","trustrating_stim/white_00109_931230_fa_edt.bmp","6","","","","","","","","","","",""
"image-keyboard-response","28","100407","0.0-6.0-2.11","63e5c56c4ddeee504b9fa17f","bdp_trlrn","Wed Mar 15 2023 22:23:09 GMT-0700 (Pacific Daylight Time)","734958","Untrustworthy,Trustworthy","","null","","","","ratingFB","","","trustrating_stim/white_00109_931230_fa_edt.bmp","null","","","","","","","","","","",""
"image-keyboard-response","29","104334","0.0-6.0-1.12","63e5c56c4ddeee504b9fa17f","bdp_trlrn","Wed Mar 15 2023 22:23:09 GMT-0700 (Pacific Daylight Time)","734958","Untrustworthy,Trustworthy","","3826","","","","rating","","","trustrating_stim/white_00577_940928_fa_edt.bmp","6","","","","","","","","","","",""
"image-keyboard-response","30","104536","0.0-6.0-2.12","63e5c56c4ddeee504b9fa17f","bdp_trlrn","Wed Mar 15 2023 22:23:09 GMT-0700 (Pacific Daylight Time)","734958","Untrustworthy,Trustworthy","","null","","","","ratingFB","","","trustrating_stim/white_00577_940928_fa_edt.bmp","null","","","","","","","","","","",""
"image-keyboard-response","31","105667","0.0-6.0-1.13","63e5c56c4ddeee504b9fa17f","bdp_trlrn","Wed Mar 15 2023 22:23:09 GMT-0700 (Pacific Daylight Time)","734958","Untrustworthy,Trustworthy","","1030","","","","rating","","","trustrating_stim/white_mw056.bmp","5","","","","","","","","","","",""
"image-keyboard-response","32","105868","0.0-6.0-2.13","63e5c56c4ddeee504b9fa17f","bdp_trlrn","Wed Mar 15 2023 22:23:09 GMT-0700 (Pacific Daylight Time)","734958","Untrustworthy,Trustworthy","","null","","","","ratingFB","","","trustrating_stim/white_mw056.bmp","null","","","","","","","","","","",""
"image-keyboard-response","33","108468","0.0-6.0-1.14","63e5c56c4ddeee504b9fa17f","bdp_trlrn","Wed Mar 15 2023 22:23:09 GMT-0700 (Pacific Daylight Time)","734958","Untrustworthy,Trustworthy","","2498","","","","rating","","","trustrating_stim/white_mw097.bmp","5","","","","","","","","","","",""
"image-keyboard-response","34","108669","0.0-6.0-2.14","63e5c56c4ddeee504b9fa17f","bdp_trlrn","Wed Mar 15 2023 22:23:09 GMT-0700 (Pacific Daylight Time)","734958","Untrustworthy,Trustworthy","","null","","","","ratingFB","","","trustrating_stim/white_mw097.bmp","null","","","","","","","","","","",""
"image-keyboard-response","35","110406","0.0-6.0-1.15","63e5c56c4ddeee504b9fa17f","bdp_trlrn","Wed Mar 15 2023 22:23:09 GMT-0700 (Pacific Daylight Time)","734958","Untrustworthy,Trustworthy","","1636","","","","rating","","","trustrating_stim/white_mw048.bmp","7","","","","","","","","","","",""
"image-keyboard-response","36","110607","0.0-6.0-2.15","63e5c56c4ddeee504b9fa17f","bdp_trlrn","Wed Mar 15 2023 22:23:09 GMT-0700 (Pacific Daylight Time)","734958","Untrustworthy,Trustworthy","","null","","","","ratingFB","","","trustrating_stim/white_mw048.bmp","null","","","","","","","","","","",""
"image-keyboard-response","37","113108","0.0-6.0-1.16","63e5c56c4ddeee504b9fa17f","bdp_trlrn","Wed Mar 15 2023 22:23:09 GMT-0700 (Pacific Daylight Time)","734958","Untrustworthy,Trustworthy","","2398","","","","rating","","","trustrating_stim/white_mw033.bmp","3","","","","","","","","","","",""
"image-keyboard-response","38","113309","0.0-6.0-2.16","63e5c56c4ddeee504b9fa17f","bdp_trlrn","Wed Mar 15 2023 22:23:09 GMT-0700 (Pacific Daylight Time)","734958","Untrustworthy,Trustworthy","","null","","","","ratingFB","","","trustrating_stim/white_mw033.bmp","null","","","","","","","","","","",""
"image-keyboard-response","39","116672","0.0-6.0-1.17","63e5c56c4ddeee504b9fa17f","bdp_trlrn","Wed Mar 15 2023 22:23:09 GMT-0700 (Pacific Daylight Time)","734958","Untrustworthy,Trustworthy","","3262","","","","rating","","","trustrating_stim/white_00223_940128_fb_edt.bmp","6","","","","","","","","","","",""
"image-keyboard-response","40","116873","0.0-6.0-2.17","63e5c56c4ddeee504b9fa17f","bdp_trlrn","Wed Mar 15 2023 22:23:09 GMT-0700 (Pacific Daylight Time)","734958","Untrustworthy,Trustworthy","","null","","","","ratingFB","","","trustrating_stim/white_00223_940128_fb_edt.bmp","null","","","","","","","","","","",""
"image-keyboard-response","41","118728","0.0-6.0-1.18","63e5c56c4ddeee504b9fa17f","bdp_trlrn","Wed Mar 15 2023 22:23:09 GMT-0700 (Pacific Daylight Time)","734958","Untrustworthy,Trustworthy","","1753","","","","rating","","","trustrating_stim/white_mw035.bmp","6","","","","","","","","","","",""
"image-keyboard-response","42","118929","0.0-6.0-2.18","63e5c56c4ddeee504b9fa17f","bdp_trlrn","Wed Mar 15 2023 22:23:09 GMT-0700 (Pacific Daylight Time)","734958","Untrustworthy,Trustworthy","","null","","","","ratingFB","","","trustrating_stim/white_mw035.bmp","null","","","","","","","","","","",""
"image-keyboard-response","43","120539","0.0-6.0-1.19","63e5c56c4ddeee504b9fa17f","bdp_trlrn","Wed Mar 15 2023 22:23:09 GMT-0700 (Pacific Daylight Time)","734958","Untrustworthy,Trustworthy","","1509","","","","rating","","","trustrating_stim/white_00340_940422_fa_edt.bmp","5","","","","","","","","","","",""
"image-keyboard-response","44","120740","0.0-6.0-2.19","63e5c56c4ddeee504b9fa17f","bdp_trlrn","Wed Mar 15 2023 22:23:09 GMT-0700 (Pacific Daylight Time)","734958","Untrustworthy,Trustworthy","","null","","","","ratingFB","","","trustrating_stim/white_00340_940422_fa_edt.bmp","null","","","","","","","","","","",""
"image-keyboard-response","45","123752","0.0-6.0-1.20","63e5c56c4ddeee504b9fa17f","bdp_trlrn","Wed Mar 15 2023 22:23:09 GMT-0700 (Pacific Daylight Time)","734958","Untrustworthy,Trustworthy","","2910","","","","rating","","","trustrating_stim/white_mw063.bmp","4","","","","","","","","","","",""
"image-keyboard-response","46","123953","0.0-6.0-2.20","63e5c56c4ddeee504b9fa17f","bdp_trlrn","Wed Mar 15 2023 22:23:09 GMT-0700 (Pacific Daylight Time)","734958","Untrustworthy,Trustworthy","","null","","","","ratingFB","","","trustrating_stim/white_mw063.bmp","null","","","","","","","","","","",""
"image-keyboard-response","47","124960","0.0-6.0-1.21","63e5c56c4ddeee504b9fa17f","bdp_trlrn","Wed Mar 15 2023 22:23:09 GMT-0700 (Pacific Daylight Time)","734958","Untrustworthy,Trustworthy","","904","","","","rating","","","trustrating_stim/white_mw053.bmp","7","","","","","","","","","","",""
"image-keyboard-response","48","125161","0.0-6.0-2.21","63e5c56c4ddeee504b9fa17f","bdp_trlrn","Wed Mar 15 2023 22:23:09 GMT-0700 (Pacific Daylight Time)","734958","Untrustworthy,Trustworthy","","null","","","","ratingFB","","","trustrating_stim/white_mw053.bmp","null","","","","","","","","","","",""
"image-keyboard-response","49","127436","0.0-6.0-1.22","63e5c56c4ddeee504b9fa17f","bdp_trlrn","Wed Mar 15 2023 22:23:09 GMT-0700 (Pacific Daylight Time)","734958","Untrustworthy,Trustworthy","","2173","","","","rating","","","trustrating_stim/white_00120_931230_fa_edt.bmp","8","","","","","","","","","","",""
"image-keyboard-response","50","127636","0.0-6.0-2.22","63e5c56c4ddeee504b9fa17f","bdp_trlrn","Wed Mar 15 2023 22:23:09 GMT-0700 (Pacific Daylight Time)","734958","Untrustworthy,Trustworthy","","null","","","","ratingFB","","","trustrating_stim/white_00120_931230_fa_edt.bmp","null","","","","","","","","","","",""
"image-keyboard-response","51","129110","0.0-6.0-1.23","63e5c56c4ddeee504b9fa17f","bdp_trlrn","Wed Mar 15 2023 22:23:09 GMT-0700 (Pacific Daylight Time)","734958","Untrustworthy,Trustworthy","","1372","","","","rating","","","trustrating_stim/white_00602_940928_fb_edt.bmp","8","","","","","","","","","","",""
"image-keyboard-response","52","129311","0.0-6.0-2.23","63e5c56c4ddeee504b9fa17f","bdp_trlrn","Wed Mar 15 2023 22:23:09 GMT-0700 (Pacific Daylight Time)","734958","Untrustworthy,Trustworthy","","null","","","","ratingFB","","","trustrating_stim/white_00602_940928_fb_edt.bmp","null","","","","","","","","","","",""
"image-keyboard-response","53","130915","0.0-6.0-1.24","63e5c56c4ddeee504b9fa17f","bdp_trlrn","Wed Mar 15 2023 22:23:09 GMT-0700 (Pacific Daylight Time)","734958","Untrustworthy,Trustworthy","","1503","","","","rating","","","trustrating_stim/white_00129_931230_fb_edt.bmp","5","","","","","","","","","","",""
"image-keyboard-response","54","131116","0.0-6.0-2.24","63e5c56c4ddeee504b9fa17f","bdp_trlrn","Wed Mar 15 2023 22:23:09 GMT-0700 (Pacific Daylight Time)","734958","Untrustworthy,Trustworthy","","null","","","","ratingFB","","","trustrating_stim/white_00129_931230_fb_edt.bmp","null","","","","","","","","","","",""
"image-keyboard-response","55","132159","0.0-6.0-1.25","63e5c56c4ddeee504b9fa17f","bdp_trlrn","Wed Mar 15 2023 22:23:09 GMT-0700 (Pacific Daylight Time)","734958","Untrustworthy,Trustworthy","","942","","","","rating","","","trustrating_stim/white_mw066.bmp","4","","","","","","","","","","",""
"image-keyboard-response","56","132360","0.0-6.0-2.25","63e5c56c4ddeee504b9fa17f","bdp_trlrn","Wed Mar 15 2023 22:23:09 GMT-0700 (Pacific Daylight Time)","734958","Untrustworthy,Trustworthy","","null","","","","ratingFB","","","trustrating_stim/white_mw066.bmp","null","","","","","","","","","","",""
"image-keyboard-response","57","134033","0.0-6.0-1.26","63e5c56c4ddeee504b9fa17f","bdp_trlrn","Wed Mar 15 2023 22:23:09 GMT-0700 (Pacific Daylight Time)","734958","Untrustworthy,Trustworthy","","1572","","","","rating","","","trustrating_stim/white_mw060.bmp","4","","","","","","","","","","",""
"image-keyboard-response","58","134234","0.0-6.0-2.26","63e5c56c4ddeee504b9fa17f","bdp_trlrn","Wed Mar 15 2023 22:23:09 GMT-0700 (Pacific Daylight Time)","734958","Untrustworthy,Trustworthy","","null","","","","ratingFB","","","trustrating_stim/white_mw060.bmp","null","","","","","","","","","","",""
"image-keyboard-response","59","150727","0.0-6.0-1.27","63e5c56c4ddeee504b9fa17f","bdp_trlrn","Wed Mar 15 2023 22:23:09 GMT-0700 (Pacific Daylight Time)","734958","Untrustworthy,Trustworthy","","16392","","","","rating","","","trustrating_stim/white_00898_960530_fa_edt.bmp","7","","","","","","","","","","",""
"image-keyboard-response","60","150928","0.0-6.0-2.27","63e5c56c4ddeee504b9fa17f","bdp_trlrn","Wed Mar 15 2023 22:23:09 GMT-0700 (Pacific Daylight Time)","734958","Untrustworthy,Trustworthy","","null","","","","ratingFB","","","trustrating_stim/white_00898_960530_fa_edt.bmp","null","","","","","","","","","","",""
"image-keyboard-response","61","152653","0.0-6.0-1.28","63e5c56c4ddeee504b9fa17f","bdp_trlrn","Wed Mar 15 2023 22:23:09 GMT-0700 (Pacific Daylight Time)","734958","Untrustworthy,Trustworthy","","1623","","","","rating","","","trustrating_stim/white_00761_941201_fb_edt.bmp","6","","","","","","","","","","",""
"image-keyboard-response","62","152855","0.0-6.0-2.28","63e5c56c4ddeee504b9fa17f","bdp_trlrn","Wed Mar 15 2023 22:23:09 GMT-0700 (Pacific Daylight Time)","734958","Untrustworthy,Trustworthy","","null","","","","ratingFB","","","trustrating_stim/white_00761_941201_fb_edt.bmp","null","","","","","","","","","","",""
"image-keyboard-response","63","155176","0.0-6.0-1.29","63e5c56c4ddeee504b9fa17f","bdp_trlrn","Wed Mar 15 2023 22:23:09 GMT-0700 (Pacific Daylight Time)","734958","Untrustworthy,Trustworthy","","2221","","","","rating","","","trustrating_stim/white_00659_941121_fa_edt.bmp","5","","","","","","","","","","",""
"image-keyboard-response","64","155377","0.0-6.0-2.29","63e5c56c4ddeee504b9fa17f","bdp_trlrn","Wed Mar 15 2023 22:23:09 GMT-0700 (Pacific Daylight Time)","734958","Untrustworthy,Trustworthy","","null","","","","ratingFB","","","trustrating_stim/white_00659_941121_fa_edt.bmp","null","","","","","","","","","","",""
"image-keyboard-response","65","158780","0.0-6.0-1.30","63e5c56c4ddeee504b9fa17f","bdp_trlrn","Wed Mar 15 2023 22:23:09 GMT-0700 (Pacific Daylight Time)","734958","Untrustworthy,Trustworthy","","3301","","","","rating","","","trustrating_stim/white_mw049.bmp","4","","","","","","","","","","",""
"image-keyboard-response","66","158981","0.0-6.0-2.30","63e5c56c4ddeee504b9fa17f","bdp_trlrn","Wed Mar 15 2023 22:23:09 GMT-0700 (Pacific Daylight Time)","734958","Untrustworthy,Trustworthy","","null","","","","ratingFB","","","trustrating_stim/white_mw049.bmp","null","","","","","","","","","","",""
"image-keyboard-response","67","160257","0.0-6.0-1.31","63e5c56c4ddeee504b9fa17f","bdp_trlrn","Wed Mar 15 2023 22:23:09 GMT-0700 (Pacific Daylight Time)","734958","Untrustworthy,Trustworthy","","1175","","","","rating","","","trustrating_stim/white_00120_931230_fa_edt.bmp","6","","","","","","","","","","",""
"image-keyboard-response","68","160459","0.0-6.0-2.31","63e5c56c4ddeee504b9fa17f","bdp_trlrn","Wed Mar 15 2023 22:23:09 GMT-0700 (Pacific Daylight Time)","734958","Untrustworthy,Trustworthy","","null","","","","ratingFB","","","trustrating_stim/white_00120_931230_fa_edt.bmp","null","","","","","","","","","","",""
"image-keyboard-response","69","161413","0.0-6.0-1.32","63e5c56c4ddeee504b9fa17f","bdp_trlrn","Wed Mar 15 2023 22:23:09 GMT-0700 (Pacific Daylight Time)","734958","Untrustworthy,Trustworthy","","853","","","","rating","","","trustrating_stim/white_mw066.bmp","7","","","","","","","","","","",""
"image-keyboard-response","70","161614","0.0-6.0-2.32","63e5c56c4ddeee504b9fa17f","bdp_trlrn","Wed Mar 15 2023 22:23:09 GMT-0700 (Pacific Daylight Time)","734958","Untrustworthy,Trustworthy","","null","","","","ratingFB","","","trustrating_stim/white_mw066.bmp","null","","","","","","","","","","",""
"image-keyboard-response","71","165297","0.0-6.0-1.33","63e5c56c4ddeee504b9fa17f","bdp_trlrn","Wed Mar 15 2023 22:23:09 GMT-0700 (Pacific Daylight Time)","734958","Untrustworthy,Trustworthy","","3581","","","","rating","","","trustrating_stim/white_mw046.bmp","4","","","","","","","","","","",""
"image-keyboard-response","72","165498","0.0-6.0-2.33","63e5c56c4ddeee504b9fa17f","bdp_trlrn","Wed Mar 15 2023 22:23:09 GMT-0700 (Pacific Daylight Time)","734958","Untrustworthy,Trustworthy","","null","","","","ratingFB","","","trustrating_stim/white_mw046.bmp","null","","","","","","","","","","",""
"image-keyboard-response","73","167392","0.0-6.0-1.34","63e5c56c4ddeee504b9fa17f","bdp_trlrn","Wed Mar 15 2023 22:23:09 GMT-0700 (Pacific Daylight Time)","734958","Untrustworthy,Trustworthy","","1792","","","","rating","","","trustrating_stim/white_00785_941205_fb_edt.bmp","4","","","","","","","","","","",""
"image-keyboard-response","74","167593","0.0-6.0-2.34","63e5c56c4ddeee504b9fa17f","bdp_trlrn","Wed Mar 15 2023 22:23:09 GMT-0700 (Pacific Daylight Time)","734958","Untrustworthy,Trustworthy","","null","","","","ratingFB","","","trustrating_stim/white_00785_941205_fb_edt.bmp","null","","","","","","","","","","",""
"image-keyboard-response","75","169265","0.0-6.0-1.35","63e5c56c4ddeee504b9fa17f","bdp_trlrn","Wed Mar 15 2023 22:23:09 GMT-0700 (Pacific Daylight Time)","734958","Untrustworthy,Trustworthy","","1571","","","","rating","","","trustrating_stim/white_00757_941201_fa_edt.bmp","6","","","","","","","","","","",""
"image-keyboard-response","76","169467","0.0-6.0-2.35","63e5c56c4ddeee504b9fa17f","bdp_trlrn","Wed Mar 15 2023 22:23:09 GMT-0700 (Pacific Daylight Time)","734958","Untrustworthy,Trustworthy","","null","","","","ratingFB","","","trustrating_stim/white_00757_941201_fa_edt.bmp","null","","","","","","","","","","",""
"image-keyboard-response","77","174107","0.0-6.0-1.36","63e5c56c4ddeee504b9fa17f","bdp_trlrn","Wed Mar 15 2023 22:23:09 GMT-0700 (Pacific Daylight Time)","734958","Untrustworthy,Trustworthy","","4538","","","","rating","","","trustrating_stim/white_00299_940422_fa_edt.bmp","7","","","","","","","","","","",""
"image-keyboard-response","78","174309","0.0-6.0-2.36","63e5c56c4ddeee504b9fa17f","bdp_trlrn","Wed Mar 15 2023 22:23:09 GMT-0700 (Pacific Daylight Time)","734958","Untrustworthy,Trustworthy","","null","","","","ratingFB","","","trustrating_stim/white_00299_940422_fa_edt.bmp","null","","","","","","","","","","",""
"image-keyboard-response","79","175644","0.0-6.0-1.37","63e5c56c4ddeee504b9fa17f","bdp_trlrn","Wed Mar 15 2023 22:23:09 GMT-0700 (Pacific Daylight Time)","734958","Untrustworthy,Trustworthy","","1234","","","","rating","","","trustrating_stim/white_mw089.bmp","4","","","","","","","","","","",""
"image-keyboard-response","80","175846","0.0-6.0-2.37","63e5c56c4ddeee504b9fa17f","bdp_trlrn","Wed Mar 15 2023 22:23:09 GMT-0700 (Pacific Daylight Time)","734958","Untrustworthy,Trustworthy","","null","","","","ratingFB","","","trustrating_stim/white_mw089.bmp","null","","","","","","","","","","",""
"image-keyboard-response","81","177423","0.0-6.0-1.38","63e5c56c4ddeee504b9fa17f","bdp_trlrn","Wed Mar 15 2023 22:23:09 GMT-0700 (Pacific Daylight Time)","734958","Untrustworthy,Trustworthy","","1475","","","","rating","","","trustrating_stim/white_00519_940519_fb_edt.bmp","7","","","","","","","","","","",""
"image-keyboard-response","82","177625","0.0-6.0-2.38","63e5c56c4ddeee504b9fa17f","bdp_trlrn","Wed Mar 15 2023 22:23:09 GMT-0700 (Pacific Daylight Time)","734958","Untrustworthy,Trustworthy","","null","","","","ratingFB","","","trustrating_stim/white_00519_940519_fb_edt.bmp","null","","","","","","","","","","",""
"image-keyboard-response","83","181148","0.0-6.0-1.39","63e5c56c4ddeee504b9fa17f","bdp_trlrn","Wed Mar 15 2023 22:23:09 GMT-0700 (Pacific Daylight Time)","734958","Untrustworthy,Trustworthy","","3422","","","","rating","","","trustrating_stim/white_00898_960530_fa_edt.bmp","8","","","","","","","","","","",""
"image-keyboard-response","84","181350","0.0-6.0-2.39","63e5c56c4ddeee504b9fa17f","bdp_trlrn","Wed Mar 15 2023 22:23:09 GMT-0700 (Pacific Daylight Time)","734958","Untrustworthy,Trustworthy","","null","","","","ratingFB","","","trustrating_stim/white_00898_960530_fa_edt.bmp","null","","","","","","","","","","",""
"image-keyboard-response","85","184804","0.0-6.0-1.40","63e5c56c4ddeee504b9fa17f","bdp_trlrn","Wed Mar 15 2023 22:23:09 GMT-0700 (Pacific Daylight Time)","734958","Untrustworthy,Trustworthy","","3353","","","","rating","","","trustrating_stim/white_mw060.bmp","4","","","","","","","","","","",""
"image-keyboard-response","86","185006","0.0-6.0-2.40","63e5c56c4ddeee504b9fa17f","bdp_trlrn","Wed Mar 15 2023 22:23:09 GMT-0700 (Pacific Daylight Time)","734958","Untrustworthy,Trustworthy","","null","","","","ratingFB","","","trustrating_stim/white_mw060.bmp","null","","","","","","","","","","",""
"image-keyboard-response","87","188466","0.0-6.0-1.41","63e5c56c4ddeee504b9fa17f","bdp_trlrn","Wed Mar 15 2023 22:23:09 GMT-0700 (Pacific Daylight Time)","734958","Untrustworthy,Trustworthy","","3358","","","","rating","","","trustrating_stim/white_mw053.bmp","3","","","","","","","","","","",""
"image-keyboard-response","88","188667","0.0-6.0-2.41","63e5c56c4ddeee504b9fa17f","bdp_trlrn","Wed Mar 15 2023 22:23:09 GMT-0700 (Pacific Daylight Time)","734958","Untrustworthy,Trustworthy","","null","","","","ratingFB","","","trustrating_stim/white_mw053.bmp","null","","","","","","","","","","",""
"image-keyboard-response","89","196042","0.0-6.0-1.42","63e5c56c4ddeee504b9fa17f","bdp_trlrn","Wed Mar 15 2023 22:23:09 GMT-0700 (Pacific Daylight Time)","734958","Untrustworthy,Trustworthy","","7273","","","","rating","","","trustrating_stim/white_mw063.bmp","5","","","","","","","","","","",""
"image-keyboard-response","90","196244","0.0-6.0-2.42","63e5c56c4ddeee504b9fa17f","bdp_trlrn","Wed Mar 15 2023 22:23:09 GMT-0700 (Pacific Daylight Time)","734958","Untrustworthy,Trustworthy","","null","","","","ratingFB","","","trustrating_stim/white_mw063.bmp","null","","","","","","","","","","",""
"image-keyboard-response","91","198277","0.0-6.0-1.43","63e5c56c4ddeee504b9fa17f","bdp_trlrn","Wed Mar 15 2023 22:23:09 GMT-0700 (Pacific Daylight Time)","734958","Untrustworthy,Trustworthy","","1931","","","","rating","","","trustrating_stim/white_mw048.bmp","4","","","","","","","","","","",""
"image-keyboard-response","92","198479","0.0-6.0-2.43","63e5c56c4ddeee504b9fa17f","bdp_trlrn","Wed Mar 15 2023 22:23:09 GMT-0700 (Pacific Daylight Time)","734958","Untrustworthy,Trustworthy","","null","","","","ratingFB","","","trustrating_stim/white_mw048.bmp","null","","","","","","","","","","",""
"image-keyboard-response","93","200347","0.0-6.0-1.44","63e5c56c4ddeee504b9fa17f","bdp_trlrn","Wed Mar 15 2023 22:23:09 GMT-0700 (Pacific Daylight Time)","734958","Untrustworthy,Trustworthy","","1767","","","","rating","","","trustrating_stim/white_00109_931230_fa_edt.bmp","7","","","","","","","","","","",""
"image-keyboard-response","94","200548","0.0-6.0-2.44","63e5c56c4ddeee504b9fa17f","bdp_trlrn","Wed Mar 15 2023 22:23:09 GMT-0700 (Pacific Daylight Time)","734958","Untrustworthy,Trustworthy","","null","","","","ratingFB","","","trustrating_stim/white_00109_931230_fa_edt.bmp","null","","","","","","","","","","",""
"image-keyboard-response","95","202600","0.0-6.0-1.45","63e5c56c4ddeee504b9fa17f","bdp_trlrn","Wed Mar 15 2023 22:23:09 GMT-0700 (Pacific Daylight Time)","734958","Untrustworthy,Trustworthy","","1951","","","","rating","","","trustrating_stim/white_mw084.bmp","4","","","","","","","","","","",""
"image-keyboard-response","96","202801","0.0-6.0-2.45","63e5c56c4ddeee504b9fa17f","bdp_trlrn","Wed Mar 15 2023 22:23:09 GMT-0700 (Pacific Daylight Time)","734958","Untrustworthy,Trustworthy","","null","","","","ratingFB","","","trustrating_stim/white_mw084.bmp","null","","","","","","","","","","",""
"image-keyboard-response","97","207364","0.0-6.0-1.46","63e5c56c4ddeee504b9fa17f","bdp_trlrn","Wed Mar 15 2023 22:23:09 GMT-0700 (Pacific Daylight Time)","734958","Untrustworthy,Trustworthy","","4462","","","","rating","","","trustrating_stim/white_00659_941121_fa_edt.bmp","5","","","","","","","","","","",""
"image-keyboard-response","98","207566","0.0-6.0-2.46","63e5c56c4ddeee504b9fa17f","bdp_trlrn","Wed Mar 15 2023 22:23:09 GMT-0700 (Pacific Daylight Time)","734958","Untrustworthy,Trustworthy","","null","","","","ratingFB","","","trustrating_stim/white_00659_941121_fa_edt.bmp","null","","","","","","","","","","",""
"image-keyboard-response","99","214689","0.0-6.0-1.47","63e5c56c4ddeee504b9fa17f","bdp_trlrn","Wed Mar 15 2023 22:23:09 GMT-0700 (Pacific Daylight Time)","734958","Untrustworthy,Trustworthy","","6488","","","","rating","","","trustrating_stim/white_mw099.bmp","6","","","","","","","","","","",""
"image-keyboard-response","100","214892","0.0-6.0-2.47","63e5c56c4ddeee504b9fa17f","bdp_trlrn","Wed Mar 15 2023 22:23:09 GMT-0700 (Pacific Daylight Time)","734958","Untrustworthy,Trustworthy","","null","","","","ratingFB","","","trustrating_stim/white_mw099.bmp","null","","","","","","","","","","",""
"image-keyboard-response","101","216260","0.0-6.0-1.48","63e5c56c4ddeee504b9fa17f","bdp_trlrn","Wed Mar 15 2023 22:23:09 GMT-0700 (Pacific Daylight Time)","734958","Untrustworthy,Trustworthy","","1267","","","","rating","","","trustrating_stim/white_mw033.bmp","5","","","","","","","","","","",""
"image-keyboard-response","102","216461","0.0-6.0-2.48","63e5c56c4ddeee504b9fa17f","bdp_trlrn","Wed Mar 15 2023 22:23:09 GMT-0700 (Pacific Daylight Time)","734958","Untrustworthy,Trustworthy","","null","","","","ratingFB","","","trustrating_stim/white_mw033.bmp","null","","","","","","","","","","",""
"image-keyboard-response","103","217754","0.0-6.0-1.49","63e5c56c4ddeee504b9fa17f","bdp_trlrn","Wed Mar 15 2023 22:23:09 GMT-0700 (Pacific Daylight Time)","734958","Untrustworthy,Trustworthy","","1191","","","","rating","","","trustrating_stim/white_mw071.bmp","3","","","","","","","","","","",""
"image-keyboard-response","104","217956","0.0-6.0-2.49","63e5c56c4ddeee504b9fa17f","bdp_trlrn","Wed Mar 15 2023 22:23:09 GMT-0700 (Pacific Daylight Time)","734958","Untrustworthy,Trustworthy","","null","","","","ratingFB","","","trustrating_stim/white_mw071.bmp","null","","","","","","","","","","",""
"image-keyboard-response","105","219918","0.0-6.0-1.50","63e5c56c4ddeee504b9fa17f","bdp_trlrn","Wed Mar 15 2023 22:23:09 GMT-0700 (Pacific Daylight Time)","734958","Untrustworthy,Trustworthy","","1862","","","","rating","","","trustrating_stim/white_mw056.bmp","3","","","","","","","","","","",""
"image-keyboard-response","106","220119","0.0-6.0-2.50","63e5c56c4ddeee504b9fa17f","bdp_trlrn","Wed Mar 15 2023 22:23:09 GMT-0700 (Pacific Daylight Time)","734958","Untrustworthy,Trustworthy","","null","","","","ratingFB","","","trustrating_stim/white_mw056.bmp","null","","","","","","","","","","",""
"image-keyboard-response","107","221659","0.0-6.0-1.51","63e5c56c4ddeee504b9fa17f","bdp_trlrn","Wed Mar 15 2023 22:23:09 GMT-0700 (Pacific Daylight Time)","734958","Untrustworthy,Trustworthy","","1438","","","","rating","","","trustrating_stim/white_00807_941205_fb_edt.bmp","6","","","","","","","","","","",""
"image-keyboard-response","108","221861","0.0-6.0-2.51","63e5c56c4ddeee504b9fa17f","bdp_trlrn","Wed Mar 15 2023 22:23:09 GMT-0700 (Pacific Daylight Time)","734958","Untrustworthy,Trustworthy","","null","","","","ratingFB","","","trustrating_stim/white_00807_941205_fb_edt.bmp","null","","","","","","","","","","",""
"","","","","63e5c56c4ddeee504b9fa17f","bdp_trlrn","Wed Mar 15 2023 22:23:09 GMT-0700 (Pacific Daylight Time)","734958","Untrustworthy,Trustworthy","","","blur","109","229417","blurevent","1","","","","","","","","","","","","","",""
"","","","","63e5c56c4ddeee504b9fa17f","bdp_trlrn","Wed Mar 15 2023 22:23:09 GMT-0700 (Pacific Daylight Time)","734958","Untrustworthy,Trustworthy","","","focus","109","234629","focusevent","","","","","","","","","","","","","","",""
"image-keyboard-response","109","236936","0.0-6.0-1.52","63e5c56c4ddeee504b9fa17f","bdp_trlrn","Wed Mar 15 2023 22:23:09 GMT-0700 (Pacific Daylight Time)","734958","Untrustworthy,Trustworthy","","14975","blur","109","229417","rating","1","","trustrating_stim/white_00577_940928_fa_edt.bmp","6","","","","","","","","","","",""
"image-keyboard-response","110","237138","0.0-6.0-2.52","63e5c56c4ddeee504b9fa17f","bdp_trlrn","Wed Mar 15 2023 22:23:09 GMT-0700 (Pacific Daylight Time)","734958","Untrustworthy,Trustworthy","","null","","","","ratingFB","","","trustrating_stim/white_00577_940928_fa_edt.bmp","null","","","","","","","","","","",""
"image-keyboard-response","111","244159","0.0-6.0-0.53-0.53","63e5c56c4ddeee504b9fa17f","bdp_trlrn","Wed Mar 15 2023 22:23:09 GMT-0700 (Pacific Daylight Time)","734958","Untrustworthy,Trustworthy","","6919","","","","blurwarn","1","","","49","","","","","","","","","","",""
"image-keyboard-response","112","248128","0.0-6.0-1.53","63e5c56c4ddeee504b9fa17f","bdp_trlrn","Wed Mar 15 2023 22:23:09 GMT-0700 (Pacific Daylight Time)","734958","Untrustworthy,Trustworthy","","3717","","","","rating","","","trustrating_stim/white_mw097.bmp","4","","","","","","","","","","",""
"image-keyboard-response","113","248329","0.0-6.0-2.53","63e5c56c4ddeee504b9fa17f","bdp_trlrn","Wed Mar 15 2023 22:23:09 GMT-0700 (Pacific Daylight Time)","734958","Untrustworthy,Trustworthy","","null","","","","ratingFB","","","trustrating_stim/white_mw097.bmp","null","","","","","","","","","","",""
"image-keyboard-response","114","249640","0.0-6.0-1.54","63e5c56c4ddeee504b9fa17f","bdp_trlrn","Wed Mar 15 2023 22:23:09 GMT-0700 (Pacific Daylight Time)","734958","Untrustworthy,Trustworthy","","1209","","","","rating","","","trustrating_stim/white_00129_931230_fb_edt.bmp","6","","","","","","","","","","",""
"image-keyboard-response","115","249841","0.0-6.0-2.54","63e5c56c4ddeee504b9fa17f","bdp_trlrn","Wed Mar 15 2023 22:23:09 GMT-0700 (Pacific Daylight Time)","734958","Untrustworthy,Trustworthy","","null","","","","ratingFB","","","trustrating_stim/white_00129_931230_fb_edt.bmp","null","","","","","","","","","","",""
"image-keyboard-response","116","251074","0.0-6.0-1.55","63e5c56c4ddeee504b9fa17f","bdp_trlrn","Wed Mar 15 2023 22:23:09 GMT-0700 (Pacific Daylight Time)","734958","Untrustworthy,Trustworthy","","1131","","","","rating","","","trustrating_stim/white_00340_940422_fa_edt.bmp","6","","","","","","","","","","",""
"image-keyboard-response","117","251275","0.0-6.0-2.55","63e5c56c4ddeee504b9fa17f","bdp_trlrn","Wed Mar 15 2023 22:23:09 GMT-0700 (Pacific Daylight Time)","734958","Untrustworthy,Trustworthy","","null","","","","ratingFB","","","trustrating_stim/white_00340_940422_fa_edt.bmp","null","","","","","","","","","","",""
"image-keyboard-response","118","253281","0.0-6.0-1.56","63e5c56c4ddeee504b9fa17f","bdp_trlrn","Wed Mar 15 2023 22:23:09 GMT-0700 (Pacific Daylight Time)","734958","Untrustworthy,Trustworthy","","1903","","","","rating","","","trustrating_stim/white_mw035.bmp","6","","","","","","","","","","",""
"image-keyboard-response","119","253482","0.0-6.0-2.56","63e5c56c4ddeee504b9fa17f","bdp_trlrn","Wed Mar 15 2023 22:23:09 GMT-0700 (Pacific Daylight Time)","734958","Untrustworthy,Trustworthy","","null","","","","ratingFB","","","trustrating_stim/white_mw035.bmp","null","","","","","","","","","","",""
"image-keyboard-response","120","254548","0.0-6.0-1.57","63e5c56c4ddeee504b9fa17f","bdp_trlrn","Wed Mar 15 2023 22:23:09 GMT-0700 (Pacific Daylight Time)","734958","Untrustworthy,Trustworthy","","965","","","","rating","","","trustrating_stim/white_00602_940928_fb_edt.bmp","7","","","","","","","","","","",""
"image-keyboard-response","121","254749","0.0-6.0-2.57","63e5c56c4ddeee504b9fa17f","bdp_trlrn","Wed Mar 15 2023 22:23:09 GMT-0700 (Pacific Daylight Time)","734958","Untrustworthy,Trustworthy","","null","","","","ratingFB","","","trustrating_stim/white_00602_940928_fb_edt.bmp","null","","","","","","","","","","",""
"image-keyboard-response","122","256526","0.0-6.0-1.58","63e5c56c4ddeee504b9fa17f","bdp_trlrn","Wed Mar 15 2023 22:23:09 GMT-0700 (Pacific Daylight Time)","734958","Untrustworthy,Trustworthy","","1676","","","","rating","","","trustrating_stim/white_00761_941201_fb_edt.bmp","5","","","","","","","","","","",""
"image-keyboard-response","123","256727","0.0-6.0-2.58","63e5c56c4ddeee504b9fa17f","bdp_trlrn","Wed Mar 15 2023 22:23:09 GMT-0700 (Pacific Daylight Time)","734958","Untrustworthy,Trustworthy","","null","","","","ratingFB","","","trustrating_stim/white_00761_941201_fb_edt.bmp","null","","","","","","","","","","",""
"image-keyboard-response","124","261865","0.0-6.0-1.59","63e5c56c4ddeee504b9fa17f","bdp_trlrn","Wed Mar 15 2023 22:23:09 GMT-0700 (Pacific Daylight Time)","734958","Untrustworthy,Trustworthy","","5037","","","","rating","","","trustrating_stim/white_00223_940128_fb_edt.bmp","4","","","","","","","","","","",""
"image-keyboard-response","125","262065","0.0-6.0-2.59","63e5c56c4ddeee504b9fa17f","bdp_trlrn","Wed Mar 15 2023 22:23:09 GMT-0700 (Pacific Daylight Time)","734958","Untrustworthy,Trustworthy","","null","","","","ratingFB","","","trustrating_stim/white_00223_940128_fb_edt.bmp","null","","","","","","","","","","",""
"instructions","126","262924","0.0-7.0","63e5c56c4ddeee504b9fa17f","bdp_trlrn","Wed Mar 15 2023 22:23:09 GMT-0700 (Pacific Daylight Time)","734958","Untrustworthy,Trustworthy","[{""page_index"":0,""viewing_time"":757}]","757","","","","","","","","","","","","","","","","","","",""
"instructions","127","320558","0.0-8.0","63e5c56c4ddeee504b9fa17f","bdp_trlrn","Wed Mar 15 2023 22:23:09 GMT-0700 (Pacific Daylight Time)","734958","Untrustworthy,Trustworthy","[{""page_index"":0,""viewing_time"":17818},{""page_index"":1,""viewing_time"":13058},{""page_index"":2,""viewing_time"":5682},{""page_index"":3,""viewing_time"":4966},{""page_index"":4,""viewing_time"":2242},{""page_index"":5,""viewing_time"":3292},{""page_index"":6,""viewing_time"":8650},{""page_index"":7,""viewing_time"":1825}]","57533","","","","","","","","","","","","","","","","","","",""
"html-keyboard-response","128","324359","0.0-9.0","63e5c56c4ddeee504b9fa17f","bdp_trlrn","Wed Mar 15 2023 22:23:09 GMT-0700 (Pacific Daylight Time)","734958","Untrustworthy,Trustworthy","","3801","","","","","","","<div class='header' style='text-align:left; position: absolute; top: 5%; left: 5%;'><small>Task 3 of 5</small></div><div class='instruxDiv'><p><strong>1) What is the minimum number of points you can choose to send to your partner?</strong></p><p>a) 0</p><p>b) 1</p><p>c) 5</p>","B","","","","","","","","","","",""
"html-keyboard-response","129","326033","0.0-10.0","63e5c56c4ddeee504b9fa17f","bdp_trlrn","Wed Mar 15 2023 22:23:09 GMT-0700 (Pacific Daylight Time)","734958","Untrustworthy,Trustworthy","","1571","","","","","","","<div class='header' style='text-align:left; position: absolute; top: 5%; left: 5%;'><small>Task 3 of 5</small></div><div class='instruxDiv'><p><strong>1) What is the minimum number of points you can choose to send to your partner?</strong></p><p>a) 0</p><p style='color:#00FF00'>b) 1</p><p>c) 5</p><h3 style='color:#00FF00'>Correct!</h3><h3 class='center-content'>The correct response is b).</h3><h3 class='center-content'>The minimum number of points you can choose to send to your partner is 1 point.</h3><p><em>Press SPACEBAR to continue</em></p></div>"," ","","","","","","","","","","",""
"html-keyboard-response","130","329074","0.0-11.0","63e5c56c4ddeee504b9fa17f","bdp_trlrn","Wed Mar 15 2023 22:23:09 GMT-0700 (Pacific Daylight Time)","734958","Untrustworthy,Trustworthy","","2940","","","","","","","<div class='header' style='text-align:left; position: absolute; top: 5%; left: 5%;'><small>Task 3 of 5</small></div><div class='instruxDiv'><p><strong>2) What is the maximum number of points you can choose to send to your partner?</strong></p><p>a) 8</p><p>b) 5</p><p>c) 3</p>","B","","","","","","","","","","",""
"html-keyboard-response","131","329904","0.0-12.0","63e5c56c4ddeee504b9fa17f","bdp_trlrn","Wed Mar 15 2023 22:23:09 GMT-0700 (Pacific Daylight Time)","734958","Untrustworthy,Trustworthy","","729","","","","","","","<div class='header' style='text-align:left; position: absolute; top: 5%; left: 5%;'><small>Task 3 of 5</small></div><div class='instruxDiv'><p><strong>2) What is the maximum number of points you can choose to send to your partner?</strong></p><p>a) 8</p><p style='color:#00FF00'>b) 5</p><p>c) 3</p><h3 style='color:#00FF00'>Correct!</h3><h3 class='center-content'>The correct response is b).</h3><h3 class='center-content'>The maximum number of points you can choose to send to your partner is 5 points.</h3><p><em>Press SPACEBAR to continue</em></p></div>"," ","","","","","","","","","","",""
"html-keyboard-response","132","332578","0.0-13.0","63e5c56c4ddeee504b9fa17f","bdp_trlrn","Wed Mar 15 2023 22:23:09 GMT-0700 (Pacific Daylight Time)","734958","Untrustworthy,Trustworthy","","2573","","","","","","","<div class='header' style='text-align:left; position: absolute; top: 5%; left: 5%;'><small>Task 3 of 5</small></div><div class='instruxDiv'><p><strong>3) What happens to the amount of points you send to your partner?</strong></p><p>a) Nothing</p><p>b) It doubles</p><p>c) It quadruples</p>","C","","","","","","","","","","",""
"html-keyboard-response","133","333282","0.0-14.0","63e5c56c4ddeee504b9fa17f","bdp_trlrn","Wed Mar 15 2023 22:23:09 GMT-0700 (Pacific Daylight Time)","734958","Untrustworthy,Trustworthy","","603","","","","","","","<div class='header' style='text-align:left; position: absolute; top: 5%; left: 5%;'><small>Task 3 of 5</small></div><div class='instruxDiv'><p><strong>3) What happens to the amount of points you send to your partner?</strong></p><p>a) Nothing</p><p>b) It doubles</p><p style='color:#00FF00'>c) It quadruples</p><h3 style='color:#00FF00'>Correct!</h3><h3 class='center-content'>The correct response is c).</h3><h3 class='center-content'>The amount of points you send to your partner quadruples.</h3><p><em>Press SPACEBAR to continue</em></p></div>"," ","","","","","","","","","","",""
"html-keyboard-response","134","337569","0.0-15.0","63e5c56c4ddeee504b9fa17f","bdp_trlrn","Wed Mar 15 2023 22:23:09 GMT-0700 (Pacific Daylight Time)","734958","Untrustworthy,Trustworthy","","4186","","","","","","","<div class='header' style='text-align:left; position: absolute; top: 5%; left: 5%;'><small>Task 3 of 5</small></div><div class='instruxDiv'><p><strong>4) If you decided to share 4 out of 5 points with your partner, and they decided to share half of the amount they received with you, how many points would you receive back from them on this round?</strong></p><p>a) 16</p><p>b) 0</p><p>c) 8</p>","C","","","","","","","","","","",""
"html-keyboard-response","135","338121","0.0-16.0","63e5c56c4ddeee504b9fa17f","bdp_trlrn","Wed Mar 15 2023 22:23:09 GMT-0700 (Pacific Daylight Time)","734958","Untrustworthy,Trustworthy","","451","","","","","","","<div class='header' style='text-align:left; position: absolute; top: 5%; left: 5%;'><small>Task 3 of 5</small></div><div class='instruxDiv'><p><strong>4) If you decided to share 4 out of 5 points with your partner, and they decided to share half of the amount they received with you, how many points would you receive back from them on this round?</strong></p><p>a) 16</p><p>b) 0</p><p style='color:#00FF00'>c) 8</p><h3 style='color:#00FF00'>Correct!</h3><h3 class='center-content'>The correct response is c).</h3><h3 class='center-content'>If you shared 4 out of 5 points with your partner and they decided to share half of the amount they received with you, you would receive 8 points back (i.e. (4 x 4)/2 = 8).</h3><p><em>Press SPACEBAR to continue</em></p></div>"," ","","","","","","","","","","",""
"html-keyboard-response","136","343225","0.0-17.0","63e5c56c4ddeee504b9fa17f","bdp_trlrn","Wed Mar 15 2023 22:23:09 GMT-0700 (Pacific Daylight Time)","734958","Untrustworthy,Trustworthy","","null","","","","","","","<div class='header' style='text-align:left; position: absolute; top: 5%; left: 5%;'><small>Task 3 of 5</small></div><div class='instruxDiv'><p>Thank you for completing the quiz<p>These are the actual partners you will be interacting with in the next block:<p><div class='tc' align='center'><img class='introPic' src='trustrating_stim/white_mw056.bmp'><br><strong>Nathan</strong></div><div class='bl' align='center'><img class='introPic' src='trustrating_stim/white_00340_940422_fa_edt.bmp'><br><strong>Tyler</strong></div><div class='br' align='center'><img class='introPic' src='trustrating_stim/white_00519_940519_fb_edt.bmp'><br><strong>Jonathan</strong></div></div><p>Across <strong>66 rounds</strong> you will interact with each partner <strong>22 times</strong> (in random order).<p style='align:center; color:white'><font <em>Press SPACEBAR to continue</em></p>","null","","","","","","","","","","",""
"instructions","137","346056","0.0-18.0","63e5c56c4ddeee504b9fa17f","bdp_trlrn","Wed Mar 15 2023 22:23:09 GMT-0700 (Pacific Daylight Time)","734958","Untrustworthy,Trustworthy","[{""page_index"":0,""viewing_time"":1528},{""page_index"":1,""viewing_time"":1303}]","2831","","","","","","","","","","","","","","","","","","",""
"html-keyboard-response","138","349504","0.0-19.0-1.0","63e5c56c4ddeee504b9fa17f","bdp_trlrn","Wed Mar 15 2023 22:23:09 GMT-0700 (Pacific Daylight Time)","734958","Untrustworthy,Trustworthy","","3347","","","","decision","","","<div class='trialDiv'><img src='trustrating_stim/white_00340_940422_fa_edt.bmp'><br><font class='baseline'><strong>Tyler</strong><p>Choose number of points to send.</font><div class='respPicDiv'><img src='img/responseButtonOffersNo0L.png' class='respPic'></div></div>","3","1","Tyler","7","Kept","0.65,0.2","14","0.65","trustrating_stim/white_00340_940422_fa_edt.bmp","5.5","5","1"
"html-keyboard-response","139","349756","0.0-19.0-2.0","63e5c56c4ddeee504b9fa17f","bdp_trlrn","Wed Mar 15 2023 22:23:09 GMT-0700 (Pacific Daylight Time)","734958","Untrustworthy,Trustworthy","","null","","","","decisionFB","","","<div class='trialDiv'><img src='trustrating_stim/white_00340_940422_fa_edt.bmp'><br><font class='baseline'><strong>Tyler</strong><p>Choose number of points to send.</font><div class='respPicDiv'><img src='img/responseButtonOffersNo0L3.png' class='respPic'></div></div>","null","1","Tyler","7","Kept","0.65,0.2","14","0.65","trustrating_stim/white_00340_940422_fa_edt.bmp","5.5","2","1"
"html-keyboard-response","140","350758","0.0-19.0-3.0","63e5c56c4ddeee504b9fa17f","bdp_trlrn","Wed Mar 15 2023 22:23:09 GMT-0700 (Pacific Daylight Time)","734958","Untrustworthy,Trustworthy","","null","","","","feedback","","","<div class='trialDiv'><img src='trustrating_stim/white_00340_940422_fa_edt.bmp'><br><font class='baseline'><strong>Tyler</strong><p>Received: <strong>12</strong></font> &nbsp; &nbsp; &nbsp; &nbsp; &nbsp; &nbsp;<font class='negOutcome'>Shared back: <strong>0</strong></font></font><div class='respPicDiv'><img src='img/responseButtonOffersNo0_wht.png' class='respPic'></div></div>","null","1","Tyler","7","Kept","0.65,0.2","14","0.65","trustrating_stim/white_00340_940422_fa_edt.bmp","5.5","2","1"
"html-keyboard-response","141","356358","0.0-19.0-1.1","63e5c56c4ddeee504b9fa17f","bdp_trlrn","Wed Mar 15 2023 22:23:09 GMT-0700 (Pacific Daylight Time)","734958","Untrustworthy,Trustworthy","","5600","","","","decision","","","<div class='trialDiv'><img src='trustrating_stim/white_mw056.bmp'><br><font class='baseline'><strong>Nathan</strong><p>Choose number of points to send.</font><div class='respPicDiv'><img src='img/responseButtonOffersNo0L.png' class='respPic'></div></div>","4","1","Nathan","3","Kept","0.2,0.8","13","0.2","trustrating_stim/white_mw056.bmp","4","7","2"
"html-keyboard-response","142","356609","0.0-19.0-2.1","63e5c56c4ddeee504b9fa17f","bdp_trlrn","Wed Mar 15 2023 22:23:09 GMT-0700 (Pacific Daylight Time)","734958","Untrustworthy,Trustworthy","","null","","","","decisionFB","","","<div class='trialDiv'><img src='trustrating_stim/white_mw056.bmp'><br><font class='baseline'><strong>Nathan</strong><p>Choose number of points to send.</font><div class='respPicDiv'><img src='img/responseButtonOffersNo0L4.png' class='respPic'></div></div>","null","1","Nathan","3","Kept","0.2,0.8","13","0.2","trustrating_stim/white_mw056.bmp","4","3","2"
"html-keyboard-response","143","357611","0.0-19.0-3.1","63e5c56c4ddeee504b9fa17f","bdp_trlrn","Wed Mar 15 2023 22:23:09 GMT-0700 (Pacific Daylight Time)","734958","Untrustworthy,Trustworthy","","null","","","","feedback","","","<div class='trialDiv'><img src='trustrating_stim/white_mw056.bmp'><br><font class='baseline'><strong>Nathan</strong><p>Received: <strong>16</strong></font> &nbsp; &nbsp; &nbsp; &nbsp; &nbsp; &nbsp;<font class='negOutcome'>Shared back: <strong>0</strong></font></font><div class='respPicDiv'><img src='img/responseButtonOffersNo0_wht.png' class='respPic'></div></div>","null","1","Nathan","3","Kept","0.2,0.8","13","0.2","trustrating_stim/white_mw056.bmp","4","3","2"
"html-keyboard-response","144","358999","0.0-19.0-1.2","63e5c56c4ddeee504b9fa17f","bdp_trlrn","Wed Mar 15 2023 22:23:09 GMT-0700 (Pacific Daylight Time)","734958","Untrustworthy,Trustworthy","","1388","","","","decision","","","<div class='trialDiv'><img src='trustrating_stim/white_00519_940519_fb_edt.bmp'><br><font class='baseline'><strong>Jonathan</strong><p>Choose number of points to send.</font><div class='respPicDiv'><img src='img/responseButtonOffersNo0L.png' class='respPic'></div></div>","3","1","Jonathan","11","Kept","0.35,0.8","10","0.35","trustrating_stim/white_00519_940519_fb_edt.bmp","8","8","3"
"html-keyboard-response","145","359252","0.0-19.0-2.2","63e5c56c4ddeee504b9fa17f","bdp_trlrn","Wed Mar 15 2023 22:23:09 GMT-0700 (Pacific Daylight Time)","734958","Untrustworthy,Trustworthy","","null","","","","decisionFB","","","<div class='trialDiv'><img src='trustrating_stim/white_00519_940519_fb_edt.bmp'><br><font class='baseline'><strong>Jonathan</strong><p>Choose number of points to send.</font><div class='respPicDiv'><img src='img/responseButtonOffersNo0L3.png' class='respPic'></div></div>","null","1","Jonathan","11","Kept","0.35,0.8","10","0.35","trustrating_stim/white_00519_940519_fb_edt.bmp","8","5","3"
"html-keyboard-response","146","360253","0.0-19.0-3.2","63e5c56c4ddeee504b9fa17f","bdp_trlrn","Wed Mar 15 2023 22:23:09 GMT-0700 (Pacific Daylight Time)","734958","Untrustworthy,Trustworthy","","null","","","","feedback","","","<div class='trialDiv'><img src='trustrating_stim/white_00519_940519_fb_edt.bmp'><br><font class='baseline'><strong>Jonathan</strong><p>Received: <strong>12</strong></font> &nbsp; &nbsp; &nbsp; &nbsp; &nbsp; &nbsp;<font class='negOutcome'>Shared back: <strong>0</strong></font></font><div class='respPicDiv'><img src='img/responseButtonOffersNo0_wht.png' class='respPic'></div></div>","null","1","Jonathan","11","Kept","0.35,0.8","10","0.35","trustrating_stim/white_00519_940519_fb_edt.bmp","8","5","3"
"html-keyboard-response","147","361026","0.0-19.0-1.3","63e5c56c4ddeee504b9fa17f","bdp_trlrn","Wed Mar 15 2023 22:23:09 GMT-0700 (Pacific Daylight Time)","734958","Untrustworthy,Trustworthy","","772","","","","decision","","","<div class='trialDiv'><img src='trustrating_stim/white_mw056.bmp'><br><font class='baseline'><strong>Nathan</strong><p>Choose number of points to send.</font><div class='respPicDiv'><img src='img/responseButtonOffersNo0L.png' class='respPic'></div></div>","2","2","Nathan","3","Kept","0.2,0.8","13","0.2","trustrating_stim/white_mw056.bmp","4","10","4"
"html-keyboard-response","148","361277","0.0-19.0-2.3","63e5c56c4ddeee504b9fa17f","bdp_trlrn","Wed Mar 15 2023 22:23:09 GMT-0700 (Pacific Daylight Time)","734958","Untrustworthy,Trustworthy","","null","","","","decisionFB","","","<div class='trialDiv'><img src='trustrating_stim/white_mw056.bmp'><br><font class='baseline'><strong>Nathan</strong><p>Choose number of points to send.</font><div class='respPicDiv'><img src='img/responseButtonOffersNo0L2.png' class='respPic'></div></div>","null","2","Nathan","3","Kept","0.2,0.8","13","0.2","trustrating_stim/white_mw056.bmp","4","8","4"
"html-keyboard-response","149","362279","0.0-19.0-3.3","63e5c56c4ddeee504b9fa17f","bdp_trlrn","Wed Mar 15 2023 22:23:09 GMT-0700 (Pacific Daylight Time)","734958","Untrustworthy,Trustworthy","","null","","","","feedback","","","<div class='trialDiv'><img src='trustrating_stim/white_mw056.bmp'><br><font class='baseline'><strong>Nathan</strong><p>Received: <strong>8</strong></font> &nbsp; &nbsp; &nbsp; &nbsp; &nbsp; &nbsp;<font class='negOutcome'>Shared back: <strong>0</strong></font></font><div class='respPicDiv'><img src='img/responseButtonOffersNo0_wht.png' class='respPic'></div></div>","null","2","Nathan","3","Kept","0.2,0.8","13","0.2","trustrating_stim/white_mw056.bmp","4","8","4"
"html-keyboard-response","150","364247","0.0-19.0-1.4","63e5c56c4ddeee504b9fa17f","bdp_trlrn","Wed Mar 15 2023 22:23:09 GMT-0700 (Pacific Daylight Time)","734958","Untrustworthy,Trustworthy","","1967","","","","decision","","","<div class='trialDiv'><img src='trustrating_stim/white_00340_940422_fa_edt.bmp'><br><font class='baseline'><strong>Tyler</strong><p>Choose number of points to send.</font><div class='respPicDiv'><img src='img/responseButtonOffersNo0L.png' class='respPic'></div></div>","5","2","Tyler","7","Shared","0.65,0.2","14","0.65","trustrating_stim/white_00340_940422_fa_edt.bmp","5.5","13","5"
"html-keyboard-response","151","364498","0.0-19.0-2.4","63e5c56c4ddeee504b9fa17f","bdp_trlrn","Wed Mar 15 2023 22:23:09 GMT-0700 (Pacific Daylight Time)","734958","Untrustworthy,Trustworthy","","null","","","","decisionFB","","","<div class='trialDiv'><img src='trustrating_stim/white_00340_940422_fa_edt.bmp'><br><font class='baseline'><strong>Tyler</strong><p>Choose number of points to send.</font><div class='respPicDiv'><img src='img/responseButtonOffersNo0L5.png' class='respPic'></div></div>","null","2","Tyler","7","Shared","0.65,0.2","14","0.65","trustrating_stim/white_00340_940422_fa_edt.bmp","5.5","8","5"
"html-keyboard-response","152","365499","0.0-19.0-3.4","63e5c56c4ddeee504b9fa17f","bdp_trlrn","Wed Mar 15 2023 22:23:09 GMT-0700 (Pacific Daylight Time)","734958","Untrustworthy,Trustworthy","","null","","","","feedback","","","<div class='trialDiv'><img src='trustrating_stim/white_00340_940422_fa_edt.bmp'><br><font class='baseline'><strong>Tyler</strong><p>Received: <strong>20</strong></font> &nbsp; &nbsp; &nbsp; &nbsp; &nbsp; &nbsp;<font class='posOutcome'>Shared back: <strong>10</strong></font></font><div class='respPicDiv'><img src='img/responseButtonOffersNo0_wht.png' class='respPic'></div></div>","null","2","Tyler","7","Shared","0.65,0.2","14","0.65","trustrating_stim/white_00340_940422_fa_edt.bmp","5.5","18","5"
"html-keyboard-response","153","366922","0.0-19.0-1.5","63e5c56c4ddeee504b9fa17f","bdp_trlrn","Wed Mar 15 2023 22:23:09 GMT-0700 (Pacific Daylight Time)","734958","Untrustworthy,Trustworthy","","1422","","","","decision","","","<div class='trialDiv'><img src='trustrating_stim/white_00519_940519_fb_edt.bmp'><br><font class='baseline'><strong>Jonathan</strong><p>Choose number of points to send.</font><div class='respPicDiv'><img src='img/responseButtonOffersNo0L.png' class='respPic'></div></div>","3","2","Jonathan","11","Kept","0.35,0.8","10","0.35","trustrating_stim/white_00519_940519_fb_edt.bmp","8","23","6"
"html-keyboard-response","154","367173","0.0-19.0-2.5","63e5c56c4ddeee504b9fa17f","bdp_trlrn","Wed Mar 15 2023 22:23:09 GMT-0700 (Pacific Daylight Time)","734958","Untrustworthy,Trustworthy","","null","","","","decisionFB","","","<div class='trialDiv'><img src='trustrating_stim/white_00519_940519_fb_edt.bmp'><br><font class='baseline'><strong>Jonathan</strong><p>Choose number of points to send.</font><div class='respPicDiv'><img src='img/responseButtonOffersNo0L3.png' class='respPic'></div></div>","null","2","Jonathan","11","Kept","0.35,0.8","10","0.35","trustrating_stim/white_00519_940519_fb_edt.bmp","8","20","6"
"html-keyboard-response","155","368175","0.0-19.0-3.5","63e5c56c4ddeee504b9fa17f","bdp_trlrn","Wed Mar 15 2023 22:23:09 GMT-0700 (Pacific Daylight Time)","734958","Untrustworthy,Trustworthy","","null","","","","feedback","","","<div class='trialDiv'><img src='trustrating_stim/white_00519_940519_fb_edt.bmp'><br><font class='baseline'><strong>Jonathan</strong><p>Received: <strong>12</strong></font> &nbsp; &nbsp; &nbsp; &nbsp; &nbsp; &nbsp;<font class='negOutcome'>Shared back: <strong>0</strong></font></font><div class='respPicDiv'><img src='img/responseButtonOffersNo0_wht.png' class='respPic'></div></div>","null","2","Jonathan","11","Kept","0.35,0.8","10","0.35","trustrating_stim/white_00519_940519_fb_edt.bmp","8","20","6"
"html-keyboard-response","156","368453","0.0-19.0-1.6","63e5c56c4ddeee504b9fa17f","bdp_trlrn","Wed Mar 15 2023 22:23:09 GMT-0700 (Pacific Daylight Time)","734958","Untrustworthy,Trustworthy","","278","","","","decision","","","<div class='trialDiv'><img src='trustrating_stim/white_mw056.bmp'><br><font class='baseline'><strong>Nathan</strong><p>Choose number of points to send.</font><div class='respPicDiv'><img src='img/responseButtonOffersNo0L.png' class='respPic'></div></div>","4","3","Nathan","3","Shared","0.2,0.8","13","0.2","trustrating_stim/white_mw056.bmp","4","25","7"
"html-keyboard-response","157","368704","0.0-19.0-2.6","63e5c56c4ddeee504b9fa17f","bdp_trlrn","Wed Mar 15 2023 22:23:09 GMT-0700 (Pacific Daylight Time)","734958","Untrustworthy,Trustworthy","","null","","","","decisionFB","","","<div class='trialDiv'><img src='trustrating_stim/white_mw056.bmp'><br><font class='baseline'><strong>Nathan</strong><p>Choose number of points to send.</font><div class='respPicDiv'><img src='img/responseButtonOffersNo0L4.png' class='respPic'></div></div>","null","3","Nathan","3","Shared","0.2,0.8","13","0.2","trustrating_stim/white_mw056.bmp","4","21","7"
"html-keyboard-response","158","369706","0.0-19.0-3.6","63e5c56c4ddeee504b9fa17f","bdp_trlrn","Wed Mar 15 2023 22:23:09 GMT-0700 (Pacific Daylight Time)","734958","Untrustworthy,Trustworthy","","null","","","","feedback","","","<div class='trialDiv'><img src='trustrating_stim/white_mw056.bmp'><br><font class='baseline'><strong>Nathan</strong><p>Received: <strong>16</strong></font> &nbsp; &nbsp; &nbsp; &nbsp; &nbsp; &nbsp;<font class='posOutcome'>Shared back: <strong>8</strong></font></font><div class='respPicDiv'><img src='img/responseButtonOffersNo0_wht.png' class='respPic'></div></div>","null","3","Nathan","3","Shared","0.2,0.8","13","0.2","trustrating_stim/white_mw056.bmp","4","29","7"
"html-keyboard-response","159","371788","0.0-19.0-1.7","63e5c56c4ddeee504b9fa17f","bdp_trlrn","Wed Mar 15 2023 22:23:09 GMT-0700 (Pacific Daylight Time)","734958","Untrustworthy,Trustworthy","","2082","","","","decision","","","<div class='trialDiv'><img src='trustrating_stim/white_00519_940519_fb_edt.bmp'><br><font class='baseline'><strong>Jonathan</strong><p>Choose number of points to send.</font><div class='respPicDiv'><img src='img/responseButtonOffersNo0L.png' class='respPic'></div></div>","2","3","Jonathan","11","Shared","0.35,0.8","10","0.35","trustrating_stim/white_00519_940519_fb_edt.bmp","8","34","8"
"html-keyboard-response","160","372039","0.0-19.0-2.7","63e5c56c4ddeee504b9fa17f","bdp_trlrn","Wed Mar 15 2023 22:23:09 GMT-0700 (Pacific Daylight Time)","734958","Untrustworthy,Trustworthy","","null","","","","decisionFB","","","<div class='trialDiv'><img src='trustrating_stim/white_00519_940519_fb_edt.bmp'><br><font class='baseline'><strong>Jonathan</strong><p>Choose number of points to send.</font><div class='respPicDiv'><img src='img/responseButtonOffersNo0L2.png' class='respPic'></div></div>","null","3","Jonathan","11","Shared","0.35,0.8","10","0.35","trustrating_stim/white_00519_940519_fb_edt.bmp","8","32","8"
"html-keyboard-response","161","373040","0.0-19.0-3.7","63e5c56c4ddeee504b9fa17f","bdp_trlrn","Wed Mar 15 2023 22:23:09 GMT-0700 (Pacific Daylight Time)","734958","Untrustworthy,Trustworthy","","null","","","","feedback","","","<div class='trialDiv'><img src='trustrating_stim/white_00519_940519_fb_edt.bmp'><br><font class='baseline'><strong>Jonathan</strong><p>Received: <strong>8</strong></font> &nbsp; &nbsp; &nbsp; &nbsp; &nbsp; &nbsp;<font class='posOutcome'>Shared back: <strong>4</strong></font></font><div class='respPicDiv'><img src='img/responseButtonOffersNo0_wht.png' class='respPic'></div></div>","null","3","Jonathan","11","Shared","0.35,0.8","10","0.35","trustrating_stim/white_00519_940519_fb_edt.bmp","8","36","8"
"html-keyboard-response","162","376533","0.0-19.0-1.8","63e5c56c4ddeee504b9fa17f","bdp_trlrn","Wed Mar 15 2023 22:23:09 GMT-0700 (Pacific Daylight Time)","734958","Untrustworthy,Trustworthy","","3492","","","","decision","","","<div class='trialDiv'><img src='trustrating_stim/white_00340_940422_fa_edt.bmp'><br><font class='baseline'><strong>Tyler</strong><p>Choose number of points to send.</font><div class='respPicDiv'><img src='img/responseButtonOffersNo0L.png' class='respPic'></div></div>","1","3","Tyler","7","Kept","0.65,0.2","14","0.65","trustrating_stim/white_00340_940422_fa_edt.bmp","5.5","41","9"
"html-keyboard-response","163","376785","0.0-19.0-2.8","63e5c56c4ddeee504b9fa17f","bdp_trlrn","Wed Mar 15 2023 22:23:09 GMT-0700 (Pacific Daylight Time)","734958","Untrustworthy,Trustworthy","","null","","","","decisionFB","","","<div class='trialDiv'><img src='trustrating_stim/white_00340_940422_fa_edt.bmp'><br><font class='baseline'><strong>Tyler</strong><p>Choose number of points to send.</font><div class='respPicDiv'><img src='img/responseButtonOffersNo0L1.png' class='respPic'></div></div>","null","3","Tyler","7","Kept","0.65,0.2","14","0.65","trustrating_stim/white_00340_940422_fa_edt.bmp","5.5","40","9"
"html-keyboard-response","164","377787","0.0-19.0-3.8","63e5c56c4ddeee504b9fa17f","bdp_trlrn","Wed Mar 15 2023 22:23:09 GMT-0700 (Pacific Daylight Time)","734958","Untrustworthy,Trustworthy","","null","","","","feedback","","","<div class='trialDiv'><img src='trustrating_stim/white_00340_940422_fa_edt.bmp'><br><font class='baseline'><strong>Tyler</strong><p>Received: <strong>4</strong></font> &nbsp; &nbsp; &nbsp; &nbsp; &nbsp; &nbsp;<font class='negOutcome'>Shared back: <strong>0</strong></font></font><div class='respPicDiv'><img src='img/responseButtonOffersNo0_wht.png' class='respPic'></div></div>","null","3","Tyler","7","Kept","0.65,0.2","14","0.65","trustrating_stim/white_00340_940422_fa_edt.bmp","5.5","40","9"
"html-keyboard-response","165","378673","0.0-19.0-1.9","63e5c56c4ddeee504b9fa17f","bdp_trlrn","Wed Mar 15 2023 22:23:09 GMT-0700 (Pacific Daylight Time)","734958","Untrustworthy,Trustworthy","","886","","","","decision","","","<div class='trialDiv'><img src='trustrating_stim/white_00519_940519_fb_edt.bmp'><br><font class='baseline'><strong>Jonathan</strong><p>Choose number of points to send.</font><div class='respPicDiv'><img src='img/responseButtonOffersNo0L.png' class='respPic'></div></div>","4","4","Jonathan","11","Kept","0.35,0.8","10","0.35","trustrating_stim/white_00519_940519_fb_edt.bmp","8","45","10"
"html-keyboard-response","166","378924","0.0-19.0-2.9","63e5c56c4ddeee504b9fa17f","bdp_trlrn","Wed Mar 15 2023 22:23:09 GMT-0700 (Pacific Daylight Time)","734958","Untrustworthy,Trustworthy","","null","","","","decisionFB","","","<div class='trialDiv'><img src='trustrating_stim/white_00519_940519_fb_edt.bmp'><br><font class='baseline'><strong>Jonathan</strong><p>Choose number of points to send.</font><div class='respPicDiv'><img src='img/responseButtonOffersNo0L4.png' class='respPic'></div></div>","null","4","Jonathan","11","Kept","0.35,0.8","10","0.35","trustrating_stim/white_00519_940519_fb_edt.bmp","8","41","10"
"html-keyboard-response","167","379925","0.0-19.0-3.9","63e5c56c4ddeee504b9fa17f","bdp_trlrn","Wed Mar 15 2023 22:23:09 GMT-0700 (Pacific Daylight Time)","734958","Untrustworthy,Trustworthy","","null","","","","feedback","","","<div class='trialDiv'><img src='trustrating_stim/white_00519_940519_fb_edt.bmp'><br><font class='baseline'><strong>Jonathan</strong><p>Received: <strong>16</strong></font> &nbsp; &nbsp; &nbsp; &nbsp; &nbsp; &nbsp;<font class='negOutcome'>Shared back: <strong>0</strong></font></font><div class='respPicDiv'><img src='img/responseButtonOffersNo0_wht.png' class='respPic'></div></div>","null","4","Jonathan","11","Kept","0.35,0.8","10","0.35","trustrating_stim/white_00519_940519_fb_edt.bmp","8","41","10"
"html-keyboard-response","168","381270","0.0-19.0-1.10","63e5c56c4ddeee504b9fa17f","bdp_trlrn","Wed Mar 15 2023 22:23:09 GMT-0700 (Pacific Daylight Time)","734958","Untrustworthy,Trustworthy","","1344","","","","decision","","","<div class='trialDiv'><img src='trustrating_stim/white_00340_940422_fa_edt.bmp'><br><font class='baseline'><strong>Tyler</strong><p>Choose number of points to send.</font><div class='respPicDiv'><img src='img/responseButtonOffersNo0L.png' class='respPic'></div></div>","1","4","Tyler","7","Shared","0.65,0.2","14","0.65","trustrating_stim/white_00340_940422_fa_edt.bmp","5.5","46","11"
"html-keyboard-response","169","381522","0.0-19.0-2.10","63e5c56c4ddeee504b9fa17f","bdp_trlrn","Wed Mar 15 2023 22:23:09 GMT-0700 (Pacific Daylight Time)","734958","Untrustworthy,Trustworthy","","null","","","","decisionFB","","","<div class='trialDiv'><img src='trustrating_stim/white_00340_940422_fa_edt.bmp'><br><font class='baseline'><strong>Tyler</strong><p>Choose number of points to send.</font><div class='respPicDiv'><img src='img/responseButtonOffersNo0L1.png' class='respPic'></div></div>","null","4","Tyler","7","Shared","0.65,0.2","14","0.65","trustrating_stim/white_00340_940422_fa_edt.bmp","5.5","45","11"
"html-keyboard-response","170","382523","0.0-19.0-3.10","63e5c56c4ddeee504b9fa17f","bdp_trlrn","Wed Mar 15 2023 22:23:09 GMT-0700 (Pacific Daylight Time)","734958","Untrustworthy,Trustworthy","","null","","","","feedback","","","<div class='trialDiv'><img src='trustrating_stim/white_00340_940422_fa_edt.bmp'><br><font class='baseline'><strong>Tyler</strong><p>Received: <strong>4</strong></font> &nbsp; &nbsp; &nbsp; &nbsp; &nbsp; &nbsp;<font class='posOutcome'>Shared back: <strong>2</strong></font></font><div class='respPicDiv'><img src='img/responseButtonOffersNo0_wht.png' class='respPic'></div></div>","null","4","Tyler","7","Shared","0.65,0.2","14","0.65","trustrating_stim/white_00340_940422_fa_edt.bmp","5.5","47","11"
"html-keyboard-response","171","384413","0.0-19.0-1.11","63e5c56c4ddeee504b9fa17f","bdp_trlrn","Wed Mar 15 2023 22:23:09 GMT-0700 (Pacific Daylight Time)","734958","Untrustworthy,Trustworthy","","1889","","","","decision","","","<div class='trialDiv'><img src='trustrating_stim/white_mw056.bmp'><br><font class='baseline'><strong>Nathan</strong><p>Choose number of points to send.</font><div class='respPicDiv'><img src='img/responseButtonOffersNo0L.png' class='respPic'></div></div>","4","4","Nathan","3","Kept","0.2,0.8","13","0.2","trustrating_stim/white_mw056.bmp","4","52","12"
"html-keyboard-response","172","384665","0.0-19.0-2.11","63e5c56c4ddeee504b9fa17f","bdp_trlrn","Wed Mar 15 2023 22:23:09 GMT-0700 (Pacific Daylight Time)","734958","Untrustworthy,Trustworthy","","null","","","","decisionFB","","","<div class='trialDiv'><img src='trustrating_stim/white_mw056.bmp'><br><font class='baseline'><strong>Nathan</strong><p>Choose number of points to send.</font><div class='respPicDiv'><img src='img/responseButtonOffersNo0L4.png' class='respPic'></div></div>","null","4","Nathan","3","Kept","0.2,0.8","13","0.2","trustrating_stim/white_mw056.bmp","4","48","12"
"html-keyboard-response","173","385666","0.0-19.0-3.11","63e5c56c4ddeee504b9fa17f","bdp_trlrn","Wed Mar 15 2023 22:23:09 GMT-0700 (Pacific Daylight Time)","734958","Untrustworthy,Trustworthy","","null","","","","feedback","","","<div class='trialDiv'><img src='trustrating_stim/white_mw056.bmp'><br><font class='baseline'><strong>Nathan</strong><p>Received: <strong>16</strong></font> &nbsp; &nbsp; &nbsp; &nbsp; &nbsp; &nbsp;<font class='negOutcome'>Shared back: <strong>0</strong></font></font><div class='respPicDiv'><img src='img/responseButtonOffersNo0_wht.png' class='respPic'></div></div>","null","4","Nathan","3","Kept","0.2,0.8","13","0.2","trustrating_stim/white_mw056.bmp","4","48","12"
"html-keyboard-response","174","387331","0.0-19.0-1.12","63e5c56c4ddeee504b9fa17f","bdp_trlrn","Wed Mar 15 2023 22:23:09 GMT-0700 (Pacific Daylight Time)","734958","Untrustworthy,Trustworthy","","1664","","","","decision","","","<div class='trialDiv'><img src='trustrating_stim/white_00519_940519_fb_edt.bmp'><br><font class='baseline'><strong>Jonathan</strong><p>Choose number of points to send.</font><div class='respPicDiv'><img src='img/responseButtonOffersNo0L.png' class='respPic'></div></div>","3","5","Jonathan","11","Shared","0.35,0.8","10","0.35","trustrating_stim/white_00519_940519_fb_edt.bmp","8","53","13"
"html-keyboard-response","175","387582","0.0-19.0-2.12","63e5c56c4ddeee504b9fa17f","bdp_trlrn","Wed Mar 15 2023 22:23:09 GMT-0700 (Pacific Daylight Time)","734958","Untrustworthy,Trustworthy","","null","","","","decisionFB","","","<div class='trialDiv'><img src='trustrating_stim/white_00519_940519_fb_edt.bmp'><br><font class='baseline'><strong>Jonathan</strong><p>Choose number of points to send.</font><div class='respPicDiv'><img src='img/responseButtonOffersNo0L3.png' class='respPic'></div></div>","null","5","Jonathan","11","Shared","0.35,0.8","10","0.35","trustrating_stim/white_00519_940519_fb_edt.bmp","8","50","13"
"html-keyboard-response","176","388583","0.0-19.0-3.12","63e5c56c4ddeee504b9fa17f","bdp_trlrn","Wed Mar 15 2023 22:23:09 GMT-0700 (Pacific Daylight Time)","734958","Untrustworthy,Trustworthy","","null","","","","feedback","","","<div class='trialDiv'><img src='trustrating_stim/white_00519_940519_fb_edt.bmp'><br><font class='baseline'><strong>Jonathan</strong><p>Received: <strong>12</strong></font> &nbsp; &nbsp; &nbsp; &nbsp; &nbsp; &nbsp;<font class='posOutcome'>Shared back: <strong>6</strong></font></font><div class='respPicDiv'><img src='img/responseButtonOffersNo0_wht.png' class='respPic'></div></div>","null","5","Jonathan","11","Shared","0.35,0.8","10","0.35","trustrating_stim/white_00519_940519_fb_edt.bmp","8","56","13"
"html-keyboard-response","177","390985","0.0-19.0-1.13","63e5c56c4ddeee504b9fa17f","bdp_trlrn","Wed Mar 15 2023 22:23:09 GMT-0700 (Pacific Daylight Time)","734958","Untrustworthy,Trustworthy","","2401","","","","decision","","","<div class='trialDiv'><img src='trustrating_stim/white_00340_940422_fa_edt.bmp'><br><font class='baseline'><strong>Tyler</strong><p>Choose number of points to send.</font><div class='respPicDiv'><img src='img/responseButtonOffersNo0L.png' class='respPic'></div></div>","4","5","Tyler","7","Kept","0.65,0.2","14","0.65","trustrating_stim/white_00340_940422_fa_edt.bmp","5.5","61","14"
"html-keyboard-response","178","391236","0.0-19.0-2.13","63e5c56c4ddeee504b9fa17f","bdp_trlrn","Wed Mar 15 2023 22:23:09 GMT-0700 (Pacific Daylight Time)","734958","Untrustworthy,Trustworthy","","null","","","","decisionFB","","","<div class='trialDiv'><img src='trustrating_stim/white_00340_940422_fa_edt.bmp'><br><font class='baseline'><strong>Tyler</strong><p>Choose number of points to send.</font><div class='respPicDiv'><img src='img/responseButtonOffersNo0L4.png' class='respPic'></div></div>","null","5","Tyler","7","Kept","0.65,0.2","14","0.65","trustrating_stim/white_00340_940422_fa_edt.bmp","5.5","57","14"
"html-keyboard-response","179","392238","0.0-19.0-3.13","63e5c56c4ddeee504b9fa17f","bdp_trlrn","Wed Mar 15 2023 22:23:09 GMT-0700 (Pacific Daylight Time)","734958","Untrustworthy,Trustworthy","","null","","","","feedback","","","<div class='trialDiv'><img src='trustrating_stim/white_00340_940422_fa_edt.bmp'><br><font class='baseline'><strong>Tyler</strong><p>Received: <strong>16</strong></font> &nbsp; &nbsp; &nbsp; &nbsp; &nbsp; &nbsp;<font class='negOutcome'>Shared back: <strong>0</strong></font></font><div class='respPicDiv'><img src='img/responseButtonOffersNo0_wht.png' class='respPic'></div></div>","null","5","Tyler","7","Kept","0.65,0.2","14","0.65","trustrating_stim/white_00340_940422_fa_edt.bmp","5.5","57","14"
"html-keyboard-response","180","394540","0.0-19.0-1.14","63e5c56c4ddeee504b9fa17f","bdp_trlrn","Wed Mar 15 2023 22:23:09 GMT-0700 (Pacific Daylight Time)","734958","Untrustworthy,Trustworthy","","2302","","","","decision","","","<div class='trialDiv'><img src='trustrating_stim/white_mw056.bmp'><br><font class='baseline'><strong>Nathan</strong><p>Choose number of points to send.</font><div class='respPicDiv'><img src='img/responseButtonOffersNo0L.png' class='respPic'></div></div>","2","5","Nathan","3","Shared","0.2,0.8","13","0.2","trustrating_stim/white_mw056.bmp","4","62","15"
"html-keyboard-response","181","394791","0.0-19.0-2.14","63e5c56c4ddeee504b9fa17f","bdp_trlrn","Wed Mar 15 2023 22:23:09 GMT-0700 (Pacific Daylight Time)","734958","Untrustworthy,Trustworthy","","null","","","","decisionFB","","","<div class='trialDiv'><img src='trustrating_stim/white_mw056.bmp'><br><font class='baseline'><strong>Nathan</strong><p>Choose number of points to send.</font><div class='respPicDiv'><img src='img/responseButtonOffersNo0L2.png' class='respPic'></div></div>","null","5","Nathan","3","Shared","0.2,0.8","13","0.2","trustrating_stim/white_mw056.bmp","4","60","15"
"html-keyboard-response","182","395792","0.0-19.0-3.14","63e5c56c4ddeee504b9fa17f","bdp_trlrn","Wed Mar 15 2023 22:23:09 GMT-0700 (Pacific Daylight Time)","734958","Untrustworthy,Trustworthy","","null","","","","feedback","","","<div class='trialDiv'><img src='trustrating_stim/white_mw056.bmp'><br><font class='baseline'><strong>Nathan</strong><p>Received: <strong>8</strong></font> &nbsp; &nbsp; &nbsp; &nbsp; &nbsp; &nbsp;<font class='posOutcome'>Shared back: <strong>4</strong></font></font><div class='respPicDiv'><img src='img/responseButtonOffersNo0_wht.png' class='respPic'></div></div>","null","5","Nathan","3","Shared","0.2,0.8","13","0.2","trustrating_stim/white_mw056.bmp","4","64","15"
"html-keyboard-response","183","396862","0.0-19.0-1.15","63e5c56c4ddeee504b9fa17f","bdp_trlrn","Wed Mar 15 2023 22:23:09 GMT-0700 (Pacific Daylight Time)","734958","Untrustworthy,Trustworthy","","1069","","","","decision","","","<div class='trialDiv'><img src='trustrating_stim/white_00340_940422_fa_edt.bmp'><br><font class='baseline'><strong>Tyler</strong><p>Choose number of points to send.</font><div class='respPicDiv'><img src='img/responseButtonOffersNo0L.png' class='respPic'></div></div>","3","6","Tyler","7","Kept","0.65,0.2","14","0.65","trustrating_stim/white_00340_940422_fa_edt.bmp","5.5","69","16"
"html-keyboard-response","184","397114","0.0-19.0-2.15","63e5c56c4ddeee504b9fa17f","bdp_trlrn","Wed Mar 15 2023 22:23:09 GMT-0700 (Pacific Daylight Time)","734958","Untrustworthy,Trustworthy","","null","","","","decisionFB","","","<div class='trialDiv'><img src='trustrating_stim/white_00340_940422_fa_edt.bmp'><br><font class='baseline'><strong>Tyler</strong><p>Choose number of points to send.</font><div class='respPicDiv'><img src='img/responseButtonOffersNo0L3.png' class='respPic'></div></div>","null","6","Tyler","7","Kept","0.65,0.2","14","0.65","trustrating_stim/white_00340_940422_fa_edt.bmp","5.5","66","16"
"html-keyboard-response","185","398114","0.0-19.0-3.15","63e5c56c4ddeee504b9fa17f","bdp_trlrn","Wed Mar 15 2023 22:23:09 GMT-0700 (Pacific Daylight Time)","734958","Untrustworthy,Trustworthy","","null","","","","feedback","","","<div class='trialDiv'><img src='trustrating_stim/white_00340_940422_fa_edt.bmp'><br><font class='baseline'><strong>Tyler</strong><p>Received: <strong>12</strong></font> &nbsp; &nbsp; &nbsp; &nbsp; &nbsp; &nbsp;<font class='negOutcome'>Shared back: <strong>0</strong></font></font><div class='respPicDiv'><img src='img/responseButtonOffersNo0_wht.png' class='respPic'></div></div>","null","6","Tyler","7","Kept","0.65,0.2","14","0.65","trustrating_stim/white_00340_940422_fa_edt.bmp","5.5","66","16"
"html-keyboard-response","186","399358","0.0-19.0-1.16","63e5c56c4ddeee504b9fa17f","bdp_trlrn","Wed Mar 15 2023 22:23:09 GMT-0700 (Pacific Daylight Time)","734958","Untrustworthy,Trustworthy","","1243","","","","decision","","","<div class='trialDiv'><img src='trustrating_stim/white_00519_940519_fb_edt.bmp'><br><font class='baseline'><strong>Jonathan</strong><p>Choose number of points to send.</font><div class='respPicDiv'><img src='img/responseButtonOffersNo0L.png' class='respPic'></div></div>","4","6","Jonathan","11","Kept","0.35,0.8","10","0.35","trustrating_stim/white_00519_940519_fb_edt.bmp","8","71","17"
"html-keyboard-response","187","399610","0.0-19.0-2.16","63e5c56c4ddeee504b9fa17f","bdp_trlrn","Wed Mar 15 2023 22:23:09 GMT-0700 (Pacific Daylight Time)","734958","Untrustworthy,Trustworthy","","null","","","","decisionFB","","","<div class='trialDiv'><img src='trustrating_stim/white_00519_940519_fb_edt.bmp'><br><font class='baseline'><strong>Jonathan</strong><p>Choose number of points to send.</font><div class='respPicDiv'><img src='img/responseButtonOffersNo0L4.png' class='respPic'></div></div>","null","6","Jonathan","11","Kept","0.35,0.8","10","0.35","trustrating_stim/white_00519_940519_fb_edt.bmp","8","67","17"
"html-keyboard-response","188","400611","0.0-19.0-3.16","63e5c56c4ddeee504b9fa17f","bdp_trlrn","Wed Mar 15 2023 22:23:09 GMT-0700 (Pacific Daylight Time)","734958","Untrustworthy,Trustworthy","","null","","","","feedback","","","<div class='trialDiv'><img src='trustrating_stim/white_00519_940519_fb_edt.bmp'><br><font class='baseline'><strong>Jonathan</strong><p>Received: <strong>16</strong></font> &nbsp; &nbsp; &nbsp; &nbsp; &nbsp; &nbsp;<font class='negOutcome'>Shared back: <strong>0</strong></font></font><div class='respPicDiv'><img src='img/responseButtonOffersNo0_wht.png' class='respPic'></div></div>","null","6","Jonathan","11","Kept","0.35,0.8","10","0.35","trustrating_stim/white_00519_940519_fb_edt.bmp","8","67","17"
"html-keyboard-response","189","403479","0.0-19.0-1.17","63e5c56c4ddeee504b9fa17f","bdp_trlrn","Wed Mar 15 2023 22:23:09 GMT-0700 (Pacific Daylight Time)","734958","Untrustworthy,Trustworthy","","2868","","","","decision","","","<div class='trialDiv'><img src='trustrating_stim/white_mw056.bmp'><br><font class='baseline'><strong>Nathan</strong><p>Choose number of points to send.</font><div class='respPicDiv'><img src='img/responseButtonOffersNo0L.png' class='respPic'></div></div>","5","6","Nathan","3","Kept","0.2,0.8","13","0.2","trustrating_stim/white_mw056.bmp","4","72","18"
"html-keyboard-response","190","403731","0.0-19.0-2.17","63e5c56c4ddeee504b9fa17f","bdp_trlrn","Wed Mar 15 2023 22:23:09 GMT-0700 (Pacific Daylight Time)","734958","Untrustworthy,Trustworthy","","null","","","","decisionFB","","","<div class='trialDiv'><img src='trustrating_stim/white_mw056.bmp'><br><font class='baseline'><strong>Nathan</strong><p>Choose number of points to send.</font><div class='respPicDiv'><img src='img/responseButtonOffersNo0L5.png' class='respPic'></div></div>","null","6","Nathan","3","Kept","0.2,0.8","13","0.2","trustrating_stim/white_mw056.bmp","4","67","18"
"html-keyboard-response","191","404733","0.0-19.0-3.17","63e5c56c4ddeee504b9fa17f","bdp_trlrn","Wed Mar 15 2023 22:23:09 GMT-0700 (Pacific Daylight Time)","734958","Untrustworthy,Trustworthy","","null","","","","feedback","","","<div class='trialDiv'><img src='trustrating_stim/white_mw056.bmp'><br><font class='baseline'><strong>Nathan</strong><p>Received: <strong>20</strong></font> &nbsp; &nbsp; &nbsp; &nbsp; &nbsp; &nbsp;<font class='negOutcome'>Shared back: <strong>0</strong></font></font><div class='respPicDiv'><img src='img/responseButtonOffersNo0_wht.png' class='respPic'></div></div>","null","6","Nathan","3","Kept","0.2,0.8","13","0.2","trustrating_stim/white_mw056.bmp","4","67","18"
"html-keyboard-response","192","406811","0.0-19.0-1.18","63e5c56c4ddeee504b9fa17f","bdp_trlrn","Wed Mar 15 2023 22:23:09 GMT-0700 (Pacific Daylight Time)","734958","Untrustworthy,Trustworthy","","2077","","","","decision","","","<div class='trialDiv'><img src='trustrating_stim/white_00519_940519_fb_edt.bmp'><br><font class='baseline'><strong>Jonathan</strong><p>Choose number of points to send.</font><div class='respPicDiv'><img src='img/responseButtonOffersNo0L.png' class='respPic'></div></div>","5","7","Jonathan","11","Kept","0.35,0.8","10","0.35","trustrating_stim/white_00519_940519_fb_edt.bmp","8","72","19"
"html-keyboard-response","193","407063","0.0-19.0-2.18","63e5c56c4ddeee504b9fa17f","bdp_trlrn","Wed Mar 15 2023 22:23:09 GMT-0700 (Pacific Daylight Time)","734958","Untrustworthy,Trustworthy","","null","","","","decisionFB","","","<div class='trialDiv'><img src='trustrating_stim/white_00519_940519_fb_edt.bmp'><br><font class='baseline'><strong>Jonathan</strong><p>Choose number of points to send.</font><div class='respPicDiv'><img src='img/responseButtonOffersNo0L5.png' class='respPic'></div></div>","null","7","Jonathan","11","Kept","0.35,0.8","10","0.35","trustrating_stim/white_00519_940519_fb_edt.bmp","8","67","19"
"html-keyboard-response","194","408064","0.0-19.0-3.18","63e5c56c4ddeee504b9fa17f","bdp_trlrn","Wed Mar 15 2023 22:23:09 GMT-0700 (Pacific Daylight Time)","734958","Untrustworthy,Trustworthy","","null","","","","feedback","","","<div class='trialDiv'><img src='trustrating_stim/white_00519_940519_fb_edt.bmp'><br><font class='baseline'><strong>Jonathan</strong><p>Received: <strong>20</strong></font> &nbsp; &nbsp; &nbsp; &nbsp; &nbsp; &nbsp;<font class='negOutcome'>Shared back: <strong>0</strong></font></font><div class='respPicDiv'><img src='img/responseButtonOffersNo0_wht.png' class='respPic'></div></div>","null","7","Jonathan","11","Kept","0.35,0.8","10","0.35","trustrating_stim/white_00519_940519_fb_edt.bmp","8","67","19"
"html-keyboard-response","195","408280","0.0-19.0-1.19","63e5c56c4ddeee504b9fa17f","bdp_trlrn","Wed Mar 15 2023 22:23:09 GMT-0700 (Pacific Daylight Time)","734958","Untrustworthy,Trustworthy","","214","","","","decision","","","<div class='trialDiv'><img src='trustrating_stim/white_mw056.bmp'><br><font class='baseline'><strong>Nathan</strong><p>Choose number of points to send.</font><div class='respPicDiv'><img src='img/responseButtonOffersNo0L.png' class='respPic'></div></div>","5","7","Nathan","3","Kept","0.2,0.8","13","0.2","trustrating_stim/white_mw056.bmp","4","72","20"
"html-keyboard-response","196","408532","0.0-19.0-2.19","63e5c56c4ddeee504b9fa17f","bdp_trlrn","Wed Mar 15 2023 22:23:09 GMT-0700 (Pacific Daylight Time)","734958","Untrustworthy,Trustworthy","","null","","","","decisionFB","","","<div class='trialDiv'><img src='trustrating_stim/white_mw056.bmp'><br><font class='baseline'><strong>Nathan</strong><p>Choose number of points to send.</font><div class='respPicDiv'><img src='img/responseButtonOffersNo0L5.png' class='respPic'></div></div>","null","7","Nathan","3","Kept","0.2,0.8","13","0.2","trustrating_stim/white_mw056.bmp","4","67","20"
"html-keyboard-response","197","409533","0.0-19.0-3.19","63e5c56c4ddeee504b9fa17f","bdp_trlrn","Wed Mar 15 2023 22:23:09 GMT-0700 (Pacific Daylight Time)","734958","Untrustworthy,Trustworthy","","null","","","","feedback","","","<div class='trialDiv'><img src='trustrating_stim/white_mw056.bmp'><br><font class='baseline'><strong>Nathan</strong><p>Received: <strong>20</strong></font> &nbsp; &nbsp; &nbsp; &nbsp; &nbsp; &nbsp;<font class='negOutcome'>Shared back: <strong>0</strong></font></font><div class='respPicDiv'><img src='img/responseButtonOffersNo0_wht.png' class='respPic'></div></div>","null","7","Nathan","3","Kept","0.2,0.8","13","0.2","trustrating_stim/white_mw056.bmp","4","67","20"
"html-keyboard-response","198","409571","0.0-19.0-1.20","63e5c56c4ddeee504b9fa17f","bdp_trlrn","Wed Mar 15 2023 22:23:09 GMT-0700 (Pacific Daylight Time)","734958","Untrustworthy,Trustworthy","","38","","","","decision","","","<div class='trialDiv'><img src='trustrating_stim/white_00340_940422_fa_edt.bmp'><br><font class='baseline'><strong>Tyler</strong><p>Choose number of points to send.</font><div class='respPicDiv'><img src='img/responseButtonOffersNo0L.png' class='respPic'></div></div>","3","7","Tyler","7","Kept","0.65,0.2","14","0.65","trustrating_stim/white_00340_940422_fa_edt.bmp","5.5","72","21"
"html-keyboard-response","199","409822","0.0-19.0-2.20","63e5c56c4ddeee504b9fa17f","bdp_trlrn","Wed Mar 15 2023 22:23:09 GMT-0700 (Pacific Daylight Time)","734958","Untrustworthy,Trustworthy","","null","","","","decisionFB","","","<div class='trialDiv'><img src='trustrating_stim/white_00340_940422_fa_edt.bmp'><br><font class='baseline'><strong>Tyler</strong><p>Choose number of points to send.</font><div class='respPicDiv'><img src='img/responseButtonOffersNo0L3.png' class='respPic'></div></div>","null","7","Tyler","7","Kept","0.65,0.2","14","0.65","trustrating_stim/white_00340_940422_fa_edt.bmp","5.5","69","21"
"html-keyboard-response","200","410823","0.0-19.0-3.20","63e5c56c4ddeee504b9fa17f","bdp_trlrn","Wed Mar 15 2023 22:23:09 GMT-0700 (Pacific Daylight Time)","734958","Untrustworthy,Trustworthy","","null","","","","feedback","","","<div class='trialDiv'><img src='trustrating_stim/white_00340_940422_fa_edt.bmp'><br><font class='baseline'><strong>Tyler</strong><p>Received: <strong>12</strong></font> &nbsp; &nbsp; &nbsp; &nbsp; &nbsp; &nbsp;<font class='negOutcome'>Shared back: <strong>0</strong></font></font><div class='respPicDiv'><img src='img/responseButtonOffersNo0_wht.png' class='respPic'></div></div>","null","7","Tyler","7","Kept","0.65,0.2","14","0.65","trustrating_stim/white_00340_940422_fa_edt.bmp","5.5","69","21"
"html-keyboard-response","201","410907","0.0-19.0-1.21","63e5c56c4ddeee504b9fa17f","bdp_trlrn","Wed Mar 15 2023 22:23:09 GMT-0700 (Pacific Daylight Time)","734958","Untrustworthy,Trustworthy","","83","","","","decision","","","<div class='trialDiv'><img src='trustrating_stim/white_mw056.bmp'><br><font class='baseline'><strong>Nathan</strong><p>Choose number of points to send.</font><div class='respPicDiv'><img src='img/responseButtonOffersNo0L.png' class='respPic'></div></div>","2","8","Nathan","3","Kept","0.2,0.8","13","0.2","trustrating_stim/white_mw056.bmp","4","74","22"
"html-keyboard-response","202","411158","0.0-19.0-2.21","63e5c56c4ddeee504b9fa17f","bdp_trlrn","Wed Mar 15 2023 22:23:09 GMT-0700 (Pacific Daylight Time)","734958","Untrustworthy,Trustworthy","","null","","","","decisionFB","","","<div class='trialDiv'><img src='trustrating_stim/white_mw056.bmp'><br><font class='baseline'><strong>Nathan</strong><p>Choose number of points to send.</font><div class='respPicDiv'><img src='img/responseButtonOffersNo0L2.png' class='respPic'></div></div>","null","8","Nathan","3","Kept","0.2,0.8","13","0.2","trustrating_stim/white_mw056.bmp","4","72","22"
"html-keyboard-response","203","412159","0.0-19.0-3.21","63e5c56c4ddeee504b9fa17f","bdp_trlrn","Wed Mar 15 2023 22:23:09 GMT-0700 (Pacific Daylight Time)","734958","Untrustworthy,Trustworthy","","null","","","","feedback","","","<div class='trialDiv'><img src='trustrating_stim/white_mw056.bmp'><br><font class='baseline'><strong>Nathan</strong><p>Received: <strong>8</strong></font> &nbsp; &nbsp; &nbsp; &nbsp; &nbsp; &nbsp;<font class='negOutcome'>Shared back: <strong>0</strong></font></font><div class='respPicDiv'><img src='img/responseButtonOffersNo0_wht.png' class='respPic'></div></div>","null","8","Nathan","3","Kept","0.2,0.8","13","0.2","trustrating_stim/white_mw056.bmp","4","72","22"
"html-keyboard-response","204","412430","0.0-19.0-1.22","63e5c56c4ddeee504b9fa17f","bdp_trlrn","Wed Mar 15 2023 22:23:09 GMT-0700 (Pacific Daylight Time)","734958","Untrustworthy,Trustworthy","","270","","","","decision","","","<div class='trialDiv'><img src='trustrating_stim/white_00340_940422_fa_edt.bmp'><br><font class='baseline'><strong>Tyler</strong><p>Choose number of points to send.</font><div class='respPicDiv'><img src='img/responseButtonOffersNo0L.png' class='respPic'></div></div>","1","8","Tyler","7","Kept","0.65,0.2","14","0.65","trustrating_stim/white_00340_940422_fa_edt.bmp","5.5","77","23"
"html-keyboard-response","205","412681","0.0-19.0-2.22","63e5c56c4ddeee504b9fa17f","bdp_trlrn","Wed Mar 15 2023 22:23:09 GMT-0700 (Pacific Daylight Time)","734958","Untrustworthy,Trustworthy","","null","","","","decisionFB","","","<div class='trialDiv'><img src='trustrating_stim/white_00340_940422_fa_edt.bmp'><br><font class='baseline'><strong>Tyler</strong><p>Choose number of points to send.</font><div class='respPicDiv'><img src='img/responseButtonOffersNo0L1.png' class='respPic'></div></div>","null","8","Tyler","7","Kept","0.65,0.2","14","0.65","trustrating_stim/white_00340_940422_fa_edt.bmp","5.5","76","23"
"html-keyboard-response","206","413681","0.0-19.0-3.22","63e5c56c4ddeee504b9fa17f","bdp_trlrn","Wed Mar 15 2023 22:23:09 GMT-0700 (Pacific Daylight Time)","734958","Untrustworthy,Trustworthy","","null","","","","feedback","","","<div class='trialDiv'><img src='trustrating_stim/white_00340_940422_fa_edt.bmp'><br><font class='baseline'><strong>Tyler</strong><p>Received: <strong>4</strong></font> &nbsp; &nbsp; &nbsp; &nbsp; &nbsp; &nbsp;<font class='negOutcome'>Shared back: <strong>0</strong></font></font><div class='respPicDiv'><img src='img/responseButtonOffersNo0_wht.png' class='respPic'></div></div>","null","8","Tyler","7","Kept","0.65,0.2","14","0.65","trustrating_stim/white_00340_940422_fa_edt.bmp","5.5","76","23"
"html-keyboard-response","207","415395","0.0-19.0-1.23","63e5c56c4ddeee504b9fa17f","bdp_trlrn","Wed Mar 15 2023 22:23:09 GMT-0700 (Pacific Daylight Time)","734958","Untrustworthy,Trustworthy","","1713","","","","decision","","","<div class='trialDiv'><img src='trustrating_stim/white_00519_940519_fb_edt.bmp'><br><font class='baseline'><strong>Jonathan</strong><p>Choose number of points to send.</font><div class='respPicDiv'><img src='img/responseButtonOffersNo0L.png' class='respPic'></div></div>","4","8","Jonathan","11","Shared","0.35,0.8","10","0.35","trustrating_stim/white_00519_940519_fb_edt.bmp","8","81","24"
"html-keyboard-response","208","415646","0.0-19.0-2.23","63e5c56c4ddeee504b9fa17f","bdp_trlrn","Wed Mar 15 2023 22:23:09 GMT-0700 (Pacific Daylight Time)","734958","Untrustworthy,Trustworthy","","null","","","","decisionFB","","","<div class='trialDiv'><img src='trustrating_stim/white_00519_940519_fb_edt.bmp'><br><font class='baseline'><strong>Jonathan</strong><p>Choose number of points to send.</font><div class='respPicDiv'><img src='img/responseButtonOffersNo0L4.png' class='respPic'></div></div>","null","8","Jonathan","11","Shared","0.35,0.8","10","0.35","trustrating_stim/white_00519_940519_fb_edt.bmp","8","77","24"
"html-keyboard-response","209","416647","0.0-19.0-3.23","63e5c56c4ddeee504b9fa17f","bdp_trlrn","Wed Mar 15 2023 22:23:09 GMT-0700 (Pacific Daylight Time)","734958","Untrustworthy,Trustworthy","","null","","","","feedback","","","<div class='trialDiv'><img src='trustrating_stim/white_00519_940519_fb_edt.bmp'><br><font class='baseline'><strong>Jonathan</strong><p>Received: <strong>16</strong></font> &nbsp; &nbsp; &nbsp; &nbsp; &nbsp; &nbsp;<font class='posOutcome'>Shared back: <strong>8</strong></font></font><div class='respPicDiv'><img src='img/responseButtonOffersNo0_wht.png' class='respPic'></div></div>","null","8","Jonathan","11","Shared","0.35,0.8","10","0.35","trustrating_stim/white_00519_940519_fb_edt.bmp","8","85","24"
"html-keyboard-response","210","418300","0.0-19.0-1.24","63e5c56c4ddeee504b9fa17f","bdp_trlrn","Wed Mar 15 2023 22:23:09 GMT-0700 (Pacific Daylight Time)","734958","Untrustworthy,Trustworthy","","1652","","","","decision","","","<div class='trialDiv'><img src='trustrating_stim/white_00340_940422_fa_edt.bmp'><br><font class='baseline'><strong>Tyler</strong><p>Choose number of points to send.</font><div class='respPicDiv'><img src='img/responseButtonOffersNo0L.png' class='respPic'></div></div>","1","9","Tyler","7","Shared","0.65,0.2","14","0.65","trustrating_stim/white_00340_940422_fa_edt.bmp","5.5","90","25"
"html-keyboard-response","211","418551","0.0-19.0-2.24","63e5c56c4ddeee504b9fa17f","bdp_trlrn","Wed Mar 15 2023 22:23:09 GMT-0700 (Pacific Daylight Time)","734958","Untrustworthy,Trustworthy","","null","","","","decisionFB","","","<div class='trialDiv'><img src='trustrating_stim/white_00340_940422_fa_edt.bmp'><br><font class='baseline'><strong>Tyler</strong><p>Choose number of points to send.</font><div class='respPicDiv'><img src='img/responseButtonOffersNo0L1.png' class='respPic'></div></div>","null","9","Tyler","7","Shared","0.65,0.2","14","0.65","trustrating_stim/white_00340_940422_fa_edt.bmp","5.5","89","25"
"html-keyboard-response","212","419552","0.0-19.0-3.24","63e5c56c4ddeee504b9fa17f","bdp_trlrn","Wed Mar 15 2023 22:23:09 GMT-0700 (Pacific Daylight Time)","734958","Untrustworthy,Trustworthy","","null","","","","feedback","","","<div class='trialDiv'><img src='trustrating_stim/white_00340_940422_fa_edt.bmp'><br><font class='baseline'><strong>Tyler</strong><p>Received: <strong>4</strong></font> &nbsp; &nbsp; &nbsp; &nbsp; &nbsp; &nbsp;<font class='posOutcome'>Shared back: <strong>2</strong></font></font><div class='respPicDiv'><img src='img/responseButtonOffersNo0_wht.png' class='respPic'></div></div>","null","9","Tyler","7","Shared","0.65,0.2","14","0.65","trustrating_stim/white_00340_940422_fa_edt.bmp","5.5","91","25"
"html-keyboard-response","213","420399","0.0-19.0-1.25","63e5c56c4ddeee504b9fa17f","bdp_trlrn","Wed Mar 15 2023 22:23:09 GMT-0700 (Pacific Daylight Time)","734958","Untrustworthy,Trustworthy","","846","","","","decision","","","<div class='trialDiv'><img src='trustrating_stim/white_00519_940519_fb_edt.bmp'><br><font class='baseline'><strong>Jonathan</strong><p>Choose number of points to send.</font><div class='respPicDiv'><img src='img/responseButtonOffersNo0L.png' class='respPic'></div></div>","4","9","Jonathan","11","Shared","0.35,0.8","10","0.35","trustrating_stim/white_00519_940519_fb_edt.bmp","8","96","26"
"html-keyboard-response","214","420650","0.0-19.0-2.25","63e5c56c4ddeee504b9fa17f","bdp_trlrn","Wed Mar 15 2023 22:23:09 GMT-0700 (Pacific Daylight Time)","734958","Untrustworthy,Trustworthy","","null","","","","decisionFB","","","<div class='trialDiv'><img src='trustrating_stim/white_00519_940519_fb_edt.bmp'><br><font class='baseline'><strong>Jonathan</strong><p>Choose number of points to send.</font><div class='respPicDiv'><img src='img/responseButtonOffersNo0L4.png' class='respPic'></div></div>","null","9","Jonathan","11","Shared","0.35,0.8","10","0.35","trustrating_stim/white_00519_940519_fb_edt.bmp","8","92","26"
"html-keyboard-response","215","421652","0.0-19.0-3.25","63e5c56c4ddeee504b9fa17f","bdp_trlrn","Wed Mar 15 2023 22:23:09 GMT-0700 (Pacific Daylight Time)","734958","Untrustworthy,Trustworthy","","null","","","","feedback","","","<div class='trialDiv'><img src='trustrating_stim/white_00519_940519_fb_edt.bmp'><br><font class='baseline'><strong>Jonathan</strong><p>Received: <strong>16</strong></font> &nbsp; &nbsp; &nbsp; &nbsp; &nbsp; &nbsp;<font class='posOutcome'>Shared back: <strong>8</strong></font></font><div class='respPicDiv'><img src='img/responseButtonOffersNo0_wht.png' class='respPic'></div></div>","null","9","Jonathan","11","Shared","0.35,0.8","10","0.35","trustrating_stim/white_00519_940519_fb_edt.bmp","8","100","26"
"html-keyboard-response","216","422919","0.0-19.0-1.26","63e5c56c4ddeee504b9fa17f","bdp_trlrn","Wed Mar 15 2023 22:23:09 GMT-0700 (Pacific Daylight Time)","734958","Untrustworthy,Trustworthy","","1266","","","","decision","","","<div class='trialDiv'><img src='trustrating_stim/white_mw056.bmp'><br><font class='baseline'><strong>Nathan</strong><p>Choose number of points to send.</font><div class='respPicDiv'><img src='img/responseButtonOffersNo0L.png' class='respPic'></div></div>","2","9","Nathan","3","Kept","0.2,0.8","13","0.2","trustrating_stim/white_mw056.bmp","4","105","27"
"html-keyboard-response","217","423169","0.0-19.0-2.26","63e5c56c4ddeee504b9fa17f","bdp_trlrn","Wed Mar 15 2023 22:23:09 GMT-0700 (Pacific Daylight Time)","734958","Untrustworthy,Trustworthy","","null","","","","decisionFB","","","<div class='trialDiv'><img src='trustrating_stim/white_mw056.bmp'><br><font class='baseline'><strong>Nathan</strong><p>Choose number of points to send.</font><div class='respPicDiv'><img src='img/responseButtonOffersNo0L2.png' class='respPic'></div></div>","null","9","Nathan","3","Kept","0.2,0.8","13","0.2","trustrating_stim/white_mw056.bmp","4","103","27"
