"trial_type","trial_index","time_elapsed","internal_node_id","subject_id","task","startTime","totalTime","labels","view_history","rt","event","trial","time","trialtype","success","stimulus","key_press","aground","name","face","outcome","agenttype","agentswpt","agentcurrpshare","point_total","round"
"pavlovia","0","3","0.0-0.0","https://ccnypsych.az1.qualtrics.com/jfe/form/SV_08OIJSgkXY2rA8e","bdp_trlrn","Mon Nov 08 2021 10:00:28 GMT-0500 (EST)","701384","Untrustworthy,Trustworthy","","","","","","","","","","","","","","","","","",""
"instructions","1","5245","0.0-1.0","https://ccnypsych.az1.qualtrics.com/jfe/form/SV_08OIJSgkXY2rA8e","bdp_trlrn","Mon Nov 08 2021 10:00:28 GMT-0500 (EST)","701384","Untrustworthy,Trustworthy","[{""page_index"":0,""viewing_time"":5241}]","5241","","","","","","","","","","","","","","","",""
"","","","","https://ccnypsych.az1.qualtrics.com/jfe/form/SV_08OIJSgkXY2rA8e","bdp_trlrn","Mon Nov 08 2021 10:00:28 GMT-0500 (EST)","701384","Untrustworthy,Trustworthy","","","fullscreenenter","2","7687","fullscreenenter","","","","","","","","","","","",""
"fullscreen","2","8659","0.0-2.0","https://ccnypsych.az1.qualtrics.com/jfe/form/SV_08OIJSgkXY2rA8e","bdp_trlrn","Mon Nov 08 2021 10:00:28 GMT-0500 (EST)","701384","Untrustworthy,Trustworthy","","","","","","","true","","","","","","","","","","",""
"instructions","3","24380","0.0-4.0","https://ccnypsych.az1.qualtrics.com/jfe/form/SV_08OIJSgkXY2rA8e","bdp_trlrn","Mon Nov 08 2021 10:00:28 GMT-0500 (EST)","701384","Untrustworthy,Trustworthy","[{""page_index"":0,""viewing_time"":7992},{""page_index"":1,""viewing_time"":7727}]","15719","","","","","","","","","","","","","","","",""
"instructions","4","25587","0.0-5.0","https://ccnypsych.az1.qualtrics.com/jfe/form/SV_08OIJSgkXY2rA8e","bdp_trlrn","Mon Nov 08 2021 10:00:28 GMT-0500 (EST)","701384","Untrustworthy,Trustworthy","[{""page_index"":0,""viewing_time"":1207}]","1207","","","","","","","","","","","","","","","",""
"image-keyboard-response","5","30602","0.0-6.0-1.0","https://ccnypsych.az1.qualtrics.com/jfe/form/SV_08OIJSgkXY2rA8e","bdp_trlrn","Mon Nov 08 2021 10:00:28 GMT-0500 (EST)","701384","Untrustworthy,Trustworthy","","4911","","","","rating","","trustrating_stim/white_mw051.bmp","5","","","","","","","","",""
"image-keyboard-response","6","30805","0.0-6.0-2.0","https://ccnypsych.az1.qualtrics.com/jfe/form/SV_08OIJSgkXY2rA8e","bdp_trlrn","Mon Nov 08 2021 10:00:28 GMT-0500 (EST)","701384","Untrustworthy,Trustworthy","","null","","","","ratingFB","","trustrating_stim/white_mw051.bmp","null","","","","","","","","",""
"image-keyboard-response","7","33240","0.0-6.0-1.1","https://ccnypsych.az1.qualtrics.com/jfe/form/SV_08OIJSgkXY2rA8e","bdp_trlrn","Mon Nov 08 2021 10:00:28 GMT-0500 (EST)","701384","Untrustworthy,Trustworthy","","2333","","","","rating","","trustrating_stim/white_00253_940128_fa_edt.bmp","5","","","","","","","","",""
"image-keyboard-response","8","33443","0.0-6.0-2.1","https://ccnypsych.az1.qualtrics.com/jfe/form/SV_08OIJSgkXY2rA8e","bdp_trlrn","Mon Nov 08 2021 10:00:28 GMT-0500 (EST)","701384","Untrustworthy,Trustworthy","","null","","","","ratingFB","","trustrating_stim/white_00253_940128_fa_edt.bmp","null","","","","","","","","",""
"image-keyboard-response","9","36082","0.0-6.0-1.2","https://ccnypsych.az1.qualtrics.com/jfe/form/SV_08OIJSgkXY2rA8e","bdp_trlrn","Mon Nov 08 2021 10:00:28 GMT-0500 (EST)","701384","Untrustworthy,Trustworthy","","2537","","","","rating","","trustrating_stim/white_mw085.bmp","5","","","","","","","","",""
"image-keyboard-response","10","36285","0.0-6.0-2.2","https://ccnypsych.az1.qualtrics.com/jfe/form/SV_08OIJSgkXY2rA8e","bdp_trlrn","Mon Nov 08 2021 10:00:28 GMT-0500 (EST)","701384","Untrustworthy,Trustworthy","","null","","","","ratingFB","","trustrating_stim/white_mw085.bmp","null","","","","","","","","",""
"image-keyboard-response","11","38317","0.0-6.0-1.3","https://ccnypsych.az1.qualtrics.com/jfe/form/SV_08OIJSgkXY2rA8e","bdp_trlrn","Mon Nov 08 2021 10:00:28 GMT-0500 (EST)","701384","Untrustworthy,Trustworthy","","1929","","","","rating","","trustrating_stim/white_mw084.bmp","5","","","","","","","","",""
"image-keyboard-response","12","38519","0.0-6.0-2.3","https://ccnypsych.az1.qualtrics.com/jfe/form/SV_08OIJSgkXY2rA8e","bdp_trlrn","Mon Nov 08 2021 10:00:28 GMT-0500 (EST)","701384","Untrustworthy,Trustworthy","","null","","","","ratingFB","","trustrating_stim/white_mw084.bmp","null","","","","","","","","",""
"image-keyboard-response","13","40285","0.0-6.0-1.4","https://ccnypsych.az1.qualtrics.com/jfe/form/SV_08OIJSgkXY2rA8e","bdp_trlrn","Mon Nov 08 2021 10:00:28 GMT-0500 (EST)","701384","Untrustworthy,Trustworthy","","1663","","","","rating","","trustrating_stim/white_00785_941205_fb_edt.bmp","5","","","","","","","","",""
"image-keyboard-response","14","40487","0.0-6.0-2.4","https://ccnypsych.az1.qualtrics.com/jfe/form/SV_08OIJSgkXY2rA8e","bdp_trlrn","Mon Nov 08 2021 10:00:28 GMT-0500 (EST)","701384","Untrustworthy,Trustworthy","","null","","","","ratingFB","","trustrating_stim/white_00785_941205_fb_edt.bmp","null","","","","","","","","",""
"image-keyboard-response","15","42437","0.0-6.0-1.5","https://ccnypsych.az1.qualtrics.com/jfe/form/SV_08OIJSgkXY2rA8e","bdp_trlrn","Mon Nov 08 2021 10:00:28 GMT-0500 (EST)","701384","Untrustworthy,Trustworthy","","1848","","","","rating","","trustrating_stim/white_00109_931230_fa_edt.bmp","6","","","","","","","","",""
"image-keyboard-response","16","42640","0.0-6.0-2.5","https://ccnypsych.az1.qualtrics.com/jfe/form/SV_08OIJSgkXY2rA8e","bdp_trlrn","Mon Nov 08 2021 10:00:28 GMT-0500 (EST)","701384","Untrustworthy,Trustworthy","","null","","","","ratingFB","","trustrating_stim/white_00109_931230_fa_edt.bmp","null","","","","","","","","",""
"image-keyboard-response","17","44497","0.0-6.0-1.6","https://ccnypsych.az1.qualtrics.com/jfe/form/SV_08OIJSgkXY2rA8e","bdp_trlrn","Mon Nov 08 2021 10:00:28 GMT-0500 (EST)","701384","Untrustworthy,Trustworthy","","1755","","","","rating","","trustrating_stim/white_mw006.bmp","5","","","","","","","","",""
"image-keyboard-response","18","44700","0.0-6.0-2.6","https://ccnypsych.az1.qualtrics.com/jfe/form/SV_08OIJSgkXY2rA8e","bdp_trlrn","Mon Nov 08 2021 10:00:28 GMT-0500 (EST)","701384","Untrustworthy,Trustworthy","","null","","","","ratingFB","","trustrating_stim/white_mw006.bmp","null","","","","","","","","",""
"image-keyboard-response","19","46085","0.0-6.0-1.7","https://ccnypsych.az1.qualtrics.com/jfe/form/SV_08OIJSgkXY2rA8e","bdp_trlrn","Mon Nov 08 2021 10:00:28 GMT-0500 (EST)","701384","Untrustworthy,Trustworthy","","1283","","","","rating","","trustrating_stim/white_mw089.bmp","5","","","","","","","","",""
"image-keyboard-response","20","46287","0.0-6.0-2.7","https://ccnypsych.az1.qualtrics.com/jfe/form/SV_08OIJSgkXY2rA8e","bdp_trlrn","Mon Nov 08 2021 10:00:28 GMT-0500 (EST)","701384","Untrustworthy,Trustworthy","","null","","","","ratingFB","","trustrating_stim/white_mw089.bmp","null","","","","","","","","",""
"image-keyboard-response","21","47547","0.0-6.0-1.8","https://ccnypsych.az1.qualtrics.com/jfe/form/SV_08OIJSgkXY2rA8e","bdp_trlrn","Mon Nov 08 2021 10:00:28 GMT-0500 (EST)","701384","Untrustworthy,Trustworthy","","1158","","","","rating","","trustrating_stim/white_mw046.bmp","5","","","","","","","","",""
"image-keyboard-response","22","47749","0.0-6.0-2.8","https://ccnypsych.az1.qualtrics.com/jfe/form/SV_08OIJSgkXY2rA8e","bdp_trlrn","Mon Nov 08 2021 10:00:28 GMT-0500 (EST)","701384","Untrustworthy,Trustworthy","","null","","","","ratingFB","","trustrating_stim/white_mw046.bmp","null","","","","","","","","",""
"image-keyboard-response","23","49805","0.0-6.0-1.9","https://ccnypsych.az1.qualtrics.com/jfe/form/SV_08OIJSgkXY2rA8e","bdp_trlrn","Mon Nov 08 2021 10:00:28 GMT-0500 (EST)","701384","Untrustworthy,Trustworthy","","1952","","","","rating","","trustrating_stim/white_mw019.bmp","5","","","","","","","","",""
"image-keyboard-response","24","50007","0.0-6.0-2.9","https://ccnypsych.az1.qualtrics.com/jfe/form/SV_08OIJSgkXY2rA8e","bdp_trlrn","Mon Nov 08 2021 10:00:28 GMT-0500 (EST)","701384","Untrustworthy,Trustworthy","","null","","","","ratingFB","","trustrating_stim/white_mw019.bmp","null","","","","","","","","",""
"image-keyboard-response","25","55310","0.0-6.0-1.10","https://ccnypsych.az1.qualtrics.com/jfe/form/SV_08OIJSgkXY2rA8e","bdp_trlrn","Mon Nov 08 2021 10:00:28 GMT-0500 (EST)","701384","Untrustworthy,Trustworthy","","5201","","","","rating","","trustrating_stim/white_mw054.bmp","5","","","","","","","","",""
"image-keyboard-response","26","55513","0.0-6.0-2.10","https://ccnypsych.az1.qualtrics.com/jfe/form/SV_08OIJSgkXY2rA8e","bdp_trlrn","Mon Nov 08 2021 10:00:28 GMT-0500 (EST)","701384","Untrustworthy,Trustworthy","","null","","","","ratingFB","","trustrating_stim/white_mw054.bmp","null","","","","","","","","",""
"image-keyboard-response","27","57033","0.0-6.0-1.11","https://ccnypsych.az1.qualtrics.com/jfe/form/SV_08OIJSgkXY2rA8e","bdp_trlrn","Mon Nov 08 2021 10:00:28 GMT-0500 (EST)","701384","Untrustworthy,Trustworthy","","1418","","","","rating","","trustrating_stim/white_00223_940128_fb_edt.bmp","5","","","","","","","","",""
"image-keyboard-response","28","57236","0.0-6.0-2.11","https://ccnypsych.az1.qualtrics.com/jfe/form/SV_08OIJSgkXY2rA8e","bdp_trlrn","Mon Nov 08 2021 10:00:28 GMT-0500 (EST)","701384","Untrustworthy,Trustworthy","","null","","","","ratingFB","","trustrating_stim/white_00223_940128_fb_edt.bmp","null","","","","","","","","",""
"image-keyboard-response","29","59104","0.0-6.0-1.12","https://ccnypsych.az1.qualtrics.com/jfe/form/SV_08OIJSgkXY2rA8e","bdp_trlrn","Mon Nov 08 2021 10:00:28 GMT-0500 (EST)","701384","Untrustworthy,Trustworthy","","1766","","","","rating","","trustrating_stim/white_mw066.bmp","5","","","","","","","","",""
"image-keyboard-response","30","59306","0.0-6.0-2.12","https://ccnypsych.az1.qualtrics.com/jfe/form/SV_08OIJSgkXY2rA8e","bdp_trlrn","Mon Nov 08 2021 10:00:28 GMT-0500 (EST)","701384","Untrustworthy,Trustworthy","","null","","","","ratingFB","","trustrating_stim/white_mw066.bmp","null","","","","","","","","",""
"image-keyboard-response","31","60733","0.0-6.0-1.13","https://ccnypsych.az1.qualtrics.com/jfe/form/SV_08OIJSgkXY2rA8e","bdp_trlrn","Mon Nov 08 2021 10:00:28 GMT-0500 (EST)","701384","Untrustworthy,Trustworthy","","1325","","","","rating","","trustrating_stim/white_mw012.bmp","5","","","","","","","","",""
"image-keyboard-response","32","60935","0.0-6.0-2.13","https://ccnypsych.az1.qualtrics.com/jfe/form/SV_08OIJSgkXY2rA8e","bdp_trlrn","Mon Nov 08 2021 10:00:28 GMT-0500 (EST)","701384","Untrustworthy,Trustworthy","","null","","","","ratingFB","","trustrating_stim/white_mw012.bmp","null","","","","","","","","",""
"image-keyboard-response","33","63299","0.0-6.0-1.14","https://ccnypsych.az1.qualtrics.com/jfe/form/SV_08OIJSgkXY2rA8e","bdp_trlrn","Mon Nov 08 2021 10:00:28 GMT-0500 (EST)","701384","Untrustworthy,Trustworthy","","2261","","","","rating","","trustrating_stim/white_00897_960530_fb_edt.bmp","5","","","","","","","","",""
"image-keyboard-response","34","63502","0.0-6.0-2.14","https://ccnypsych.az1.qualtrics.com/jfe/form/SV_08OIJSgkXY2rA8e","bdp_trlrn","Mon Nov 08 2021 10:00:28 GMT-0500 (EST)","701384","Untrustworthy,Trustworthy","","null","","","","ratingFB","","trustrating_stim/white_00897_960530_fb_edt.bmp","null","","","","","","","","",""
"image-keyboard-response","35","64948","0.0-6.0-1.15","https://ccnypsych.az1.qualtrics.com/jfe/form/SV_08OIJSgkXY2rA8e","bdp_trlrn","Mon Nov 08 2021 10:00:28 GMT-0500 (EST)","701384","Untrustworthy,Trustworthy","","1343","","","","rating","","trustrating_stim/white_00757_941201_fa_edt.bmp","5","","","","","","","","",""
"image-keyboard-response","36","65150","0.0-6.0-2.15","https://ccnypsych.az1.qualtrics.com/jfe/form/SV_08OIJSgkXY2rA8e","bdp_trlrn","Mon Nov 08 2021 10:00:28 GMT-0500 (EST)","701384","Untrustworthy,Trustworthy","","null","","","","ratingFB","","trustrating_stim/white_00757_941201_fa_edt.bmp","null","","","","","","","","",""
"image-keyboard-response","37","68324","0.0-6.0-1.16","https://ccnypsych.az1.qualtrics.com/jfe/form/SV_08OIJSgkXY2rA8e","bdp_trlrn","Mon Nov 08 2021 10:00:28 GMT-0500 (EST)","701384","Untrustworthy,Trustworthy","","3072","","","","rating","","trustrating_stim/white_00657_941121_fa_edt.bmp","5","","","","","","","","",""
"image-keyboard-response","38","68527","0.0-6.0-2.16","https://ccnypsych.az1.qualtrics.com/jfe/form/SV_08OIJSgkXY2rA8e","bdp_trlrn","Mon Nov 08 2021 10:00:28 GMT-0500 (EST)","701384","Untrustworthy,Trustworthy","","null","","","","ratingFB","","trustrating_stim/white_00657_941121_fa_edt.bmp","null","","","","","","","","",""
"image-keyboard-response","39","70225","0.0-6.0-1.17","https://ccnypsych.az1.qualtrics.com/jfe/form/SV_08OIJSgkXY2rA8e","bdp_trlrn","Mon Nov 08 2021 10:00:28 GMT-0500 (EST)","701384","Untrustworthy,Trustworthy","","1596","","","","rating","","trustrating_stim/white_00807_941205_fb_edt.bmp","5","","","","","","","","",""
"image-keyboard-response","40","70428","0.0-6.0-2.17","https://ccnypsych.az1.qualtrics.com/jfe/form/SV_08OIJSgkXY2rA8e","bdp_trlrn","Mon Nov 08 2021 10:00:28 GMT-0500 (EST)","701384","Untrustworthy,Trustworthy","","null","","","","ratingFB","","trustrating_stim/white_00807_941205_fb_edt.bmp","null","","","","","","","","",""
"image-keyboard-response","41","72431","0.0-6.0-1.18","https://ccnypsych.az1.qualtrics.com/jfe/form/SV_08OIJSgkXY2rA8e","bdp_trlrn","Mon Nov 08 2021 10:00:28 GMT-0500 (EST)","701384","Untrustworthy,Trustworthy","","1901","","","","rating","","trustrating_stim/white_00602_940928_fb_edt.bmp","6","","","","","","","","",""
"image-keyboard-response","42","72634","0.0-6.0-2.18","https://ccnypsych.az1.qualtrics.com/jfe/form/SV_08OIJSgkXY2rA8e","bdp_trlrn","Mon Nov 08 2021 10:00:28 GMT-0500 (EST)","701384","Untrustworthy,Trustworthy","","null","","","","ratingFB","","trustrating_stim/white_00602_940928_fb_edt.bmp","null","","","","","","","","",""
"image-keyboard-response","43","74111","0.0-6.0-1.19","https://ccnypsych.az1.qualtrics.com/jfe/form/SV_08OIJSgkXY2rA8e","bdp_trlrn","Mon Nov 08 2021 10:00:28 GMT-0500 (EST)","701384","Untrustworthy,Trustworthy","","1376","","","","rating","","trustrating_stim/white_mw004.bmp","5","","","","","","","","",""
"image-keyboard-response","44","74314","0.0-6.0-2.19","https://ccnypsych.az1.qualtrics.com/jfe/form/SV_08OIJSgkXY2rA8e","bdp_trlrn","Mon Nov 08 2021 10:00:28 GMT-0500 (EST)","701384","Untrustworthy,Trustworthy","","null","","","","ratingFB","","trustrating_stim/white_mw004.bmp","null","","","","","","","","",""
"image-keyboard-response","45","76281","0.0-6.0-1.20","https://ccnypsych.az1.qualtrics.com/jfe/form/SV_08OIJSgkXY2rA8e","bdp_trlrn","Mon Nov 08 2021 10:00:28 GMT-0500 (EST)","701384","Untrustworthy,Trustworthy","","1864","","","","rating","","trustrating_stim/white_mw072.bmp","5","","","","","","","","",""
"image-keyboard-response","46","76482","0.0-6.0-2.20","https://ccnypsych.az1.qualtrics.com/jfe/form/SV_08OIJSgkXY2rA8e","bdp_trlrn","Mon Nov 08 2021 10:00:28 GMT-0500 (EST)","701384","Untrustworthy,Trustworthy","","null","","","","ratingFB","","trustrating_stim/white_mw072.bmp","null","","","","","","","","",""
"image-keyboard-response","47","78506","0.0-6.0-1.21","https://ccnypsych.az1.qualtrics.com/jfe/form/SV_08OIJSgkXY2rA8e","bdp_trlrn","Mon Nov 08 2021 10:00:28 GMT-0500 (EST)","701384","Untrustworthy,Trustworthy","","1921","","","","rating","","trustrating_stim/white_mw057.bmp","4","","","","","","","","",""
"image-keyboard-response","48","78708","0.0-6.0-2.21","https://ccnypsych.az1.qualtrics.com/jfe/form/SV_08OIJSgkXY2rA8e","bdp_trlrn","Mon Nov 08 2021 10:00:28 GMT-0500 (EST)","701384","Untrustworthy,Trustworthy","","null","","","","ratingFB","","trustrating_stim/white_mw057.bmp","null","","","","","","","","",""
"image-keyboard-response","49","80162","0.0-6.0-1.22","https://ccnypsych.az1.qualtrics.com/jfe/form/SV_08OIJSgkXY2rA8e","bdp_trlrn","Mon Nov 08 2021 10:00:28 GMT-0500 (EST)","701384","Untrustworthy,Trustworthy","","1352","","","","rating","","trustrating_stim/white_00960_960627_fb_edt.bmp","5","","","","","","","","",""
"image-keyboard-response","50","80365","0.0-6.0-2.22","https://ccnypsych.az1.qualtrics.com/jfe/form/SV_08OIJSgkXY2rA8e","bdp_trlrn","Mon Nov 08 2021 10:00:28 GMT-0500 (EST)","701384","Untrustworthy,Trustworthy","","null","","","","ratingFB","","trustrating_stim/white_00960_960627_fb_edt.bmp","null","","","","","","","","",""
"image-keyboard-response","51","82243","0.0-6.0-1.23","https://ccnypsych.az1.qualtrics.com/jfe/form/SV_08OIJSgkXY2rA8e","bdp_trlrn","Mon Nov 08 2021 10:00:28 GMT-0500 (EST)","701384","Untrustworthy,Trustworthy","","1776","","","","rating","","trustrating_stim/white_mw099.bmp","5","","","","","","","","",""
"image-keyboard-response","52","82445","0.0-6.0-2.23","https://ccnypsych.az1.qualtrics.com/jfe/form/SV_08OIJSgkXY2rA8e","bdp_trlrn","Mon Nov 08 2021 10:00:28 GMT-0500 (EST)","701384","Untrustworthy,Trustworthy","","null","","","","ratingFB","","trustrating_stim/white_mw099.bmp","null","","","","","","","","",""
"image-keyboard-response","53","83670","0.0-6.0-1.24","https://ccnypsych.az1.qualtrics.com/jfe/form/SV_08OIJSgkXY2rA8e","bdp_trlrn","Mon Nov 08 2021 10:00:28 GMT-0500 (EST)","701384","Untrustworthy,Trustworthy","","1123","","","","rating","","trustrating_stim/white_mw080.bmp","5","","","","","","","","",""
"image-keyboard-response","54","83872","0.0-6.0-2.24","https://ccnypsych.az1.qualtrics.com/jfe/form/SV_08OIJSgkXY2rA8e","bdp_trlrn","Mon Nov 08 2021 10:00:28 GMT-0500 (EST)","701384","Untrustworthy,Trustworthy","","null","","","","ratingFB","","trustrating_stim/white_mw080.bmp","null","","","","","","","","",""
"image-keyboard-response","55","85506","0.0-6.0-1.25","https://ccnypsych.az1.qualtrics.com/jfe/form/SV_08OIJSgkXY2rA8e","bdp_trlrn","Mon Nov 08 2021 10:00:28 GMT-0500 (EST)","701384","Untrustworthy,Trustworthy","","1532","","","","rating","","trustrating_stim/white_00658_941121_fb_edt.bmp","5","","","","","","","","",""
"image-keyboard-response","56","85708","0.0-6.0-2.25","https://ccnypsych.az1.qualtrics.com/jfe/form/SV_08OIJSgkXY2rA8e","bdp_trlrn","Mon Nov 08 2021 10:00:28 GMT-0500 (EST)","701384","Untrustworthy,Trustworthy","","null","","","","ratingFB","","trustrating_stim/white_00658_941121_fb_edt.bmp","null","","","","","","","","",""
"image-keyboard-response","57","88085","0.0-6.0-1.26","https://ccnypsych.az1.qualtrics.com/jfe/form/SV_08OIJSgkXY2rA8e","bdp_trlrn","Mon Nov 08 2021 10:00:28 GMT-0500 (EST)","701384","Untrustworthy,Trustworthy","","2274","","","","rating","","trustrating_stim/white_mw058.bmp","4","","","","","","","","",""
"image-keyboard-response","58","88287","0.0-6.0-2.26","https://ccnypsych.az1.qualtrics.com/jfe/form/SV_08OIJSgkXY2rA8e","bdp_trlrn","Mon Nov 08 2021 10:00:28 GMT-0500 (EST)","701384","Untrustworthy,Trustworthy","","null","","","","ratingFB","","trustrating_stim/white_mw058.bmp","null","","","","","","","","",""
"image-keyboard-response","59","89632","0.0-6.0-1.27","https://ccnypsych.az1.qualtrics.com/jfe/form/SV_08OIJSgkXY2rA8e","bdp_trlrn","Mon Nov 08 2021 10:00:28 GMT-0500 (EST)","701384","Untrustworthy,Trustworthy","","1243","","","","rating","","trustrating_stim/white_mw071.bmp","5","","","","","","","","",""
"image-keyboard-response","60","89835","0.0-6.0-2.27","https://ccnypsych.az1.qualtrics.com/jfe/form/SV_08OIJSgkXY2rA8e","bdp_trlrn","Mon Nov 08 2021 10:00:28 GMT-0500 (EST)","701384","Untrustworthy,Trustworthy","","null","","","","ratingFB","","trustrating_stim/white_mw071.bmp","null","","","","","","","","",""
"image-keyboard-response","61","92273","0.0-6.0-1.28","https://ccnypsych.az1.qualtrics.com/jfe/form/SV_08OIJSgkXY2rA8e","bdp_trlrn","Mon Nov 08 2021 10:00:28 GMT-0500 (EST)","701384","Untrustworthy,Trustworthy","","2337","","","","rating","","trustrating_stim/white_mw044.bmp","5","","","","","","","","",""
"image-keyboard-response","62","92475","0.0-6.0-2.28","https://ccnypsych.az1.qualtrics.com/jfe/form/SV_08OIJSgkXY2rA8e","bdp_trlrn","Mon Nov 08 2021 10:00:28 GMT-0500 (EST)","701384","Untrustworthy,Trustworthy","","null","","","","ratingFB","","trustrating_stim/white_mw044.bmp","null","","","","","","","","",""
"image-keyboard-response","63","95016","0.0-6.0-1.29","https://ccnypsych.az1.qualtrics.com/jfe/form/SV_08OIJSgkXY2rA8e","bdp_trlrn","Mon Nov 08 2021 10:00:28 GMT-0500 (EST)","701384","Untrustworthy,Trustworthy","","2437","","","","rating","","trustrating_stim/white_mw016.bmp","5","","","","","","","","",""
"image-keyboard-response","64","95219","0.0-6.0-2.29","https://ccnypsych.az1.qualtrics.com/jfe/form/SV_08OIJSgkXY2rA8e","bdp_trlrn","Mon Nov 08 2021 10:00:28 GMT-0500 (EST)","701384","Untrustworthy,Trustworthy","","null","","","","ratingFB","","trustrating_stim/white_mw016.bmp","null","","","","","","","","",""
"image-keyboard-response","65","97465","0.0-6.0-1.30","https://ccnypsych.az1.qualtrics.com/jfe/form/SV_08OIJSgkXY2rA8e","bdp_trlrn","Mon Nov 08 2021 10:00:28 GMT-0500 (EST)","701384","Untrustworthy,Trustworthy","","2143","","","","rating","","trustrating_stim/white_mw025.bmp","5","","","","","","","","",""
"image-keyboard-response","66","97667","0.0-6.0-2.30","https://ccnypsych.az1.qualtrics.com/jfe/form/SV_08OIJSgkXY2rA8e","bdp_trlrn","Mon Nov 08 2021 10:00:28 GMT-0500 (EST)","701384","Untrustworthy,Trustworthy","","null","","","","ratingFB","","trustrating_stim/white_mw025.bmp","null","","","","","","","","",""
"image-keyboard-response","67","99322","0.0-6.0-1.31","https://ccnypsych.az1.qualtrics.com/jfe/form/SV_08OIJSgkXY2rA8e","bdp_trlrn","Mon Nov 08 2021 10:00:28 GMT-0500 (EST)","701384","Untrustworthy,Trustworthy","","1553","","","","rating","","trustrating_stim/white_mw043.bmp","5","","","","","","","","",""
"image-keyboard-response","68","99525","0.0-6.0-2.31","https://ccnypsych.az1.qualtrics.com/jfe/form/SV_08OIJSgkXY2rA8e","bdp_trlrn","Mon Nov 08 2021 10:00:28 GMT-0500 (EST)","701384","Untrustworthy,Trustworthy","","null","","","","ratingFB","","trustrating_stim/white_mw043.bmp","null","","","","","","","","",""
"image-keyboard-response","69","101529","0.0-6.0-1.32","https://ccnypsych.az1.qualtrics.com/jfe/form/SV_08OIJSgkXY2rA8e","bdp_trlrn","Mon Nov 08 2021 10:00:28 GMT-0500 (EST)","701384","Untrustworthy,Trustworthy","","1901","","","","rating","","trustrating_stim/white_00120_931230_fa_edt.bmp","5","","","","","","","","",""
"image-keyboard-response","70","101731","0.0-6.0-2.32","https://ccnypsych.az1.qualtrics.com/jfe/form/SV_08OIJSgkXY2rA8e","bdp_trlrn","Mon Nov 08 2021 10:00:28 GMT-0500 (EST)","701384","Untrustworthy,Trustworthy","","null","","","","ratingFB","","trustrating_stim/white_00120_931230_fa_edt.bmp","null","","","","","","","","",""
"image-keyboard-response","71","104555","0.0-6.0-1.33","https://ccnypsych.az1.qualtrics.com/jfe/form/SV_08OIJSgkXY2rA8e","bdp_trlrn","Mon Nov 08 2021 10:00:28 GMT-0500 (EST)","701384","Untrustworthy,Trustworthy","","2722","","","","rating","","trustrating_stim/white_mw040.bmp","5","","","","","","","","",""
"image-keyboard-response","72","104758","0.0-6.0-2.33","https://ccnypsych.az1.qualtrics.com/jfe/form/SV_08OIJSgkXY2rA8e","bdp_trlrn","Mon Nov 08 2021 10:00:28 GMT-0500 (EST)","701384","Untrustworthy,Trustworthy","","null","","","","ratingFB","","trustrating_stim/white_mw040.bmp","null","","","","","","","","",""
"image-keyboard-response","73","107433","0.0-6.0-1.34","https://ccnypsych.az1.qualtrics.com/jfe/form/SV_08OIJSgkXY2rA8e","bdp_trlrn","Mon Nov 08 2021 10:00:28 GMT-0500 (EST)","701384","Untrustworthy,Trustworthy","","2572","","","","rating","","trustrating_stim/white_mw097.bmp","5","","","","","","","","",""
"image-keyboard-response","74","107634","0.0-6.0-2.34","https://ccnypsych.az1.qualtrics.com/jfe/form/SV_08OIJSgkXY2rA8e","bdp_trlrn","Mon Nov 08 2021 10:00:28 GMT-0500 (EST)","701384","Untrustworthy,Trustworthy","","null","","","","ratingFB","","trustrating_stim/white_mw097.bmp","null","","","","","","","","",""
"image-keyboard-response","75","109242","0.0-6.0-1.35","https://ccnypsych.az1.qualtrics.com/jfe/form/SV_08OIJSgkXY2rA8e","bdp_trlrn","Mon Nov 08 2021 10:00:28 GMT-0500 (EST)","701384","Untrustworthy,Trustworthy","","1505","","","","rating","","trustrating_stim/white_mw022.bmp","5","","","","","","","","",""
"image-keyboard-response","76","109444","0.0-6.0-2.35","https://ccnypsych.az1.qualtrics.com/jfe/form/SV_08OIJSgkXY2rA8e","bdp_trlrn","Mon Nov 08 2021 10:00:28 GMT-0500 (EST)","701384","Untrustworthy,Trustworthy","","null","","","","ratingFB","","trustrating_stim/white_mw022.bmp","null","","","","","","","","",""
"image-keyboard-response","77","110846","0.0-6.0-1.36","https://ccnypsych.az1.qualtrics.com/jfe/form/SV_08OIJSgkXY2rA8e","bdp_trlrn","Mon Nov 08 2021 10:00:28 GMT-0500 (EST)","701384","Untrustworthy,Trustworthy","","1300","","","","rating","","trustrating_stim/white_mw082.bmp","5","","","","","","","","",""
"image-keyboard-response","78","111048","0.0-6.0-2.36","https://ccnypsych.az1.qualtrics.com/jfe/form/SV_08OIJSgkXY2rA8e","bdp_trlrn","Mon Nov 08 2021 10:00:28 GMT-0500 (EST)","701384","Untrustworthy,Trustworthy","","null","","","","ratingFB","","trustrating_stim/white_mw082.bmp","null","","","","","","","","",""
"image-keyboard-response","79","113138","0.0-6.0-1.37","https://ccnypsych.az1.qualtrics.com/jfe/form/SV_08OIJSgkXY2rA8e","bdp_trlrn","Mon Nov 08 2021 10:00:28 GMT-0500 (EST)","701384","Untrustworthy,Trustworthy","","1988","","","","rating","","trustrating_stim/white_mw013.bmp","5","","","","","","","","",""
"image-keyboard-response","80","113341","0.0-6.0-2.37","https://ccnypsych.az1.qualtrics.com/jfe/form/SV_08OIJSgkXY2rA8e","bdp_trlrn","Mon Nov 08 2021 10:00:28 GMT-0500 (EST)","701384","Untrustworthy,Trustworthy","","null","","","","ratingFB","","trustrating_stim/white_mw013.bmp","null","","","","","","","","",""
"image-keyboard-response","81","114937","0.0-6.0-1.38","https://ccnypsych.az1.qualtrics.com/jfe/form/SV_08OIJSgkXY2rA8e","bdp_trlrn","Mon Nov 08 2021 10:00:28 GMT-0500 (EST)","701384","Untrustworthy,Trustworthy","","1494","","","","rating","","trustrating_stim/white_00761_941201_fb_edt.bmp","5","","","","","","","","",""
"image-keyboard-response","82","115139","0.0-6.0-2.38","https://ccnypsych.az1.qualtrics.com/jfe/form/SV_08OIJSgkXY2rA8e","bdp_trlrn","Mon Nov 08 2021 10:00:28 GMT-0500 (EST)","701384","Untrustworthy,Trustworthy","","null","","","","ratingFB","","trustrating_stim/white_00761_941201_fb_edt.bmp","null","","","","","","","","",""
"image-keyboard-response","83","116976","0.0-6.0-1.39","https://ccnypsych.az1.qualtrics.com/jfe/form/SV_08OIJSgkXY2rA8e","bdp_trlrn","Mon Nov 08 2021 10:00:28 GMT-0500 (EST)","701384","Untrustworthy,Trustworthy","","1734","","","","rating","","trustrating_stim/white_mw035.bmp","4","","","","","","","","",""
"image-keyboard-response","84","117178","0.0-6.0-2.39","https://ccnypsych.az1.qualtrics.com/jfe/form/SV_08OIJSgkXY2rA8e","bdp_trlrn","Mon Nov 08 2021 10:00:28 GMT-0500 (EST)","701384","Untrustworthy,Trustworthy","","null","","","","ratingFB","","trustrating_stim/white_mw035.bmp","null","","","","","","","","",""
"instructions","85","118531","0.0-7.0","https://ccnypsych.az1.qualtrics.com/jfe/form/SV_08OIJSgkXY2rA8e","bdp_trlrn","Mon Nov 08 2021 10:00:28 GMT-0500 (EST)","701384","Untrustworthy,Trustworthy","[{""page_index"":0,""viewing_time"":1250}]","1251","","","","","","","","","","","","","","","",""
"instructions","86","228339","0.0-8.0","https://ccnypsych.az1.qualtrics.com/jfe/form/SV_08OIJSgkXY2rA8e","bdp_trlrn","Mon Nov 08 2021 10:00:28 GMT-0500 (EST)","701384","Untrustworthy,Trustworthy","[{""page_index"":0,""viewing_time"":50094},{""page_index"":1,""viewing_time"":10405},{""page_index"":2,""viewing_time"":8422},{""page_index"":3,""viewing_time"":11654},{""page_index"":4,""viewing_time"":9853},{""page_index"":5,""viewing_time"":14137},{""page_index"":6,""viewing_time"":5141}]","109706","","","","","","","","","","","","","","","",""
"html-keyboard-response","87","237705","0.0-9.0","https://ccnypsych.az1.qualtrics.com/jfe/form/SV_08OIJSgkXY2rA8e","bdp_trlrn","Mon Nov 08 2021 10:00:28 GMT-0500 (EST)","701384","Untrustworthy,Trustworthy","","9364","","","","","","<div class='header' style='text-align:left; position: absolute; top: 5%; left: 5%;'><small>Task 3 of 4</small></div><div style='text-align:left; position: absolute; top: 10%; left: 20%; width: 60%'><p><strong>1) What is the minimum number of points you can choose to send to your partner?</strong></p><p>a) 0</p><p>b) 1</p><p>c) 5</p>","B","","","","","","","","",""
"html-keyboard-response","88","241798","0.0-10.0","https://ccnypsych.az1.qualtrics.com/jfe/form/SV_08OIJSgkXY2rA8e","bdp_trlrn","Mon Nov 08 2021 10:00:28 GMT-0500 (EST)","701384","Untrustworthy,Trustworthy","","3990","","","","","","<div class='header' style='text-align:left; position: absolute; top: 5%; left: 5%;'><small>Task 3 of 4</small></div><div style='text-align:left; position: absolute; top: 10%; left: 20%; width: 60%'><p><strong>1) What is the minimum number of points you can choose to send to your partner?</strong></p><p>a) 0</p><p style='color:#00FF00'>b) 1</p><p>c) 5</p><h3 style='color:#00FF00'>Correct!</h3><h3 class='center-content'>The correct response is b).</h3><h3 class='center-content'>The minimum number of points you can choose to send to your partner is 1 point.</h3><p><em>Press SPACEBAR to continue</em></p></div>"," ","","","","","","","","",""
"html-keyboard-response","89","245628","0.0-11.0","https://ccnypsych.az1.qualtrics.com/jfe/form/SV_08OIJSgkXY2rA8e","bdp_trlrn","Mon Nov 08 2021 10:00:28 GMT-0500 (EST)","701384","Untrustworthy,Trustworthy","","3728","","","","","","<div class='header' style='text-align:left; position: absolute; top: 5%; left: 5%;'><small>Task 3 of 4</small></div><div style='text-align:left; position: absolute; top: 10%; left: 20%; width: 60%'><p><strong>2) What is the maximum number of points you can choose to send to your partner?</strong></p><p>a) 8</p><p>b) 5</p><p>c) 3</p>","B","","","","","","","","",""
"html-keyboard-response","90","247253","0.0-12.0","https://ccnypsych.az1.qualtrics.com/jfe/form/SV_08OIJSgkXY2rA8e","bdp_trlrn","Mon Nov 08 2021 10:00:28 GMT-0500 (EST)","701384","Untrustworthy,Trustworthy","","1522","","","","","","<div class='header' style='text-align:left; position: absolute; top: 5%; left: 5%;'><small>Task 3 of 4</small></div><div style='text-align:left; position: absolute; top: 10%; left: 20%; width: 60%'><p><strong>2) What is the maximum number of points you can choose to send to your partner?</strong></p><p>a) 8</p><p style='color:#00FF00'>b) 5</p><p>c) 3</p><h3 style='color:#00FF00'>Correct!</h3><h3 class='center-content'>The correct response is b).</h3><h3 class='center-content'>The maximum number of points you can choose to send to your partner is 5 points.</h3><p><em>Press SPACEBAR to continue</em></p></div>"," ","","","","","","","","",""
"html-keyboard-response","91","251332","0.0-13.0","https://ccnypsych.az1.qualtrics.com/jfe/form/SV_08OIJSgkXY2rA8e","bdp_trlrn","Mon Nov 08 2021 10:00:28 GMT-0500 (EST)","701384","Untrustworthy,Trustworthy","","3978","","","","","","<div class='header' style='text-align:left; position: absolute; top: 5%; left: 5%;'><small>Task 3 of 4</small></div><div style='text-align:left; position: absolute; top: 10%; left: 20%; width: 60%'><p><strong>3) What happens to the amount of points you send to your partner?</strong></p><p>a) Nothing</p><p>b) It doubles</p><p>c) It quadruples</p>","C","","","","","","","","",""
"html-keyboard-response","92","252969","0.0-14.0","https://ccnypsych.az1.qualtrics.com/jfe/form/SV_08OIJSgkXY2rA8e","bdp_trlrn","Mon Nov 08 2021 10:00:28 GMT-0500 (EST)","701384","Untrustworthy,Trustworthy","","1535","","","","","","<div class='header' style='text-align:left; position: absolute; top: 5%; left: 5%;'><small>Task 3 of 4</small></div><div style='text-align:left; position: absolute; top: 10%; left: 20%; width: 60%'><p><strong>3) What happens to the amount of points you send to your partner?</strong></p><p>a) Nothing</p><p>b) It doubles</p><p style='color:#00FF00'>c) It quadruples</p><h3 style='color:#00FF00'>Correct!</h3><h3 class='center-content'>The correct response is c).</h3><h3 class='center-content'>The amount of points you send to your partner quadruples.</h3><p><em>Press SPACEBAR to continue</em></p></div>"," ","","","","","","","","",""
"html-keyboard-response","93","282528","0.0-15.0","https://ccnypsych.az1.qualtrics.com/jfe/form/SV_08OIJSgkXY2rA8e","bdp_trlrn","Mon Nov 08 2021 10:00:28 GMT-0500 (EST)","701384","Untrustworthy,Trustworthy","","29457","","","","","","<div class='header' style='text-align:left; position: absolute; top: 5%; left: 5%;'><small>Task 3 of 4</small></div><div style='text-align:left; position: absolute; top: 10%; left: 20%; width: 60%'><p><strong>4) If you decide to share 4 out of 5 points with your partner, and he decided to share half of what he received, how many points would you end up with in this round?</strong></p><p>a) 16</p><p>b) 0</p><p>c) 9</p>","C","","","","","","","","",""
"html-keyboard-response","94","291399","0.0-16.0","https://ccnypsych.az1.qualtrics.com/jfe/form/SV_08OIJSgkXY2rA8e","bdp_trlrn","Mon Nov 08 2021 10:00:28 GMT-0500 (EST)","701384","Untrustworthy,Trustworthy","","8767","","","","","","<div class='header' style='text-align:left; position: absolute; top: 5%; left: 5%;'><small>Task 3 of 4</small></div><div style='text-align:left; position: absolute; top: 10%; left: 20%; width: 60%'><p><strong>4) If you decide to share 4 points with your partner, and he decided to share half of what he received, how many points would you end up with in this round?</strong></p><p>a) 16</p><p>b) 0</p><p style='color:#00FF00'>c) 9</p><h3 style='color:#00FF00'>Correct!</h3><h3 class='center-content'>The correct response is c).</h3><h3 class='center-content'>If you share 4 out of 5 points with your partner and he decided to share half with you, you would receive 8 points back (i.e. (4 x 4)/2 = 8), totaling to 9 points altogether.</h3><p><em>Press SPACEBAR to continue</em></p></div>"," ","","","","","","","","",""
"instructions","95","293412","0.0-17.0","https://ccnypsych.az1.qualtrics.com/jfe/form/SV_08OIJSgkXY2rA8e","bdp_trlrn","Mon Nov 08 2021 10:00:28 GMT-0500 (EST)","701384","Untrustworthy,Trustworthy","[{""page_index"":0,""viewing_time"":1911}]","1911","","","","","","","","","","","","","","","",""
"html-keyboard-response","96","299011","0.0-18.0-1.0","https://ccnypsych.az1.qualtrics.com/jfe/form/SV_08OIJSgkXY2rA8e","bdp_trlrn","Mon Nov 08 2021 10:00:28 GMT-0500 (EST)","701384","Untrustworthy,Trustworthy","","5495","","","","decision","","<div class='trialDiv'><img src='trustrating_stim/white_mw089.bmp'><br><font class='baseline'><strong>Daniel</strong><p>Choose number of points to send.</font><div class='respPicDiv'><img src='img/responseButtonOffersNo0L.png' class='respPic'></div></div>","2","1","Daniel","trustrating_stim/white_mw089.bmp","Shared","0.6,0.2","11","0.6","5","1"
"html-keyboard-response","97","299265","0.0-18.0-2.0","https://ccnypsych.az1.qualtrics.com/jfe/form/SV_08OIJSgkXY2rA8e","bdp_trlrn","Mon Nov 08 2021 10:00:28 GMT-0500 (EST)","701384","Untrustworthy,Trustworthy","","null","","","","decisionFB","","<div class='trialDiv'><img src='trustrating_stim/white_mw089.bmp'><br><font class='baseline'><strong>Daniel</strong><p>Choose number of points to send.</font><div class='respPicDiv'><img src='img/responseButtonOffersNo0L2.png' class='respPic'></div></div>","null","1","Daniel","trustrating_stim/white_mw089.bmp","Shared","0.6,0.2","11","0.6","3","1"
"html-keyboard-response","98","300267","0.0-18.0-3.0","https://ccnypsych.az1.qualtrics.com/jfe/form/SV_08OIJSgkXY2rA8e","bdp_trlrn","Mon Nov 08 2021 10:00:28 GMT-0500 (EST)","701384","Untrustworthy,Trustworthy","","null","","","","feedback","","<div class='trialDiv'><img src='trustrating_stim/white_mw089.bmp'><br><font class='baseline'><strong>Daniel</strong><p>Received: <strong>8</strong></font> &nbsp; &nbsp; &nbsp; &nbsp; &nbsp; &nbsp;<font class='posOutcome'>Shared back: <strong>4</strong></font></font><div class='respPicDiv'><img src='img/responseButtonOffersNo0_wht.png' class='respPic'></div></div>","null","1","Daniel","trustrating_stim/white_mw089.bmp","Shared","0.6,0.2","11","0.6","7","1"
"html-keyboard-response","99","306666","0.0-18.0-1.1","https://ccnypsych.az1.qualtrics.com/jfe/form/SV_08OIJSgkXY2rA8e","bdp_trlrn","Mon Nov 08 2021 10:00:28 GMT-0500 (EST)","701384","Untrustworthy,Trustworthy","","6397","","","","decision","","<div class='trialDiv'><img src='trustrating_stim/white_mw035.bmp'><br><font class='baseline'><strong>Richard</strong><p>Choose number of points to send.</font><div class='respPicDiv'><img src='img/responseButtonOffersNo0L.png' class='respPic'></div></div>","1","1","Richard","trustrating_stim/white_mw035.bmp","Shared","0.2,0.6","13","0.2","12","2"
"html-keyboard-response","100","306919","0.0-18.0-2.1","https://ccnypsych.az1.qualtrics.com/jfe/form/SV_08OIJSgkXY2rA8e","bdp_trlrn","Mon Nov 08 2021 10:00:28 GMT-0500 (EST)","701384","Untrustworthy,Trustworthy","","null","","","","decisionFB","","<div class='trialDiv'><img src='trustrating_stim/white_mw035.bmp'><br><font class='baseline'><strong>Richard</strong><p>Choose number of points to send.</font><div class='respPicDiv'><img src='img/responseButtonOffersNo0L1.png' class='respPic'></div></div>","null","1","Richard","trustrating_stim/white_mw035.bmp","Shared","0.2,0.6","13","0.2","11","2"
"html-keyboard-response","101","307922","0.0-18.0-3.1","https://ccnypsych.az1.qualtrics.com/jfe/form/SV_08OIJSgkXY2rA8e","bdp_trlrn","Mon Nov 08 2021 10:00:28 GMT-0500 (EST)","701384","Untrustworthy,Trustworthy","","null","","","","feedback","","<div class='trialDiv'><img src='trustrating_stim/white_mw035.bmp'><br><font class='baseline'><strong>Richard</strong><p>Received: <strong>4</strong></font> &nbsp; &nbsp; &nbsp; &nbsp; &nbsp; &nbsp;<font class='posOutcome'>Shared back: <strong>2</strong></font></font><div class='respPicDiv'><img src='img/responseButtonOffersNo0_wht.png' class='respPic'></div></div>","null","1","Richard","trustrating_stim/white_mw035.bmp","Shared","0.2,0.6","13","0.2","13","2"
"html-keyboard-response","102","314021","0.0-18.0-1.2","https://ccnypsych.az1.qualtrics.com/jfe/form/SV_08OIJSgkXY2rA8e","bdp_trlrn","Mon Nov 08 2021 10:00:28 GMT-0500 (EST)","701384","Untrustworthy,Trustworthy","","6098","","","","decision","","<div class='trialDiv'><img src='trustrating_stim/white_mw084.bmp'><br><font class='baseline'><strong>Marcus</strong><p>Choose number of points to send.</font><div class='respPicDiv'><img src='img/responseButtonOffersNo0L.png' class='respPic'></div></div>","3","1","Marcus","trustrating_stim/white_mw084.bmp","Kept","0.4,0.8","10","0.4","18","3"
"html-keyboard-response","103","314275","0.0-18.0-2.2","https://ccnypsych.az1.qualtrics.com/jfe/form/SV_08OIJSgkXY2rA8e","bdp_trlrn","Mon Nov 08 2021 10:00:28 GMT-0500 (EST)","701384","Untrustworthy,Trustworthy","","null","","","","decisionFB","","<div class='trialDiv'><img src='trustrating_stim/white_mw084.bmp'><br><font class='baseline'><strong>Marcus</strong><p>Choose number of points to send.</font><div class='respPicDiv'><img src='img/responseButtonOffersNo0L3.png' class='respPic'></div></div>","null","1","Marcus","trustrating_stim/white_mw084.bmp","Kept","0.4,0.8","10","0.4","15","3"
"html-keyboard-response","104","315277","0.0-18.0-3.2","https://ccnypsych.az1.qualtrics.com/jfe/form/SV_08OIJSgkXY2rA8e","bdp_trlrn","Mon Nov 08 2021 10:00:28 GMT-0500 (EST)","701384","Untrustworthy,Trustworthy","","null","","","","feedback","","<div class='trialDiv'><img src='trustrating_stim/white_mw084.bmp'><br><font class='baseline'><strong>Marcus</strong><p>Received: <strong>12</strong></font> &nbsp; &nbsp; &nbsp; &nbsp; &nbsp; &nbsp;<font class='negOutcome'>Shared back: <strong>0</strong></font></font><div class='respPicDiv'><img src='img/responseButtonOffersNo0_wht.png' class='respPic'></div></div>","null","1","Marcus","trustrating_stim/white_mw084.bmp","Kept","0.4,0.8","10","0.4","15","3"
"html-keyboard-response","105","322545","0.0-18.0-1.3","https://ccnypsych.az1.qualtrics.com/jfe/form/SV_08OIJSgkXY2rA8e","bdp_trlrn","Mon Nov 08 2021 10:00:28 GMT-0500 (EST)","701384","Untrustworthy,Trustworthy","","7265","","","","decision","","<div class='trialDiv'><img src='trustrating_stim/white_mw046.bmp'><br><font class='baseline'><strong>Michael</strong><p>Choose number of points to send.</font><div class='respPicDiv'><img src='img/responseButtonOffersNo0L.png' class='respPic'></div></div>","3","1","Michael","trustrating_stim/white_mw046.bmp","Kept","0.8,0.4","13","0.8","20","4"
"html-keyboard-response","106","322798","0.0-18.0-2.3","https://ccnypsych.az1.qualtrics.com/jfe/form/SV_08OIJSgkXY2rA8e","bdp_trlrn","Mon Nov 08 2021 10:00:28 GMT-0500 (EST)","701384","Untrustworthy,Trustworthy","","null","","","","decisionFB","","<div class='trialDiv'><img src='trustrating_stim/white_mw046.bmp'><br><font class='baseline'><strong>Michael</strong><p>Choose number of points to send.</font><div class='respPicDiv'><img src='img/responseButtonOffersNo0L3.png' class='respPic'></div></div>","null","1","Michael","trustrating_stim/white_mw046.bmp","Kept","0.8,0.4","13","0.8","17","4"
"html-keyboard-response","107","323800","0.0-18.0-3.3","https://ccnypsych.az1.qualtrics.com/jfe/form/SV_08OIJSgkXY2rA8e","bdp_trlrn","Mon Nov 08 2021 10:00:28 GMT-0500 (EST)","701384","Untrustworthy,Trustworthy","","null","","","","feedback","","<div class='trialDiv'><img src='trustrating_stim/white_mw046.bmp'><br><font class='baseline'><strong>Michael</strong><p>Received: <strong>12</strong></font> &nbsp; &nbsp; &nbsp; &nbsp; &nbsp; &nbsp;<font class='negOutcome'>Shared back: <strong>0</strong></font></font><div class='respPicDiv'><img src='img/responseButtonOffersNo0_wht.png' class='respPic'></div></div>","null","1","Michael","trustrating_stim/white_mw046.bmp","Kept","0.8,0.4","13","0.8","17","4"
"html-keyboard-response","108","326592","0.0-18.0-1.4","https://ccnypsych.az1.qualtrics.com/jfe/form/SV_08OIJSgkXY2rA8e","bdp_trlrn","Mon Nov 08 2021 10:00:28 GMT-0500 (EST)","701384","Untrustworthy,Trustworthy","","2790","","","","decision","","<div class='trialDiv'><img src='trustrating_stim/white_mw084.bmp'><br><font class='baseline'><strong>Marcus</strong><p>Choose number of points to send.</font><div class='respPicDiv'><img src='img/responseButtonOffersNo0L.png' class='respPic'></div></div>","3","2","Marcus","trustrating_stim/white_mw084.bmp","Shared","0.4,0.8","10","0.4","22","5"
"html-keyboard-response","109","326845","0.0-18.0-2.4","https://ccnypsych.az1.qualtrics.com/jfe/form/SV_08OIJSgkXY2rA8e","bdp_trlrn","Mon Nov 08 2021 10:00:28 GMT-0500 (EST)","701384","Untrustworthy,Trustworthy","","null","","","","decisionFB","","<div class='trialDiv'><img src='trustrating_stim/white_mw084.bmp'><br><font class='baseline'><strong>Marcus</strong><p>Choose number of points to send.</font><div class='respPicDiv'><img src='img/responseButtonOffersNo0L3.png' class='respPic'></div></div>","null","2","Marcus","trustrating_stim/white_mw084.bmp","Shared","0.4,0.8","10","0.4","19","5"
"html-keyboard-response","110","327846","0.0-18.0-3.4","https://ccnypsych.az1.qualtrics.com/jfe/form/SV_08OIJSgkXY2rA8e","bdp_trlrn","Mon Nov 08 2021 10:00:28 GMT-0500 (EST)","701384","Untrustworthy,Trustworthy","","null","","","","feedback","","<div class='trialDiv'><img src='trustrating_stim/white_mw084.bmp'><br><font class='baseline'><strong>Marcus</strong><p>Received: <strong>12</strong></font> &nbsp; &nbsp; &nbsp; &nbsp; &nbsp; &nbsp;<font class='posOutcome'>Shared back: <strong>6</strong></font></font><div class='respPicDiv'><img src='img/responseButtonOffersNo0_wht.png' class='respPic'></div></div>","null","2","Marcus","trustrating_stim/white_mw084.bmp","Shared","0.4,0.8","10","0.4","25","5"
"html-keyboard-response","111","333307","0.0-18.0-1.5","https://ccnypsych.az1.qualtrics.com/jfe/form/SV_08OIJSgkXY2rA8e","bdp_trlrn","Mon Nov 08 2021 10:00:28 GMT-0500 (EST)","701384","Untrustworthy,Trustworthy","","5458","","","","decision","","<div class='trialDiv'><img src='trustrating_stim/white_mw089.bmp'><br><font class='baseline'><strong>Daniel</strong><p>Choose number of points to send.</font><div class='respPicDiv'><img src='img/responseButtonOffersNo0L.png' class='respPic'></div></div>","3","2","Daniel","trustrating_stim/white_mw089.bmp","Shared","0.6,0.2","11","0.6","30","6"
"html-keyboard-response","112","333559","0.0-18.0-2.5","https://ccnypsych.az1.qualtrics.com/jfe/form/SV_08OIJSgkXY2rA8e","bdp_trlrn","Mon Nov 08 2021 10:00:28 GMT-0500 (EST)","701384","Untrustworthy,Trustworthy","","null","","","","decisionFB","","<div class='trialDiv'><img src='trustrating_stim/white_mw089.bmp'><br><font class='baseline'><strong>Daniel</strong><p>Choose number of points to send.</font><div class='respPicDiv'><img src='img/responseButtonOffersNo0L3.png' class='respPic'></div></div>","null","2","Daniel","trustrating_stim/white_mw089.bmp","Shared","0.6,0.2","11","0.6","27","6"
"html-keyboard-response","113","334562","0.0-18.0-3.5","https://ccnypsych.az1.qualtrics.com/jfe/form/SV_08OIJSgkXY2rA8e","bdp_trlrn","Mon Nov 08 2021 10:00:28 GMT-0500 (EST)","701384","Untrustworthy,Trustworthy","","null","","","","feedback","","<div class='trialDiv'><img src='trustrating_stim/white_mw089.bmp'><br><font class='baseline'><strong>Daniel</strong><p>Received: <strong>12</strong></font> &nbsp; &nbsp; &nbsp; &nbsp; &nbsp; &nbsp;<font class='posOutcome'>Shared back: <strong>6</strong></font></font><div class='respPicDiv'><img src='img/responseButtonOffersNo0_wht.png' class='respPic'></div></div>","null","2","Daniel","trustrating_stim/white_mw089.bmp","Shared","0.6,0.2","11","0.6","33","6"
"html-keyboard-response","114","338801","0.0-18.0-1.6","https://ccnypsych.az1.qualtrics.com/jfe/form/SV_08OIJSgkXY2rA8e","bdp_trlrn","Mon Nov 08 2021 10:00:28 GMT-0500 (EST)","701384","Untrustworthy,Trustworthy","","4237","","","","decision","","<div class='trialDiv'><img src='trustrating_stim/white_mw035.bmp'><br><font class='baseline'><strong>Richard</strong><p>Choose number of points to send.</font><div class='respPicDiv'><img src='img/responseButtonOffersNo0L.png' class='respPic'></div></div>","3","2","Richard","trustrating_stim/white_mw035.bmp","Shared","0.2,0.6","13","0.2","38","7"
"html-keyboard-response","115","339053","0.0-18.0-2.6","https://ccnypsych.az1.qualtrics.com/jfe/form/SV_08OIJSgkXY2rA8e","bdp_trlrn","Mon Nov 08 2021 10:00:28 GMT-0500 (EST)","701384","Untrustworthy,Trustworthy","","null","","","","decisionFB","","<div class='trialDiv'><img src='trustrating_stim/white_mw035.bmp'><br><font class='baseline'><strong>Richard</strong><p>Choose number of points to send.</font><div class='respPicDiv'><img src='img/responseButtonOffersNo0L3.png' class='respPic'></div></div>","null","2","Richard","trustrating_stim/white_mw035.bmp","Shared","0.2,0.6","13","0.2","35","7"
"html-keyboard-response","116","340056","0.0-18.0-3.6","https://ccnypsych.az1.qualtrics.com/jfe/form/SV_08OIJSgkXY2rA8e","bdp_trlrn","Mon Nov 08 2021 10:00:28 GMT-0500 (EST)","701384","Untrustworthy,Trustworthy","","null","","","","feedback","","<div class='trialDiv'><img src='trustrating_stim/white_mw035.bmp'><br><font class='baseline'><strong>Richard</strong><p>Received: <strong>12</strong></font> &nbsp; &nbsp; &nbsp; &nbsp; &nbsp; &nbsp;<font class='posOutcome'>Shared back: <strong>6</strong></font></font><div class='respPicDiv'><img src='img/responseButtonOffersNo0_wht.png' class='respPic'></div></div>","null","2","Richard","trustrating_stim/white_mw035.bmp","Shared","0.2,0.6","13","0.2","41","7"
"html-keyboard-response","117","345399","0.0-18.0-1.7","https://ccnypsych.az1.qualtrics.com/jfe/form/SV_08OIJSgkXY2rA8e","bdp_trlrn","Mon Nov 08 2021 10:00:28 GMT-0500 (EST)","701384","Untrustworthy,Trustworthy","","5342","","","","decision","","<div class='trialDiv'><img src='trustrating_stim/white_mw046.bmp'><br><font class='baseline'><strong>Michael</strong><p>Choose number of points to send.</font><div class='respPicDiv'><img src='img/responseButtonOffersNo0L.png' class='respPic'></div></div>","2","2","Michael","trustrating_stim/white_mw046.bmp","Shared","0.8,0.4","13","0.8","46","8"
"html-keyboard-response","118","345652","0.0-18.0-2.7","https://ccnypsych.az1.qualtrics.com/jfe/form/SV_08OIJSgkXY2rA8e","bdp_trlrn","Mon Nov 08 2021 10:00:28 GMT-0500 (EST)","701384","Untrustworthy,Trustworthy","","null","","","","decisionFB","","<div class='trialDiv'><img src='trustrating_stim/white_mw046.bmp'><br><font class='baseline'><strong>Michael</strong><p>Choose number of points to send.</font><div class='respPicDiv'><img src='img/responseButtonOffersNo0L2.png' class='respPic'></div></div>","null","2","Michael","trustrating_stim/white_mw046.bmp","Shared","0.8,0.4","13","0.8","44","8"
"html-keyboard-response","119","346655","0.0-18.0-3.7","https://ccnypsych.az1.qualtrics.com/jfe/form/SV_08OIJSgkXY2rA8e","bdp_trlrn","Mon Nov 08 2021 10:00:28 GMT-0500 (EST)","701384","Untrustworthy,Trustworthy","","null","","","","feedback","","<div class='trialDiv'><img src='trustrating_stim/white_mw046.bmp'><br><font class='baseline'><strong>Michael</strong><p>Received: <strong>8</strong></font> &nbsp; &nbsp; &nbsp; &nbsp; &nbsp; &nbsp;<font class='posOutcome'>Shared back: <strong>4</strong></font></font><div class='respPicDiv'><img src='img/responseButtonOffersNo0_wht.png' class='respPic'></div></div>","null","2","Michael","trustrating_stim/white_mw046.bmp","Shared","0.8,0.4","13","0.8","48","8"
"html-keyboard-response","120","350179","0.0-18.0-1.8","https://ccnypsych.az1.qualtrics.com/jfe/form/SV_08OIJSgkXY2rA8e","bdp_trlrn","Mon Nov 08 2021 10:00:28 GMT-0500 (EST)","701384","Untrustworthy,Trustworthy","","3523","","","","decision","","<div class='trialDiv'><img src='trustrating_stim/white_mw084.bmp'><br><font class='baseline'><strong>Marcus</strong><p>Choose number of points to send.</font><div class='respPicDiv'><img src='img/responseButtonOffersNo0L.png' class='respPic'></div></div>","2","3","Marcus","trustrating_stim/white_mw084.bmp","Shared","0.4,0.8","10","0.4","53","9"
"html-keyboard-response","121","350431","0.0-18.0-2.8","https://ccnypsych.az1.qualtrics.com/jfe/form/SV_08OIJSgkXY2rA8e","bdp_trlrn","Mon Nov 08 2021 10:00:28 GMT-0500 (EST)","701384","Untrustworthy,Trustworthy","","null","","","","decisionFB","","<div class='trialDiv'><img src='trustrating_stim/white_mw084.bmp'><br><font class='baseline'><strong>Marcus</strong><p>Choose number of points to send.</font><div class='respPicDiv'><img src='img/responseButtonOffersNo0L2.png' class='respPic'></div></div>","null","3","Marcus","trustrating_stim/white_mw084.bmp","Shared","0.4,0.8","10","0.4","51","9"
"html-keyboard-response","122","351433","0.0-18.0-3.8","https://ccnypsych.az1.qualtrics.com/jfe/form/SV_08OIJSgkXY2rA8e","bdp_trlrn","Mon Nov 08 2021 10:00:28 GMT-0500 (EST)","701384","Untrustworthy,Trustworthy","","null","","","","feedback","","<div class='trialDiv'><img src='trustrating_stim/white_mw084.bmp'><br><font class='baseline'><strong>Marcus</strong><p>Received: <strong>8</strong></font> &nbsp; &nbsp; &nbsp; &nbsp; &nbsp; &nbsp;<font class='posOutcome'>Shared back: <strong>4</strong></font></font><div class='respPicDiv'><img src='img/responseButtonOffersNo0_wht.png' class='respPic'></div></div>","null","3","Marcus","trustrating_stim/white_mw084.bmp","Shared","0.4,0.8","10","0.4","55","9"
"html-keyboard-response","123","354353","0.0-18.0-1.9","https://ccnypsych.az1.qualtrics.com/jfe/form/SV_08OIJSgkXY2rA8e","bdp_trlrn","Mon Nov 08 2021 10:00:28 GMT-0500 (EST)","701384","Untrustworthy,Trustworthy","","2918","","","","decision","","<div class='trialDiv'><img src='trustrating_stim/white_mw035.bmp'><br><font class='baseline'><strong>Richard</strong><p>Choose number of points to send.</font><div class='respPicDiv'><img src='img/responseButtonOffersNo0L.png' class='respPic'></div></div>","4","3","Richard","trustrating_stim/white_mw035.bmp","Kept","0.2,0.6","13","0.2","60","10"
"html-keyboard-response","124","354605","0.0-18.0-2.9","https://ccnypsych.az1.qualtrics.com/jfe/form/SV_08OIJSgkXY2rA8e","bdp_trlrn","Mon Nov 08 2021 10:00:28 GMT-0500 (EST)","701384","Untrustworthy,Trustworthy","","null","","","","decisionFB","","<div class='trialDiv'><img src='trustrating_stim/white_mw035.bmp'><br><font class='baseline'><strong>Richard</strong><p>Choose number of points to send.</font><div class='respPicDiv'><img src='img/responseButtonOffersNo0L4.png' class='respPic'></div></div>","null","3","Richard","trustrating_stim/white_mw035.bmp","Kept","0.2,0.6","13","0.2","56","10"
"html-keyboard-response","125","355608","0.0-18.0-3.9","https://ccnypsych.az1.qualtrics.com/jfe/form/SV_08OIJSgkXY2rA8e","bdp_trlrn","Mon Nov 08 2021 10:00:28 GMT-0500 (EST)","701384","Untrustworthy,Trustworthy","","null","","","","feedback","","<div class='trialDiv'><img src='trustrating_stim/white_mw035.bmp'><br><font class='baseline'><strong>Richard</strong><p>Received: <strong>16</strong></font> &nbsp; &nbsp; &nbsp; &nbsp; &nbsp; &nbsp;<font class='negOutcome'>Shared back: <strong>0</strong></font></font><div class='respPicDiv'><img src='img/responseButtonOffersNo0_wht.png' class='respPic'></div></div>","null","3","Richard","trustrating_stim/white_mw035.bmp","Kept","0.2,0.6","13","0.2","56","10"
"html-keyboard-response","126","360188","0.0-18.0-1.10","https://ccnypsych.az1.qualtrics.com/jfe/form/SV_08OIJSgkXY2rA8e","bdp_trlrn","Mon Nov 08 2021 10:00:28 GMT-0500 (EST)","701384","Untrustworthy,Trustworthy","","4578","","","","decision","","<div class='trialDiv'><img src='trustrating_stim/white_mw089.bmp'><br><font class='baseline'><strong>Daniel</strong><p>Choose number of points to send.</font><div class='respPicDiv'><img src='img/responseButtonOffersNo0L.png' class='respPic'></div></div>","4","3","Daniel","trustrating_stim/white_mw089.bmp","Kept","0.6,0.2","11","0.6","61","11"
"html-keyboard-response","127","360439","0.0-18.0-2.10","https://ccnypsych.az1.qualtrics.com/jfe/form/SV_08OIJSgkXY2rA8e","bdp_trlrn","Mon Nov 08 2021 10:00:28 GMT-0500 (EST)","701384","Untrustworthy,Trustworthy","","null","","","","decisionFB","","<div class='trialDiv'><img src='trustrating_stim/white_mw089.bmp'><br><font class='baseline'><strong>Daniel</strong><p>Choose number of points to send.</font><div class='respPicDiv'><img src='img/responseButtonOffersNo0L4.png' class='respPic'></div></div>","null","3","Daniel","trustrating_stim/white_mw089.bmp","Kept","0.6,0.2","11","0.6","57","11"
"html-keyboard-response","128","361442","0.0-18.0-3.10","https://ccnypsych.az1.qualtrics.com/jfe/form/SV_08OIJSgkXY2rA8e","bdp_trlrn","Mon Nov 08 2021 10:00:28 GMT-0500 (EST)","701384","Untrustworthy,Trustworthy","","null","","","","feedback","","<div class='trialDiv'><img src='trustrating_stim/white_mw089.bmp'><br><font class='baseline'><strong>Daniel</strong><p>Received: <strong>16</strong></font> &nbsp; &nbsp; &nbsp; &nbsp; &nbsp; &nbsp;<font class='negOutcome'>Shared back: <strong>0</strong></font></font><div class='respPicDiv'><img src='img/responseButtonOffersNo0_wht.png' class='respPic'></div></div>","null","3","Daniel","trustrating_stim/white_mw089.bmp","Kept","0.6,0.2","11","0.6","57","11"
"html-keyboard-response","129","364338","0.0-18.0-1.11","https://ccnypsych.az1.qualtrics.com/jfe/form/SV_08OIJSgkXY2rA8e","bdp_trlrn","Mon Nov 08 2021 10:00:28 GMT-0500 (EST)","701384","Untrustworthy,Trustworthy","","2895","","","","decision","","<div class='trialDiv'><img src='trustrating_stim/white_mw046.bmp'><br><font class='baseline'><strong>Michael</strong><p>Choose number of points to send.</font><div class='respPicDiv'><img src='img/responseButtonOffersNo0L.png' class='respPic'></div></div>","4","3","Michael","trustrating_stim/white_mw046.bmp","Shared","0.8,0.4","13","0.8","62","12"
"html-keyboard-response","130","364590","0.0-18.0-2.11","https://ccnypsych.az1.qualtrics.com/jfe/form/SV_08OIJSgkXY2rA8e","bdp_trlrn","Mon Nov 08 2021 10:00:28 GMT-0500 (EST)","701384","Untrustworthy,Trustworthy","","null","","","","decisionFB","","<div class='trialDiv'><img src='trustrating_stim/white_mw046.bmp'><br><font class='baseline'><strong>Michael</strong><p>Choose number of points to send.</font><div class='respPicDiv'><img src='img/responseButtonOffersNo0L4.png' class='respPic'></div></div>","null","3","Michael","trustrating_stim/white_mw046.bmp","Shared","0.8,0.4","13","0.8","58","12"
"html-keyboard-response","131","365593","0.0-18.0-3.11","https://ccnypsych.az1.qualtrics.com/jfe/form/SV_08OIJSgkXY2rA8e","bdp_trlrn","Mon Nov 08 2021 10:00:28 GMT-0500 (EST)","701384","Untrustworthy,Trustworthy","","null","","","","feedback","","<div class='trialDiv'><img src='trustrating_stim/white_mw046.bmp'><br><font class='baseline'><strong>Michael</strong><p>Received: <strong>16</strong></font> &nbsp; &nbsp; &nbsp; &nbsp; &nbsp; &nbsp;<font class='posOutcome'>Shared back: <strong>8</strong></font></font><div class='respPicDiv'><img src='img/responseButtonOffersNo0_wht.png' class='respPic'></div></div>","null","3","Michael","trustrating_stim/white_mw046.bmp","Shared","0.8,0.4","13","0.8","66","12"
"html-keyboard-response","132","369284","0.0-18.0-1.12","https://ccnypsych.az1.qualtrics.com/jfe/form/SV_08OIJSgkXY2rA8e","bdp_trlrn","Mon Nov 08 2021 10:00:28 GMT-0500 (EST)","701384","Untrustworthy,Trustworthy","","3690","","","","decision","","<div class='trialDiv'><img src='trustrating_stim/white_mw035.bmp'><br><font class='baseline'><strong>Richard</strong><p>Choose number of points to send.</font><div class='respPicDiv'><img src='img/responseButtonOffersNo0L.png' class='respPic'></div></div>","3","4","Richard","trustrating_stim/white_mw035.bmp","Kept","0.2,0.6","13","0.2","71","13"
"html-keyboard-response","133","369537","0.0-18.0-2.12","https://ccnypsych.az1.qualtrics.com/jfe/form/SV_08OIJSgkXY2rA8e","bdp_trlrn","Mon Nov 08 2021 10:00:28 GMT-0500 (EST)","701384","Untrustworthy,Trustworthy","","null","","","","decisionFB","","<div class='trialDiv'><img src='trustrating_stim/white_mw035.bmp'><br><font class='baseline'><strong>Richard</strong><p>Choose number of points to send.</font><div class='respPicDiv'><img src='img/responseButtonOffersNo0L3.png' class='respPic'></div></div>","null","4","Richard","trustrating_stim/white_mw035.bmp","Kept","0.2,0.6","13","0.2","68","13"
"html-keyboard-response","134","370539","0.0-18.0-3.12","https://ccnypsych.az1.qualtrics.com/jfe/form/SV_08OIJSgkXY2rA8e","bdp_trlrn","Mon Nov 08 2021 10:00:28 GMT-0500 (EST)","701384","Untrustworthy,Trustworthy","","null","","","","feedback","","<div class='trialDiv'><img src='trustrating_stim/white_mw035.bmp'><br><font class='baseline'><strong>Richard</strong><p>Received: <strong>12</strong></font> &nbsp; &nbsp; &nbsp; &nbsp; &nbsp; &nbsp;<font class='negOutcome'>Shared back: <strong>0</strong></font></font><div class='respPicDiv'><img src='img/responseButtonOffersNo0_wht.png' class='respPic'></div></div>","null","4","Richard","trustrating_stim/white_mw035.bmp","Kept","0.2,0.6","13","0.2","68","13"
"html-keyboard-response","135","373460","0.0-18.0-1.13","https://ccnypsych.az1.qualtrics.com/jfe/form/SV_08OIJSgkXY2rA8e","bdp_trlrn","Mon Nov 08 2021 10:00:28 GMT-0500 (EST)","701384","Untrustworthy,Trustworthy","","2920","","","","decision","","<div class='trialDiv'><img src='trustrating_stim/white_mw084.bmp'><br><font class='baseline'><strong>Marcus</strong><p>Choose number of points to send.</font><div class='respPicDiv'><img src='img/responseButtonOffersNo0L.png' class='respPic'></div></div>","4","4","Marcus","trustrating_stim/white_mw084.bmp","Kept","0.4,0.8","10","0.4","73","14"
"html-keyboard-response","136","373713","0.0-18.0-2.13","https://ccnypsych.az1.qualtrics.com/jfe/form/SV_08OIJSgkXY2rA8e","bdp_trlrn","Mon Nov 08 2021 10:00:28 GMT-0500 (EST)","701384","Untrustworthy,Trustworthy","","null","","","","decisionFB","","<div class='trialDiv'><img src='trustrating_stim/white_mw084.bmp'><br><font class='baseline'><strong>Marcus</strong><p>Choose number of points to send.</font><div class='respPicDiv'><img src='img/responseButtonOffersNo0L4.png' class='respPic'></div></div>","null","4","Marcus","trustrating_stim/white_mw084.bmp","Kept","0.4,0.8","10","0.4","69","14"
"html-keyboard-response","137","374716","0.0-18.0-3.13","https://ccnypsych.az1.qualtrics.com/jfe/form/SV_08OIJSgkXY2rA8e","bdp_trlrn","Mon Nov 08 2021 10:00:28 GMT-0500 (EST)","701384","Untrustworthy,Trustworthy","","null","","","","feedback","","<div class='trialDiv'><img src='trustrating_stim/white_mw084.bmp'><br><font class='baseline'><strong>Marcus</strong><p>Received: <strong>16</strong></font> &nbsp; &nbsp; &nbsp; &nbsp; &nbsp; &nbsp;<font class='negOutcome'>Shared back: <strong>0</strong></font></font><div class='respPicDiv'><img src='img/responseButtonOffersNo0_wht.png' class='respPic'></div></div>","null","4","Marcus","trustrating_stim/white_mw084.bmp","Kept","0.4,0.8","10","0.4","69","14"
"html-keyboard-response","138","377999","0.0-18.0-1.14","https://ccnypsych.az1.qualtrics.com/jfe/form/SV_08OIJSgkXY2rA8e","bdp_trlrn","Mon Nov 08 2021 10:00:28 GMT-0500 (EST)","701384","Untrustworthy,Trustworthy","","3282","","","","decision","","<div class='trialDiv'><img src='trustrating_stim/white_mw089.bmp'><br><font class='baseline'><strong>Daniel</strong><p>Choose number of points to send.</font><div class='respPicDiv'><img src='img/responseButtonOffersNo0L.png' class='respPic'></div></div>","3","4","Daniel","trustrating_stim/white_mw089.bmp","Shared","0.6,0.2","11","0.6","74","15"
"html-keyboard-response","139","378251","0.0-18.0-2.14","https://ccnypsych.az1.qualtrics.com/jfe/form/SV_08OIJSgkXY2rA8e","bdp_trlrn","Mon Nov 08 2021 10:00:28 GMT-0500 (EST)","701384","Untrustworthy,Trustworthy","","null","","","","decisionFB","","<div class='trialDiv'><img src='trustrating_stim/white_mw089.bmp'><br><font class='baseline'><strong>Daniel</strong><p>Choose number of points to send.</font><div class='respPicDiv'><img src='img/responseButtonOffersNo0L3.png' class='respPic'></div></div>","null","4","Daniel","trustrating_stim/white_mw089.bmp","Shared","0.6,0.2","11","0.6","71","15"
"html-keyboard-response","140","379253","0.0-18.0-3.14","https://ccnypsych.az1.qualtrics.com/jfe/form/SV_08OIJSgkXY2rA8e","bdp_trlrn","Mon Nov 08 2021 10:00:28 GMT-0500 (EST)","701384","Untrustworthy,Trustworthy","","null","","","","feedback","","<div class='trialDiv'><img src='trustrating_stim/white_mw089.bmp'><br><font class='baseline'><strong>Daniel</strong><p>Received: <strong>12</strong></font> &nbsp; &nbsp; &nbsp; &nbsp; &nbsp; &nbsp;<font class='posOutcome'>Shared back: <strong>6</strong></font></font><div class='respPicDiv'><img src='img/responseButtonOffersNo0_wht.png' class='respPic'></div></div>","null","4","Daniel","trustrating_stim/white_mw089.bmp","Shared","0.6,0.2","11","0.6","77","15"
"html-keyboard-response","141","381661","0.0-18.0-1.15","https://ccnypsych.az1.qualtrics.com/jfe/form/SV_08OIJSgkXY2rA8e","bdp_trlrn","Mon Nov 08 2021 10:00:28 GMT-0500 (EST)","701384","Untrustworthy,Trustworthy","","2406","","","","decision","","<div class='trialDiv'><img src='trustrating_stim/white_mw046.bmp'><br><font class='baseline'><strong>Michael</strong><p>Choose number of points to send.</font><div class='respPicDiv'><img src='img/responseButtonOffersNo0L.png' class='respPic'></div></div>","4","4","Michael","trustrating_stim/white_mw046.bmp","Shared","0.8,0.4","13","0.8","82","16"
"html-keyboard-response","142","381914","0.0-18.0-2.15","https://ccnypsych.az1.qualtrics.com/jfe/form/SV_08OIJSgkXY2rA8e","bdp_trlrn","Mon Nov 08 2021 10:00:28 GMT-0500 (EST)","701384","Untrustworthy,Trustworthy","","null","","","","decisionFB","","<div class='trialDiv'><img src='trustrating_stim/white_mw046.bmp'><br><font class='baseline'><strong>Michael</strong><p>Choose number of points to send.</font><div class='respPicDiv'><img src='img/responseButtonOffersNo0L4.png' class='respPic'></div></div>","null","4","Michael","trustrating_stim/white_mw046.bmp","Shared","0.8,0.4","13","0.8","78","16"
"html-keyboard-response","143","382917","0.0-18.0-3.15","https://ccnypsych.az1.qualtrics.com/jfe/form/SV_08OIJSgkXY2rA8e","bdp_trlrn","Mon Nov 08 2021 10:00:28 GMT-0500 (EST)","701384","Untrustworthy,Trustworthy","","null","","","","feedback","","<div class='trialDiv'><img src='trustrating_stim/white_mw046.bmp'><br><font class='baseline'><strong>Michael</strong><p>Received: <strong>16</strong></font> &nbsp; &nbsp; &nbsp; &nbsp; &nbsp; &nbsp;<font class='posOutcome'>Shared back: <strong>8</strong></font></font><div class='respPicDiv'><img src='img/responseButtonOffersNo0_wht.png' class='respPic'></div></div>","null","4","Michael","trustrating_stim/white_mw046.bmp","Shared","0.8,0.4","13","0.8","86","16"
"html-keyboard-response","144","385463","0.0-18.0-1.16","https://ccnypsych.az1.qualtrics.com/jfe/form/SV_08OIJSgkXY2rA8e","bdp_trlrn","Mon Nov 08 2021 10:00:28 GMT-0500 (EST)","701384","Untrustworthy,Trustworthy","","2544","","","","decision","","<div class='trialDiv'><img src='trustrating_stim/white_mw089.bmp'><br><font class='baseline'><strong>Daniel</strong><p>Choose number of points to send.</font><div class='respPicDiv'><img src='img/responseButtonOffersNo0L.png' class='respPic'></div></div>","3","5","Daniel","trustrating_stim/white_mw089.bmp","Shared","0.6,0.2","11","0.6","91","17"
"html-keyboard-response","145","385715","0.0-18.0-2.16","https://ccnypsych.az1.qualtrics.com/jfe/form/SV_08OIJSgkXY2rA8e","bdp_trlrn","Mon Nov 08 2021 10:00:28 GMT-0500 (EST)","701384","Untrustworthy,Trustworthy","","null","","","","decisionFB","","<div class='trialDiv'><img src='trustrating_stim/white_mw089.bmp'><br><font class='baseline'><strong>Daniel</strong><p>Choose number of points to send.</font><div class='respPicDiv'><img src='img/responseButtonOffersNo0L3.png' class='respPic'></div></div>","null","5","Daniel","trustrating_stim/white_mw089.bmp","Shared","0.6,0.2","11","0.6","88","17"
"html-keyboard-response","146","386718","0.0-18.0-3.16","https://ccnypsych.az1.qualtrics.com/jfe/form/SV_08OIJSgkXY2rA8e","bdp_trlrn","Mon Nov 08 2021 10:00:28 GMT-0500 (EST)","701384","Untrustworthy,Trustworthy","","null","","","","feedback","","<div class='trialDiv'><img src='trustrating_stim/white_mw089.bmp'><br><font class='baseline'><strong>Daniel</strong><p>Received: <strong>12</strong></font> &nbsp; &nbsp; &nbsp; &nbsp; &nbsp; &nbsp;<font class='posOutcome'>Shared back: <strong>6</strong></font></font><div class='respPicDiv'><img src='img/responseButtonOffersNo0_wht.png' class='respPic'></div></div>","null","5","Daniel","trustrating_stim/white_mw089.bmp","Shared","0.6,0.2","11","0.6","94","17"
"html-keyboard-response","147","390289","0.0-18.0-1.17","https://ccnypsych.az1.qualtrics.com/jfe/form/SV_08OIJSgkXY2rA8e","bdp_trlrn","Mon Nov 08 2021 10:00:28 GMT-0500 (EST)","701384","Untrustworthy,Trustworthy","","3569","","","","decision","","<div class='trialDiv'><img src='trustrating_stim/white_mw046.bmp'><br><font class='baseline'><strong>Michael</strong><p>Choose number of points to send.</font><div class='respPicDiv'><img src='img/responseButtonOffersNo0L.png' class='respPic'></div></div>","3","5","Michael","trustrating_stim/white_mw046.bmp","Shared","0.8,0.4","13","0.8","99","18"
"html-keyboard-response","148","390542","0.0-18.0-2.17","https://ccnypsych.az1.qualtrics.com/jfe/form/SV_08OIJSgkXY2rA8e","bdp_trlrn","Mon Nov 08 2021 10:00:28 GMT-0500 (EST)","701384","Untrustworthy,Trustworthy","","null","","","","decisionFB","","<div class='trialDiv'><img src='trustrating_stim/white_mw046.bmp'><br><font class='baseline'><strong>Michael</strong><p>Choose number of points to send.</font><div class='respPicDiv'><img src='img/responseButtonOffersNo0L3.png' class='respPic'></div></div>","null","5","Michael","trustrating_stim/white_mw046.bmp","Shared","0.8,0.4","13","0.8","96","18"
"html-keyboard-response","149","391544","0.0-18.0-3.17","https://ccnypsych.az1.qualtrics.com/jfe/form/SV_08OIJSgkXY2rA8e","bdp_trlrn","Mon Nov 08 2021 10:00:28 GMT-0500 (EST)","701384","Untrustworthy,Trustworthy","","null","","","","feedback","","<div class='trialDiv'><img src='trustrating_stim/white_mw046.bmp'><br><font class='baseline'><strong>Michael</strong><p>Received: <strong>12</strong></font> &nbsp; &nbsp; &nbsp; &nbsp; &nbsp; &nbsp;<font class='posOutcome'>Shared back: <strong>6</strong></font></font><div class='respPicDiv'><img src='img/responseButtonOffersNo0_wht.png' class='respPic'></div></div>","null","5","Michael","trustrating_stim/white_mw046.bmp","Shared","0.8,0.4","13","0.8","102","18"
"html-keyboard-response","150","392764","0.0-18.0-1.18","https://ccnypsych.az1.qualtrics.com/jfe/form/SV_08OIJSgkXY2rA8e","bdp_trlrn","Mon Nov 08 2021 10:00:28 GMT-0500 (EST)","701384","Untrustworthy,Trustworthy","","1218","","","","decision","","<div class='trialDiv'><img src='trustrating_stim/white_mw084.bmp'><br><font class='baseline'><strong>Marcus</strong><p>Choose number of points to send.</font><div class='respPicDiv'><img src='img/responseButtonOffersNo0L.png' class='respPic'></div></div>","1","5","Marcus","trustrating_stim/white_mw084.bmp","Shared","0.4,0.8","10","0.4","107","19"
"html-keyboard-response","151","393016","0.0-18.0-2.18","https://ccnypsych.az1.qualtrics.com/jfe/form/SV_08OIJSgkXY2rA8e","bdp_trlrn","Mon Nov 08 2021 10:00:28 GMT-0500 (EST)","701384","Untrustworthy,Trustworthy","","null","","","","decisionFB","","<div class='trialDiv'><img src='trustrating_stim/white_mw084.bmp'><br><font class='baseline'><strong>Marcus</strong><p>Choose number of points to send.</font><div class='respPicDiv'><img src='img/responseButtonOffersNo0L1.png' class='respPic'></div></div>","null","5","Marcus","trustrating_stim/white_mw084.bmp","Shared","0.4,0.8","10","0.4","106","19"
"html-keyboard-response","152","394019","0.0-18.0-3.18","https://ccnypsych.az1.qualtrics.com/jfe/form/SV_08OIJSgkXY2rA8e","bdp_trlrn","Mon Nov 08 2021 10:00:28 GMT-0500 (EST)","701384","Untrustworthy,Trustworthy","","null","","","","feedback","","<div class='trialDiv'><img src='trustrating_stim/white_mw084.bmp'><br><font class='baseline'><strong>Marcus</strong><p>Received: <strong>4</strong></font> &nbsp; &nbsp; &nbsp; &nbsp; &nbsp; &nbsp;<font class='posOutcome'>Shared back: <strong>2</strong></font></font><div class='respPicDiv'><img src='img/responseButtonOffersNo0_wht.png' class='respPic'></div></div>","null","5","Marcus","trustrating_stim/white_mw084.bmp","Shared","0.4,0.8","10","0.4","108","19"
"html-keyboard-response","153","395910","0.0-18.0-1.19","https://ccnypsych.az1.qualtrics.com/jfe/form/SV_08OIJSgkXY2rA8e","bdp_trlrn","Mon Nov 08 2021 10:00:28 GMT-0500 (EST)","701384","Untrustworthy,Trustworthy","","1889","","","","decision","","<div class='trialDiv'><img src='trustrating_stim/white_mw035.bmp'><br><font class='baseline'><strong>Richard</strong><p>Choose number of points to send.</font><div class='respPicDiv'><img src='img/responseButtonOffersNo0L.png' class='respPic'></div></div>","1","5","Richard","trustrating_stim/white_mw035.bmp","Kept","0.2,0.6","13","0.2","113","20"
"html-keyboard-response","154","396162","0.0-18.0-2.19","https://ccnypsych.az1.qualtrics.com/jfe/form/SV_08OIJSgkXY2rA8e","bdp_trlrn","Mon Nov 08 2021 10:00:28 GMT-0500 (EST)","701384","Untrustworthy,Trustworthy","","null","","","","decisionFB","","<div class='trialDiv'><img src='trustrating_stim/white_mw035.bmp'><br><font class='baseline'><strong>Richard</strong><p>Choose number of points to send.</font><div class='respPicDiv'><img src='img/responseButtonOffersNo0L1.png' class='respPic'></div></div>","null","5","Richard","trustrating_stim/white_mw035.bmp","Kept","0.2,0.6","13","0.2","112","20"
"html-keyboard-response","155","397165","0.0-18.0-3.19","https://ccnypsych.az1.qualtrics.com/jfe/form/SV_08OIJSgkXY2rA8e","bdp_trlrn","Mon Nov 08 2021 10:00:28 GMT-0500 (EST)","701384","Untrustworthy,Trustworthy","","null","","","","feedback","","<div class='trialDiv'><img src='trustrating_stim/white_mw035.bmp'><br><font class='baseline'><strong>Richard</strong><p>Received: <strong>4</strong></font> &nbsp; &nbsp; &nbsp; &nbsp; &nbsp; &nbsp;<font class='negOutcome'>Shared back: <strong>0</strong></font></font><div class='respPicDiv'><img src='img/responseButtonOffersNo0_wht.png' class='respPic'></div></div>","null","5","Richard","trustrating_stim/white_mw035.bmp","Kept","0.2,0.6","13","0.2","112","20"
"html-keyboard-response","156","403812","0.0-18.0-1.20","https://ccnypsych.az1.qualtrics.com/jfe/form/SV_08OIJSgkXY2rA8e","bdp_trlrn","Mon Nov 08 2021 10:00:28 GMT-0500 (EST)","701384","Untrustworthy,Trustworthy","","6646","","","","decision","","<div class='trialDiv'><img src='trustrating_stim/white_mw084.bmp'><br><font class='baseline'><strong>Marcus</strong><p>Choose number of points to send.</font><div class='respPicDiv'><img src='img/responseButtonOffersNo0L.png' class='respPic'></div></div>","2","6","Marcus","trustrating_stim/white_mw084.bmp","Kept","0.4,0.8","10","0.4","117","21"
"html-keyboard-response","157","404065","0.0-18.0-2.20","https://ccnypsych.az1.qualtrics.com/jfe/form/SV_08OIJSgkXY2rA8e","bdp_trlrn","Mon Nov 08 2021 10:00:28 GMT-0500 (EST)","701384","Untrustworthy,Trustworthy","","null","","","","decisionFB","","<div class='trialDiv'><img src='trustrating_stim/white_mw084.bmp'><br><font class='baseline'><strong>Marcus</strong><p>Choose number of points to send.</font><div class='respPicDiv'><img src='img/responseButtonOffersNo0L2.png' class='respPic'></div></div>","null","6","Marcus","trustrating_stim/white_mw084.bmp","Kept","0.4,0.8","10","0.4","115","21"
"html-keyboard-response","158","405068","0.0-18.0-3.20","https://ccnypsych.az1.qualtrics.com/jfe/form/SV_08OIJSgkXY2rA8e","bdp_trlrn","Mon Nov 08 2021 10:00:28 GMT-0500 (EST)","701384","Untrustworthy,Trustworthy","","null","","","","feedback","","<div class='trialDiv'><img src='trustrating_stim/white_mw084.bmp'><br><font class='baseline'><strong>Marcus</strong><p>Received: <strong>8</strong></font> &nbsp; &nbsp; &nbsp; &nbsp; &nbsp; &nbsp;<font class='negOutcome'>Shared back: <strong>0</strong></font></font><div class='respPicDiv'><img src='img/responseButtonOffersNo0_wht.png' class='respPic'></div></div>","null","6","Marcus","trustrating_stim/white_mw084.bmp","Kept","0.4,0.8","10","0.4","115","21"
"html-keyboard-response","159","413369","0.0-18.0-1.21","https://ccnypsych.az1.qualtrics.com/jfe/form/SV_08OIJSgkXY2rA8e","bdp_trlrn","Mon Nov 08 2021 10:00:28 GMT-0500 (EST)","701384","Untrustworthy,Trustworthy","","8299","","","","decision","","<div class='trialDiv'><img src='trustrating_stim/white_mw035.bmp'><br><font class='baseline'><strong>Richard</strong><p>Choose number of points to send.</font><div class='respPicDiv'><img src='img/responseButtonOffersNo0L.png' class='respPic'></div></div>","2","6","Richard","trustrating_stim/white_mw035.bmp","Kept","0.2,0.6","13","0.2","120","22"
"html-keyboard-response","160","413621","0.0-18.0-2.21","https://ccnypsych.az1.qualtrics.com/jfe/form/SV_08OIJSgkXY2rA8e","bdp_trlrn","Mon Nov 08 2021 10:00:28 GMT-0500 (EST)","701384","Untrustworthy,Trustworthy","","null","","","","decisionFB","","<div class='trialDiv'><img src='trustrating_stim/white_mw035.bmp'><br><font class='baseline'><strong>Richard</strong><p>Choose number of points to send.</font><div class='respPicDiv'><img src='img/responseButtonOffersNo0L2.png' class='respPic'></div></div>","null","6","Richard","trustrating_stim/white_mw035.bmp","Kept","0.2,0.6","13","0.2","118","22"
"html-keyboard-response","161","414624","0.0-18.0-3.21","https://ccnypsych.az1.qualtrics.com/jfe/form/SV_08OIJSgkXY2rA8e","bdp_trlrn","Mon Nov 08 2021 10:00:28 GMT-0500 (EST)","701384","Untrustworthy,Trustworthy","","null","","","","feedback","","<div class='trialDiv'><img src='trustrating_stim/white_mw035.bmp'><br><font class='baseline'><strong>Richard</strong><p>Received: <strong>8</strong></font> &nbsp; &nbsp; &nbsp; &nbsp; &nbsp; &nbsp;<font class='negOutcome'>Shared back: <strong>0</strong></font></font><div class='respPicDiv'><img src='img/responseButtonOffersNo0_wht.png' class='respPic'></div></div>","null","6","Richard","trustrating_stim/white_mw035.bmp","Kept","0.2,0.6","13","0.2","118","22"
"html-keyboard-response","162","419813","0.0-18.0-1.22","https://ccnypsych.az1.qualtrics.com/jfe/form/SV_08OIJSgkXY2rA8e","bdp_trlrn","Mon Nov 08 2021 10:00:28 GMT-0500 (EST)","701384","Untrustworthy,Trustworthy","","5188","","","","decision","","<div class='trialDiv'><img src='trustrating_stim/white_mw089.bmp'><br><font class='baseline'><strong>Daniel</strong><p>Choose number of points to send.</font><div class='respPicDiv'><img src='img/responseButtonOffersNo0L.png' class='respPic'></div></div>","4","6","Daniel","trustrating_stim/white_mw089.bmp","Kept","0.6,0.2","11","0.6","123","23"
"html-keyboard-response","163","420065","0.0-18.0-2.22","https://ccnypsych.az1.qualtrics.com/jfe/form/SV_08OIJSgkXY2rA8e","bdp_trlrn","Mon Nov 08 2021 10:00:28 GMT-0500 (EST)","701384","Untrustworthy,Trustworthy","","null","","","","decisionFB","","<div class='trialDiv'><img src='trustrating_stim/white_mw089.bmp'><br><font class='baseline'><strong>Daniel</strong><p>Choose number of points to send.</font><div class='respPicDiv'><img src='img/responseButtonOffersNo0L4.png' class='respPic'></div></div>","null","6","Daniel","trustrating_stim/white_mw089.bmp","Kept","0.6,0.2","11","0.6","119","23"
"html-keyboard-response","164","421067","0.0-18.0-3.22","https://ccnypsych.az1.qualtrics.com/jfe/form/SV_08OIJSgkXY2rA8e","bdp_trlrn","Mon Nov 08 2021 10:00:28 GMT-0500 (EST)","701384","Untrustworthy,Trustworthy","","null","","","","feedback","","<div class='trialDiv'><img src='trustrating_stim/white_mw089.bmp'><br><font class='baseline'><strong>Daniel</strong><p>Received: <strong>16</strong></font> &nbsp; &nbsp; &nbsp; &nbsp; &nbsp; &nbsp;<font class='negOutcome'>Shared back: <strong>0</strong></font></font><div class='respPicDiv'><img src='img/responseButtonOffersNo0_wht.png' class='respPic'></div></div>","null","6","Daniel","trustrating_stim/white_mw089.bmp","Kept","0.6,0.2","11","0.6","119","23"
"html-keyboard-response","165","422125","0.0-18.0-1.23","https://ccnypsych.az1.qualtrics.com/jfe/form/SV_08OIJSgkXY2rA8e","bdp_trlrn","Mon Nov 08 2021 10:00:28 GMT-0500 (EST)","701384","Untrustworthy,Trustworthy","","1056","","","","decision","","<div class='trialDiv'><img src='trustrating_stim/white_mw046.bmp'><br><font class='baseline'><strong>Michael</strong><p>Choose number of points to send.</font><div class='respPicDiv'><img src='img/responseButtonOffersNo0L.png' class='respPic'></div></div>","4","6","Michael","trustrating_stim/white_mw046.bmp","Shared","0.8,0.4","13","0.8","124","24"
"html-keyboard-response","166","422378","0.0-18.0-2.23","https://ccnypsych.az1.qualtrics.com/jfe/form/SV_08OIJSgkXY2rA8e","bdp_trlrn","Mon Nov 08 2021 10:00:28 GMT-0500 (EST)","701384","Untrustworthy,Trustworthy","","null","","","","decisionFB","","<div class='trialDiv'><img src='trustrating_stim/white_mw046.bmp'><br><font class='baseline'><strong>Michael</strong><p>Choose number of points to send.</font><div class='respPicDiv'><img src='img/responseButtonOffersNo0L4.png' class='respPic'></div></div>","null","6","Michael","trustrating_stim/white_mw046.bmp","Shared","0.8,0.4","13","0.8","120","24"
"html-keyboard-response","167","423381","0.0-18.0-3.23","https://ccnypsych.az1.qualtrics.com/jfe/form/SV_08OIJSgkXY2rA8e","bdp_trlrn","Mon Nov 08 2021 10:00:28 GMT-0500 (EST)","701384","Untrustworthy,Trustworthy","","null","","","","feedback","","<div class='trialDiv'><img src='trustrating_stim/white_mw046.bmp'><br><font class='baseline'><strong>Michael</strong><p>Received: <strong>16</strong></font> &nbsp; &nbsp; &nbsp; &nbsp; &nbsp; &nbsp;<font class='posOutcome'>Shared back: <strong>8</strong></font></font><div class='respPicDiv'><img src='img/responseButtonOffersNo0_wht.png' class='respPic'></div></div>","null","6","Michael","trustrating_stim/white_mw046.bmp","Shared","0.8,0.4","13","0.8","128","24"
"html-keyboard-response","168","424698","0.0-18.0-1.24","https://ccnypsych.az1.qualtrics.com/jfe/form/SV_08OIJSgkXY2rA8e","bdp_trlrn","Mon Nov 08 2021 10:00:28 GMT-0500 (EST)","701384","Untrustworthy,Trustworthy","","1316","","","","decision","","<div class='trialDiv'><img src='trustrating_stim/white_mw089.bmp'><br><font class='baseline'><strong>Daniel</strong><p>Choose number of points to send.</font><div class='respPicDiv'><img src='img/responseButtonOffersNo0L.png' class='respPic'></div></div>","3","7","Daniel","trustrating_stim/white_mw089.bmp","Shared","0.6,0.2","11","0.6","133","25"
"html-keyboard-response","169","424951","0.0-18.0-2.24","https://ccnypsych.az1.qualtrics.com/jfe/form/SV_08OIJSgkXY2rA8e","bdp_trlrn","Mon Nov 08 2021 10:00:28 GMT-0500 (EST)","701384","Untrustworthy,Trustworthy","","null","","","","decisionFB","","<div class='trialDiv'><img src='trustrating_stim/white_mw089.bmp'><br><font class='baseline'><strong>Daniel</strong><p>Choose number of points to send.</font><div class='respPicDiv'><img src='img/responseButtonOffersNo0L3.png' class='respPic'></div></div>","null","7","Daniel","trustrating_stim/white_mw089.bmp","Shared","0.6,0.2","11","0.6","130","25"
"html-keyboard-response","170","425954","0.0-18.0-3.24","https://ccnypsych.az1.qualtrics.com/jfe/form/SV_08OIJSgkXY2rA8e","bdp_trlrn","Mon Nov 08 2021 10:00:28 GMT-0500 (EST)","701384","Untrustworthy,Trustworthy","","null","","","","feedback","","<div class='trialDiv'><img src='trustrating_stim/white_mw089.bmp'><br><font class='baseline'><strong>Daniel</strong><p>Received: <strong>12</strong></font> &nbsp; &nbsp; &nbsp; &nbsp; &nbsp; &nbsp;<font class='posOutcome'>Shared back: <strong>6</strong></font></font><div class='respPicDiv'><img src='img/responseButtonOffersNo0_wht.png' class='respPic'></div></div>","null","7","Daniel","trustrating_stim/white_mw089.bmp","Shared","0.6,0.2","11","0.6","136","25"
"html-keyboard-response","171","427304","0.0-18.0-1.25","https://ccnypsych.az1.qualtrics.com/jfe/form/SV_08OIJSgkXY2rA8e","bdp_trlrn","Mon Nov 08 2021 10:00:28 GMT-0500 (EST)","701384","Untrustworthy,Trustworthy","","1348","","","","decision","","<div class='trialDiv'><img src='trustrating_stim/white_mw035.bmp'><br><font class='baseline'><strong>Richard</strong><p>Choose number of points to send.</font><div class='respPicDiv'><img src='img/responseButtonOffersNo0L.png' class='respPic'></div></div>","2","7","Richard","trustrating_stim/white_mw035.bmp","Shared","0.2,0.6","13","0.2","141","26"
"html-keyboard-response","172","427556","0.0-18.0-2.25","https://ccnypsych.az1.qualtrics.com/jfe/form/SV_08OIJSgkXY2rA8e","bdp_trlrn","Mon Nov 08 2021 10:00:28 GMT-0500 (EST)","701384","Untrustworthy,Trustworthy","","null","","","","decisionFB","","<div class='trialDiv'><img src='trustrating_stim/white_mw035.bmp'><br><font class='baseline'><strong>Richard</strong><p>Choose number of points to send.</font><div class='respPicDiv'><img src='img/responseButtonOffersNo0L2.png' class='respPic'></div></div>","null","7","Richard","trustrating_stim/white_mw035.bmp","Shared","0.2,0.6","13","0.2","139","26"
"html-keyboard-response","173","428559","0.0-18.0-3.25","https://ccnypsych.az1.qualtrics.com/jfe/form/SV_08OIJSgkXY2rA8e","bdp_trlrn","Mon Nov 08 2021 10:00:28 GMT-0500 (EST)","701384","Untrustworthy,Trustworthy","","null","","","","feedback","","<div class='trialDiv'><img src='trustrating_stim/white_mw035.bmp'><br><font class='baseline'><strong>Richard</strong><p>Received: <strong>8</strong></font> &nbsp; &nbsp; &nbsp; &nbsp; &nbsp; &nbsp;<font class='posOutcome'>Shared back: <strong>4</strong></font></font><div class='respPicDiv'><img src='img/responseButtonOffersNo0_wht.png' class='respPic'></div></div>","null","7","Richard","trustrating_stim/white_mw035.bmp","Shared","0.2,0.6","13","0.2","143","26"
"html-keyboard-response","174","430056","0.0-18.0-1.26","https://ccnypsych.az1.qualtrics.com/jfe/form/SV_08OIJSgkXY2rA8e","bdp_trlrn","Mon Nov 08 2021 10:00:28 GMT-0500 (EST)","701384","Untrustworthy,Trustworthy","","1496","","","","decision","","<div class='trialDiv'><img src='trustrating_stim/white_mw084.bmp'><br><font class='baseline'><strong>Marcus</strong><p>Choose number of points to send.</font><div class='respPicDiv'><img src='img/responseButtonOffersNo0L.png' class='respPic'></div></div>","2","7","Marcus","trustrating_stim/white_mw084.bmp","Shared","0.4,0.8","10","0.4","148","27"
"html-keyboard-response","175","430310","0.0-18.0-2.26","https://ccnypsych.az1.qualtrics.com/jfe/form/SV_08OIJSgkXY2rA8e","bdp_trlrn","Mon Nov 08 2021 10:00:28 GMT-0500 (EST)","701384","Untrustworthy,Trustworthy","","null","","","","decisionFB","","<div class='trialDiv'><img src='trustrating_stim/white_mw084.bmp'><br><font class='baseline'><strong>Marcus</strong><p>Choose number of points to send.</font><div class='respPicDiv'><img src='img/responseButtonOffersNo0L2.png' class='respPic'></div></div>","null","7","Marcus","trustrating_stim/white_mw084.bmp","Shared","0.4,0.8","10","0.4","146","27"
"html-keyboard-response","176","431312","0.0-18.0-3.26","https://ccnypsych.az1.qualtrics.com/jfe/form/SV_08OIJSgkXY2rA8e","bdp_trlrn","Mon Nov 08 2021 10:00:28 GMT-0500 (EST)","701384","Untrustworthy,Trustworthy","","null","","","","feedback","","<div class='trialDiv'><img src='trustrating_stim/white_mw084.bmp'><br><font class='baseline'><strong>Marcus</strong><p>Received: <strong>8</strong></font> &nbsp; &nbsp; &nbsp; &nbsp; &nbsp; &nbsp;<font class='posOutcome'>Shared back: <strong>4</strong></font></font><div class='respPicDiv'><img src='img/responseButtonOffersNo0_wht.png' class='respPic'></div></div>","null","7","Marcus","trustrating_stim/white_mw084.bmp","Shared","0.4,0.8","10","0.4","150","27"
"html-keyboard-response","177","433124","0.0-18.0-1.27","https://ccnypsych.az1.qualtrics.com/jfe/form/SV_08OIJSgkXY2rA8e","bdp_trlrn","Mon Nov 08 2021 10:00:28 GMT-0500 (EST)","701384","Untrustworthy,Trustworthy","","1809","","","","decision","","<div class='trialDiv'><img src='trustrating_stim/white_mw046.bmp'><br><font class='baseline'><strong>Michael</strong><p>Choose number of points to send.</font><div class='respPicDiv'><img src='img/responseButtonOffersNo0L.png' class='respPic'></div></div>","3","7","Michael","trustrating_stim/white_mw046.bmp","Shared","0.8,0.4","13","0.8","155","28"
"html-keyboard-response","178","433376","0.0-18.0-2.27","https://ccnypsych.az1.qualtrics.com/jfe/form/SV_08OIJSgkXY2rA8e","bdp_trlrn","Mon Nov 08 2021 10:00:28 GMT-0500 (EST)","701384","Untrustworthy,Trustworthy","","null","","","","decisionFB","","<div class='trialDiv'><img src='trustrating_stim/white_mw046.bmp'><br><font class='baseline'><strong>Michael</strong><p>Choose number of points to send.</font><div class='respPicDiv'><img src='img/responseButtonOffersNo0L3.png' class='respPic'></div></div>","null","7","Michael","trustrating_stim/white_mw046.bmp","Shared","0.8,0.4","13","0.8","152","28"
"html-keyboard-response","179","434379","0.0-18.0-3.27","https://ccnypsych.az1.qualtrics.com/jfe/form/SV_08OIJSgkXY2rA8e","bdp_trlrn","Mon Nov 08 2021 10:00:28 GMT-0500 (EST)","701384","Untrustworthy,Trustworthy","","null","","","","feedback","","<div class='trialDiv'><img src='trustrating_stim/white_mw046.bmp'><br><font class='baseline'><strong>Michael</strong><p>Received: <strong>12</strong></font> &nbsp; &nbsp; &nbsp; &nbsp; &nbsp; &nbsp;<font class='posOutcome'>Shared back: <strong>6</strong></font></font><div class='respPicDiv'><img src='img/responseButtonOffersNo0_wht.png' class='respPic'></div></div>","null","7","Michael","trustrating_stim/white_mw046.bmp","Shared","0.8,0.4","13","0.8","158","28"
"html-keyboard-response","180","435933","0.0-18.0-1.28","https://ccnypsych.az1.qualtrics.com/jfe/form/SV_08OIJSgkXY2rA8e","bdp_trlrn","Mon Nov 08 2021 10:00:28 GMT-0500 (EST)","701384","Untrustworthy,Trustworthy","","1552","","","","decision","","<div class='trialDiv'><img src='trustrating_stim/white_mw035.bmp'><br><font class='baseline'><strong>Richard</strong><p>Choose number of points to send.</font><div class='respPicDiv'><img src='img/responseButtonOffersNo0L.png' class='respPic'></div></div>","2","8","Richard","trustrating_stim/white_mw035.bmp","Kept","0.2,0.6","13","0.2","163","29"
"html-keyboard-response","181","436185","0.0-18.0-2.28","https://ccnypsych.az1.qualtrics.com/jfe/form/SV_08OIJSgkXY2rA8e","bdp_trlrn","Mon Nov 08 2021 10:00:28 GMT-0500 (EST)","701384","Untrustworthy,Trustworthy","","null","","","","decisionFB","","<div class='trialDiv'><img src='trustrating_stim/white_mw035.bmp'><br><font class='baseline'><strong>Richard</strong><p>Choose number of points to send.</font><div class='respPicDiv'><img src='img/responseButtonOffersNo0L2.png' class='respPic'></div></div>","null","8","Richard","trustrating_stim/white_mw035.bmp","Kept","0.2,0.6","13","0.2","161","29"
"html-keyboard-response","182","437188","0.0-18.0-3.28","https://ccnypsych.az1.qualtrics.com/jfe/form/SV_08OIJSgkXY2rA8e","bdp_trlrn","Mon Nov 08 2021 10:00:28 GMT-0500 (EST)","701384","Untrustworthy,Trustworthy","","null","","","","feedback","","<div class='trialDiv'><img src='trustrating_stim/white_mw035.bmp'><br><font class='baseline'><strong>Richard</strong><p>Received: <strong>8</strong></font> &nbsp; &nbsp; &nbsp; &nbsp; &nbsp; &nbsp;<font class='negOutcome'>Shared back: <strong>0</strong></font></font><div class='respPicDiv'><img src='img/responseButtonOffersNo0_wht.png' class='respPic'></div></div>","null","8","Richard","trustrating_stim/white_mw035.bmp","Kept","0.2,0.6","13","0.2","161","29"
"html-keyboard-response","183","438470","0.0-18.0-1.29","https://ccnypsych.az1.qualtrics.com/jfe/form/SV_08OIJSgkXY2rA8e","bdp_trlrn","Mon Nov 08 2021 10:00:28 GMT-0500 (EST)","701384","Untrustworthy,Trustworthy","","1281","","","","decision","","<div class='trialDiv'><img src='trustrating_stim/white_mw089.bmp'><br><font class='baseline'><strong>Daniel</strong><p>Choose number of points to send.</font><div class='respPicDiv'><img src='img/responseButtonOffersNo0L.png' class='respPic'></div></div>","4","8","Daniel","trustrating_stim/white_mw089.bmp","Shared","0.6,0.2","11","0.6","166","30"
"html-keyboard-response","184","438723","0.0-18.0-2.29","https://ccnypsych.az1.qualtrics.com/jfe/form/SV_08OIJSgkXY2rA8e","bdp_trlrn","Mon Nov 08 2021 10:00:28 GMT-0500 (EST)","701384","Untrustworthy,Trustworthy","","null","","","","decisionFB","","<div class='trialDiv'><img src='trustrating_stim/white_mw089.bmp'><br><font class='baseline'><strong>Daniel</strong><p>Choose number of points to send.</font><div class='respPicDiv'><img src='img/responseButtonOffersNo0L4.png' class='respPic'></div></div>","null","8","Daniel","trustrating_stim/white_mw089.bmp","Shared","0.6,0.2","11","0.6","162","30"
"html-keyboard-response","185","439726","0.0-18.0-3.29","https://ccnypsych.az1.qualtrics.com/jfe/form/SV_08OIJSgkXY2rA8e","bdp_trlrn","Mon Nov 08 2021 10:00:28 GMT-0500 (EST)","701384","Untrustworthy,Trustworthy","","null","","","","feedback","","<div class='trialDiv'><img src='trustrating_stim/white_mw089.bmp'><br><font class='baseline'><strong>Daniel</strong><p>Received: <strong>16</strong></font> &nbsp; &nbsp; &nbsp; &nbsp; &nbsp; &nbsp;<font class='posOutcome'>Shared back: <strong>8</strong></font></font><div class='respPicDiv'><img src='img/responseButtonOffersNo0_wht.png' class='respPic'></div></div>","null","8","Daniel","trustrating_stim/white_mw089.bmp","Shared","0.6,0.2","11","0.6","170","30"
"html-keyboard-response","186","441748","0.0-18.0-1.30","https://ccnypsych.az1.qualtrics.com/jfe/form/SV_08OIJSgkXY2rA8e","bdp_trlrn","Mon Nov 08 2021 10:00:28 GMT-0500 (EST)","701384","Untrustworthy,Trustworthy","","2021","","","","decision","","<div class='trialDiv'><img src='trustrating_stim/white_mw046.bmp'><br><font class='baseline'><strong>Michael</strong><p>Choose number of points to send.</font><div class='respPicDiv'><img src='img/responseButtonOffersNo0L.png' class='respPic'></div></div>","3","8","Michael","trustrating_stim/white_mw046.bmp","Shared","0.8,0.4","13","0.8","175","31"
"html-keyboard-response","187","442001","0.0-18.0-2.30","https://ccnypsych.az1.qualtrics.com/jfe/form/SV_08OIJSgkXY2rA8e","bdp_trlrn","Mon Nov 08 2021 10:00:28 GMT-0500 (EST)","701384","Untrustworthy,Trustworthy","","null","","","","decisionFB","","<div class='trialDiv'><img src='trustrating_stim/white_mw046.bmp'><br><font class='baseline'><strong>Michael</strong><p>Choose number of points to send.</font><div class='respPicDiv'><img src='img/responseButtonOffersNo0L3.png' class='respPic'></div></div>","null","8","Michael","trustrating_stim/white_mw046.bmp","Shared","0.8,0.4","13","0.8","172","31"
"html-keyboard-response","188","443004","0.0-18.0-3.30","https://ccnypsych.az1.qualtrics.com/jfe/form/SV_08OIJSgkXY2rA8e","bdp_trlrn","Mon Nov 08 2021 10:00:28 GMT-0500 (EST)","701384","Untrustworthy,Trustworthy","","null","","","","feedback","","<div class='trialDiv'><img src='trustrating_stim/white_mw046.bmp'><br><font class='baseline'><strong>Michael</strong><p>Received: <strong>12</strong></font> &nbsp; &nbsp; &nbsp; &nbsp; &nbsp; &nbsp;<font class='posOutcome'>Shared back: <strong>6</strong></font></font><div class='respPicDiv'><img src='img/responseButtonOffersNo0_wht.png' class='respPic'></div></div>","null","8","Michael","trustrating_stim/white_mw046.bmp","Shared","0.8,0.4","13","0.8","178","31"
"html-keyboard-response","189","444290","0.0-18.0-1.31","https://ccnypsych.az1.qualtrics.com/jfe/form/SV_08OIJSgkXY2rA8e","bdp_trlrn","Mon Nov 08 2021 10:00:28 GMT-0500 (EST)","701384","Untrustworthy,Trustworthy","","1285","","","","decision","","<div class='trialDiv'><img src='trustrating_stim/white_mw084.bmp'><br><font class='baseline'><strong>Marcus</strong><p>Choose number of points to send.</font><div class='respPicDiv'><img src='img/responseButtonOffersNo0L.png' class='respPic'></div></div>","3","8","Marcus","trustrating_stim/white_mw084.bmp","Shared","0.4,0.8","10","0.4","183","32"
"html-keyboard-response","190","444543","0.0-18.0-2.31","https://ccnypsych.az1.qualtrics.com/jfe/form/SV_08OIJSgkXY2rA8e","bdp_trlrn","Mon Nov 08 2021 10:00:28 GMT-0500 (EST)","701384","Untrustworthy,Trustworthy","","null","","","","decisionFB","","<div class='trialDiv'><img src='trustrating_stim/white_mw084.bmp'><br><font class='baseline'><strong>Marcus</strong><p>Choose number of points to send.</font><div class='respPicDiv'><img src='img/responseButtonOffersNo0L3.png' class='respPic'></div></div>","null","8","Marcus","trustrating_stim/white_mw084.bmp","Shared","0.4,0.8","10","0.4","180","32"
"html-keyboard-response","191","445546","0.0-18.0-3.31","https://ccnypsych.az1.qualtrics.com/jfe/form/SV_08OIJSgkXY2rA8e","bdp_trlrn","Mon Nov 08 2021 10:00:28 GMT-0500 (EST)","701384","Untrustworthy,Trustworthy","","null","","","","feedback","","<div class='trialDiv'><img src='trustrating_stim/white_mw084.bmp'><br><font class='baseline'><strong>Marcus</strong><p>Received: <strong>12</strong></font> &nbsp; &nbsp; &nbsp; &nbsp; &nbsp; &nbsp;<font class='posOutcome'>Shared back: <strong>6</strong></font></font><div class='respPicDiv'><img src='img/responseButtonOffersNo0_wht.png' class='respPic'></div></div>","null","8","Marcus","trustrating_stim/white_mw084.bmp","Shared","0.4,0.8","10","0.4","186","32"
"html-keyboard-response","192","447323","0.0-18.0-1.32","https://ccnypsych.az1.qualtrics.com/jfe/form/SV_08OIJSgkXY2rA8e","bdp_trlrn","Mon Nov 08 2021 10:00:28 GMT-0500 (EST)","701384","Untrustworthy,Trustworthy","","1776","","","","decision","","<div class='trialDiv'><img src='trustrating_stim/white_mw046.bmp'><br><font class='baseline'><strong>Michael</strong><p>Choose number of points to send.</font><div class='respPicDiv'><img src='img/responseButtonOffersNo0L.png' class='respPic'></div></div>","3","9","Michael","trustrating_stim/white_mw046.bmp","Shared","0.8,0.4","13","0.8","191","33"
"html-keyboard-response","193","447576","0.0-18.0-2.32","https://ccnypsych.az1.qualtrics.com/jfe/form/SV_08OIJSgkXY2rA8e","bdp_trlrn","Mon Nov 08 2021 10:00:28 GMT-0500 (EST)","701384","Untrustworthy,Trustworthy","","null","","","","decisionFB","","<div class='trialDiv'><img src='trustrating_stim/white_mw046.bmp'><br><font class='baseline'><strong>Michael</strong><p>Choose number of points to send.</font><div class='respPicDiv'><img src='img/responseButtonOffersNo0L3.png' class='respPic'></div></div>","null","9","Michael","trustrating_stim/white_mw046.bmp","Shared","0.8,0.4","13","0.8","188","33"
"html-keyboard-response","194","448579","0.0-18.0-3.32","https://ccnypsych.az1.qualtrics.com/jfe/form/SV_08OIJSgkXY2rA8e","bdp_trlrn","Mon Nov 08 2021 10:00:28 GMT-0500 (EST)","701384","Untrustworthy,Trustworthy","","null","","","","feedback","","<div class='trialDiv'><img src='trustrating_stim/white_mw046.bmp'><br><font class='baseline'><strong>Michael</strong><p>Received: <strong>12</strong></font> &nbsp; &nbsp; &nbsp; &nbsp; &nbsp; &nbsp;<font class='posOutcome'>Shared back: <strong>6</strong></font></font><div class='respPicDiv'><img src='img/responseButtonOffersNo0_wht.png' class='respPic'></div></div>","null","9","Michael","trustrating_stim/white_mw046.bmp","Shared","0.8,0.4","13","0.8","194","33"
"html-keyboard-response","195","450964","0.0-18.0-1.33","https://ccnypsych.az1.qualtrics.com/jfe/form/SV_08OIJSgkXY2rA8e","bdp_trlrn","Mon Nov 08 2021 10:00:28 GMT-0500 (EST)","701384","Untrustworthy,Trustworthy","","2384","","","","decision","","<div class='trialDiv'><img src='trustrating_stim/white_mw084.bmp'><br><font class='baseline'><strong>Marcus</strong><p>Choose number of points to send.</font><div class='respPicDiv'><img src='img/responseButtonOffersNo0L.png' class='respPic'></div></div>","2","9","Marcus","trustrating_stim/white_mw084.bmp","Kept","0.4,0.8","10","0.4","199","34"
"html-keyboard-response","196","451217","0.0-18.0-2.33","https://ccnypsych.az1.qualtrics.com/jfe/form/SV_08OIJSgkXY2rA8e","bdp_trlrn","Mon Nov 08 2021 10:00:28 GMT-0500 (EST)","701384","Untrustworthy,Trustworthy","","null","","","","decisionFB","","<div class='trialDiv'><img src='trustrating_stim/white_mw084.bmp'><br><font class='baseline'><strong>Marcus</strong><p>Choose number of points to send.</font><div class='respPicDiv'><img src='img/responseButtonOffersNo0L2.png' class='respPic'></div></div>","null","9","Marcus","trustrating_stim/white_mw084.bmp","Kept","0.4,0.8","10","0.4","197","34"
"html-keyboard-response","197","452220","0.0-18.0-3.33","https://ccnypsych.az1.qualtrics.com/jfe/form/SV_08OIJSgkXY2rA8e","bdp_trlrn","Mon Nov 08 2021 10:00:28 GMT-0500 (EST)","701384","Untrustworthy,Trustworthy","","null","","","","feedback","","<div class='trialDiv'><img src='trustrating_stim/white_mw084.bmp'><br><font class='baseline'><strong>Marcus</strong><p>Received: <strong>8</strong></font> &nbsp; &nbsp; &nbsp; &nbsp; &nbsp; &nbsp;<font class='negOutcome'>Shared back: <strong>0</strong></font></font><div class='respPicDiv'><img src='img/responseButtonOffersNo0_wht.png' class='respPic'></div></div>","null","9","Marcus","trustrating_stim/white_mw084.bmp","Kept","0.4,0.8","10","0.4","197","34"
"html-keyboard-response","198","453769","0.0-18.0-1.34","https://ccnypsych.az1.qualtrics.com/jfe/form/SV_08OIJSgkXY2rA8e","bdp_trlrn","Mon Nov 08 2021 10:00:28 GMT-0500 (EST)","701384","Untrustworthy,Trustworthy","","1548","","","","decision","","<div class='trialDiv'><img src='trustrating_stim/white_mw089.bmp'><br><font class='baseline'><strong>Daniel</strong><p>Choose number of points to send.</font><div class='respPicDiv'><img src='img/responseButtonOffersNo0L.png' class='respPic'></div></div>","3","9","Daniel","trustrating_stim/white_mw089.bmp","Kept","0.6,0.2","11","0.6","202","35"
