"trial_type","trial_index","time_elapsed","internal_node_id","subject_id","task","startTime","totalTime","labels","event","trial","time","trialtype","view_history","rt","success","stimulus","key_press","aground","name","faceID","outcome","agenttype","agentswpt","agentcurrpshare","face","avgRating","point_total","round"
"pavlovia","0","4","0.0-0.0","60fcdd3be2ae9576df065728","bdp_trlrn","Wed Mar 15 2023 12:19:24 GMT-0700 (Mountain Standard Time)","837255","Trustworthy,Untrustworthy","","","","","","","","","","","","","","","","","","","",""
"","","","","60fcdd3be2ae9576df065728","bdp_trlrn","Wed Mar 15 2023 12:19:24 GMT-0700 (Mountain Standard Time)","837255","Trustworthy,Untrustworthy","focus","1","7775","focusevent","","","","","","","","","","","","","","","",""
"instructions","1","15089","0.0-1.0","60fcdd3be2ae9576df065728","bdp_trlrn","Wed Mar 15 2023 12:19:24 GMT-0700 (Mountain Standard Time)","837255","Trustworthy,Untrustworthy","","","","","[{""page_index"":0,""viewing_time"":15084}]","15084","","","","","","","","","","","","","",""
"","","","","60fcdd3be2ae9576df065728","bdp_trlrn","Wed Mar 15 2023 12:19:24 GMT-0700 (Mountain Standard Time)","837255","Trustworthy,Untrustworthy","fullscreenenter","2","17507","fullscreenenter","","","","","","","","","","","","","","","",""
"fullscreen","2","18502","0.0-2.0","60fcdd3be2ae9576df065728","bdp_trlrn","Wed Mar 15 2023 12:19:24 GMT-0700 (Mountain Standard Time)","837255","Trustworthy,Untrustworthy","","","","","","","true","","","","","","","","","","","","",""
"instructions","3","57050","0.0-4.0","60fcdd3be2ae9576df065728","bdp_trlrn","Wed Mar 15 2023 12:19:24 GMT-0700 (Mountain Standard Time)","837255","Trustworthy,Untrustworthy","","","","","[{""page_index"":0,""viewing_time"":13673},{""page_index"":1,""viewing_time"":24874}]","38547","","","","","","","","","","","","","",""
"instructions","4","60784","0.0-5.0","60fcdd3be2ae9576df065728","bdp_trlrn","Wed Mar 15 2023 12:19:24 GMT-0700 (Mountain Standard Time)","837255","Trustworthy,Untrustworthy","","","","","[{""page_index"":0,""viewing_time"":3733}]","3733","","","","","","","","","","","","","",""
"image-keyboard-response","5","63414","0.0-6.0-1.0","60fcdd3be2ae9576df065728","bdp_trlrn","Wed Mar 15 2023 12:19:24 GMT-0700 (Mountain Standard Time)","837255","Trustworthy,Untrustworthy","","","","rating","","2517","","trustrating_stim/white_00120_931230_fa_edt.bmp","5","","","","","","","","","","",""
"image-keyboard-response","6","63622","0.0-6.0-2.0","60fcdd3be2ae9576df065728","bdp_trlrn","Wed Mar 15 2023 12:19:24 GMT-0700 (Mountain Standard Time)","837255","Trustworthy,Untrustworthy","","","","ratingFB","","null","","trustrating_stim/white_00120_931230_fa_edt.bmp","null","","","","","","","","","","",""
"image-keyboard-response","7","65961","0.0-6.0-1.1","60fcdd3be2ae9576df065728","bdp_trlrn","Wed Mar 15 2023 12:19:24 GMT-0700 (Mountain Standard Time)","837255","Trustworthy,Untrustworthy","","","","rating","","2235","","trustrating_stim/white_00785_941205_fb_edt.bmp","3","","","","","","","","","","",""
"image-keyboard-response","8","66166","0.0-6.0-2.1","60fcdd3be2ae9576df065728","bdp_trlrn","Wed Mar 15 2023 12:19:24 GMT-0700 (Mountain Standard Time)","837255","Trustworthy,Untrustworthy","","","","ratingFB","","null","","trustrating_stim/white_00785_941205_fb_edt.bmp","null","","","","","","","","","","",""
"image-keyboard-response","9","68408","0.0-6.0-1.2","60fcdd3be2ae9576df065728","bdp_trlrn","Wed Mar 15 2023 12:19:24 GMT-0700 (Mountain Standard Time)","837255","Trustworthy,Untrustworthy","","","","rating","","2136","","trustrating_stim/white_mw099.bmp","4","","","","","","","","","","",""
"image-keyboard-response","10","68614","0.0-6.0-2.2","60fcdd3be2ae9576df065728","bdp_trlrn","Wed Mar 15 2023 12:19:24 GMT-0700 (Mountain Standard Time)","837255","Trustworthy,Untrustworthy","","","","ratingFB","","null","","trustrating_stim/white_mw099.bmp","null","","","","","","","","","","",""
"image-keyboard-response","11","70307","0.0-6.0-1.3","60fcdd3be2ae9576df065728","bdp_trlrn","Wed Mar 15 2023 12:19:24 GMT-0700 (Mountain Standard Time)","837255","Trustworthy,Untrustworthy","","","","rating","","1590","","trustrating_stim/white_mw056.bmp","4","","","","","","","","","","",""
"image-keyboard-response","12","70521","0.0-6.0-2.3","60fcdd3be2ae9576df065728","bdp_trlrn","Wed Mar 15 2023 12:19:24 GMT-0700 (Mountain Standard Time)","837255","Trustworthy,Untrustworthy","","","","ratingFB","","null","","trustrating_stim/white_mw056.bmp","null","","","","","","","","","","",""
"image-keyboard-response","13","72063","0.0-6.0-1.4","60fcdd3be2ae9576df065728","bdp_trlrn","Wed Mar 15 2023 12:19:24 GMT-0700 (Mountain Standard Time)","837255","Trustworthy,Untrustworthy","","","","rating","","1433","","trustrating_stim/white_mw046.bmp","4","","","","","","","","","","",""
"image-keyboard-response","14","72270","0.0-6.0-2.4","60fcdd3be2ae9576df065728","bdp_trlrn","Wed Mar 15 2023 12:19:24 GMT-0700 (Mountain Standard Time)","837255","Trustworthy,Untrustworthy","","","","ratingFB","","null","","trustrating_stim/white_mw046.bmp","null","","","","","","","","","","",""
"image-keyboard-response","15","73910","0.0-6.0-1.5","60fcdd3be2ae9576df065728","bdp_trlrn","Wed Mar 15 2023 12:19:24 GMT-0700 (Mountain Standard Time)","837255","Trustworthy,Untrustworthy","","","","rating","","1536","","trustrating_stim/white_00659_941121_fa_edt.bmp","2","","","","","","","","","","",""
"image-keyboard-response","16","74117","0.0-6.0-2.5","60fcdd3be2ae9576df065728","bdp_trlrn","Wed Mar 15 2023 12:19:24 GMT-0700 (Mountain Standard Time)","837255","Trustworthy,Untrustworthy","","","","ratingFB","","null","","trustrating_stim/white_00659_941121_fa_edt.bmp","null","","","","","","","","","","",""
"image-keyboard-response","17","75920","0.0-6.0-1.6","60fcdd3be2ae9576df065728","bdp_trlrn","Wed Mar 15 2023 12:19:24 GMT-0700 (Mountain Standard Time)","837255","Trustworthy,Untrustworthy","","","","rating","","1698","","trustrating_stim/white_00223_940128_fb_edt.bmp","2","","","","","","","","","","",""
"image-keyboard-response","18","76126","0.0-6.0-2.6","60fcdd3be2ae9576df065728","bdp_trlrn","Wed Mar 15 2023 12:19:24 GMT-0700 (Mountain Standard Time)","837255","Trustworthy,Untrustworthy","","","","ratingFB","","null","","trustrating_stim/white_00223_940128_fb_edt.bmp","null","","","","","","","","","","",""
"image-keyboard-response","19","77995","0.0-6.0-1.7","60fcdd3be2ae9576df065728","bdp_trlrn","Wed Mar 15 2023 12:19:24 GMT-0700 (Mountain Standard Time)","837255","Trustworthy,Untrustworthy","","","","rating","","1764","","trustrating_stim/white_00577_940928_fa_edt.bmp","2","","","","","","","","","","",""
"image-keyboard-response","20","78205","0.0-6.0-2.7","60fcdd3be2ae9576df065728","bdp_trlrn","Wed Mar 15 2023 12:19:24 GMT-0700 (Mountain Standard Time)","837255","Trustworthy,Untrustworthy","","","","ratingFB","","null","","trustrating_stim/white_00577_940928_fa_edt.bmp","null","","","","","","","","","","",""
"image-keyboard-response","21","79785","0.0-6.0-1.8","60fcdd3be2ae9576df065728","bdp_trlrn","Wed Mar 15 2023 12:19:24 GMT-0700 (Mountain Standard Time)","837255","Trustworthy,Untrustworthy","","","","rating","","1475","","trustrating_stim/white_00807_941205_fb_edt.bmp","2","","","","","","","","","","",""
"image-keyboard-response","22","79989","0.0-6.0-2.8","60fcdd3be2ae9576df065728","bdp_trlrn","Wed Mar 15 2023 12:19:24 GMT-0700 (Mountain Standard Time)","837255","Trustworthy,Untrustworthy","","","","ratingFB","","null","","trustrating_stim/white_00807_941205_fb_edt.bmp","null","","","","","","","","","","",""
"image-keyboard-response","23","81683","0.0-6.0-1.9","60fcdd3be2ae9576df065728","bdp_trlrn","Wed Mar 15 2023 12:19:24 GMT-0700 (Mountain Standard Time)","837255","Trustworthy,Untrustworthy","","","","rating","","1587","","trustrating_stim/white_00761_941201_fb_edt.bmp","3","","","","","","","","","","",""
"image-keyboard-response","24","81893","0.0-6.0-2.9","60fcdd3be2ae9576df065728","bdp_trlrn","Wed Mar 15 2023 12:19:24 GMT-0700 (Mountain Standard Time)","837255","Trustworthy,Untrustworthy","","","","ratingFB","","null","","trustrating_stim/white_00761_941201_fb_edt.bmp","null","","","","","","","","","","",""
"image-keyboard-response","25","83831","0.0-6.0-1.10","60fcdd3be2ae9576df065728","bdp_trlrn","Wed Mar 15 2023 12:19:24 GMT-0700 (Mountain Standard Time)","837255","Trustworthy,Untrustworthy","","","","rating","","1831","","trustrating_stim/white_mw053.bmp","4","","","","","","","","","","",""
"image-keyboard-response","26","84038","0.0-6.0-2.10","60fcdd3be2ae9576df065728","bdp_trlrn","Wed Mar 15 2023 12:19:24 GMT-0700 (Mountain Standard Time)","837255","Trustworthy,Untrustworthy","","","","ratingFB","","null","","trustrating_stim/white_mw053.bmp","null","","","","","","","","","","",""
"image-keyboard-response","27","85547","0.0-6.0-1.11","60fcdd3be2ae9576df065728","bdp_trlrn","Wed Mar 15 2023 12:19:24 GMT-0700 (Mountain Standard Time)","837255","Trustworthy,Untrustworthy","","","","rating","","1405","","trustrating_stim/white_00299_940422_fa_edt.bmp","3","","","","","","","","","","",""
"image-keyboard-response","28","85761","0.0-6.0-2.11","60fcdd3be2ae9576df065728","bdp_trlrn","Wed Mar 15 2023 12:19:24 GMT-0700 (Mountain Standard Time)","837255","Trustworthy,Untrustworthy","","","","ratingFB","","null","","trustrating_stim/white_00299_940422_fa_edt.bmp","null","","","","","","","","","","",""
"image-keyboard-response","29","88053","0.0-6.0-1.12","60fcdd3be2ae9576df065728","bdp_trlrn","Wed Mar 15 2023 12:19:24 GMT-0700 (Mountain Standard Time)","837255","Trustworthy,Untrustworthy","","","","rating","","2183","","trustrating_stim/white_00519_940519_fb_edt.bmp","5","","","","","","","","","","",""
"image-keyboard-response","30","88265","0.0-6.0-2.12","60fcdd3be2ae9576df065728","bdp_trlrn","Wed Mar 15 2023 12:19:24 GMT-0700 (Mountain Standard Time)","837255","Trustworthy,Untrustworthy","","","","ratingFB","","null","","trustrating_stim/white_00519_940519_fb_edt.bmp","null","","","","","","","","","","",""
"image-keyboard-response","31","90472","0.0-6.0-1.13","60fcdd3be2ae9576df065728","bdp_trlrn","Wed Mar 15 2023 12:19:24 GMT-0700 (Mountain Standard Time)","837255","Trustworthy,Untrustworthy","","","","rating","","2099","","trustrating_stim/white_00757_941201_fa_edt.bmp","4","","","","","","","","","","",""
"image-keyboard-response","32","90677","0.0-6.0-2.13","60fcdd3be2ae9576df065728","bdp_trlrn","Wed Mar 15 2023 12:19:24 GMT-0700 (Mountain Standard Time)","837255","Trustworthy,Untrustworthy","","","","ratingFB","","null","","trustrating_stim/white_00757_941201_fa_edt.bmp","null","","","","","","","","","","",""
"image-keyboard-response","33","92278","0.0-6.0-1.14","60fcdd3be2ae9576df065728","bdp_trlrn","Wed Mar 15 2023 12:19:24 GMT-0700 (Mountain Standard Time)","837255","Trustworthy,Untrustworthy","","","","rating","","1496","","trustrating_stim/white_mw089.bmp","4","","","","","","","","","","",""
"image-keyboard-response","34","92487","0.0-6.0-2.14","60fcdd3be2ae9576df065728","bdp_trlrn","Wed Mar 15 2023 12:19:24 GMT-0700 (Mountain Standard Time)","837255","Trustworthy,Untrustworthy","","","","ratingFB","","null","","trustrating_stim/white_mw089.bmp","null","","","","","","","","","","",""
"image-keyboard-response","35","94212","0.0-6.0-1.15","60fcdd3be2ae9576df065728","bdp_trlrn","Wed Mar 15 2023 12:19:24 GMT-0700 (Mountain Standard Time)","837255","Trustworthy,Untrustworthy","","","","rating","","1622","","trustrating_stim/white_mw066.bmp","6","","","","","","","","","","",""
"image-keyboard-response","36","94424","0.0-6.0-2.15","60fcdd3be2ae9576df065728","bdp_trlrn","Wed Mar 15 2023 12:19:24 GMT-0700 (Mountain Standard Time)","837255","Trustworthy,Untrustworthy","","","","ratingFB","","null","","trustrating_stim/white_mw066.bmp","null","","","","","","","","","","",""
"image-keyboard-response","37","95931","0.0-6.0-1.16","60fcdd3be2ae9576df065728","bdp_trlrn","Wed Mar 15 2023 12:19:24 GMT-0700 (Mountain Standard Time)","837255","Trustworthy,Untrustworthy","","","","rating","","1395","","trustrating_stim/white_00109_931230_fa_edt.bmp","4","","","","","","","","","","",""
"image-keyboard-response","38","96141","0.0-6.0-2.16","60fcdd3be2ae9576df065728","bdp_trlrn","Wed Mar 15 2023 12:19:24 GMT-0700 (Mountain Standard Time)","837255","Trustworthy,Untrustworthy","","","","ratingFB","","null","","trustrating_stim/white_00109_931230_fa_edt.bmp","null","","","","","","","","","","",""
"image-keyboard-response","39","97814","0.0-6.0-1.17","60fcdd3be2ae9576df065728","bdp_trlrn","Wed Mar 15 2023 12:19:24 GMT-0700 (Mountain Standard Time)","837255","Trustworthy,Untrustworthy","","","","rating","","1567","","trustrating_stim/white_mw049.bmp","5","","","","","","","","","","",""
"image-keyboard-response","40","98024","0.0-6.0-2.17","60fcdd3be2ae9576df065728","bdp_trlrn","Wed Mar 15 2023 12:19:24 GMT-0700 (Mountain Standard Time)","837255","Trustworthy,Untrustworthy","","","","ratingFB","","null","","trustrating_stim/white_mw049.bmp","null","","","","","","","","","","",""
"image-keyboard-response","41","99562","0.0-6.0-1.18","60fcdd3be2ae9576df065728","bdp_trlrn","Wed Mar 15 2023 12:19:24 GMT-0700 (Mountain Standard Time)","837255","Trustworthy,Untrustworthy","","","","rating","","1428","","trustrating_stim/white_mw063.bmp","3","","","","","","","","","","",""
"image-keyboard-response","42","99772","0.0-6.0-2.18","60fcdd3be2ae9576df065728","bdp_trlrn","Wed Mar 15 2023 12:19:24 GMT-0700 (Mountain Standard Time)","837255","Trustworthy,Untrustworthy","","","","ratingFB","","null","","trustrating_stim/white_mw063.bmp","null","","","","","","","","","","",""
"image-keyboard-response","43","101638","0.0-6.0-1.19","60fcdd3be2ae9576df065728","bdp_trlrn","Wed Mar 15 2023 12:19:24 GMT-0700 (Mountain Standard Time)","837255","Trustworthy,Untrustworthy","","","","rating","","1760","","trustrating_stim/white_00340_940422_fa_edt.bmp","3","","","","","","","","","","",""
"image-keyboard-response","44","101845","0.0-6.0-2.19","60fcdd3be2ae9576df065728","bdp_trlrn","Wed Mar 15 2023 12:19:24 GMT-0700 (Mountain Standard Time)","837255","Trustworthy,Untrustworthy","","","","ratingFB","","null","","trustrating_stim/white_00340_940422_fa_edt.bmp","null","","","","","","","","","","",""
"image-keyboard-response","45","103347","0.0-6.0-1.20","60fcdd3be2ae9576df065728","bdp_trlrn","Wed Mar 15 2023 12:19:24 GMT-0700 (Mountain Standard Time)","837255","Trustworthy,Untrustworthy","","","","rating","","1397","","trustrating_stim/white_00898_960530_fa_edt.bmp","3","","","","","","","","","","",""
"image-keyboard-response","46","103561","0.0-6.0-2.20","60fcdd3be2ae9576df065728","bdp_trlrn","Wed Mar 15 2023 12:19:24 GMT-0700 (Mountain Standard Time)","837255","Trustworthy,Untrustworthy","","","","ratingFB","","null","","trustrating_stim/white_00898_960530_fa_edt.bmp","null","","","","","","","","","","",""
"image-keyboard-response","47","105661","0.0-6.0-1.21","60fcdd3be2ae9576df065728","bdp_trlrn","Wed Mar 15 2023 12:19:24 GMT-0700 (Mountain Standard Time)","837255","Trustworthy,Untrustworthy","","","","rating","","1992","","trustrating_stim/white_mw071.bmp","4","","","","","","","","","","",""
"image-keyboard-response","48","105869","0.0-6.0-2.21","60fcdd3be2ae9576df065728","bdp_trlrn","Wed Mar 15 2023 12:19:24 GMT-0700 (Mountain Standard Time)","837255","Trustworthy,Untrustworthy","","","","ratingFB","","null","","trustrating_stim/white_mw071.bmp","null","","","","","","","","","","",""
"image-keyboard-response","49","107710","0.0-6.0-1.22","60fcdd3be2ae9576df065728","bdp_trlrn","Wed Mar 15 2023 12:19:24 GMT-0700 (Mountain Standard Time)","837255","Trustworthy,Untrustworthy","","","","rating","","1736","","trustrating_stim/white_mw035.bmp","6","","","","","","","","","","",""
"image-keyboard-response","50","107918","0.0-6.0-2.22","60fcdd3be2ae9576df065728","bdp_trlrn","Wed Mar 15 2023 12:19:24 GMT-0700 (Mountain Standard Time)","837255","Trustworthy,Untrustworthy","","","","ratingFB","","null","","trustrating_stim/white_mw035.bmp","null","","","","","","","","","","",""
"image-keyboard-response","51","109437","0.0-6.0-1.23","60fcdd3be2ae9576df065728","bdp_trlrn","Wed Mar 15 2023 12:19:24 GMT-0700 (Mountain Standard Time)","837255","Trustworthy,Untrustworthy","","","","rating","","1415","","trustrating_stim/white_mw033.bmp","6","","","","","","","","","","",""
"image-keyboard-response","52","109645","0.0-6.0-2.23","60fcdd3be2ae9576df065728","bdp_trlrn","Wed Mar 15 2023 12:19:24 GMT-0700 (Mountain Standard Time)","837255","Trustworthy,Untrustworthy","","","","ratingFB","","null","","trustrating_stim/white_mw033.bmp","null","","","","","","","","","","",""
"image-keyboard-response","53","111010","0.0-6.0-1.24","60fcdd3be2ae9576df065728","bdp_trlrn","Wed Mar 15 2023 12:19:24 GMT-0700 (Mountain Standard Time)","837255","Trustworthy,Untrustworthy","","","","rating","","1260","","trustrating_stim/white_mw048.bmp","2","","","","","","","","","","",""
"image-keyboard-response","54","111221","0.0-6.0-2.24","60fcdd3be2ae9576df065728","bdp_trlrn","Wed Mar 15 2023 12:19:24 GMT-0700 (Mountain Standard Time)","837255","Trustworthy,Untrustworthy","","","","ratingFB","","null","","trustrating_stim/white_mw048.bmp","null","","","","","","","","","","",""
"image-keyboard-response","55","112756","0.0-6.0-1.25","60fcdd3be2ae9576df065728","bdp_trlrn","Wed Mar 15 2023 12:19:24 GMT-0700 (Mountain Standard Time)","837255","Trustworthy,Untrustworthy","","","","rating","","1429","","trustrating_stim/white_mw084.bmp","2","","","","","","","","","","",""
"image-keyboard-response","56","112965","0.0-6.0-2.25","60fcdd3be2ae9576df065728","bdp_trlrn","Wed Mar 15 2023 12:19:24 GMT-0700 (Mountain Standard Time)","837255","Trustworthy,Untrustworthy","","","","ratingFB","","null","","trustrating_stim/white_mw084.bmp","null","","","","","","","","","","",""
"image-keyboard-response","57","114043","0.0-6.0-1.26","60fcdd3be2ae9576df065728","bdp_trlrn","Wed Mar 15 2023 12:19:24 GMT-0700 (Mountain Standard Time)","837255","Trustworthy,Untrustworthy","","","","rating","","972","","trustrating_stim/white_mw060.bmp","2","","","","","","","","","","",""
"image-keyboard-response","58","114253","0.0-6.0-2.26","60fcdd3be2ae9576df065728","bdp_trlrn","Wed Mar 15 2023 12:19:24 GMT-0700 (Mountain Standard Time)","837255","Trustworthy,Untrustworthy","","","","ratingFB","","null","","trustrating_stim/white_mw060.bmp","null","","","","","","","","","","",""
"image-keyboard-response","59","116174","0.0-6.0-1.27","60fcdd3be2ae9576df065728","bdp_trlrn","Wed Mar 15 2023 12:19:24 GMT-0700 (Mountain Standard Time)","837255","Trustworthy,Untrustworthy","","","","rating","","1813","","trustrating_stim/white_00129_931230_fb_edt.bmp","4","","","","","","","","","","",""
"image-keyboard-response","60","116381","0.0-6.0-2.27","60fcdd3be2ae9576df065728","bdp_trlrn","Wed Mar 15 2023 12:19:24 GMT-0700 (Mountain Standard Time)","837255","Trustworthy,Untrustworthy","","","","ratingFB","","null","","trustrating_stim/white_00129_931230_fb_edt.bmp","null","","","","","","","","","","",""
"image-keyboard-response","61","118101","0.0-6.0-1.28","60fcdd3be2ae9576df065728","bdp_trlrn","Wed Mar 15 2023 12:19:24 GMT-0700 (Mountain Standard Time)","837255","Trustworthy,Untrustworthy","","","","rating","","1614","","trustrating_stim/white_mw097.bmp","3","","","","","","","","","","",""
"image-keyboard-response","62","118310","0.0-6.0-2.28","60fcdd3be2ae9576df065728","bdp_trlrn","Wed Mar 15 2023 12:19:24 GMT-0700 (Mountain Standard Time)","837255","Trustworthy,Untrustworthy","","","","ratingFB","","null","","trustrating_stim/white_mw097.bmp","null","","","","","","","","","","",""
"image-keyboard-response","63","120990","0.0-6.0-1.29","60fcdd3be2ae9576df065728","bdp_trlrn","Wed Mar 15 2023 12:19:24 GMT-0700 (Mountain Standard Time)","837255","Trustworthy,Untrustworthy","","","","rating","","2565","","trustrating_stim/white_00602_940928_fb_edt.bmp","4","","","","","","","","","","",""
"image-keyboard-response","64","121199","0.0-6.0-2.29","60fcdd3be2ae9576df065728","bdp_trlrn","Wed Mar 15 2023 12:19:24 GMT-0700 (Mountain Standard Time)","837255","Trustworthy,Untrustworthy","","","","ratingFB","","null","","trustrating_stim/white_00602_940928_fb_edt.bmp","null","","","","","","","","","","",""
"image-keyboard-response","65","123171","0.0-6.0-1.30","60fcdd3be2ae9576df065728","bdp_trlrn","Wed Mar 15 2023 12:19:24 GMT-0700 (Mountain Standard Time)","837255","Trustworthy,Untrustworthy","","","","rating","","1861","","trustrating_stim/white_mw071.bmp","5","","","","","","","","","","",""
"image-keyboard-response","66","123380","0.0-6.0-2.30","60fcdd3be2ae9576df065728","bdp_trlrn","Wed Mar 15 2023 12:19:24 GMT-0700 (Mountain Standard Time)","837255","Trustworthy,Untrustworthy","","","","ratingFB","","null","","trustrating_stim/white_mw071.bmp","null","","","","","","","","","","",""
"image-keyboard-response","67","124932","0.0-6.0-1.31","60fcdd3be2ae9576df065728","bdp_trlrn","Wed Mar 15 2023 12:19:24 GMT-0700 (Mountain Standard Time)","837255","Trustworthy,Untrustworthy","","","","rating","","1445","","trustrating_stim/white_00577_940928_fa_edt.bmp","4","","","","","","","","","","",""
"image-keyboard-response","68","125141","0.0-6.0-2.31","60fcdd3be2ae9576df065728","bdp_trlrn","Wed Mar 15 2023 12:19:24 GMT-0700 (Mountain Standard Time)","837255","Trustworthy,Untrustworthy","","","","ratingFB","","null","","trustrating_stim/white_00577_940928_fa_edt.bmp","null","","","","","","","","","","",""
"image-keyboard-response","69","126422","0.0-6.0-1.32","60fcdd3be2ae9576df065728","bdp_trlrn","Wed Mar 15 2023 12:19:24 GMT-0700 (Mountain Standard Time)","837255","Trustworthy,Untrustworthy","","","","rating","","1176","","trustrating_stim/white_mw097.bmp","3","","","","","","","","","","",""
"image-keyboard-response","70","126629","0.0-6.0-2.32","60fcdd3be2ae9576df065728","bdp_trlrn","Wed Mar 15 2023 12:19:24 GMT-0700 (Mountain Standard Time)","837255","Trustworthy,Untrustworthy","","","","ratingFB","","null","","trustrating_stim/white_mw097.bmp","null","","","","","","","","","","",""
"image-keyboard-response","71","127923","0.0-6.0-1.33","60fcdd3be2ae9576df065728","bdp_trlrn","Wed Mar 15 2023 12:19:24 GMT-0700 (Mountain Standard Time)","837255","Trustworthy,Untrustworthy","","","","rating","","1189","","trustrating_stim/white_00659_941121_fa_edt.bmp","3","","","","","","","","","","",""
"image-keyboard-response","72","128134","0.0-6.0-2.33","60fcdd3be2ae9576df065728","bdp_trlrn","Wed Mar 15 2023 12:19:24 GMT-0700 (Mountain Standard Time)","837255","Trustworthy,Untrustworthy","","","","ratingFB","","null","","trustrating_stim/white_00659_941121_fa_edt.bmp","null","","","","","","","","","","",""
"image-keyboard-response","73","131665","0.0-6.0-1.34","60fcdd3be2ae9576df065728","bdp_trlrn","Wed Mar 15 2023 12:19:24 GMT-0700 (Mountain Standard Time)","837255","Trustworthy,Untrustworthy","","","","rating","","3418","","trustrating_stim/white_mw066.bmp","5","","","","","","","","","","",""
"image-keyboard-response","74","131868","0.0-6.0-2.34","60fcdd3be2ae9576df065728","bdp_trlrn","Wed Mar 15 2023 12:19:24 GMT-0700 (Mountain Standard Time)","837255","Trustworthy,Untrustworthy","","","","ratingFB","","null","","trustrating_stim/white_mw066.bmp","null","","","","","","","","","","",""
"image-keyboard-response","75","133192","0.0-6.0-1.35","60fcdd3be2ae9576df065728","bdp_trlrn","Wed Mar 15 2023 12:19:24 GMT-0700 (Mountain Standard Time)","837255","Trustworthy,Untrustworthy","","","","rating","","1216","","trustrating_stim/white_00898_960530_fa_edt.bmp","3","","","","","","","","","","",""
"image-keyboard-response","76","133399","0.0-6.0-2.35","60fcdd3be2ae9576df065728","bdp_trlrn","Wed Mar 15 2023 12:19:24 GMT-0700 (Mountain Standard Time)","837255","Trustworthy,Untrustworthy","","","","ratingFB","","null","","trustrating_stim/white_00898_960530_fa_edt.bmp","null","","","","","","","","","","",""
"image-keyboard-response","77","135192","0.0-6.0-1.36","60fcdd3be2ae9576df065728","bdp_trlrn","Wed Mar 15 2023 12:19:24 GMT-0700 (Mountain Standard Time)","837255","Trustworthy,Untrustworthy","","","","rating","","1681","","trustrating_stim/white_mw056.bmp","4","","","","","","","","","","",""
"image-keyboard-response","78","135399","0.0-6.0-2.36","60fcdd3be2ae9576df065728","bdp_trlrn","Wed Mar 15 2023 12:19:24 GMT-0700 (Mountain Standard Time)","837255","Trustworthy,Untrustworthy","","","","ratingFB","","null","","trustrating_stim/white_mw056.bmp","null","","","","","","","","","","",""
"image-keyboard-response","79","136925","0.0-6.0-1.37","60fcdd3be2ae9576df065728","bdp_trlrn","Wed Mar 15 2023 12:19:24 GMT-0700 (Mountain Standard Time)","837255","Trustworthy,Untrustworthy","","","","rating","","1416","","trustrating_stim/white_00761_941201_fb_edt.bmp","3","","","","","","","","","","",""
"image-keyboard-response","80","137133","0.0-6.0-2.37","60fcdd3be2ae9576df065728","bdp_trlrn","Wed Mar 15 2023 12:19:24 GMT-0700 (Mountain Standard Time)","837255","Trustworthy,Untrustworthy","","","","ratingFB","","null","","trustrating_stim/white_00761_941201_fb_edt.bmp","null","","","","","","","","","","",""
"image-keyboard-response","81","138657","0.0-6.0-1.38","60fcdd3be2ae9576df065728","bdp_trlrn","Wed Mar 15 2023 12:19:24 GMT-0700 (Mountain Standard Time)","837255","Trustworthy,Untrustworthy","","","","rating","","1419","","trustrating_stim/white_mw060.bmp","2","","","","","","","","","","",""
"image-keyboard-response","82","138861","0.0-6.0-2.38","60fcdd3be2ae9576df065728","bdp_trlrn","Wed Mar 15 2023 12:19:24 GMT-0700 (Mountain Standard Time)","837255","Trustworthy,Untrustworthy","","","","ratingFB","","null","","trustrating_stim/white_mw060.bmp","null","","","","","","","","","","",""
"image-keyboard-response","83","140136","0.0-6.0-1.39","60fcdd3be2ae9576df065728","bdp_trlrn","Wed Mar 15 2023 12:19:24 GMT-0700 (Mountain Standard Time)","837255","Trustworthy,Untrustworthy","","","","rating","","1171","","trustrating_stim/white_00602_940928_fb_edt.bmp","4","","","","","","","","","","",""
"image-keyboard-response","84","140341","0.0-6.0-2.39","60fcdd3be2ae9576df065728","bdp_trlrn","Wed Mar 15 2023 12:19:24 GMT-0700 (Mountain Standard Time)","837255","Trustworthy,Untrustworthy","","","","ratingFB","","null","","trustrating_stim/white_00602_940928_fb_edt.bmp","null","","","","","","","","","","",""
"image-keyboard-response","85","142240","0.0-6.0-1.40","60fcdd3be2ae9576df065728","bdp_trlrn","Wed Mar 15 2023 12:19:24 GMT-0700 (Mountain Standard Time)","837255","Trustworthy,Untrustworthy","","","","rating","","1795","","trustrating_stim/white_00785_941205_fb_edt.bmp","2","","","","","","","","","","",""
"image-keyboard-response","86","142444","0.0-6.0-2.40","60fcdd3be2ae9576df065728","bdp_trlrn","Wed Mar 15 2023 12:19:24 GMT-0700 (Mountain Standard Time)","837255","Trustworthy,Untrustworthy","","","","ratingFB","","null","","trustrating_stim/white_00785_941205_fb_edt.bmp","null","","","","","","","","","","",""
"image-keyboard-response","87","143902","0.0-6.0-1.41","60fcdd3be2ae9576df065728","bdp_trlrn","Wed Mar 15 2023 12:19:24 GMT-0700 (Mountain Standard Time)","837255","Trustworthy,Untrustworthy","","","","rating","","1349","","trustrating_stim/white_mw063.bmp","2","","","","","","","","","","",""
"image-keyboard-response","88","144109","0.0-6.0-2.41","60fcdd3be2ae9576df065728","bdp_trlrn","Wed Mar 15 2023 12:19:24 GMT-0700 (Mountain Standard Time)","837255","Trustworthy,Untrustworthy","","","","ratingFB","","null","","trustrating_stim/white_mw063.bmp","null","","","","","","","","","","",""
"image-keyboard-response","89","145734","0.0-6.0-1.42","60fcdd3be2ae9576df065728","bdp_trlrn","Wed Mar 15 2023 12:19:24 GMT-0700 (Mountain Standard Time)","837255","Trustworthy,Untrustworthy","","","","rating","","1521","","trustrating_stim/white_mw035.bmp","4","","","","","","","","","","",""
"image-keyboard-response","90","145941","0.0-6.0-2.42","60fcdd3be2ae9576df065728","bdp_trlrn","Wed Mar 15 2023 12:19:24 GMT-0700 (Mountain Standard Time)","837255","Trustworthy,Untrustworthy","","","","ratingFB","","null","","trustrating_stim/white_mw035.bmp","null","","","","","","","","","","",""
"image-keyboard-response","91","147742","0.0-6.0-1.43","60fcdd3be2ae9576df065728","bdp_trlrn","Wed Mar 15 2023 12:19:24 GMT-0700 (Mountain Standard Time)","837255","Trustworthy,Untrustworthy","","","","rating","","1696","","trustrating_stim/white_00299_940422_fa_edt.bmp","3","","","","","","","","","","",""
"image-keyboard-response","92","147949","0.0-6.0-2.43","60fcdd3be2ae9576df065728","bdp_trlrn","Wed Mar 15 2023 12:19:24 GMT-0700 (Mountain Standard Time)","837255","Trustworthy,Untrustworthy","","","","ratingFB","","null","","trustrating_stim/white_00299_940422_fa_edt.bmp","null","","","","","","","","","","",""
"image-keyboard-response","93","151662","0.0-6.0-1.44","60fcdd3be2ae9576df065728","bdp_trlrn","Wed Mar 15 2023 12:19:24 GMT-0700 (Mountain Standard Time)","837255","Trustworthy,Untrustworthy","","","","rating","","3599","","trustrating_stim/white_mw049.bmp","4","","","","","","","","","","",""
"image-keyboard-response","94","151872","0.0-6.0-2.44","60fcdd3be2ae9576df065728","bdp_trlrn","Wed Mar 15 2023 12:19:24 GMT-0700 (Mountain Standard Time)","837255","Trustworthy,Untrustworthy","","","","ratingFB","","null","","trustrating_stim/white_mw049.bmp","null","","","","","","","","","","",""
"image-keyboard-response","95","153057","0.0-6.0-1.45","60fcdd3be2ae9576df065728","bdp_trlrn","Wed Mar 15 2023 12:19:24 GMT-0700 (Mountain Standard Time)","837255","Trustworthy,Untrustworthy","","","","rating","","1076","","trustrating_stim/white_mw033.bmp","4","","","","","","","","","","",""
"image-keyboard-response","96","153264","0.0-6.0-2.45","60fcdd3be2ae9576df065728","bdp_trlrn","Wed Mar 15 2023 12:19:24 GMT-0700 (Mountain Standard Time)","837255","Trustworthy,Untrustworthy","","","","ratingFB","","null","","trustrating_stim/white_mw033.bmp","null","","","","","","","","","","",""
"image-keyboard-response","97","154623","0.0-6.0-1.46","60fcdd3be2ae9576df065728","bdp_trlrn","Wed Mar 15 2023 12:19:24 GMT-0700 (Mountain Standard Time)","837255","Trustworthy,Untrustworthy","","","","rating","","1250","","trustrating_stim/white_00757_941201_fa_edt.bmp","2","","","","","","","","","","",""
"image-keyboard-response","98","154825","0.0-6.0-2.46","60fcdd3be2ae9576df065728","bdp_trlrn","Wed Mar 15 2023 12:19:24 GMT-0700 (Mountain Standard Time)","837255","Trustworthy,Untrustworthy","","","","ratingFB","","null","","trustrating_stim/white_00757_941201_fa_edt.bmp","null","","","","","","","","","","",""
"image-keyboard-response","99","155913","0.0-6.0-1.47","60fcdd3be2ae9576df065728","bdp_trlrn","Wed Mar 15 2023 12:19:24 GMT-0700 (Mountain Standard Time)","837255","Trustworthy,Untrustworthy","","","","rating","","979","","trustrating_stim/white_00807_941205_fb_edt.bmp","2","","","","","","","","","","",""
"image-keyboard-response","100","156117","0.0-6.0-2.47","60fcdd3be2ae9576df065728","bdp_trlrn","Wed Mar 15 2023 12:19:24 GMT-0700 (Mountain Standard Time)","837255","Trustworthy,Untrustworthy","","","","ratingFB","","null","","trustrating_stim/white_00807_941205_fb_edt.bmp","null","","","","","","","","","","",""
"image-keyboard-response","101","158054","0.0-6.0-1.48","60fcdd3be2ae9576df065728","bdp_trlrn","Wed Mar 15 2023 12:19:24 GMT-0700 (Mountain Standard Time)","837255","Trustworthy,Untrustworthy","","","","rating","","1824","","trustrating_stim/white_00223_940128_fb_edt.bmp","3","","","","","","","","","","",""
"image-keyboard-response","102","158260","0.0-6.0-2.48","60fcdd3be2ae9576df065728","bdp_trlrn","Wed Mar 15 2023 12:19:24 GMT-0700 (Mountain Standard Time)","837255","Trustworthy,Untrustworthy","","","","ratingFB","","null","","trustrating_stim/white_00223_940128_fb_edt.bmp","null","","","","","","","","","","",""
"image-keyboard-response","103","159345","0.0-6.0-1.49","60fcdd3be2ae9576df065728","bdp_trlrn","Wed Mar 15 2023 12:19:24 GMT-0700 (Mountain Standard Time)","837255","Trustworthy,Untrustworthy","","","","rating","","980","","trustrating_stim/white_mw084.bmp","3","","","","","","","","","","",""
"image-keyboard-response","104","159552","0.0-6.0-2.49","60fcdd3be2ae9576df065728","bdp_trlrn","Wed Mar 15 2023 12:19:24 GMT-0700 (Mountain Standard Time)","837255","Trustworthy,Untrustworthy","","","","ratingFB","","null","","trustrating_stim/white_mw084.bmp","null","","","","","","","","","","",""
"image-keyboard-response","105","162617","0.0-6.0-1.50","60fcdd3be2ae9576df065728","bdp_trlrn","Wed Mar 15 2023 12:19:24 GMT-0700 (Mountain Standard Time)","837255","Trustworthy,Untrustworthy","","","","rating","","2954","","trustrating_stim/white_mw048.bmp","3","","","","","","","","","","",""
"image-keyboard-response","106","162821","0.0-6.0-2.50","60fcdd3be2ae9576df065728","bdp_trlrn","Wed Mar 15 2023 12:19:24 GMT-0700 (Mountain Standard Time)","837255","Trustworthy,Untrustworthy","","","","ratingFB","","null","","trustrating_stim/white_mw048.bmp","null","","","","","","","","","","",""
"image-keyboard-response","107","164171","0.0-6.0-1.51","60fcdd3be2ae9576df065728","bdp_trlrn","Wed Mar 15 2023 12:19:24 GMT-0700 (Mountain Standard Time)","837255","Trustworthy,Untrustworthy","","","","rating","","1244","","trustrating_stim/white_mw089.bmp","4","","","","","","","","","","",""
"image-keyboard-response","108","164384","0.0-6.0-2.51","60fcdd3be2ae9576df065728","bdp_trlrn","Wed Mar 15 2023 12:19:24 GMT-0700 (Mountain Standard Time)","837255","Trustworthy,Untrustworthy","","","","ratingFB","","null","","trustrating_stim/white_mw089.bmp","null","","","","","","","","","","",""
"image-keyboard-response","109","166320","0.0-6.0-1.52","60fcdd3be2ae9576df065728","bdp_trlrn","Wed Mar 15 2023 12:19:24 GMT-0700 (Mountain Standard Time)","837255","Trustworthy,Untrustworthy","","","","rating","","1824","","trustrating_stim/white_mw053.bmp","5","","","","","","","","","","",""
"image-keyboard-response","110","166527","0.0-6.0-2.52","60fcdd3be2ae9576df065728","bdp_trlrn","Wed Mar 15 2023 12:19:24 GMT-0700 (Mountain Standard Time)","837255","Trustworthy,Untrustworthy","","","","ratingFB","","null","","trustrating_stim/white_mw053.bmp","null","","","","","","","","","","",""
"image-keyboard-response","111","168609","0.0-6.0-1.53","60fcdd3be2ae9576df065728","bdp_trlrn","Wed Mar 15 2023 12:19:24 GMT-0700 (Mountain Standard Time)","837255","Trustworthy,Untrustworthy","","","","rating","","1972","","trustrating_stim/white_mw099.bmp","3","","","","","","","","","","",""
"image-keyboard-response","112","168812","0.0-6.0-2.53","60fcdd3be2ae9576df065728","bdp_trlrn","Wed Mar 15 2023 12:19:24 GMT-0700 (Mountain Standard Time)","837255","Trustworthy,Untrustworthy","","","","ratingFB","","null","","trustrating_stim/white_mw099.bmp","null","","","","","","","","","","",""
"image-keyboard-response","113","171741","0.0-6.0-1.54","60fcdd3be2ae9576df065728","bdp_trlrn","Wed Mar 15 2023 12:19:24 GMT-0700 (Mountain Standard Time)","837255","Trustworthy,Untrustworthy","","","","rating","","2823","","trustrating_stim/white_00340_940422_fa_edt.bmp","3","","","","","","","","","","",""
"image-keyboard-response","114","171948","0.0-6.0-2.54","60fcdd3be2ae9576df065728","bdp_trlrn","Wed Mar 15 2023 12:19:24 GMT-0700 (Mountain Standard Time)","837255","Trustworthy,Untrustworthy","","","","ratingFB","","null","","trustrating_stim/white_00340_940422_fa_edt.bmp","null","","","","","","","","","","",""
"image-keyboard-response","115","173700","0.0-6.0-1.55","60fcdd3be2ae9576df065728","bdp_trlrn","Wed Mar 15 2023 12:19:24 GMT-0700 (Mountain Standard Time)","837255","Trustworthy,Untrustworthy","","","","rating","","1644","","trustrating_stim/white_00519_940519_fb_edt.bmp","5","","","","","","","","","","",""
"image-keyboard-response","116","173908","0.0-6.0-2.55","60fcdd3be2ae9576df065728","bdp_trlrn","Wed Mar 15 2023 12:19:24 GMT-0700 (Mountain Standard Time)","837255","Trustworthy,Untrustworthy","","","","ratingFB","","null","","trustrating_stim/white_00519_940519_fb_edt.bmp","null","","","","","","","","","","",""
"image-keyboard-response","117","175416","0.0-6.0-1.56","60fcdd3be2ae9576df065728","bdp_trlrn","Wed Mar 15 2023 12:19:24 GMT-0700 (Mountain Standard Time)","837255","Trustworthy,Untrustworthy","","","","rating","","1395","","trustrating_stim/white_00109_931230_fa_edt.bmp","5","","","","","","","","","","",""
"image-keyboard-response","118","175620","0.0-6.0-2.56","60fcdd3be2ae9576df065728","bdp_trlrn","Wed Mar 15 2023 12:19:24 GMT-0700 (Mountain Standard Time)","837255","Trustworthy,Untrustworthy","","","","ratingFB","","null","","trustrating_stim/white_00109_931230_fa_edt.bmp","null","","","","","","","","","","",""
"image-keyboard-response","119","177151","0.0-6.0-1.57","60fcdd3be2ae9576df065728","bdp_trlrn","Wed Mar 15 2023 12:19:24 GMT-0700 (Mountain Standard Time)","837255","Trustworthy,Untrustworthy","","","","rating","","1423","","trustrating_stim/white_00129_931230_fb_edt.bmp","4","","","","","","","","","","",""
"image-keyboard-response","120","177358","0.0-6.0-2.57","60fcdd3be2ae9576df065728","bdp_trlrn","Wed Mar 15 2023 12:19:24 GMT-0700 (Mountain Standard Time)","837255","Trustworthy,Untrustworthy","","","","ratingFB","","null","","trustrating_stim/white_00129_931230_fb_edt.bmp","null","","","","","","","","","","",""
"image-keyboard-response","121","196740","0.0-6.0-1.58","60fcdd3be2ae9576df065728","bdp_trlrn","Wed Mar 15 2023 12:19:24 GMT-0700 (Mountain Standard Time)","837255","Trustworthy,Untrustworthy","","","","rating","","19269","","trustrating_stim/white_mw046.bmp","5","","","","","","","","","","",""
"image-keyboard-response","122","196948","0.0-6.0-2.58","60fcdd3be2ae9576df065728","bdp_trlrn","Wed Mar 15 2023 12:19:24 GMT-0700 (Mountain Standard Time)","837255","Trustworthy,Untrustworthy","","","","ratingFB","","null","","trustrating_stim/white_mw046.bmp","null","","","","","","","","","","",""
"image-keyboard-response","123","200044","0.0-6.0-1.59","60fcdd3be2ae9576df065728","bdp_trlrn","Wed Mar 15 2023 12:19:24 GMT-0700 (Mountain Standard Time)","837255","Trustworthy,Untrustworthy","","","","rating","","2979","","trustrating_stim/white_00120_931230_fa_edt.bmp","5","","","","","","","","","","",""
"image-keyboard-response","124","200252","0.0-6.0-2.59","60fcdd3be2ae9576df065728","bdp_trlrn","Wed Mar 15 2023 12:19:24 GMT-0700 (Mountain Standard Time)","837255","Trustworthy,Untrustworthy","","","","ratingFB","","null","","trustrating_stim/white_00120_931230_fa_edt.bmp","null","","","","","","","","","","",""
"instructions","125","207222","0.0-7.0","60fcdd3be2ae9576df065728","bdp_trlrn","Wed Mar 15 2023 12:19:24 GMT-0700 (Mountain Standard Time)","837255","Trustworthy,Untrustworthy","","","","","[{""page_index"":0,""viewing_time"":6855}]","6855","","","","","","","","","","","","","",""
"instructions","126","370590","0.0-8.0","60fcdd3be2ae9576df065728","bdp_trlrn","Wed Mar 15 2023 12:19:24 GMT-0700 (Mountain Standard Time)","837255","Trustworthy,Untrustworthy","","","","","[{""page_index"":0,""viewing_time"":32324},{""page_index"":1,""viewing_time"":29761},{""page_index"":2,""viewing_time"":8182},{""page_index"":3,""viewing_time"":9909},{""page_index"":4,""viewing_time"":10601},{""page_index"":5,""viewing_time"":14443},{""page_index"":6,""viewing_time"":49682},{""page_index"":7,""viewing_time"":8363}]","163265","","","","","","","","","","","","","",""
"html-keyboard-response","127","378832","0.0-9.0","60fcdd3be2ae9576df065728","bdp_trlrn","Wed Mar 15 2023 12:19:24 GMT-0700 (Mountain Standard Time)","837255","Trustworthy,Untrustworthy","","","","","","8239","","<div class='header' style='text-align:left; position: absolute; top: 5%; left: 5%;'><small>Task 2 of 5</small></div><div class='instruxDiv'><p><strong>1) What is the minimum number of points you can choose to send to your partner?</strong></p><p>a) 0</p><p>b) 1</p><p>c) 5</p>","B","","","","","","","","","","",""
"html-keyboard-response","128","381795","0.0-10.0","60fcdd3be2ae9576df065728","bdp_trlrn","Wed Mar 15 2023 12:19:24 GMT-0700 (Mountain Standard Time)","837255","Trustworthy,Untrustworthy","","","","","","2855","","<div class='header' style='text-align:left; position: absolute; top: 5%; left: 5%;'><small>Task 2 of 5</small></div><div class='instruxDiv'><p><strong>1) What is the minimum number of points you can choose to send to your partner?</strong></p><p>a) 0</p><p style='color:#00FF00'>b) 1</p><p>c) 5</p><h3 style='color:#00FF00'>Correct!</h3><h3 class='center-content'>The correct response is b).</h3><h3 class='center-content'>The minimum number of points you can choose to send to your partner is 1 point.</h3><p><em>Press SPACEBAR to continue</em></p></div>"," ","","","","","","","","","","",""
"html-keyboard-response","129","386301","0.0-11.0","60fcdd3be2ae9576df065728","bdp_trlrn","Wed Mar 15 2023 12:19:24 GMT-0700 (Mountain Standard Time)","837255","Trustworthy,Untrustworthy","","","","","","4404","","<div class='header' style='text-align:left; position: absolute; top: 5%; left: 5%;'><small>Task 2 of 5</small></div><div class='instruxDiv'><p><strong>2) What is the maximum number of points you can choose to send to your partner?</strong></p><p>a) 8</p><p>b) 5</p><p>c) 3</p>","B","","","","","","","","","","",""
"html-keyboard-response","130","388153","0.0-12.0","60fcdd3be2ae9576df065728","bdp_trlrn","Wed Mar 15 2023 12:19:24 GMT-0700 (Mountain Standard Time)","837255","Trustworthy,Untrustworthy","","","","","","1741","","<div class='header' style='text-align:left; position: absolute; top: 5%; left: 5%;'><small>Task 2 of 5</small></div><div class='instruxDiv'><p><strong>2) What is the maximum number of points you can choose to send to your partner?</strong></p><p>a) 8</p><p style='color:#00FF00'>b) 5</p><p>c) 3</p><h3 style='color:#00FF00'>Correct!</h3><h3 class='center-content'>The correct response is b).</h3><h3 class='center-content'>The maximum number of points you can choose to send to your partner is 5 points.</h3><p><em>Press SPACEBAR to continue</em></p></div>"," ","","","","","","","","","","",""
"html-keyboard-response","131","392022","0.0-13.0","60fcdd3be2ae9576df065728","bdp_trlrn","Wed Mar 15 2023 12:19:24 GMT-0700 (Mountain Standard Time)","837255","Trustworthy,Untrustworthy","","","","","","3763","","<div class='header' style='text-align:left; position: absolute; top: 5%; left: 5%;'><small>Task 2 of 5</small></div><div class='instruxDiv'><p><strong>3) What happens to the amount of points you send to your partner?</strong></p><p>a) Nothing</p><p>b) It doubles</p><p>c) It quadruples</p>","C","","","","","","","","","","",""
"html-keyboard-response","132","393595","0.0-14.0","60fcdd3be2ae9576df065728","bdp_trlrn","Wed Mar 15 2023 12:19:24 GMT-0700 (Mountain Standard Time)","837255","Trustworthy,Untrustworthy","","","","","","1460","","<div class='header' style='text-align:left; position: absolute; top: 5%; left: 5%;'><small>Task 2 of 5</small></div><div class='instruxDiv'><p><strong>3) What happens to the amount of points you send to your partner?</strong></p><p>a) Nothing</p><p>b) It doubles</p><p style='color:#00FF00'>c) It quadruples</p><h3 style='color:#00FF00'>Correct!</h3><h3 class='center-content'>The correct response is c).</h3><h3 class='center-content'>The amount of points you send to your partner quadruples.</h3><p><em>Press SPACEBAR to continue</em></p></div>"," ","","","","","","","","","","",""
"html-keyboard-response","133","404503","0.0-15.0","60fcdd3be2ae9576df065728","bdp_trlrn","Wed Mar 15 2023 12:19:24 GMT-0700 (Mountain Standard Time)","837255","Trustworthy,Untrustworthy","","","","","","10803","","<div class='header' style='text-align:left; position: absolute; top: 5%; left: 5%;'><small>Task 2 of 5</small></div><div class='instruxDiv'><p><strong>4) If you decided to share 4 out of 5 points with your partner, and they decided to share half of the amount they received with you, how many points would you receive back from them on this round?</strong></p><p>a) 16</p><p>b) 0</p><p>c) 8</p>","C","","","","","","","","","","",""
"html-keyboard-response","134","409011","0.0-16.0","60fcdd3be2ae9576df065728","bdp_trlrn","Wed Mar 15 2023 12:19:24 GMT-0700 (Mountain Standard Time)","837255","Trustworthy,Untrustworthy","","","","","","4398","","<div class='header' style='text-align:left; position: absolute; top: 5%; left: 5%;'><small>Task 2 of 5</small></div><div class='instruxDiv'><p><strong>4) If you decided to share 4 out of 5 points with your partner, and they decided to share half of the amount they received with you, how many points would you receive back from them on this round?</strong></p><p>a) 16</p><p>b) 0</p><p style='color:#00FF00'>c) 8</p><h3 style='color:#00FF00'>Correct!</h3><h3 class='center-content'>The correct response is c).</h3><h3 class='center-content'>If you shared 4 out of 5 points with your partner and they decided to share half of the amount they received with you, you would receive 8 points back (i.e. (4 x 4)/2 = 8).</h3><p><em>Press SPACEBAR to continue</em></p></div>"," ","","","","","","","","","","",""
"html-keyboard-response","135","414122","0.0-17.0","60fcdd3be2ae9576df065728","bdp_trlrn","Wed Mar 15 2023 12:19:24 GMT-0700 (Mountain Standard Time)","837255","Trustworthy,Untrustworthy","","","","","","null","","<div class='header' style='text-align:left; position: absolute; top: 5%; left: 5%;'><small>Task 2 of 5</small></div><div class='instruxDiv'><p>Thank you for completing the quiz<p>These are the actual partners you will be interacting with in the next block:<p><div class='tc' align='center'><img class='introPic' src='trustrating_stim/white_00807_941205_fb_edt.bmp'><br><strong>David</strong></div><div class='bl' align='center'><img class='introPic' src='trustrating_stim/white_00602_940928_fb_edt.bmp'><br><strong>Joseph</strong></div><div class='br' align='center'><img class='introPic' src='trustrating_stim/white_mw066.bmp'><br><strong>Sebastian</strong></div></div><p>Across <strong>66 rounds</strong> you will interact with each partner <strong>22 times</strong> (in random order).<p style='align:center; color:white'><font <em>Press SPACEBAR to continue</em></p>","null","","","","","","","","","","",""
"instructions","136","424830","0.0-18.0","60fcdd3be2ae9576df065728","bdp_trlrn","Wed Mar 15 2023 12:19:24 GMT-0700 (Mountain Standard Time)","837255","Trustworthy,Untrustworthy","","","","","[{""page_index"":0,""viewing_time"":2521},{""page_index"":1,""viewing_time"":8185}]","10706","","","","","","","","","","","","","",""
"html-keyboard-response","137","428229","0.0-19.0-1.0","60fcdd3be2ae9576df065728","bdp_trlrn","Wed Mar 15 2023 12:19:24 GMT-0700 (Mountain Standard Time)","837255","Trustworthy,Untrustworthy","","","","decision","","3286","","<div class='trialDiv'><img src='trustrating_stim/white_mw066.bmp'><br><font class='baseline'><strong>Sebastian</strong><p>Choose number of points to send.</font><div class='respPicDiv'><img src='img/responseButtonOffersNo0L.png' class='respPic'></div></div>","2","1","Sebastian","11","Kept","0.35,0.65","13","0.35","trustrating_stim/white_mw066.bmp","5.5","5","1"
"html-keyboard-response","138","428490","0.0-19.0-2.0","60fcdd3be2ae9576df065728","bdp_trlrn","Wed Mar 15 2023 12:19:24 GMT-0700 (Mountain Standard Time)","837255","Trustworthy,Untrustworthy","","","","decisionFB","","null","","<div class='trialDiv'><img src='trustrating_stim/white_mw066.bmp'><br><font class='baseline'><strong>Sebastian</strong><p>Choose number of points to send.</font><div class='respPicDiv'><img src='img/responseButtonOffersNo0L2.png' class='respPic'></div></div>","null","1","Sebastian","11","Kept","0.35,0.65","13","0.35","trustrating_stim/white_mw066.bmp","5.5","3","1"
"html-keyboard-response","139","429498","0.0-19.0-3.0","60fcdd3be2ae9576df065728","bdp_trlrn","Wed Mar 15 2023 12:19:24 GMT-0700 (Mountain Standard Time)","837255","Trustworthy,Untrustworthy","","","","feedback","","null","","<div class='trialDiv'><img src='trustrating_stim/white_mw066.bmp'><br><font class='baseline'><strong>Sebastian</strong><p>Received: <strong>8</strong></font> &nbsp; &nbsp; &nbsp; &nbsp; &nbsp; &nbsp;<font class='negOutcome'>Shared back: <strong>0</strong></font></font><div class='respPicDiv'><img src='img/responseButtonOffersNo0_wht.png' class='respPic'></div></div>","null","1","Sebastian","11","Kept","0.35,0.65","13","0.35","trustrating_stim/white_mw066.bmp","5.5","3","1"
"html-keyboard-response","140","433014","0.0-19.0-1.1","60fcdd3be2ae9576df065728","bdp_trlrn","Wed Mar 15 2023 12:19:24 GMT-0700 (Mountain Standard Time)","837255","Trustworthy,Untrustworthy","","","","decision","","3514","","<div class='trialDiv'><img src='trustrating_stim/white_00807_941205_fb_edt.bmp'><br><font class='baseline'><strong>David</strong><p>Choose number of points to send.</font><div class='respPicDiv'><img src='img/responseButtonOffersNo0L.png' class='respPic'></div></div>","2","1","David","0","Kept","0.35,0.8","8","0.35","trustrating_stim/white_00807_941205_fb_edt.bmp","2","8","2"
"html-keyboard-response","141","433273","0.0-19.0-2.1","60fcdd3be2ae9576df065728","bdp_trlrn","Wed Mar 15 2023 12:19:24 GMT-0700 (Mountain Standard Time)","837255","Trustworthy,Untrustworthy","","","","decisionFB","","null","","<div class='trialDiv'><img src='trustrating_stim/white_00807_941205_fb_edt.bmp'><br><font class='baseline'><strong>David</strong><p>Choose number of points to send.</font><div class='respPicDiv'><img src='img/responseButtonOffersNo0L2.png' class='respPic'></div></div>","null","1","David","0","Kept","0.35,0.8","8","0.35","trustrating_stim/white_00807_941205_fb_edt.bmp","2","6","2"
"html-keyboard-response","142","434282","0.0-19.0-3.1","60fcdd3be2ae9576df065728","bdp_trlrn","Wed Mar 15 2023 12:19:24 GMT-0700 (Mountain Standard Time)","837255","Trustworthy,Untrustworthy","","","","feedback","","null","","<div class='trialDiv'><img src='trustrating_stim/white_00807_941205_fb_edt.bmp'><br><font class='baseline'><strong>David</strong><p>Received: <strong>8</strong></font> &nbsp; &nbsp; &nbsp; &nbsp; &nbsp; &nbsp;<font class='negOutcome'>Shared back: <strong>0</strong></font></font><div class='respPicDiv'><img src='img/responseButtonOffersNo0_wht.png' class='respPic'></div></div>","null","1","David","0","Kept","0.35,0.8","8","0.35","trustrating_stim/white_00807_941205_fb_edt.bmp","2","6","2"
"html-keyboard-response","143","437435","0.0-19.0-1.2","60fcdd3be2ae9576df065728","bdp_trlrn","Wed Mar 15 2023 12:19:24 GMT-0700 (Mountain Standard Time)","837255","Trustworthy,Untrustworthy","","","","decision","","3151","","<div class='trialDiv'><img src='trustrating_stim/white_00602_940928_fb_edt.bmp'><br><font class='baseline'><strong>Joseph</strong><p>Choose number of points to send.</font><div class='respPicDiv'><img src='img/responseButtonOffersNo0L.png' class='respPic'></div></div>","2","1","Joseph","7","Kept","0.65,0.2","13","0.65","trustrating_stim/white_00602_940928_fb_edt.bmp","4","11","3"
"html-keyboard-response","144","437690","0.0-19.0-2.2","60fcdd3be2ae9576df065728","bdp_trlrn","Wed Mar 15 2023 12:19:24 GMT-0700 (Mountain Standard Time)","837255","Trustworthy,Untrustworthy","","","","decisionFB","","null","","<div class='trialDiv'><img src='trustrating_stim/white_00602_940928_fb_edt.bmp'><br><font class='baseline'><strong>Joseph</strong><p>Choose number of points to send.</font><div class='respPicDiv'><img src='img/responseButtonOffersNo0L2.png' class='respPic'></div></div>","null","1","Joseph","7","Kept","0.65,0.2","13","0.65","trustrating_stim/white_00602_940928_fb_edt.bmp","4","9","3"
"html-keyboard-response","145","438699","0.0-19.0-3.2","60fcdd3be2ae9576df065728","bdp_trlrn","Wed Mar 15 2023 12:19:24 GMT-0700 (Mountain Standard Time)","837255","Trustworthy,Untrustworthy","","","","feedback","","null","","<div class='trialDiv'><img src='trustrating_stim/white_00602_940928_fb_edt.bmp'><br><font class='baseline'><strong>Joseph</strong><p>Received: <strong>8</strong></font> &nbsp; &nbsp; &nbsp; &nbsp; &nbsp; &nbsp;<font class='negOutcome'>Shared back: <strong>0</strong></font></font><div class='respPicDiv'><img src='img/responseButtonOffersNo0_wht.png' class='respPic'></div></div>","null","1","Joseph","7","Kept","0.65,0.2","13","0.65","trustrating_stim/white_00602_940928_fb_edt.bmp","4","9","3"
"html-keyboard-response","146","439743","0.0-19.0-1.3","60fcdd3be2ae9576df065728","bdp_trlrn","Wed Mar 15 2023 12:19:24 GMT-0700 (Mountain Standard Time)","837255","Trustworthy,Untrustworthy","","","","decision","","1041","","<div class='trialDiv'><img src='trustrating_stim/white_00807_941205_fb_edt.bmp'><br><font class='baseline'><strong>David</strong><p>Choose number of points to send.</font><div class='respPicDiv'><img src='img/responseButtonOffersNo0L.png' class='respPic'></div></div>","1","2","David","0","Kept","0.35,0.8","8","0.35","trustrating_stim/white_00807_941205_fb_edt.bmp","2","14","4"
"html-keyboard-response","147","440002","0.0-19.0-2.3","60fcdd3be2ae9576df065728","bdp_trlrn","Wed Mar 15 2023 12:19:24 GMT-0700 (Mountain Standard Time)","837255","Trustworthy,Untrustworthy","","","","decisionFB","","null","","<div class='trialDiv'><img src='trustrating_stim/white_00807_941205_fb_edt.bmp'><br><font class='baseline'><strong>David</strong><p>Choose number of points to send.</font><div class='respPicDiv'><img src='img/responseButtonOffersNo0L1.png' class='respPic'></div></div>","null","2","David","0","Kept","0.35,0.8","8","0.35","trustrating_stim/white_00807_941205_fb_edt.bmp","2","13","4"
"html-keyboard-response","148","441010","0.0-19.0-3.3","60fcdd3be2ae9576df065728","bdp_trlrn","Wed Mar 15 2023 12:19:24 GMT-0700 (Mountain Standard Time)","837255","Trustworthy,Untrustworthy","","","","feedback","","null","","<div class='trialDiv'><img src='trustrating_stim/white_00807_941205_fb_edt.bmp'><br><font class='baseline'><strong>David</strong><p>Received: <strong>4</strong></font> &nbsp; &nbsp; &nbsp; &nbsp; &nbsp; &nbsp;<font class='negOutcome'>Shared back: <strong>0</strong></font></font><div class='respPicDiv'><img src='img/responseButtonOffersNo0_wht.png' class='respPic'></div></div>","null","2","David","0","Kept","0.35,0.8","8","0.35","trustrating_stim/white_00807_941205_fb_edt.bmp","2","13","4"
"html-keyboard-response","149","443366","0.0-19.0-1.4","60fcdd3be2ae9576df065728","bdp_trlrn","Wed Mar 15 2023 12:19:24 GMT-0700 (Mountain Standard Time)","837255","Trustworthy,Untrustworthy","","","","decision","","2355","","<div class='trialDiv'><img src='trustrating_stim/white_mw066.bmp'><br><font class='baseline'><strong>Sebastian</strong><p>Choose number of points to send.</font><div class='respPicDiv'><img src='img/responseButtonOffersNo0L.png' class='respPic'></div></div>","1","2","Sebastian","11","Shared","0.35,0.65","13","0.35","trustrating_stim/white_mw066.bmp","5.5","18","5"
"html-keyboard-response","150","443627","0.0-19.0-2.4","60fcdd3be2ae9576df065728","bdp_trlrn","Wed Mar 15 2023 12:19:24 GMT-0700 (Mountain Standard Time)","837255","Trustworthy,Untrustworthy","","","","decisionFB","","null","","<div class='trialDiv'><img src='trustrating_stim/white_mw066.bmp'><br><font class='baseline'><strong>Sebastian</strong><p>Choose number of points to send.</font><div class='respPicDiv'><img src='img/responseButtonOffersNo0L1.png' class='respPic'></div></div>","null","2","Sebastian","11","Shared","0.35,0.65","13","0.35","trustrating_stim/white_mw066.bmp","5.5","17","5"
"html-keyboard-response","151","444634","0.0-19.0-3.4","60fcdd3be2ae9576df065728","bdp_trlrn","Wed Mar 15 2023 12:19:24 GMT-0700 (Mountain Standard Time)","837255","Trustworthy,Untrustworthy","","","","feedback","","null","","<div class='trialDiv'><img src='trustrating_stim/white_mw066.bmp'><br><font class='baseline'><strong>Sebastian</strong><p>Received: <strong>4</strong></font> &nbsp; &nbsp; &nbsp; &nbsp; &nbsp; &nbsp;<font class='posOutcome'>Shared back: <strong>2</strong></font></font><div class='respPicDiv'><img src='img/responseButtonOffersNo0_wht.png' class='respPic'></div></div>","null","2","Sebastian","11","Shared","0.35,0.65","13","0.35","trustrating_stim/white_mw066.bmp","5.5","19","5"
"html-keyboard-response","152","445765","0.0-19.0-1.5","60fcdd3be2ae9576df065728","bdp_trlrn","Wed Mar 15 2023 12:19:24 GMT-0700 (Mountain Standard Time)","837255","Trustworthy,Untrustworthy","","","","decision","","1129","","<div class='trialDiv'><img src='trustrating_stim/white_00602_940928_fb_edt.bmp'><br><font class='baseline'><strong>Joseph</strong><p>Choose number of points to send.</font><div class='respPicDiv'><img src='img/responseButtonOffersNo0L.png' class='respPic'></div></div>","1","2","Joseph","7","Kept","0.65,0.2","13","0.65","trustrating_stim/white_00602_940928_fb_edt.bmp","4","24","6"
"html-keyboard-response","153","446025","0.0-19.0-2.5","60fcdd3be2ae9576df065728","bdp_trlrn","Wed Mar 15 2023 12:19:24 GMT-0700 (Mountain Standard Time)","837255","Trustworthy,Untrustworthy","","","","decisionFB","","null","","<div class='trialDiv'><img src='trustrating_stim/white_00602_940928_fb_edt.bmp'><br><font class='baseline'><strong>Joseph</strong><p>Choose number of points to send.</font><div class='respPicDiv'><img src='img/responseButtonOffersNo0L1.png' class='respPic'></div></div>","null","2","Joseph","7","Kept","0.65,0.2","13","0.65","trustrating_stim/white_00602_940928_fb_edt.bmp","4","23","6"
"html-keyboard-response","154","447034","0.0-19.0-3.5","60fcdd3be2ae9576df065728","bdp_trlrn","Wed Mar 15 2023 12:19:24 GMT-0700 (Mountain Standard Time)","837255","Trustworthy,Untrustworthy","","","","feedback","","null","","<div class='trialDiv'><img src='trustrating_stim/white_00602_940928_fb_edt.bmp'><br><font class='baseline'><strong>Joseph</strong><p>Received: <strong>4</strong></font> &nbsp; &nbsp; &nbsp; &nbsp; &nbsp; &nbsp;<font class='negOutcome'>Shared back: <strong>0</strong></font></font><div class='respPicDiv'><img src='img/responseButtonOffersNo0_wht.png' class='respPic'></div></div>","null","2","Joseph","7","Kept","0.65,0.2","13","0.65","trustrating_stim/white_00602_940928_fb_edt.bmp","4","23","6"
"html-keyboard-response","155","448496","0.0-19.0-1.6","60fcdd3be2ae9576df065728","bdp_trlrn","Wed Mar 15 2023 12:19:24 GMT-0700 (Mountain Standard Time)","837255","Trustworthy,Untrustworthy","","","","decision","","1460","","<div class='trialDiv'><img src='trustrating_stim/white_00807_941205_fb_edt.bmp'><br><font class='baseline'><strong>David</strong><p>Choose number of points to send.</font><div class='respPicDiv'><img src='img/responseButtonOffersNo0L.png' class='respPic'></div></div>","3","3","David","0","Kept","0.35,0.8","8","0.35","trustrating_stim/white_00807_941205_fb_edt.bmp","2","28","7"
"html-keyboard-response","156","448757","0.0-19.0-2.6","60fcdd3be2ae9576df065728","bdp_trlrn","Wed Mar 15 2023 12:19:24 GMT-0700 (Mountain Standard Time)","837255","Trustworthy,Untrustworthy","","","","decisionFB","","null","","<div class='trialDiv'><img src='trustrating_stim/white_00807_941205_fb_edt.bmp'><br><font class='baseline'><strong>David</strong><p>Choose number of points to send.</font><div class='respPicDiv'><img src='img/responseButtonOffersNo0L3.png' class='respPic'></div></div>","null","3","David","0","Kept","0.35,0.8","8","0.35","trustrating_stim/white_00807_941205_fb_edt.bmp","2","25","7"
"html-keyboard-response","157","449762","0.0-19.0-3.6","60fcdd3be2ae9576df065728","bdp_trlrn","Wed Mar 15 2023 12:19:24 GMT-0700 (Mountain Standard Time)","837255","Trustworthy,Untrustworthy","","","","feedback","","null","","<div class='trialDiv'><img src='trustrating_stim/white_00807_941205_fb_edt.bmp'><br><font class='baseline'><strong>David</strong><p>Received: <strong>12</strong></font> &nbsp; &nbsp; &nbsp; &nbsp; &nbsp; &nbsp;<font class='negOutcome'>Shared back: <strong>0</strong></font></font><div class='respPicDiv'><img src='img/responseButtonOffersNo0_wht.png' class='respPic'></div></div>","null","3","David","0","Kept","0.35,0.8","8","0.35","trustrating_stim/white_00807_941205_fb_edt.bmp","2","25","7"
"html-keyboard-response","158","451268","0.0-19.0-1.7","60fcdd3be2ae9576df065728","bdp_trlrn","Wed Mar 15 2023 12:19:24 GMT-0700 (Mountain Standard Time)","837255","Trustworthy,Untrustworthy","","","","decision","","1505","","<div class='trialDiv'><img src='trustrating_stim/white_mw066.bmp'><br><font class='baseline'><strong>Sebastian</strong><p>Choose number of points to send.</font><div class='respPicDiv'><img src='img/responseButtonOffersNo0L.png' class='respPic'></div></div>","1","3","Sebastian","11","Kept","0.35,0.65","13","0.35","trustrating_stim/white_mw066.bmp","5.5","30","8"
"html-keyboard-response","159","451523","0.0-19.0-2.7","60fcdd3be2ae9576df065728","bdp_trlrn","Wed Mar 15 2023 12:19:24 GMT-0700 (Mountain Standard Time)","837255","Trustworthy,Untrustworthy","","","","decisionFB","","null","","<div class='trialDiv'><img src='trustrating_stim/white_mw066.bmp'><br><font class='baseline'><strong>Sebastian</strong><p>Choose number of points to send.</font><div class='respPicDiv'><img src='img/responseButtonOffersNo0L1.png' class='respPic'></div></div>","null","3","Sebastian","11","Kept","0.35,0.65","13","0.35","trustrating_stim/white_mw066.bmp","5.5","29","8"
"html-keyboard-response","160","452530","0.0-19.0-3.7","60fcdd3be2ae9576df065728","bdp_trlrn","Wed Mar 15 2023 12:19:24 GMT-0700 (Mountain Standard Time)","837255","Trustworthy,Untrustworthy","","","","feedback","","null","","<div class='trialDiv'><img src='trustrating_stim/white_mw066.bmp'><br><font class='baseline'><strong>Sebastian</strong><p>Received: <strong>4</strong></font> &nbsp; &nbsp; &nbsp; &nbsp; &nbsp; &nbsp;<font class='negOutcome'>Shared back: <strong>0</strong></font></font><div class='respPicDiv'><img src='img/responseButtonOffersNo0_wht.png' class='respPic'></div></div>","null","3","Sebastian","11","Kept","0.35,0.65","13","0.35","trustrating_stim/white_mw066.bmp","5.5","29","8"
"html-keyboard-response","161","453447","0.0-19.0-1.8","60fcdd3be2ae9576df065728","bdp_trlrn","Wed Mar 15 2023 12:19:24 GMT-0700 (Mountain Standard Time)","837255","Trustworthy,Untrustworthy","","","","decision","","915","","<div class='trialDiv'><img src='trustrating_stim/white_00602_940928_fb_edt.bmp'><br><font class='baseline'><strong>Joseph</strong><p>Choose number of points to send.</font><div class='respPicDiv'><img src='img/responseButtonOffersNo0L.png' class='respPic'></div></div>","2","3","Joseph","7","Kept","0.65,0.2","13","0.65","trustrating_stim/white_00602_940928_fb_edt.bmp","4","34","9"
"html-keyboard-response","162","453706","0.0-19.0-2.8","60fcdd3be2ae9576df065728","bdp_trlrn","Wed Mar 15 2023 12:19:24 GMT-0700 (Mountain Standard Time)","837255","Trustworthy,Untrustworthy","","","","decisionFB","","null","","<div class='trialDiv'><img src='trustrating_stim/white_00602_940928_fb_edt.bmp'><br><font class='baseline'><strong>Joseph</strong><p>Choose number of points to send.</font><div class='respPicDiv'><img src='img/responseButtonOffersNo0L2.png' class='respPic'></div></div>","null","3","Joseph","7","Kept","0.65,0.2","13","0.65","trustrating_stim/white_00602_940928_fb_edt.bmp","4","32","9"
"html-keyboard-response","163","454713","0.0-19.0-3.8","60fcdd3be2ae9576df065728","bdp_trlrn","Wed Mar 15 2023 12:19:24 GMT-0700 (Mountain Standard Time)","837255","Trustworthy,Untrustworthy","","","","feedback","","null","","<div class='trialDiv'><img src='trustrating_stim/white_00602_940928_fb_edt.bmp'><br><font class='baseline'><strong>Joseph</strong><p>Received: <strong>8</strong></font> &nbsp; &nbsp; &nbsp; &nbsp; &nbsp; &nbsp;<font class='negOutcome'>Shared back: <strong>0</strong></font></font><div class='respPicDiv'><img src='img/responseButtonOffersNo0_wht.png' class='respPic'></div></div>","null","3","Joseph","7","Kept","0.65,0.2","13","0.65","trustrating_stim/white_00602_940928_fb_edt.bmp","4","32","9"
"html-keyboard-response","164","455374","0.0-19.0-1.9","60fcdd3be2ae9576df065728","bdp_trlrn","Wed Mar 15 2023 12:19:24 GMT-0700 (Mountain Standard Time)","837255","Trustworthy,Untrustworthy","","","","decision","","658","","<div class='trialDiv'><img src='trustrating_stim/white_00807_941205_fb_edt.bmp'><br><font class='baseline'><strong>David</strong><p>Choose number of points to send.</font><div class='respPicDiv'><img src='img/responseButtonOffersNo0L.png' class='respPic'></div></div>","1","4","David","0","Shared","0.35,0.8","8","0.35","trustrating_stim/white_00807_941205_fb_edt.bmp","2","37","10"
"html-keyboard-response","165","455635","0.0-19.0-2.9","60fcdd3be2ae9576df065728","bdp_trlrn","Wed Mar 15 2023 12:19:24 GMT-0700 (Mountain Standard Time)","837255","Trustworthy,Untrustworthy","","","","decisionFB","","null","","<div class='trialDiv'><img src='trustrating_stim/white_00807_941205_fb_edt.bmp'><br><font class='baseline'><strong>David</strong><p>Choose number of points to send.</font><div class='respPicDiv'><img src='img/responseButtonOffersNo0L1.png' class='respPic'></div></div>","null","4","David","0","Shared","0.35,0.8","8","0.35","trustrating_stim/white_00807_941205_fb_edt.bmp","2","36","10"
"html-keyboard-response","166","456644","0.0-19.0-3.9","60fcdd3be2ae9576df065728","bdp_trlrn","Wed Mar 15 2023 12:19:24 GMT-0700 (Mountain Standard Time)","837255","Trustworthy,Untrustworthy","","","","feedback","","null","","<div class='trialDiv'><img src='trustrating_stim/white_00807_941205_fb_edt.bmp'><br><font class='baseline'><strong>David</strong><p>Received: <strong>4</strong></font> &nbsp; &nbsp; &nbsp; &nbsp; &nbsp; &nbsp;<font class='posOutcome'>Shared back: <strong>2</strong></font></font><div class='respPicDiv'><img src='img/responseButtonOffersNo0_wht.png' class='respPic'></div></div>","null","4","David","0","Shared","0.35,0.8","8","0.35","trustrating_stim/white_00807_941205_fb_edt.bmp","2","38","10"
"html-keyboard-response","167","459153","0.0-19.0-1.10","60fcdd3be2ae9576df065728","bdp_trlrn","Wed Mar 15 2023 12:19:24 GMT-0700 (Mountain Standard Time)","837255","Trustworthy,Untrustworthy","","","","decision","","2507","","<div class='trialDiv'><img src='trustrating_stim/white_mw066.bmp'><br><font class='baseline'><strong>Sebastian</strong><p>Choose number of points to send.</font><div class='respPicDiv'><img src='img/responseButtonOffersNo0L.png' class='respPic'></div></div>","2","4","Sebastian","11","Kept","0.35,0.65","13","0.35","trustrating_stim/white_mw066.bmp","5.5","43","11"
"html-keyboard-response","168","459413","0.0-19.0-2.10","60fcdd3be2ae9576df065728","bdp_trlrn","Wed Mar 15 2023 12:19:24 GMT-0700 (Mountain Standard Time)","837255","Trustworthy,Untrustworthy","","","","decisionFB","","null","","<div class='trialDiv'><img src='trustrating_stim/white_mw066.bmp'><br><font class='baseline'><strong>Sebastian</strong><p>Choose number of points to send.</font><div class='respPicDiv'><img src='img/responseButtonOffersNo0L2.png' class='respPic'></div></div>","null","4","Sebastian","11","Kept","0.35,0.65","13","0.35","trustrating_stim/white_mw066.bmp","5.5","41","11"
"html-keyboard-response","169","460421","0.0-19.0-3.10","60fcdd3be2ae9576df065728","bdp_trlrn","Wed Mar 15 2023 12:19:24 GMT-0700 (Mountain Standard Time)","837255","Trustworthy,Untrustworthy","","","","feedback","","null","","<div class='trialDiv'><img src='trustrating_stim/white_mw066.bmp'><br><font class='baseline'><strong>Sebastian</strong><p>Received: <strong>8</strong></font> &nbsp; &nbsp; &nbsp; &nbsp; &nbsp; &nbsp;<font class='negOutcome'>Shared back: <strong>0</strong></font></font><div class='respPicDiv'><img src='img/responseButtonOffersNo0_wht.png' class='respPic'></div></div>","null","4","Sebastian","11","Kept","0.35,0.65","13","0.35","trustrating_stim/white_mw066.bmp","5.5","41","11"
"html-keyboard-response","170","461467","0.0-19.0-1.11","60fcdd3be2ae9576df065728","bdp_trlrn","Wed Mar 15 2023 12:19:24 GMT-0700 (Mountain Standard Time)","837255","Trustworthy,Untrustworthy","","","","decision","","1044","","<div class='trialDiv'><img src='trustrating_stim/white_00602_940928_fb_edt.bmp'><br><font class='baseline'><strong>Joseph</strong><p>Choose number of points to send.</font><div class='respPicDiv'><img src='img/responseButtonOffersNo0L.png' class='respPic'></div></div>","2","4","Joseph","7","Shared","0.65,0.2","13","0.65","trustrating_stim/white_00602_940928_fb_edt.bmp","4","46","12"
"html-keyboard-response","171","461722","0.0-19.0-2.11","60fcdd3be2ae9576df065728","bdp_trlrn","Wed Mar 15 2023 12:19:24 GMT-0700 (Mountain Standard Time)","837255","Trustworthy,Untrustworthy","","","","decisionFB","","null","","<div class='trialDiv'><img src='trustrating_stim/white_00602_940928_fb_edt.bmp'><br><font class='baseline'><strong>Joseph</strong><p>Choose number of points to send.</font><div class='respPicDiv'><img src='img/responseButtonOffersNo0L2.png' class='respPic'></div></div>","null","4","Joseph","7","Shared","0.65,0.2","13","0.65","trustrating_stim/white_00602_940928_fb_edt.bmp","4","44","12"
"html-keyboard-response","172","462730","0.0-19.0-3.11","60fcdd3be2ae9576df065728","bdp_trlrn","Wed Mar 15 2023 12:19:24 GMT-0700 (Mountain Standard Time)","837255","Trustworthy,Untrustworthy","","","","feedback","","null","","<div class='trialDiv'><img src='trustrating_stim/white_00602_940928_fb_edt.bmp'><br><font class='baseline'><strong>Joseph</strong><p>Received: <strong>8</strong></font> &nbsp; &nbsp; &nbsp; &nbsp; &nbsp; &nbsp;<font class='posOutcome'>Shared back: <strong>4</strong></font></font><div class='respPicDiv'><img src='img/responseButtonOffersNo0_wht.png' class='respPic'></div></div>","null","4","Joseph","7","Shared","0.65,0.2","13","0.65","trustrating_stim/white_00602_940928_fb_edt.bmp","4","48","12"
"html-keyboard-response","173","464501","0.0-19.0-1.12","60fcdd3be2ae9576df065728","bdp_trlrn","Wed Mar 15 2023 12:19:24 GMT-0700 (Mountain Standard Time)","837255","Trustworthy,Untrustworthy","","","","decision","","1770","","<div class='trialDiv'><img src='trustrating_stim/white_00807_941205_fb_edt.bmp'><br><font class='baseline'><strong>David</strong><p>Choose number of points to send.</font><div class='respPicDiv'><img src='img/responseButtonOffersNo0L.png' class='respPic'></div></div>","1","5","David","0","Shared","0.35,0.8","8","0.35","trustrating_stim/white_00807_941205_fb_edt.bmp","2","53","13"
"html-keyboard-response","174","464763","0.0-19.0-2.12","60fcdd3be2ae9576df065728","bdp_trlrn","Wed Mar 15 2023 12:19:24 GMT-0700 (Mountain Standard Time)","837255","Trustworthy,Untrustworthy","","","","decisionFB","","null","","<div class='trialDiv'><img src='trustrating_stim/white_00807_941205_fb_edt.bmp'><br><font class='baseline'><strong>David</strong><p>Choose number of points to send.</font><div class='respPicDiv'><img src='img/responseButtonOffersNo0L1.png' class='respPic'></div></div>","null","5","David","0","Shared","0.35,0.8","8","0.35","trustrating_stim/white_00807_941205_fb_edt.bmp","2","52","13"
"html-keyboard-response","175","465772","0.0-19.0-3.12","60fcdd3be2ae9576df065728","bdp_trlrn","Wed Mar 15 2023 12:19:24 GMT-0700 (Mountain Standard Time)","837255","Trustworthy,Untrustworthy","","","","feedback","","null","","<div class='trialDiv'><img src='trustrating_stim/white_00807_941205_fb_edt.bmp'><br><font class='baseline'><strong>David</strong><p>Received: <strong>4</strong></font> &nbsp; &nbsp; &nbsp; &nbsp; &nbsp; &nbsp;<font class='posOutcome'>Shared back: <strong>2</strong></font></font><div class='respPicDiv'><img src='img/responseButtonOffersNo0_wht.png' class='respPic'></div></div>","null","5","David","0","Shared","0.35,0.8","8","0.35","trustrating_stim/white_00807_941205_fb_edt.bmp","2","54","13"
"html-keyboard-response","176","468397","0.0-19.0-1.13","60fcdd3be2ae9576df065728","bdp_trlrn","Wed Mar 15 2023 12:19:24 GMT-0700 (Mountain Standard Time)","837255","Trustworthy,Untrustworthy","","","","decision","","2622","","<div class='trialDiv'><img src='trustrating_stim/white_00602_940928_fb_edt.bmp'><br><font class='baseline'><strong>Joseph</strong><p>Choose number of points to send.</font><div class='respPicDiv'><img src='img/responseButtonOffersNo0L.png' class='respPic'></div></div>","3","5","Joseph","7","Shared","0.65,0.2","13","0.65","trustrating_stim/white_00602_940928_fb_edt.bmp","4","59","14"
"html-keyboard-response","177","468658","0.0-19.0-2.13","60fcdd3be2ae9576df065728","bdp_trlrn","Wed Mar 15 2023 12:19:24 GMT-0700 (Mountain Standard Time)","837255","Trustworthy,Untrustworthy","","","","decisionFB","","null","","<div class='trialDiv'><img src='trustrating_stim/white_00602_940928_fb_edt.bmp'><br><font class='baseline'><strong>Joseph</strong><p>Choose number of points to send.</font><div class='respPicDiv'><img src='img/responseButtonOffersNo0L3.png' class='respPic'></div></div>","null","5","Joseph","7","Shared","0.65,0.2","13","0.65","trustrating_stim/white_00602_940928_fb_edt.bmp","4","56","14"
"html-keyboard-response","178","469667","0.0-19.0-3.13","60fcdd3be2ae9576df065728","bdp_trlrn","Wed Mar 15 2023 12:19:24 GMT-0700 (Mountain Standard Time)","837255","Trustworthy,Untrustworthy","","","","feedback","","null","","<div class='trialDiv'><img src='trustrating_stim/white_00602_940928_fb_edt.bmp'><br><font class='baseline'><strong>Joseph</strong><p>Received: <strong>12</strong></font> &nbsp; &nbsp; &nbsp; &nbsp; &nbsp; &nbsp;<font class='posOutcome'>Shared back: <strong>6</strong></font></font><div class='respPicDiv'><img src='img/responseButtonOffersNo0_wht.png' class='respPic'></div></div>","null","5","Joseph","7","Shared","0.65,0.2","13","0.65","trustrating_stim/white_00602_940928_fb_edt.bmp","4","62","14"
"html-keyboard-response","179","471903","0.0-19.0-1.14","60fcdd3be2ae9576df065728","bdp_trlrn","Wed Mar 15 2023 12:19:24 GMT-0700 (Mountain Standard Time)","837255","Trustworthy,Untrustworthy","","","","decision","","2234","","<div class='trialDiv'><img src='trustrating_stim/white_mw066.bmp'><br><font class='baseline'><strong>Sebastian</strong><p>Choose number of points to send.</font><div class='respPicDiv'><img src='img/responseButtonOffersNo0L.png' class='respPic'></div></div>","1","5","Sebastian","11","Kept","0.35,0.65","13","0.35","trustrating_stim/white_mw066.bmp","5.5","67","15"
"html-keyboard-response","180","472161","0.0-19.0-2.14","60fcdd3be2ae9576df065728","bdp_trlrn","Wed Mar 15 2023 12:19:24 GMT-0700 (Mountain Standard Time)","837255","Trustworthy,Untrustworthy","","","","decisionFB","","null","","<div class='trialDiv'><img src='trustrating_stim/white_mw066.bmp'><br><font class='baseline'><strong>Sebastian</strong><p>Choose number of points to send.</font><div class='respPicDiv'><img src='img/responseButtonOffersNo0L1.png' class='respPic'></div></div>","null","5","Sebastian","11","Kept","0.35,0.65","13","0.35","trustrating_stim/white_mw066.bmp","5.5","66","15"
"html-keyboard-response","181","473169","0.0-19.0-3.14","60fcdd3be2ae9576df065728","bdp_trlrn","Wed Mar 15 2023 12:19:24 GMT-0700 (Mountain Standard Time)","837255","Trustworthy,Untrustworthy","","","","feedback","","null","","<div class='trialDiv'><img src='trustrating_stim/white_mw066.bmp'><br><font class='baseline'><strong>Sebastian</strong><p>Received: <strong>4</strong></font> &nbsp; &nbsp; &nbsp; &nbsp; &nbsp; &nbsp;<font class='negOutcome'>Shared back: <strong>0</strong></font></font><div class='respPicDiv'><img src='img/responseButtonOffersNo0_wht.png' class='respPic'></div></div>","null","5","Sebastian","11","Kept","0.35,0.65","13","0.35","trustrating_stim/white_mw066.bmp","5.5","66","15"
"html-keyboard-response","182","474692","0.0-19.0-1.15","60fcdd3be2ae9576df065728","bdp_trlrn","Wed Mar 15 2023 12:19:24 GMT-0700 (Mountain Standard Time)","837255","Trustworthy,Untrustworthy","","","","decision","","1520","","<div class='trialDiv'><img src='trustrating_stim/white_00807_941205_fb_edt.bmp'><br><font class='baseline'><strong>David</strong><p>Choose number of points to send.</font><div class='respPicDiv'><img src='img/responseButtonOffersNo0L.png' class='respPic'></div></div>","2","6","David","0","Kept","0.35,0.8","8","0.35","trustrating_stim/white_00807_941205_fb_edt.bmp","2","71","16"
"html-keyboard-response","183","474945","0.0-19.0-2.15","60fcdd3be2ae9576df065728","bdp_trlrn","Wed Mar 15 2023 12:19:24 GMT-0700 (Mountain Standard Time)","837255","Trustworthy,Untrustworthy","","","","decisionFB","","null","","<div class='trialDiv'><img src='trustrating_stim/white_00807_941205_fb_edt.bmp'><br><font class='baseline'><strong>David</strong><p>Choose number of points to send.</font><div class='respPicDiv'><img src='img/responseButtonOffersNo0L2.png' class='respPic'></div></div>","null","6","David","0","Kept","0.35,0.8","8","0.35","trustrating_stim/white_00807_941205_fb_edt.bmp","2","69","16"
"html-keyboard-response","184","475955","0.0-19.0-3.15","60fcdd3be2ae9576df065728","bdp_trlrn","Wed Mar 15 2023 12:19:24 GMT-0700 (Mountain Standard Time)","837255","Trustworthy,Untrustworthy","","","","feedback","","null","","<div class='trialDiv'><img src='trustrating_stim/white_00807_941205_fb_edt.bmp'><br><font class='baseline'><strong>David</strong><p>Received: <strong>8</strong></font> &nbsp; &nbsp; &nbsp; &nbsp; &nbsp; &nbsp;<font class='negOutcome'>Shared back: <strong>0</strong></font></font><div class='respPicDiv'><img src='img/responseButtonOffersNo0_wht.png' class='respPic'></div></div>","null","6","David","0","Kept","0.35,0.8","8","0.35","trustrating_stim/white_00807_941205_fb_edt.bmp","2","69","16"
"html-keyboard-response","185","477064","0.0-19.0-1.16","60fcdd3be2ae9576df065728","bdp_trlrn","Wed Mar 15 2023 12:19:24 GMT-0700 (Mountain Standard Time)","837255","Trustworthy,Untrustworthy","","","","decision","","1108","","<div class='trialDiv'><img src='trustrating_stim/white_mw066.bmp'><br><font class='baseline'><strong>Sebastian</strong><p>Choose number of points to send.</font><div class='respPicDiv'><img src='img/responseButtonOffersNo0L.png' class='respPic'></div></div>","2","6","Sebastian","11","Kept","0.35,0.65","13","0.35","trustrating_stim/white_mw066.bmp","5.5","74","17"
"html-keyboard-response","186","477320","0.0-19.0-2.16","60fcdd3be2ae9576df065728","bdp_trlrn","Wed Mar 15 2023 12:19:24 GMT-0700 (Mountain Standard Time)","837255","Trustworthy,Untrustworthy","","","","decisionFB","","null","","<div class='trialDiv'><img src='trustrating_stim/white_mw066.bmp'><br><font class='baseline'><strong>Sebastian</strong><p>Choose number of points to send.</font><div class='respPicDiv'><img src='img/responseButtonOffersNo0L2.png' class='respPic'></div></div>","null","6","Sebastian","11","Kept","0.35,0.65","13","0.35","trustrating_stim/white_mw066.bmp","5.5","72","17"
"html-keyboard-response","187","478329","0.0-19.0-3.16","60fcdd3be2ae9576df065728","bdp_trlrn","Wed Mar 15 2023 12:19:24 GMT-0700 (Mountain Standard Time)","837255","Trustworthy,Untrustworthy","","","","feedback","","null","","<div class='trialDiv'><img src='trustrating_stim/white_mw066.bmp'><br><font class='baseline'><strong>Sebastian</strong><p>Received: <strong>8</strong></font> &nbsp; &nbsp; &nbsp; &nbsp; &nbsp; &nbsp;<font class='negOutcome'>Shared back: <strong>0</strong></font></font><div class='respPicDiv'><img src='img/responseButtonOffersNo0_wht.png' class='respPic'></div></div>","null","6","Sebastian","11","Kept","0.35,0.65","13","0.35","trustrating_stim/white_mw066.bmp","5.5","72","17"
"html-keyboard-response","188","479794","0.0-19.0-1.17","60fcdd3be2ae9576df065728","bdp_trlrn","Wed Mar 15 2023 12:19:24 GMT-0700 (Mountain Standard Time)","837255","Trustworthy,Untrustworthy","","","","decision","","1463","","<div class='trialDiv'><img src='trustrating_stim/white_00602_940928_fb_edt.bmp'><br><font class='baseline'><strong>Joseph</strong><p>Choose number of points to send.</font><div class='respPicDiv'><img src='img/responseButtonOffersNo0L.png' class='respPic'></div></div>","3","6","Joseph","7","Kept","0.65,0.2","13","0.65","trustrating_stim/white_00602_940928_fb_edt.bmp","4","77","18"
"html-keyboard-response","189","480048","0.0-19.0-2.17","60fcdd3be2ae9576df065728","bdp_trlrn","Wed Mar 15 2023 12:19:24 GMT-0700 (Mountain Standard Time)","837255","Trustworthy,Untrustworthy","","","","decisionFB","","null","","<div class='trialDiv'><img src='trustrating_stim/white_00602_940928_fb_edt.bmp'><br><font class='baseline'><strong>Joseph</strong><p>Choose number of points to send.</font><div class='respPicDiv'><img src='img/responseButtonOffersNo0L3.png' class='respPic'></div></div>","null","6","Joseph","7","Kept","0.65,0.2","13","0.65","trustrating_stim/white_00602_940928_fb_edt.bmp","4","74","18"
"html-keyboard-response","190","481052","0.0-19.0-3.17","60fcdd3be2ae9576df065728","bdp_trlrn","Wed Mar 15 2023 12:19:24 GMT-0700 (Mountain Standard Time)","837255","Trustworthy,Untrustworthy","","","","feedback","","null","","<div class='trialDiv'><img src='trustrating_stim/white_00602_940928_fb_edt.bmp'><br><font class='baseline'><strong>Joseph</strong><p>Received: <strong>12</strong></font> &nbsp; &nbsp; &nbsp; &nbsp; &nbsp; &nbsp;<font class='negOutcome'>Shared back: <strong>0</strong></font></font><div class='respPicDiv'><img src='img/responseButtonOffersNo0_wht.png' class='respPic'></div></div>","null","6","Joseph","7","Kept","0.65,0.2","13","0.65","trustrating_stim/white_00602_940928_fb_edt.bmp","4","74","18"
"html-keyboard-response","191","481555","0.0-19.0-1.18","60fcdd3be2ae9576df065728","bdp_trlrn","Wed Mar 15 2023 12:19:24 GMT-0700 (Mountain Standard Time)","837255","Trustworthy,Untrustworthy","","","","decision","","501","","<div class='trialDiv'><img src='trustrating_stim/white_mw066.bmp'><br><font class='baseline'><strong>Sebastian</strong><p>Choose number of points to send.</font><div class='respPicDiv'><img src='img/responseButtonOffersNo0L.png' class='respPic'></div></div>","1","7","Sebastian","11","Shared","0.35,0.65","13","0.35","trustrating_stim/white_mw066.bmp","5.5","79","19"
"html-keyboard-response","192","481808","0.0-19.0-2.18","60fcdd3be2ae9576df065728","bdp_trlrn","Wed Mar 15 2023 12:19:24 GMT-0700 (Mountain Standard Time)","837255","Trustworthy,Untrustworthy","","","","decisionFB","","null","","<div class='trialDiv'><img src='trustrating_stim/white_mw066.bmp'><br><font class='baseline'><strong>Sebastian</strong><p>Choose number of points to send.</font><div class='respPicDiv'><img src='img/responseButtonOffersNo0L1.png' class='respPic'></div></div>","null","7","Sebastian","11","Shared","0.35,0.65","13","0.35","trustrating_stim/white_mw066.bmp","5.5","78","19"
"html-keyboard-response","193","482819","0.0-19.0-3.18","60fcdd3be2ae9576df065728","bdp_trlrn","Wed Mar 15 2023 12:19:24 GMT-0700 (Mountain Standard Time)","837255","Trustworthy,Untrustworthy","","","","feedback","","null","","<div class='trialDiv'><img src='trustrating_stim/white_mw066.bmp'><br><font class='baseline'><strong>Sebastian</strong><p>Received: <strong>4</strong></font> &nbsp; &nbsp; &nbsp; &nbsp; &nbsp; &nbsp;<font class='posOutcome'>Shared back: <strong>2</strong></font></font><div class='respPicDiv'><img src='img/responseButtonOffersNo0_wht.png' class='respPic'></div></div>","null","7","Sebastian","11","Shared","0.35,0.65","13","0.35","trustrating_stim/white_mw066.bmp","5.5","80","19"
"html-keyboard-response","194","484624","0.0-19.0-1.19","60fcdd3be2ae9576df065728","bdp_trlrn","Wed Mar 15 2023 12:19:24 GMT-0700 (Mountain Standard Time)","837255","Trustworthy,Untrustworthy","","","","decision","","1803","","<div class='trialDiv'><img src='trustrating_stim/white_00807_941205_fb_edt.bmp'><br><font class='baseline'><strong>David</strong><p>Choose number of points to send.</font><div class='respPicDiv'><img src='img/responseButtonOffersNo0L.png' class='respPic'></div></div>","2","7","David","0","Shared","0.35,0.8","8","0.35","trustrating_stim/white_00807_941205_fb_edt.bmp","2","85","20"
"html-keyboard-response","195","484881","0.0-19.0-2.19","60fcdd3be2ae9576df065728","bdp_trlrn","Wed Mar 15 2023 12:19:24 GMT-0700 (Mountain Standard Time)","837255","Trustworthy,Untrustworthy","","","","decisionFB","","null","","<div class='trialDiv'><img src='trustrating_stim/white_00807_941205_fb_edt.bmp'><br><font class='baseline'><strong>David</strong><p>Choose number of points to send.</font><div class='respPicDiv'><img src='img/responseButtonOffersNo0L2.png' class='respPic'></div></div>","null","7","David","0","Shared","0.35,0.8","8","0.35","trustrating_stim/white_00807_941205_fb_edt.bmp","2","83","20"
"html-keyboard-response","196","485889","0.0-19.0-3.19","60fcdd3be2ae9576df065728","bdp_trlrn","Wed Mar 15 2023 12:19:24 GMT-0700 (Mountain Standard Time)","837255","Trustworthy,Untrustworthy","","","","feedback","","null","","<div class='trialDiv'><img src='trustrating_stim/white_00807_941205_fb_edt.bmp'><br><font class='baseline'><strong>David</strong><p>Received: <strong>8</strong></font> &nbsp; &nbsp; &nbsp; &nbsp; &nbsp; &nbsp;<font class='posOutcome'>Shared back: <strong>4</strong></font></font><div class='respPicDiv'><img src='img/responseButtonOffersNo0_wht.png' class='respPic'></div></div>","null","7","David","0","Shared","0.35,0.8","8","0.35","trustrating_stim/white_00807_941205_fb_edt.bmp","2","87","20"
"html-keyboard-response","197","488576","0.0-19.0-1.20","60fcdd3be2ae9576df065728","bdp_trlrn","Wed Mar 15 2023 12:19:24 GMT-0700 (Mountain Standard Time)","837255","Trustworthy,Untrustworthy","","","","decision","","2686","","<div class='trialDiv'><img src='trustrating_stim/white_00602_940928_fb_edt.bmp'><br><font class='baseline'><strong>Joseph</strong><p>Choose number of points to send.</font><div class='respPicDiv'><img src='img/responseButtonOffersNo0L.png' class='respPic'></div></div>","3","7","Joseph","7","Kept","0.65,0.2","13","0.65","trustrating_stim/white_00602_940928_fb_edt.bmp","4","92","21"
"html-keyboard-response","198","488836","0.0-19.0-2.20","60fcdd3be2ae9576df065728","bdp_trlrn","Wed Mar 15 2023 12:19:24 GMT-0700 (Mountain Standard Time)","837255","Trustworthy,Untrustworthy","","","","decisionFB","","null","","<div class='trialDiv'><img src='trustrating_stim/white_00602_940928_fb_edt.bmp'><br><font class='baseline'><strong>Joseph</strong><p>Choose number of points to send.</font><div class='respPicDiv'><img src='img/responseButtonOffersNo0L3.png' class='respPic'></div></div>","null","7","Joseph","7","Kept","0.65,0.2","13","0.65","trustrating_stim/white_00602_940928_fb_edt.bmp","4","89","21"
"html-keyboard-response","199","489842","0.0-19.0-3.20","60fcdd3be2ae9576df065728","bdp_trlrn","Wed Mar 15 2023 12:19:24 GMT-0700 (Mountain Standard Time)","837255","Trustworthy,Untrustworthy","","","","feedback","","null","","<div class='trialDiv'><img src='trustrating_stim/white_00602_940928_fb_edt.bmp'><br><font class='baseline'><strong>Joseph</strong><p>Received: <strong>12</strong></font> &nbsp; &nbsp; &nbsp; &nbsp; &nbsp; &nbsp;<font class='negOutcome'>Shared back: <strong>0</strong></font></font><div class='respPicDiv'><img src='img/responseButtonOffersNo0_wht.png' class='respPic'></div></div>","null","7","Joseph","7","Kept","0.65,0.2","13","0.65","trustrating_stim/white_00602_940928_fb_edt.bmp","4","89","21"
"html-keyboard-response","200","490470","0.0-19.0-1.21","60fcdd3be2ae9576df065728","bdp_trlrn","Wed Mar 15 2023 12:19:24 GMT-0700 (Mountain Standard Time)","837255","Trustworthy,Untrustworthy","","","","decision","","627","","<div class='trialDiv'><img src='trustrating_stim/white_00807_941205_fb_edt.bmp'><br><font class='baseline'><strong>David</strong><p>Choose number of points to send.</font><div class='respPicDiv'><img src='img/responseButtonOffersNo0L.png' class='respPic'></div></div>","1","8","David","0","Shared","0.35,0.8","8","0.35","trustrating_stim/white_00807_941205_fb_edt.bmp","2","94","22"
"html-keyboard-response","201","490730","0.0-19.0-2.21","60fcdd3be2ae9576df065728","bdp_trlrn","Wed Mar 15 2023 12:19:24 GMT-0700 (Mountain Standard Time)","837255","Trustworthy,Untrustworthy","","","","decisionFB","","null","","<div class='trialDiv'><img src='trustrating_stim/white_00807_941205_fb_edt.bmp'><br><font class='baseline'><strong>David</strong><p>Choose number of points to send.</font><div class='respPicDiv'><img src='img/responseButtonOffersNo0L1.png' class='respPic'></div></div>","null","8","David","0","Shared","0.35,0.8","8","0.35","trustrating_stim/white_00807_941205_fb_edt.bmp","2","93","22"
"html-keyboard-response","202","491737","0.0-19.0-3.21","60fcdd3be2ae9576df065728","bdp_trlrn","Wed Mar 15 2023 12:19:24 GMT-0700 (Mountain Standard Time)","837255","Trustworthy,Untrustworthy","","","","feedback","","null","","<div class='trialDiv'><img src='trustrating_stim/white_00807_941205_fb_edt.bmp'><br><font class='baseline'><strong>David</strong><p>Received: <strong>4</strong></font> &nbsp; &nbsp; &nbsp; &nbsp; &nbsp; &nbsp;<font class='posOutcome'>Shared back: <strong>2</strong></font></font><div class='respPicDiv'><img src='img/responseButtonOffersNo0_wht.png' class='respPic'></div></div>","null","8","David","0","Shared","0.35,0.8","8","0.35","trustrating_stim/white_00807_941205_fb_edt.bmp","2","95","22"
"html-keyboard-response","203","493180","0.0-19.0-1.22","60fcdd3be2ae9576df065728","bdp_trlrn","Wed Mar 15 2023 12:19:24 GMT-0700 (Mountain Standard Time)","837255","Trustworthy,Untrustworthy","","","","decision","","1441","","<div class='trialDiv'><img src='trustrating_stim/white_mw066.bmp'><br><font class='baseline'><strong>Sebastian</strong><p>Choose number of points to send.</font><div class='respPicDiv'><img src='img/responseButtonOffersNo0L.png' class='respPic'></div></div>","4","8","Sebastian","11","Shared","0.35,0.65","13","0.35","trustrating_stim/white_mw066.bmp","5.5","100","23"
"html-keyboard-response","204","493434","0.0-19.0-2.22","60fcdd3be2ae9576df065728","bdp_trlrn","Wed Mar 15 2023 12:19:24 GMT-0700 (Mountain Standard Time)","837255","Trustworthy,Untrustworthy","","","","decisionFB","","null","","<div class='trialDiv'><img src='trustrating_stim/white_mw066.bmp'><br><font class='baseline'><strong>Sebastian</strong><p>Choose number of points to send.</font><div class='respPicDiv'><img src='img/responseButtonOffersNo0L4.png' class='respPic'></div></div>","null","8","Sebastian","11","Shared","0.35,0.65","13","0.35","trustrating_stim/white_mw066.bmp","5.5","96","23"
"html-keyboard-response","205","494441","0.0-19.0-3.22","60fcdd3be2ae9576df065728","bdp_trlrn","Wed Mar 15 2023 12:19:24 GMT-0700 (Mountain Standard Time)","837255","Trustworthy,Untrustworthy","","","","feedback","","null","","<div class='trialDiv'><img src='trustrating_stim/white_mw066.bmp'><br><font class='baseline'><strong>Sebastian</strong><p>Received: <strong>16</strong></font> &nbsp; &nbsp; &nbsp; &nbsp; &nbsp; &nbsp;<font class='posOutcome'>Shared back: <strong>8</strong></font></font><div class='respPicDiv'><img src='img/responseButtonOffersNo0_wht.png' class='respPic'></div></div>","null","8","Sebastian","11","Shared","0.35,0.65","13","0.35","trustrating_stim/white_mw066.bmp","5.5","104","23"
"html-keyboard-response","206","495167","0.0-19.0-1.23","60fcdd3be2ae9576df065728","bdp_trlrn","Wed Mar 15 2023 12:19:24 GMT-0700 (Mountain Standard Time)","837255","Trustworthy,Untrustworthy","","","","decision","","723","","<div class='trialDiv'><img src='trustrating_stim/white_00602_940928_fb_edt.bmp'><br><font class='baseline'><strong>Joseph</strong><p>Choose number of points to send.</font><div class='respPicDiv'><img src='img/responseButtonOffersNo0L.png' class='respPic'></div></div>","2","8","Joseph","7","Kept","0.65,0.2","13","0.65","trustrating_stim/white_00602_940928_fb_edt.bmp","4","109","24"
"html-keyboard-response","207","495427","0.0-19.0-2.23","60fcdd3be2ae9576df065728","bdp_trlrn","Wed Mar 15 2023 12:19:24 GMT-0700 (Mountain Standard Time)","837255","Trustworthy,Untrustworthy","","","","decisionFB","","null","","<div class='trialDiv'><img src='trustrating_stim/white_00602_940928_fb_edt.bmp'><br><font class='baseline'><strong>Joseph</strong><p>Choose number of points to send.</font><div class='respPicDiv'><img src='img/responseButtonOffersNo0L2.png' class='respPic'></div></div>","null","8","Joseph","7","Kept","0.65,0.2","13","0.65","trustrating_stim/white_00602_940928_fb_edt.bmp","4","107","24"
"html-keyboard-response","208","496434","0.0-19.0-3.23","60fcdd3be2ae9576df065728","bdp_trlrn","Wed Mar 15 2023 12:19:24 GMT-0700 (Mountain Standard Time)","837255","Trustworthy,Untrustworthy","","","","feedback","","null","","<div class='trialDiv'><img src='trustrating_stim/white_00602_940928_fb_edt.bmp'><br><font class='baseline'><strong>Joseph</strong><p>Received: <strong>8</strong></font> &nbsp; &nbsp; &nbsp; &nbsp; &nbsp; &nbsp;<font class='negOutcome'>Shared back: <strong>0</strong></font></font><div class='respPicDiv'><img src='img/responseButtonOffersNo0_wht.png' class='respPic'></div></div>","null","8","Joseph","7","Kept","0.65,0.2","13","0.65","trustrating_stim/white_00602_940928_fb_edt.bmp","4","107","24"
"html-keyboard-response","209","497371","0.0-19.0-1.24","60fcdd3be2ae9576df065728","bdp_trlrn","Wed Mar 15 2023 12:19:24 GMT-0700 (Mountain Standard Time)","837255","Trustworthy,Untrustworthy","","","","decision","","935","","<div class='trialDiv'><img src='trustrating_stim/white_00807_941205_fb_edt.bmp'><br><font class='baseline'><strong>David</strong><p>Choose number of points to send.</font><div class='respPicDiv'><img src='img/responseButtonOffersNo0L.png' class='respPic'></div></div>","1","9","David","0","Kept","0.35,0.8","8","0.35","trustrating_stim/white_00807_941205_fb_edt.bmp","2","112","25"
"html-keyboard-response","210","497625","0.0-19.0-2.24","60fcdd3be2ae9576df065728","bdp_trlrn","Wed Mar 15 2023 12:19:24 GMT-0700 (Mountain Standard Time)","837255","Trustworthy,Untrustworthy","","","","decisionFB","","null","","<div class='trialDiv'><img src='trustrating_stim/white_00807_941205_fb_edt.bmp'><br><font class='baseline'><strong>David</strong><p>Choose number of points to send.</font><div class='respPicDiv'><img src='img/responseButtonOffersNo0L1.png' class='respPic'></div></div>","null","9","David","0","Kept","0.35,0.8","8","0.35","trustrating_stim/white_00807_941205_fb_edt.bmp","2","111","25"
"html-keyboard-response","211","498632","0.0-19.0-3.24","60fcdd3be2ae9576df065728","bdp_trlrn","Wed Mar 15 2023 12:19:24 GMT-0700 (Mountain Standard Time)","837255","Trustworthy,Untrustworthy","","","","feedback","","null","","<div class='trialDiv'><img src='trustrating_stim/white_00807_941205_fb_edt.bmp'><br><font class='baseline'><strong>David</strong><p>Received: <strong>4</strong></font> &nbsp; &nbsp; &nbsp; &nbsp; &nbsp; &nbsp;<font class='negOutcome'>Shared back: <strong>0</strong></font></font><div class='respPicDiv'><img src='img/responseButtonOffersNo0_wht.png' class='respPic'></div></div>","null","9","David","0","Kept","0.35,0.8","8","0.35","trustrating_stim/white_00807_941205_fb_edt.bmp","2","111","25"
"html-keyboard-response","212","499341","0.0-19.0-1.25","60fcdd3be2ae9576df065728","bdp_trlrn","Wed Mar 15 2023 12:19:24 GMT-0700 (Mountain Standard Time)","837255","Trustworthy,Untrustworthy","","","","decision","","707","","<div class='trialDiv'><img src='trustrating_stim/white_mw066.bmp'><br><font class='baseline'><strong>Sebastian</strong><p>Choose number of points to send.</font><div class='respPicDiv'><img src='img/responseButtonOffersNo0L.png' class='respPic'></div></div>","3","9","Sebastian","11","Kept","0.35,0.65","13","0.35","trustrating_stim/white_mw066.bmp","5.5","116","26"
"html-keyboard-response","213","499601","0.0-19.0-2.25","60fcdd3be2ae9576df065728","bdp_trlrn","Wed Mar 15 2023 12:19:24 GMT-0700 (Mountain Standard Time)","837255","Trustworthy,Untrustworthy","","","","decisionFB","","null","","<div class='trialDiv'><img src='trustrating_stim/white_mw066.bmp'><br><font class='baseline'><strong>Sebastian</strong><p>Choose number of points to send.</font><div class='respPicDiv'><img src='img/responseButtonOffersNo0L3.png' class='respPic'></div></div>","null","9","Sebastian","11","Kept","0.35,0.65","13","0.35","trustrating_stim/white_mw066.bmp","5.5","113","26"
"html-keyboard-response","214","500611","0.0-19.0-3.25","60fcdd3be2ae9576df065728","bdp_trlrn","Wed Mar 15 2023 12:19:24 GMT-0700 (Mountain Standard Time)","837255","Trustworthy,Untrustworthy","","","","feedback","","null","","<div class='trialDiv'><img src='trustrating_stim/white_mw066.bmp'><br><font class='baseline'><strong>Sebastian</strong><p>Received: <strong>12</strong></font> &nbsp; &nbsp; &nbsp; &nbsp; &nbsp; &nbsp;<font class='negOutcome'>Shared back: <strong>0</strong></font></font><div class='respPicDiv'><img src='img/responseButtonOffersNo0_wht.png' class='respPic'></div></div>","null","9","Sebastian","11","Kept","0.35,0.65","13","0.35","trustrating_stim/white_mw066.bmp","5.5","113","26"
"html-keyboard-response","215","501533","0.0-19.0-1.26","60fcdd3be2ae9576df065728","bdp_trlrn","Wed Mar 15 2023 12:19:24 GMT-0700 (Mountain Standard Time)","837255","Trustworthy,Untrustworthy","","","","decision","","921","","<div class='trialDiv'><img src='trustrating_stim/white_00602_940928_fb_edt.bmp'><br><font class='baseline'><strong>Joseph</strong><p>Choose number of points to send.</font><div class='respPicDiv'><img src='img/responseButtonOffersNo0L.png' class='respPic'></div></div>","2","9","Joseph","7","Shared","0.65,0.2","13","0.65","trustrating_stim/white_00602_940928_fb_edt.bmp","4","118","27"
"html-keyboard-response","216","501792","0.0-19.0-2.26","60fcdd3be2ae9576df065728","bdp_trlrn","Wed Mar 15 2023 12:19:24 GMT-0700 (Mountain Standard Time)","837255","Trustworthy,Untrustworthy","","","","decisionFB","","null","","<div class='trialDiv'><img src='trustrating_stim/white_00602_940928_fb_edt.bmp'><br><font class='baseline'><strong>Joseph</strong><p>Choose number of points to send.</font><div class='respPicDiv'><img src='img/responseButtonOffersNo0L2.png' class='respPic'></div></div>","null","9","Joseph","7","Shared","0.65,0.2","13","0.65","trustrating_stim/white_00602_940928_fb_edt.bmp","4","116","27"
"html-keyboard-response","217","502801","0.0-19.0-3.26","60fcdd3be2ae9576df065728","bdp_trlrn","Wed Mar 15 2023 12:19:24 GMT-0700 (Mountain Standard Time)","837255","Trustworthy,Untrustworthy","","","","feedback","","null","","<div class='trialDiv'><img src='trustrating_stim/white_00602_940928_fb_edt.bmp'><br><font class='baseline'><strong>Joseph</strong><p>Received: <strong>8</strong></font> &nbsp; &nbsp; &nbsp; &nbsp; &nbsp; &nbsp;<font class='posOutcome'>Shared back: <strong>4</strong></font></font><div class='respPicDiv'><img src='img/responseButtonOffersNo0_wht.png' class='respPic'></div></div>","null","9","Joseph","7","Shared","0.65,0.2","13","0.65","trustrating_stim/white_00602_940928_fb_edt.bmp","4","120","27"
"html-keyboard-response","218","504027","0.0-19.0-1.27","60fcdd3be2ae9576df065728","bdp_trlrn","Wed Mar 15 2023 12:19:24 GMT-0700 (Mountain Standard Time)","837255","Trustworthy,Untrustworthy","","","","decision","","1224","","<div class='trialDiv'><img src='trustrating_stim/white_mw066.bmp'><br><font class='baseline'><strong>Sebastian</strong><p>Choose number of points to send.</font><div class='respPicDiv'><img src='img/responseButtonOffersNo0L.png' class='respPic'></div></div>","2","10","Sebastian","11","Kept","0.35,0.65","13","0.35","trustrating_stim/white_mw066.bmp","5.5","125","28"
