"trial_type","trial_index","time_elapsed","internal_node_id","subject_id","task","startTime","totalTime","labels","view_history","rt","event","trial","time","trialtype","success","stimulus","key_press","aground","name","faceID","outcome","agenttype","agentswpt","agentcurrpshare","face","avgRating","point_total","round"
"pavlovia","0","3","0.0-0.0","63f7becf2322a5ba95aad1dc","bdp_trlrn","Mon Mar 13 2023 22:24:45 GMT-0500 (Central Daylight Time)","518287","Untrustworthy,Trustworthy","","","","","","","","","","","","","","","","","","","",""
"instructions","1","2838","0.0-1.0","63f7becf2322a5ba95aad1dc","bdp_trlrn","Mon Mar 13 2023 22:24:45 GMT-0500 (Central Daylight Time)","518287","Untrustworthy,Trustworthy","[{""page_index"":0,""viewing_time"":2835}]","2835","","","","","","","","","","","","","","","","","",""
"","","","","63f7becf2322a5ba95aad1dc","bdp_trlrn","Mon Mar 13 2023 22:24:45 GMT-0500 (Central Daylight Time)","518287","Untrustworthy,Trustworthy","","","fullscreenenter","2","5535","fullscreenenter","","","","","","","","","","","","","",""
"fullscreen","2","6525","0.0-2.0","63f7becf2322a5ba95aad1dc","bdp_trlrn","Mon Mar 13 2023 22:24:45 GMT-0500 (Central Daylight Time)","518287","Untrustworthy,Trustworthy","","","","","","","true","","","","","","","","","","","","",""
"instructions","3","13429","0.0-4.0","63f7becf2322a5ba95aad1dc","bdp_trlrn","Mon Mar 13 2023 22:24:45 GMT-0500 (Central Daylight Time)","518287","Untrustworthy,Trustworthy","[{""page_index"":0,""viewing_time"":5516},{""page_index"":1,""viewing_time"":1387}]","6903","","","","","","","","","","","","","","","","","",""
"instructions","4","14225","0.0-5.0","63f7becf2322a5ba95aad1dc","bdp_trlrn","Mon Mar 13 2023 22:24:45 GMT-0500 (Central Daylight Time)","518287","Untrustworthy,Trustworthy","[{""page_index"":0,""viewing_time"":795}]","795","","","","","","","","","","","","","","","","","",""
"image-keyboard-response","5","17060","0.0-6.0-1.0","63f7becf2322a5ba95aad1dc","bdp_trlrn","Mon Mar 13 2023 22:24:45 GMT-0500 (Central Daylight Time)","518287","Untrustworthy,Trustworthy","","2722","","","","rating","","trustrating_stim/white_mw033.bmp","6","","","","","","","","","","",""
"image-keyboard-response","6","17274","0.0-6.0-2.0","63f7becf2322a5ba95aad1dc","bdp_trlrn","Mon Mar 13 2023 22:24:45 GMT-0500 (Central Daylight Time)","518287","Untrustworthy,Trustworthy","","null","","","","ratingFB","","trustrating_stim/white_mw033.bmp","null","","","","","","","","","","",""
"image-keyboard-response","7","19789","0.0-6.0-1.1","63f7becf2322a5ba95aad1dc","bdp_trlrn","Mon Mar 13 2023 22:24:45 GMT-0500 (Central Daylight Time)","518287","Untrustworthy,Trustworthy","","2405","","","","rating","","trustrating_stim/white_00519_940519_fb_edt.bmp","5","","","","","","","","","","",""
"image-keyboard-response","8","19997","0.0-6.0-2.1","63f7becf2322a5ba95aad1dc","bdp_trlrn","Mon Mar 13 2023 22:24:45 GMT-0500 (Central Daylight Time)","518287","Untrustworthy,Trustworthy","","null","","","","ratingFB","","trustrating_stim/white_00519_940519_fb_edt.bmp","null","","","","","","","","","","",""
"image-keyboard-response","9","21801","0.0-6.0-1.2","63f7becf2322a5ba95aad1dc","bdp_trlrn","Mon Mar 13 2023 22:24:45 GMT-0500 (Central Daylight Time)","518287","Untrustworthy,Trustworthy","","1695","","","","rating","","trustrating_stim/white_mw035.bmp","5","","","","","","","","","","",""
"image-keyboard-response","10","22006","0.0-6.0-2.2","63f7becf2322a5ba95aad1dc","bdp_trlrn","Mon Mar 13 2023 22:24:45 GMT-0500 (Central Daylight Time)","518287","Untrustworthy,Trustworthy","","null","","","","ratingFB","","trustrating_stim/white_mw035.bmp","null","","","","","","","","","","",""
"image-keyboard-response","11","23811","0.0-6.0-1.3","63f7becf2322a5ba95aad1dc","bdp_trlrn","Mon Mar 13 2023 22:24:45 GMT-0500 (Central Daylight Time)","518287","Untrustworthy,Trustworthy","","1696","","","","rating","","trustrating_stim/white_00299_940422_fa_edt.bmp","7","","","","","","","","","","",""
"image-keyboard-response","12","24015","0.0-6.0-2.3","63f7becf2322a5ba95aad1dc","bdp_trlrn","Mon Mar 13 2023 22:24:45 GMT-0500 (Central Daylight Time)","518287","Untrustworthy,Trustworthy","","null","","","","ratingFB","","trustrating_stim/white_00299_940422_fa_edt.bmp","null","","","","","","","","","","",""
"image-keyboard-response","13","25717","0.0-6.0-1.4","63f7becf2322a5ba95aad1dc","bdp_trlrn","Mon Mar 13 2023 22:24:45 GMT-0500 (Central Daylight Time)","518287","Untrustworthy,Trustworthy","","1595","","","","rating","","trustrating_stim/white_00577_940928_fa_edt.bmp","5","","","","","","","","","","",""
"image-keyboard-response","14","25919","0.0-6.0-2.4","63f7becf2322a5ba95aad1dc","bdp_trlrn","Mon Mar 13 2023 22:24:45 GMT-0500 (Central Daylight Time)","518287","Untrustworthy,Trustworthy","","null","","","","ratingFB","","trustrating_stim/white_00577_940928_fa_edt.bmp","null","","","","","","","","","","",""
"image-keyboard-response","15","27223","0.0-6.0-1.5","63f7becf2322a5ba95aad1dc","bdp_trlrn","Mon Mar 13 2023 22:24:45 GMT-0500 (Central Daylight Time)","518287","Untrustworthy,Trustworthy","","1202","","","","rating","","trustrating_stim/white_mw056.bmp","5","","","","","","","","","","",""
"image-keyboard-response","16","27424","0.0-6.0-2.5","63f7becf2322a5ba95aad1dc","bdp_trlrn","Mon Mar 13 2023 22:24:45 GMT-0500 (Central Daylight Time)","518287","Untrustworthy,Trustworthy","","null","","","","ratingFB","","trustrating_stim/white_mw056.bmp","null","","","","","","","","","","",""
"image-keyboard-response","17","29425","0.0-6.0-1.6","63f7becf2322a5ba95aad1dc","bdp_trlrn","Mon Mar 13 2023 22:24:45 GMT-0500 (Central Daylight Time)","518287","Untrustworthy,Trustworthy","","1900","","","","rating","","trustrating_stim/white_00807_941205_fb_edt.bmp","8","","","","","","","","","","",""
"image-keyboard-response","18","29627","0.0-6.0-2.6","63f7becf2322a5ba95aad1dc","bdp_trlrn","Mon Mar 13 2023 22:24:45 GMT-0500 (Central Daylight Time)","518287","Untrustworthy,Trustworthy","","null","","","","ratingFB","","trustrating_stim/white_00807_941205_fb_edt.bmp","null","","","","","","","","","","",""
"image-keyboard-response","19","30872","0.0-6.0-1.7","63f7becf2322a5ba95aad1dc","bdp_trlrn","Mon Mar 13 2023 22:24:45 GMT-0500 (Central Daylight Time)","518287","Untrustworthy,Trustworthy","","1143","","","","rating","","trustrating_stim/white_00120_931230_fa_edt.bmp","7","","","","","","","","","","",""
"image-keyboard-response","20","31074","0.0-6.0-2.7","63f7becf2322a5ba95aad1dc","bdp_trlrn","Mon Mar 13 2023 22:24:45 GMT-0500 (Central Daylight Time)","518287","Untrustworthy,Trustworthy","","null","","","","ratingFB","","trustrating_stim/white_00120_931230_fa_edt.bmp","null","","","","","","","","","","",""
"image-keyboard-response","21","32388","0.0-6.0-1.8","63f7becf2322a5ba95aad1dc","bdp_trlrn","Mon Mar 13 2023 22:24:45 GMT-0500 (Central Daylight Time)","518287","Untrustworthy,Trustworthy","","1211","","","","rating","","trustrating_stim/white_00898_960530_fa_edt.bmp","8","","","","","","","","","","",""
"image-keyboard-response","22","32590","0.0-6.0-2.8","63f7becf2322a5ba95aad1dc","bdp_trlrn","Mon Mar 13 2023 22:24:45 GMT-0500 (Central Daylight Time)","518287","Untrustworthy,Trustworthy","","null","","","","ratingFB","","trustrating_stim/white_00898_960530_fa_edt.bmp","null","","","","","","","","","","",""
"image-keyboard-response","23","35365","0.0-6.0-1.9","63f7becf2322a5ba95aad1dc","bdp_trlrn","Mon Mar 13 2023 22:24:45 GMT-0500 (Central Daylight Time)","518287","Untrustworthy,Trustworthy","","2672","","","","rating","","trustrating_stim/white_mw071.bmp","8","","","","","","","","","","",""
"image-keyboard-response","24","35567","0.0-6.0-2.9","63f7becf2322a5ba95aad1dc","bdp_trlrn","Mon Mar 13 2023 22:24:45 GMT-0500 (Central Daylight Time)","518287","Untrustworthy,Trustworthy","","null","","","","ratingFB","","trustrating_stim/white_mw071.bmp","null","","","","","","","","","","",""
"image-keyboard-response","25","36617","0.0-6.0-1.10","63f7becf2322a5ba95aad1dc","bdp_trlrn","Mon Mar 13 2023 22:24:45 GMT-0500 (Central Daylight Time)","518287","Untrustworthy,Trustworthy","","948","","","","rating","","trustrating_stim/white_mw049.bmp","7","","","","","","","","","","",""
"image-keyboard-response","26","36818","0.0-6.0-2.10","63f7becf2322a5ba95aad1dc","bdp_trlrn","Mon Mar 13 2023 22:24:45 GMT-0500 (Central Daylight Time)","518287","Untrustworthy,Trustworthy","","null","","","","ratingFB","","trustrating_stim/white_mw049.bmp","null","","","","","","","","","","",""
"image-keyboard-response","27","38644","0.0-6.0-1.11","63f7becf2322a5ba95aad1dc","bdp_trlrn","Mon Mar 13 2023 22:24:45 GMT-0500 (Central Daylight Time)","518287","Untrustworthy,Trustworthy","","1725","","","","rating","","trustrating_stim/white_mw097.bmp","5","","","","","","","","","","",""
"image-keyboard-response","28","38845","0.0-6.0-2.11","63f7becf2322a5ba95aad1dc","bdp_trlrn","Mon Mar 13 2023 22:24:45 GMT-0500 (Central Daylight Time)","518287","Untrustworthy,Trustworthy","","null","","","","ratingFB","","trustrating_stim/white_mw097.bmp","null","","","","","","","","","","",""
"image-keyboard-response","29","40383","0.0-6.0-1.12","63f7becf2322a5ba95aad1dc","bdp_trlrn","Mon Mar 13 2023 22:24:45 GMT-0500 (Central Daylight Time)","518287","Untrustworthy,Trustworthy","","1436","","","","rating","","trustrating_stim/white_00785_941205_fb_edt.bmp","4","","","","","","","","","","",""
"image-keyboard-response","30","40584","0.0-6.0-2.12","63f7becf2322a5ba95aad1dc","bdp_trlrn","Mon Mar 13 2023 22:24:45 GMT-0500 (Central Daylight Time)","518287","Untrustworthy,Trustworthy","","null","","","","ratingFB","","trustrating_stim/white_00785_941205_fb_edt.bmp","null","","","","","","","","","","",""
"image-keyboard-response","31","42648","0.0-6.0-1.13","63f7becf2322a5ba95aad1dc","bdp_trlrn","Mon Mar 13 2023 22:24:45 GMT-0500 (Central Daylight Time)","518287","Untrustworthy,Trustworthy","","1963","","","","rating","","trustrating_stim/white_mw084.bmp","5","","","","","","","","","","",""
"image-keyboard-response","32","42849","0.0-6.0-2.13","63f7becf2322a5ba95aad1dc","bdp_trlrn","Mon Mar 13 2023 22:24:45 GMT-0500 (Central Daylight Time)","518287","Untrustworthy,Trustworthy","","null","","","","ratingFB","","trustrating_stim/white_mw084.bmp","null","","","","","","","","","","",""
"image-keyboard-response","33","44096","0.0-6.0-1.14","63f7becf2322a5ba95aad1dc","bdp_trlrn","Mon Mar 13 2023 22:24:45 GMT-0500 (Central Daylight Time)","518287","Untrustworthy,Trustworthy","","1146","","","","rating","","trustrating_stim/white_mw099.bmp","5","","","","","","","","","","",""
"image-keyboard-response","34","44311","0.0-6.0-2.14","63f7becf2322a5ba95aad1dc","bdp_trlrn","Mon Mar 13 2023 22:24:45 GMT-0500 (Central Daylight Time)","518287","Untrustworthy,Trustworthy","","null","","","","ratingFB","","trustrating_stim/white_mw099.bmp","null","","","","","","","","","","",""
"image-keyboard-response","35","45760","0.0-6.0-1.15","63f7becf2322a5ba95aad1dc","bdp_trlrn","Mon Mar 13 2023 22:24:45 GMT-0500 (Central Daylight Time)","518287","Untrustworthy,Trustworthy","","1348","","","","rating","","trustrating_stim/white_mw060.bmp","3","","","","","","","","","","",""
"image-keyboard-response","36","45961","0.0-6.0-2.15","63f7becf2322a5ba95aad1dc","bdp_trlrn","Mon Mar 13 2023 22:24:45 GMT-0500 (Central Daylight Time)","518287","Untrustworthy,Trustworthy","","null","","","","ratingFB","","trustrating_stim/white_mw060.bmp","null","","","","","","","","","","",""
"image-keyboard-response","37","47075","0.0-6.0-1.16","63f7becf2322a5ba95aad1dc","bdp_trlrn","Mon Mar 13 2023 22:24:45 GMT-0500 (Central Daylight Time)","518287","Untrustworthy,Trustworthy","","1012","","","","rating","","trustrating_stim/white_mw063.bmp","2","","","","","","","","","","",""
"image-keyboard-response","38","47276","0.0-6.0-2.16","63f7becf2322a5ba95aad1dc","bdp_trlrn","Mon Mar 13 2023 22:24:45 GMT-0500 (Central Daylight Time)","518287","Untrustworthy,Trustworthy","","null","","","","ratingFB","","trustrating_stim/white_mw063.bmp","null","","","","","","","","","","",""
"image-keyboard-response","39","48934","0.0-6.0-1.17","63f7becf2322a5ba95aad1dc","bdp_trlrn","Mon Mar 13 2023 22:24:45 GMT-0500 (Central Daylight Time)","518287","Untrustworthy,Trustworthy","","1556","","","","rating","","trustrating_stim/white_00109_931230_fa_edt.bmp","5","","","","","","","","","","",""
"image-keyboard-response","40","49135","0.0-6.0-2.17","63f7becf2322a5ba95aad1dc","bdp_trlrn","Mon Mar 13 2023 22:24:45 GMT-0500 (Central Daylight Time)","518287","Untrustworthy,Trustworthy","","null","","","","ratingFB","","trustrating_stim/white_00109_931230_fa_edt.bmp","null","","","","","","","","","","",""
"image-keyboard-response","41","50913","0.0-6.0-1.18","63f7becf2322a5ba95aad1dc","bdp_trlrn","Mon Mar 13 2023 22:24:45 GMT-0500 (Central Daylight Time)","518287","Untrustworthy,Trustworthy","","1675","","","","rating","","trustrating_stim/white_mw053.bmp","8","","","","","","","","","","",""
"image-keyboard-response","42","51114","0.0-6.0-2.18","63f7becf2322a5ba95aad1dc","bdp_trlrn","Mon Mar 13 2023 22:24:45 GMT-0500 (Central Daylight Time)","518287","Untrustworthy,Trustworthy","","null","","","","ratingFB","","trustrating_stim/white_mw053.bmp","null","","","","","","","","","","",""
"image-keyboard-response","43","53044","0.0-6.0-1.19","63f7becf2322a5ba95aad1dc","bdp_trlrn","Mon Mar 13 2023 22:24:45 GMT-0500 (Central Daylight Time)","518287","Untrustworthy,Trustworthy","","1828","","","","rating","","trustrating_stim/white_mw066.bmp","7","","","","","","","","","","",""
"image-keyboard-response","44","53247","0.0-6.0-2.19","63f7becf2322a5ba95aad1dc","bdp_trlrn","Mon Mar 13 2023 22:24:45 GMT-0500 (Central Daylight Time)","518287","Untrustworthy,Trustworthy","","null","","","","ratingFB","","trustrating_stim/white_mw066.bmp","null","","","","","","","","","","",""
"image-keyboard-response","45","54558","0.0-6.0-1.20","63f7becf2322a5ba95aad1dc","bdp_trlrn","Mon Mar 13 2023 22:24:45 GMT-0500 (Central Daylight Time)","518287","Untrustworthy,Trustworthy","","1210","","","","rating","","trustrating_stim/white_mw089.bmp","6","","","","","","","","","","",""
"image-keyboard-response","46","54760","0.0-6.0-2.20","63f7becf2322a5ba95aad1dc","bdp_trlrn","Mon Mar 13 2023 22:24:45 GMT-0500 (Central Daylight Time)","518287","Untrustworthy,Trustworthy","","null","","","","ratingFB","","trustrating_stim/white_mw089.bmp","null","","","","","","","","","","",""
"image-keyboard-response","47","57155","0.0-6.0-1.21","63f7becf2322a5ba95aad1dc","bdp_trlrn","Mon Mar 13 2023 22:24:45 GMT-0500 (Central Daylight Time)","518287","Untrustworthy,Trustworthy","","2294","","","","rating","","trustrating_stim/white_00757_941201_fa_edt.bmp","6","","","","","","","","","","",""
"image-keyboard-response","48","57356","0.0-6.0-2.21","63f7becf2322a5ba95aad1dc","bdp_trlrn","Mon Mar 13 2023 22:24:45 GMT-0500 (Central Daylight Time)","518287","Untrustworthy,Trustworthy","","null","","","","ratingFB","","trustrating_stim/white_00757_941201_fa_edt.bmp","null","","","","","","","","","","",""
"image-keyboard-response","49","58804","0.0-6.0-1.22","63f7becf2322a5ba95aad1dc","bdp_trlrn","Mon Mar 13 2023 22:24:45 GMT-0500 (Central Daylight Time)","518287","Untrustworthy,Trustworthy","","1346","","","","rating","","trustrating_stim/white_00659_941121_fa_edt.bmp","2","","","","","","","","","","",""
"image-keyboard-response","50","59005","0.0-6.0-2.22","63f7becf2322a5ba95aad1dc","bdp_trlrn","Mon Mar 13 2023 22:24:45 GMT-0500 (Central Daylight Time)","518287","Untrustworthy,Trustworthy","","null","","","","ratingFB","","trustrating_stim/white_00659_941121_fa_edt.bmp","null","","","","","","","","","","",""
"image-keyboard-response","51","61215","0.0-6.0-1.23","63f7becf2322a5ba95aad1dc","bdp_trlrn","Mon Mar 13 2023 22:24:45 GMT-0500 (Central Daylight Time)","518287","Untrustworthy,Trustworthy","","2108","","","","rating","","trustrating_stim/white_00761_941201_fb_edt.bmp","7","","","","","","","","","","",""
"image-keyboard-response","52","61417","0.0-6.0-2.23","63f7becf2322a5ba95aad1dc","bdp_trlrn","Mon Mar 13 2023 22:24:45 GMT-0500 (Central Daylight Time)","518287","Untrustworthy,Trustworthy","","null","","","","ratingFB","","trustrating_stim/white_00761_941201_fb_edt.bmp","null","","","","","","","","","","",""
"image-keyboard-response","53","62766","0.0-6.0-1.24","63f7becf2322a5ba95aad1dc","bdp_trlrn","Mon Mar 13 2023 22:24:45 GMT-0500 (Central Daylight Time)","518287","Untrustworthy,Trustworthy","","1247","","","","rating","","trustrating_stim/white_00340_940422_fa_edt.bmp","1","","","","","","","","","","",""
"image-keyboard-response","54","62967","0.0-6.0-2.24","63f7becf2322a5ba95aad1dc","bdp_trlrn","Mon Mar 13 2023 22:24:45 GMT-0500 (Central Daylight Time)","518287","Untrustworthy,Trustworthy","","null","","","","ratingFB","","trustrating_stim/white_00340_940422_fa_edt.bmp","null","","","","","","","","","","",""
"image-keyboard-response","55","64632","0.0-6.0-1.25","63f7becf2322a5ba95aad1dc","bdp_trlrn","Mon Mar 13 2023 22:24:45 GMT-0500 (Central Daylight Time)","518287","Untrustworthy,Trustworthy","","1563","","","","rating","","trustrating_stim/white_00129_931230_fb_edt.bmp","7","","","","","","","","","","",""
"image-keyboard-response","56","64833","0.0-6.0-2.25","63f7becf2322a5ba95aad1dc","bdp_trlrn","Mon Mar 13 2023 22:24:45 GMT-0500 (Central Daylight Time)","518287","Untrustworthy,Trustworthy","","null","","","","ratingFB","","trustrating_stim/white_00129_931230_fb_edt.bmp","null","","","","","","","","","","",""
"image-keyboard-response","57","66960","0.0-6.0-1.26","63f7becf2322a5ba95aad1dc","bdp_trlrn","Mon Mar 13 2023 22:24:45 GMT-0500 (Central Daylight Time)","518287","Untrustworthy,Trustworthy","","2026","","","","rating","","trustrating_stim/white_mw048.bmp","4","","","","","","","","","","",""
"image-keyboard-response","58","67161","0.0-6.0-2.26","63f7becf2322a5ba95aad1dc","bdp_trlrn","Mon Mar 13 2023 22:24:45 GMT-0500 (Central Daylight Time)","518287","Untrustworthy,Trustworthy","","null","","","","ratingFB","","trustrating_stim/white_mw048.bmp","null","","","","","","","","","","",""
"image-keyboard-response","59","68573","0.0-6.0-1.27","63f7becf2322a5ba95aad1dc","bdp_trlrn","Mon Mar 13 2023 22:24:45 GMT-0500 (Central Daylight Time)","518287","Untrustworthy,Trustworthy","","1310","","","","rating","","trustrating_stim/white_mw046.bmp","4","","","","","","","","","","",""
"image-keyboard-response","60","68774","0.0-6.0-2.27","63f7becf2322a5ba95aad1dc","bdp_trlrn","Mon Mar 13 2023 22:24:45 GMT-0500 (Central Daylight Time)","518287","Untrustworthy,Trustworthy","","null","","","","ratingFB","","trustrating_stim/white_mw046.bmp","null","","","","","","","","","","",""
"image-keyboard-response","61","70092","0.0-6.0-1.28","63f7becf2322a5ba95aad1dc","bdp_trlrn","Mon Mar 13 2023 22:24:45 GMT-0500 (Central Daylight Time)","518287","Untrustworthy,Trustworthy","","1217","","","","rating","","trustrating_stim/white_00602_940928_fb_edt.bmp","7","","","","","","","","","","",""
"image-keyboard-response","62","70294","0.0-6.0-2.28","63f7becf2322a5ba95aad1dc","bdp_trlrn","Mon Mar 13 2023 22:24:45 GMT-0500 (Central Daylight Time)","518287","Untrustworthy,Trustworthy","","null","","","","ratingFB","","trustrating_stim/white_00602_940928_fb_edt.bmp","null","","","","","","","","","","",""
"image-keyboard-response","63","71864","0.0-6.0-1.29","63f7becf2322a5ba95aad1dc","bdp_trlrn","Mon Mar 13 2023 22:24:45 GMT-0500 (Central Daylight Time)","518287","Untrustworthy,Trustworthy","","1468","","","","rating","","trustrating_stim/white_00223_940128_fb_edt.bmp","5","","","","","","","","","","",""
"image-keyboard-response","64","72066","0.0-6.0-2.29","63f7becf2322a5ba95aad1dc","bdp_trlrn","Mon Mar 13 2023 22:24:45 GMT-0500 (Central Daylight Time)","518287","Untrustworthy,Trustworthy","","null","","","","ratingFB","","trustrating_stim/white_00223_940128_fb_edt.bmp","null","","","","","","","","","","",""
"image-keyboard-response","65","74598","0.0-6.0-1.30","63f7becf2322a5ba95aad1dc","bdp_trlrn","Mon Mar 13 2023 22:24:45 GMT-0500 (Central Daylight Time)","518287","Untrustworthy,Trustworthy","","2421","","","","rating","","trustrating_stim/white_mw071.bmp","5","","","","","","","","","","",""
"image-keyboard-response","66","74804","0.0-6.0-2.30","63f7becf2322a5ba95aad1dc","bdp_trlrn","Mon Mar 13 2023 22:24:45 GMT-0500 (Central Daylight Time)","518287","Untrustworthy,Trustworthy","","null","","","","ratingFB","","trustrating_stim/white_mw071.bmp","null","","","","","","","","","","",""
"image-keyboard-response","67","77205","0.0-6.0-1.31","63f7becf2322a5ba95aad1dc","bdp_trlrn","Mon Mar 13 2023 22:24:45 GMT-0500 (Central Daylight Time)","518287","Untrustworthy,Trustworthy","","2299","","","","rating","","trustrating_stim/white_00602_940928_fb_edt.bmp","7","","","","","","","","","","",""
"image-keyboard-response","68","77407","0.0-6.0-2.31","63f7becf2322a5ba95aad1dc","bdp_trlrn","Mon Mar 13 2023 22:24:45 GMT-0500 (Central Daylight Time)","518287","Untrustworthy,Trustworthy","","null","","","","ratingFB","","trustrating_stim/white_00602_940928_fb_edt.bmp","null","","","","","","","","","","",""
"image-keyboard-response","69","79780","0.0-6.0-1.32","63f7becf2322a5ba95aad1dc","bdp_trlrn","Mon Mar 13 2023 22:24:45 GMT-0500 (Central Daylight Time)","518287","Untrustworthy,Trustworthy","","2270","","","","rating","","trustrating_stim/white_00519_940519_fb_edt.bmp","6","","","","","","","","","","",""
"image-keyboard-response","70","79981","0.0-6.0-2.32","63f7becf2322a5ba95aad1dc","bdp_trlrn","Mon Mar 13 2023 22:24:45 GMT-0500 (Central Daylight Time)","518287","Untrustworthy,Trustworthy","","null","","","","ratingFB","","trustrating_stim/white_00519_940519_fb_edt.bmp","null","","","","","","","","","","",""
"image-keyboard-response","71","81039","0.0-6.0-1.33","63f7becf2322a5ba95aad1dc","bdp_trlrn","Mon Mar 13 2023 22:24:45 GMT-0500 (Central Daylight Time)","518287","Untrustworthy,Trustworthy","","956","","","","rating","","trustrating_stim/white_00659_941121_fa_edt.bmp","3","","","","","","","","","","",""
"image-keyboard-response","72","81241","0.0-6.0-2.33","63f7becf2322a5ba95aad1dc","bdp_trlrn","Mon Mar 13 2023 22:24:45 GMT-0500 (Central Daylight Time)","518287","Untrustworthy,Trustworthy","","null","","","","ratingFB","","trustrating_stim/white_00659_941121_fa_edt.bmp","null","","","","","","","","","","",""
"image-keyboard-response","73","83838","0.0-6.0-1.34","63f7becf2322a5ba95aad1dc","bdp_trlrn","Mon Mar 13 2023 22:24:45 GMT-0500 (Central Daylight Time)","518287","Untrustworthy,Trustworthy","","2495","","","","rating","","trustrating_stim/white_00577_940928_fa_edt.bmp","4","","","","","","","","","","",""
"image-keyboard-response","74","84041","0.0-6.0-2.34","63f7becf2322a5ba95aad1dc","bdp_trlrn","Mon Mar 13 2023 22:24:45 GMT-0500 (Central Daylight Time)","518287","Untrustworthy,Trustworthy","","null","","","","ratingFB","","trustrating_stim/white_00577_940928_fa_edt.bmp","null","","","","","","","","","","",""
"image-keyboard-response","75","87191","0.0-6.0-1.35","63f7becf2322a5ba95aad1dc","bdp_trlrn","Mon Mar 13 2023 22:24:45 GMT-0500 (Central Daylight Time)","518287","Untrustworthy,Trustworthy","","3049","","","","rating","","trustrating_stim/white_mw048.bmp","5","","","","","","","","","","",""
"image-keyboard-response","76","87394","0.0-6.0-2.35","63f7becf2322a5ba95aad1dc","bdp_trlrn","Mon Mar 13 2023 22:24:45 GMT-0500 (Central Daylight Time)","518287","Untrustworthy,Trustworthy","","null","","","","ratingFB","","trustrating_stim/white_mw048.bmp","null","","","","","","","","","","",""
"image-keyboard-response","77","89522","0.0-6.0-1.36","63f7becf2322a5ba95aad1dc","bdp_trlrn","Mon Mar 13 2023 22:24:45 GMT-0500 (Central Daylight Time)","518287","Untrustworthy,Trustworthy","","2026","","","","rating","","trustrating_stim/white_mw060.bmp","5","","","","","","","","","","",""
"image-keyboard-response","78","89724","0.0-6.0-2.36","63f7becf2322a5ba95aad1dc","bdp_trlrn","Mon Mar 13 2023 22:24:45 GMT-0500 (Central Daylight Time)","518287","Untrustworthy,Trustworthy","","null","","","","ratingFB","","trustrating_stim/white_mw060.bmp","null","","","","","","","","","","",""
"image-keyboard-response","79","91639","0.0-6.0-1.37","63f7becf2322a5ba95aad1dc","bdp_trlrn","Mon Mar 13 2023 22:24:45 GMT-0500 (Central Daylight Time)","518287","Untrustworthy,Trustworthy","","1813","","","","rating","","trustrating_stim/white_mw056.bmp","7","","","","","","","","","","",""
"image-keyboard-response","80","91841","0.0-6.0-2.37","63f7becf2322a5ba95aad1dc","bdp_trlrn","Mon Mar 13 2023 22:24:45 GMT-0500 (Central Daylight Time)","518287","Untrustworthy,Trustworthy","","null","","","","ratingFB","","trustrating_stim/white_mw056.bmp","null","","","","","","","","","","",""
"image-keyboard-response","81","94137","0.0-6.0-1.38","63f7becf2322a5ba95aad1dc","bdp_trlrn","Mon Mar 13 2023 22:24:45 GMT-0500 (Central Daylight Time)","518287","Untrustworthy,Trustworthy","","2194","","","","rating","","trustrating_stim/white_mw089.bmp","5","","","","","","","","","","",""
"image-keyboard-response","82","94339","0.0-6.0-2.38","63f7becf2322a5ba95aad1dc","bdp_trlrn","Mon Mar 13 2023 22:24:45 GMT-0500 (Central Daylight Time)","518287","Untrustworthy,Trustworthy","","null","","","","ratingFB","","trustrating_stim/white_mw089.bmp","null","","","","","","","","","","",""
"image-keyboard-response","83","96395","0.0-6.0-1.39","63f7becf2322a5ba95aad1dc","bdp_trlrn","Mon Mar 13 2023 22:24:45 GMT-0500 (Central Daylight Time)","518287","Untrustworthy,Trustworthy","","1955","","","","rating","","trustrating_stim/white_00299_940422_fa_edt.bmp","7","","","","","","","","","","",""
"image-keyboard-response","84","96597","0.0-6.0-2.39","63f7becf2322a5ba95aad1dc","bdp_trlrn","Mon Mar 13 2023 22:24:45 GMT-0500 (Central Daylight Time)","518287","Untrustworthy,Trustworthy","","null","","","","ratingFB","","trustrating_stim/white_00299_940422_fa_edt.bmp","null","","","","","","","","","","",""
"image-keyboard-response","85","98084","0.0-6.0-1.40","63f7becf2322a5ba95aad1dc","bdp_trlrn","Mon Mar 13 2023 22:24:45 GMT-0500 (Central Daylight Time)","518287","Untrustworthy,Trustworthy","","1385","","","","rating","","trustrating_stim/white_mw084.bmp","6","","","","","","","","","","",""
"image-keyboard-response","86","98286","0.0-6.0-2.40","63f7becf2322a5ba95aad1dc","bdp_trlrn","Mon Mar 13 2023 22:24:45 GMT-0500 (Central Daylight Time)","518287","Untrustworthy,Trustworthy","","null","","","","ratingFB","","trustrating_stim/white_mw084.bmp","null","","","","","","","","","","",""
"image-keyboard-response","87","99509","0.0-6.0-1.41","63f7becf2322a5ba95aad1dc","bdp_trlrn","Mon Mar 13 2023 22:24:45 GMT-0500 (Central Daylight Time)","518287","Untrustworthy,Trustworthy","","1121","","","","rating","","trustrating_stim/white_mw063.bmp","5","","","","","","","","","","",""
"image-keyboard-response","88","99711","0.0-6.0-2.41","63f7becf2322a5ba95aad1dc","bdp_trlrn","Mon Mar 13 2023 22:24:45 GMT-0500 (Central Daylight Time)","518287","Untrustworthy,Trustworthy","","null","","","","ratingFB","","trustrating_stim/white_mw063.bmp","null","","","","","","","","","","",""
"image-keyboard-response","89","101089","0.0-6.0-1.42","63f7becf2322a5ba95aad1dc","bdp_trlrn","Mon Mar 13 2023 22:24:45 GMT-0500 (Central Daylight Time)","518287","Untrustworthy,Trustworthy","","1275","","","","rating","","trustrating_stim/white_mw046.bmp","5","","","","","","","","","","",""
"image-keyboard-response","90","101290","0.0-6.0-2.42","63f7becf2322a5ba95aad1dc","bdp_trlrn","Mon Mar 13 2023 22:24:45 GMT-0500 (Central Daylight Time)","518287","Untrustworthy,Trustworthy","","null","","","","ratingFB","","trustrating_stim/white_mw046.bmp","null","","","","","","","","","","",""
"image-keyboard-response","91","102573","0.0-6.0-1.43","63f7becf2322a5ba95aad1dc","bdp_trlrn","Mon Mar 13 2023 22:24:45 GMT-0500 (Central Daylight Time)","518287","Untrustworthy,Trustworthy","","1182","","","","rating","","trustrating_stim/white_00129_931230_fb_edt.bmp","7","","","","","","","","","","",""
"image-keyboard-response","92","102774","0.0-6.0-2.43","63f7becf2322a5ba95aad1dc","bdp_trlrn","Mon Mar 13 2023 22:24:45 GMT-0500 (Central Daylight Time)","518287","Untrustworthy,Trustworthy","","null","","","","ratingFB","","trustrating_stim/white_00129_931230_fb_edt.bmp","null","","","","","","","","","","",""
"image-keyboard-response","93","104506","0.0-6.0-1.44","63f7becf2322a5ba95aad1dc","bdp_trlrn","Mon Mar 13 2023 22:24:45 GMT-0500 (Central Daylight Time)","518287","Untrustworthy,Trustworthy","","1630","","","","rating","","trustrating_stim/white_00761_941201_fb_edt.bmp","6","","","","","","","","","","",""
"image-keyboard-response","94","104707","0.0-6.0-2.44","63f7becf2322a5ba95aad1dc","bdp_trlrn","Mon Mar 13 2023 22:24:45 GMT-0500 (Central Daylight Time)","518287","Untrustworthy,Trustworthy","","null","","","","ratingFB","","trustrating_stim/white_00761_941201_fb_edt.bmp","null","","","","","","","","","","",""
"image-keyboard-response","95","107239","0.0-6.0-1.45","63f7becf2322a5ba95aad1dc","bdp_trlrn","Mon Mar 13 2023 22:24:45 GMT-0500 (Central Daylight Time)","518287","Untrustworthy,Trustworthy","","2429","","","","rating","","trustrating_stim/white_mw066.bmp","7","","","","","","","","","","",""
"image-keyboard-response","96","107440","0.0-6.0-2.45","63f7becf2322a5ba95aad1dc","bdp_trlrn","Mon Mar 13 2023 22:24:45 GMT-0500 (Central Daylight Time)","518287","Untrustworthy,Trustworthy","","null","","","","ratingFB","","trustrating_stim/white_mw066.bmp","null","","","","","","","","","","",""
"image-keyboard-response","97","108859","0.0-6.0-1.46","63f7becf2322a5ba95aad1dc","bdp_trlrn","Mon Mar 13 2023 22:24:45 GMT-0500 (Central Daylight Time)","518287","Untrustworthy,Trustworthy","","1317","","","","rating","","trustrating_stim/white_00898_960530_fa_edt.bmp","7","","","","","","","","","","",""
"image-keyboard-response","98","109060","0.0-6.0-2.46","63f7becf2322a5ba95aad1dc","bdp_trlrn","Mon Mar 13 2023 22:24:45 GMT-0500 (Central Daylight Time)","518287","Untrustworthy,Trustworthy","","null","","","","ratingFB","","trustrating_stim/white_00898_960530_fa_edt.bmp","null","","","","","","","","","","",""
"image-keyboard-response","99","110536","0.0-6.0-1.47","63f7becf2322a5ba95aad1dc","bdp_trlrn","Mon Mar 13 2023 22:24:45 GMT-0500 (Central Daylight Time)","518287","Untrustworthy,Trustworthy","","1373","","","","rating","","trustrating_stim/white_00785_941205_fb_edt.bmp","6","","","","","","","","","","",""
"image-keyboard-response","100","110737","0.0-6.0-2.47","63f7becf2322a5ba95aad1dc","bdp_trlrn","Mon Mar 13 2023 22:24:45 GMT-0500 (Central Daylight Time)","518287","Untrustworthy,Trustworthy","","null","","","","ratingFB","","trustrating_stim/white_00785_941205_fb_edt.bmp","null","","","","","","","","","","",""
"image-keyboard-response","101","111893","0.0-6.0-1.48","63f7becf2322a5ba95aad1dc","bdp_trlrn","Mon Mar 13 2023 22:24:45 GMT-0500 (Central Daylight Time)","518287","Untrustworthy,Trustworthy","","1055","","","","rating","","trustrating_stim/white_mw053.bmp","6","","","","","","","","","","",""
"image-keyboard-response","102","112095","0.0-6.0-2.48","63f7becf2322a5ba95aad1dc","bdp_trlrn","Mon Mar 13 2023 22:24:45 GMT-0500 (Central Daylight Time)","518287","Untrustworthy,Trustworthy","","null","","","","ratingFB","","trustrating_stim/white_mw053.bmp","null","","","","","","","","","","",""
"image-keyboard-response","103","113431","0.0-6.0-1.49","63f7becf2322a5ba95aad1dc","bdp_trlrn","Mon Mar 13 2023 22:24:45 GMT-0500 (Central Daylight Time)","518287","Untrustworthy,Trustworthy","","1234","","","","rating","","trustrating_stim/white_00807_941205_fb_edt.bmp","7","","","","","","","","","","",""
"image-keyboard-response","104","113633","0.0-6.0-2.49","63f7becf2322a5ba95aad1dc","bdp_trlrn","Mon Mar 13 2023 22:24:45 GMT-0500 (Central Daylight Time)","518287","Untrustworthy,Trustworthy","","null","","","","ratingFB","","trustrating_stim/white_00807_941205_fb_edt.bmp","null","","","","","","","","","","",""
"image-keyboard-response","105","114873","0.0-6.0-1.50","63f7becf2322a5ba95aad1dc","bdp_trlrn","Mon Mar 13 2023 22:24:45 GMT-0500 (Central Daylight Time)","518287","Untrustworthy,Trustworthy","","1138","","","","rating","","trustrating_stim/white_00109_931230_fa_edt.bmp","6","","","","","","","","","","",""
"image-keyboard-response","106","115075","0.0-6.0-2.50","63f7becf2322a5ba95aad1dc","bdp_trlrn","Mon Mar 13 2023 22:24:45 GMT-0500 (Central Daylight Time)","518287","Untrustworthy,Trustworthy","","null","","","","ratingFB","","trustrating_stim/white_00109_931230_fa_edt.bmp","null","","","","","","","","","","",""
"image-keyboard-response","107","116487","0.0-6.0-1.51","63f7becf2322a5ba95aad1dc","bdp_trlrn","Mon Mar 13 2023 22:24:45 GMT-0500 (Central Daylight Time)","518287","Untrustworthy,Trustworthy","","1310","","","","rating","","trustrating_stim/white_00340_940422_fa_edt.bmp","5","","","","","","","","","","",""
"image-keyboard-response","108","116689","0.0-6.0-2.51","63f7becf2322a5ba95aad1dc","bdp_trlrn","Mon Mar 13 2023 22:24:45 GMT-0500 (Central Daylight Time)","518287","Untrustworthy,Trustworthy","","null","","","","ratingFB","","trustrating_stim/white_00340_940422_fa_edt.bmp","null","","","","","","","","","","",""
"image-keyboard-response","109","118428","0.0-6.0-1.52","63f7becf2322a5ba95aad1dc","bdp_trlrn","Mon Mar 13 2023 22:24:45 GMT-0500 (Central Daylight Time)","518287","Untrustworthy,Trustworthy","","1637","","","","rating","","trustrating_stim/white_00223_940128_fb_edt.bmp","5","","","","","","","","","","",""
"image-keyboard-response","110","118629","0.0-6.0-2.52","63f7becf2322a5ba95aad1dc","bdp_trlrn","Mon Mar 13 2023 22:24:45 GMT-0500 (Central Daylight Time)","518287","Untrustworthy,Trustworthy","","null","","","","ratingFB","","trustrating_stim/white_00223_940128_fb_edt.bmp","null","","","","","","","","","","",""
"image-keyboard-response","111","122950","0.0-6.0-1.53","63f7becf2322a5ba95aad1dc","bdp_trlrn","Mon Mar 13 2023 22:24:45 GMT-0500 (Central Daylight Time)","518287","Untrustworthy,Trustworthy","","4219","","","","rating","","trustrating_stim/white_00757_941201_fa_edt.bmp","6","","","","","","","","","","",""
"image-keyboard-response","112","123153","0.0-6.0-2.53","63f7becf2322a5ba95aad1dc","bdp_trlrn","Mon Mar 13 2023 22:24:45 GMT-0500 (Central Daylight Time)","518287","Untrustworthy,Trustworthy","","null","","","","ratingFB","","trustrating_stim/white_00757_941201_fa_edt.bmp","null","","","","","","","","","","",""
"image-keyboard-response","113","125140","0.0-6.0-1.54","63f7becf2322a5ba95aad1dc","bdp_trlrn","Mon Mar 13 2023 22:24:45 GMT-0500 (Central Daylight Time)","518287","Untrustworthy,Trustworthy","","1884","","","","rating","","trustrating_stim/white_mw033.bmp","6","","","","","","","","","","",""
"image-keyboard-response","114","125340","0.0-6.0-2.54","63f7becf2322a5ba95aad1dc","bdp_trlrn","Mon Mar 13 2023 22:24:45 GMT-0500 (Central Daylight Time)","518287","Untrustworthy,Trustworthy","","null","","","","ratingFB","","trustrating_stim/white_mw033.bmp","null","","","","","","","","","","",""
"image-keyboard-response","115","126719","0.0-6.0-1.55","63f7becf2322a5ba95aad1dc","bdp_trlrn","Mon Mar 13 2023 22:24:45 GMT-0500 (Central Daylight Time)","518287","Untrustworthy,Trustworthy","","1277","","","","rating","","trustrating_stim/white_mw049.bmp","6","","","","","","","","","","",""
"image-keyboard-response","116","126920","0.0-6.0-2.55","63f7becf2322a5ba95aad1dc","bdp_trlrn","Mon Mar 13 2023 22:24:45 GMT-0500 (Central Daylight Time)","518287","Untrustworthy,Trustworthy","","null","","","","ratingFB","","trustrating_stim/white_mw049.bmp","null","","","","","","","","","","",""
"image-keyboard-response","117","128638","0.0-6.0-1.56","63f7becf2322a5ba95aad1dc","bdp_trlrn","Mon Mar 13 2023 22:24:45 GMT-0500 (Central Daylight Time)","518287","Untrustworthy,Trustworthy","","1616","","","","rating","","trustrating_stim/white_mw099.bmp","5","","","","","","","","","","",""
"image-keyboard-response","118","128841","0.0-6.0-2.56","63f7becf2322a5ba95aad1dc","bdp_trlrn","Mon Mar 13 2023 22:24:45 GMT-0500 (Central Daylight Time)","518287","Untrustworthy,Trustworthy","","null","","","","ratingFB","","trustrating_stim/white_mw099.bmp","null","","","","","","","","","","",""
"image-keyboard-response","119","130071","0.0-6.0-1.57","63f7becf2322a5ba95aad1dc","bdp_trlrn","Mon Mar 13 2023 22:24:45 GMT-0500 (Central Daylight Time)","518287","Untrustworthy,Trustworthy","","1128","","","","rating","","trustrating_stim/white_mw097.bmp","3","","","","","","","","","","",""
"image-keyboard-response","120","130272","0.0-6.0-2.57","63f7becf2322a5ba95aad1dc","bdp_trlrn","Mon Mar 13 2023 22:24:45 GMT-0500 (Central Daylight Time)","518287","Untrustworthy,Trustworthy","","null","","","","ratingFB","","trustrating_stim/white_mw097.bmp","null","","","","","","","","","","",""
"image-keyboard-response","121","131827","0.0-6.0-1.58","63f7becf2322a5ba95aad1dc","bdp_trlrn","Mon Mar 13 2023 22:24:45 GMT-0500 (Central Daylight Time)","518287","Untrustworthy,Trustworthy","","1453","","","","rating","","trustrating_stim/white_00120_931230_fa_edt.bmp","5","","","","","","","","","","",""
"image-keyboard-response","122","132029","0.0-6.0-2.58","63f7becf2322a5ba95aad1dc","bdp_trlrn","Mon Mar 13 2023 22:24:45 GMT-0500 (Central Daylight Time)","518287","Untrustworthy,Trustworthy","","null","","","","ratingFB","","trustrating_stim/white_00120_931230_fa_edt.bmp","null","","","","","","","","","","",""
"image-keyboard-response","123","136893","0.0-6.0-1.59","63f7becf2322a5ba95aad1dc","bdp_trlrn","Mon Mar 13 2023 22:24:45 GMT-0500 (Central Daylight Time)","518287","Untrustworthy,Trustworthy","","4762","","","","rating","","trustrating_stim/white_mw035.bmp","6","","","","","","","","","","",""
"image-keyboard-response","124","137094","0.0-6.0-2.59","63f7becf2322a5ba95aad1dc","bdp_trlrn","Mon Mar 13 2023 22:24:45 GMT-0500 (Central Daylight Time)","518287","Untrustworthy,Trustworthy","","null","","","","ratingFB","","trustrating_stim/white_mw035.bmp","null","","","","","","","","","","",""
"instructions","125","138510","0.0-7.0","63f7becf2322a5ba95aad1dc","bdp_trlrn","Mon Mar 13 2023 22:24:45 GMT-0500 (Central Daylight Time)","518287","Untrustworthy,Trustworthy","[{""page_index"":0,""viewing_time"":1313}]","1313","","","","","","","","","","","","","","","","","",""
"instructions","126","179714","0.0-8.0","63f7becf2322a5ba95aad1dc","bdp_trlrn","Mon Mar 13 2023 22:24:45 GMT-0500 (Central Daylight Time)","518287","Untrustworthy,Trustworthy","[{""page_index"":0,""viewing_time"":8267},{""page_index"":1,""viewing_time"":1879},{""page_index"":2,""viewing_time"":16496},{""page_index"":3,""viewing_time"":3137},{""page_index"":4,""viewing_time"":1697},{""page_index"":5,""viewing_time"":5655},{""page_index"":6,""viewing_time"":2562},{""page_index"":7,""viewing_time"":1410}]","41103","","","","","","","","","","","","","","","","","",""
"html-keyboard-response","127","183938","0.0-9.0","63f7becf2322a5ba95aad1dc","bdp_trlrn","Mon Mar 13 2023 22:24:45 GMT-0500 (Central Daylight Time)","518287","Untrustworthy,Trustworthy","","4222","","","","","","<div class='header' style='text-align:left; position: absolute; top: 5%; left: 5%;'><small>Task 3 of 5</small></div><div class='instruxDiv'><p><strong>1) What is the minimum number of points you can choose to send to your partner?</strong></p><p>a) 0</p><p>b) 1</p><p>c) 5</p>","C","","","","","","","","","","",""
"html-keyboard-response","128","186182","0.0-10.0","63f7becf2322a5ba95aad1dc","bdp_trlrn","Mon Mar 13 2023 22:24:45 GMT-0500 (Central Daylight Time)","518287","Untrustworthy,Trustworthy","","2142","","","","","","<div class='header' style='text-align:left; position: absolute; top: 5%; left: 5%;'><small>Task 3 of 5</small></div><div class='instruxDiv'><p><strong>1) What is the minimum number of points you can choose to send to your partner?</strong></p><p>a) 1</p><p>b) 1</p><p style='color:#FF0000'>c) 5</p><h3 style='color:#FF0000'>Incorrect!</h3><h3 class='center-content'>The correct response is b).</h3><h3 class='center-content'>The minimum number of points you can choose to send to your partner is 1 point.</h3><p><em>Press SPACEBAR to continue</em></p></div>"," ","","","","","","","","","","",""
"html-keyboard-response","129","193863","0.0-11.0","63f7becf2322a5ba95aad1dc","bdp_trlrn","Mon Mar 13 2023 22:24:45 GMT-0500 (Central Daylight Time)","518287","Untrustworthy,Trustworthy","","7580","","","","","","<div class='header' style='text-align:left; position: absolute; top: 5%; left: 5%;'><small>Task 3 of 5</small></div><div class='instruxDiv'><p><strong>2) What is the maximum number of points you can choose to send to your partner?</strong></p><p>a) 8</p><p>b) 5</p><p>c) 3</p>","B","","","","","","","","","","",""
"html-keyboard-response","130","195059","0.0-12.0","63f7becf2322a5ba95aad1dc","bdp_trlrn","Mon Mar 13 2023 22:24:45 GMT-0500 (Central Daylight Time)","518287","Untrustworthy,Trustworthy","","1094","","","","","","<div class='header' style='text-align:left; position: absolute; top: 5%; left: 5%;'><small>Task 3 of 5</small></div><div class='instruxDiv'><p><strong>2) What is the maximum number of points you can choose to send to your partner?</strong></p><p>a) 8</p><p style='color:#00FF00'>b) 5</p><p>c) 3</p><h3 style='color:#00FF00'>Correct!</h3><h3 class='center-content'>The correct response is b).</h3><h3 class='center-content'>The maximum number of points you can choose to send to your partner is 5 points.</h3><p><em>Press SPACEBAR to continue</em></p></div>"," ","","","","","","","","","","",""
"html-keyboard-response","131","199602","0.0-13.0","63f7becf2322a5ba95aad1dc","bdp_trlrn","Mon Mar 13 2023 22:24:45 GMT-0500 (Central Daylight Time)","518287","Untrustworthy,Trustworthy","","4442","","","","","","<div class='header' style='text-align:left; position: absolute; top: 5%; left: 5%;'><small>Task 3 of 5</small></div><div class='instruxDiv'><p><strong>3) What happens to the amount of points you send to your partner?</strong></p><p>a) Nothing</p><p>b) It doubles</p><p>c) It quadruples</p>","B","","","","","","","","","","",""
"html-keyboard-response","132","201618","0.0-14.0","63f7becf2322a5ba95aad1dc","bdp_trlrn","Mon Mar 13 2023 22:24:45 GMT-0500 (Central Daylight Time)","518287","Untrustworthy,Trustworthy","","1914","","","","","","<div class='header' style='text-align:left; position: absolute; top: 5%; left: 5%;'><small>Task 3 of 5</small></div><div class='instruxDiv'><p><strong>3) What happens to the amount of points you send to your partner?</strong></p><p>a) Nothing</p><p style='color:#FF0000'>b) It doubles</p><p>c) It quadruples</p><h3 style='color:#FF0000'>Incorrect!</h3><h3 class='center-content'>The correct response is c).</h3><h3 class='center-content'>The amount of points you send to your partner quadruples.</h3><p><em>Press SPACEBAR to continue</em></p></div>"," ","","","","","","","","","","",""
"html-keyboard-response","133","219139","0.0-15.0","63f7becf2322a5ba95aad1dc","bdp_trlrn","Mon Mar 13 2023 22:24:45 GMT-0500 (Central Daylight Time)","518287","Untrustworthy,Trustworthy","","17421","","","","","","<div class='header' style='text-align:left; position: absolute; top: 5%; left: 5%;'><small>Task 3 of 5</small></div><div class='instruxDiv'><p><strong>4) If you decided to share 4 out of 5 points with your partner, and they decided to share half of the amount they received with you, how many points would you receive back from them on this round?</strong></p><p>a) 16</p><p>b) 0</p><p>c) 8</p>","A","","","","","","","","","","",""
"html-keyboard-response","134","221117","0.0-16.0","63f7becf2322a5ba95aad1dc","bdp_trlrn","Mon Mar 13 2023 22:24:45 GMT-0500 (Central Daylight Time)","518287","Untrustworthy,Trustworthy","","1875","","","","","","<div class='header' style='text-align:left; position: absolute; top: 5%; left: 5%;'><small>Task 3 of 5</small></div><div class='instruxDiv'><p><strong>4) If you decided to share 4 out of 5 points with your partner, and they decided to share half of the amount they received with you, how many points would you receive back from them on this round?</strong></p><p style='color:#FF0000'>a) 16</p><p>b) 0</p><p>c) 8</p><h3 style='color:#FF0000'>Incorrect!</h3><h3 class='center-content'>The correct response is c).</h3><h3 class='center-content'>If you shared 4 out of 5 points with your partner and they decided to share half of the amount they received with you, you would receive 8 points back (i.e. (4 x 4)/2 = 8).</h3><p><em>Press SPACEBAR to continue</em></p></div>"," ","","","","","","","","","","",""
"html-keyboard-response","135","226218","0.0-17.0","63f7becf2322a5ba95aad1dc","bdp_trlrn","Mon Mar 13 2023 22:24:45 GMT-0500 (Central Daylight Time)","518287","Untrustworthy,Trustworthy","","null","","","","","","<div class='header' style='text-align:left; position: absolute; top: 5%; left: 5%;'><small>Task 3 of 5</small></div><div class='instruxDiv'><p>Thank you for completing the quiz<p>These are the actual partners you will be interacting with in the next block:<p><div class='tc' align='center'><img class='introPic' src='trustrating_stim/white_mw060.bmp'><br><strong>Benjamin</strong></div><div class='bl' align='center'><img class='introPic' src='trustrating_stim/white_00519_940519_fb_edt.bmp'><br><strong>Sean</strong></div><div class='br' align='center'><img class='introPic' src='trustrating_stim/white_00129_931230_fb_edt.bmp'><br><strong>Jordan</strong></div></div><p>Across <strong>66 rounds</strong> you will interact with each partner <strong>22 times</strong> (in random order).<p style='align:center; color:white'><font <em>Press SPACEBAR to continue</em></p>","null","","","","","","","","","","",""
"instructions","136","230828","0.0-18.0","63f7becf2322a5ba95aad1dc","bdp_trlrn","Mon Mar 13 2023 22:24:45 GMT-0500 (Central Daylight Time)","518287","Untrustworthy,Trustworthy","[{""page_index"":0,""viewing_time"":3726},{""page_index"":1,""viewing_time"":883}]","4609","","","","","","","","","","","","","","","","","",""
"html-keyboard-response","137","235061","0.0-19.0-1.0","63f7becf2322a5ba95aad1dc","bdp_trlrn","Mon Mar 13 2023 22:24:45 GMT-0500 (Central Daylight Time)","518287","Untrustworthy,Trustworthy","","4131","","","","decision","","<div class='trialDiv'><img src='trustrating_stim/white_mw060.bmp'><br><font class='baseline'><strong>Benjamin</strong><p>Choose number of points to send.</font><div class='respPicDiv'><img src='img/responseButtonOffersNo0L.png' class='respPic'></div></div>","3","1","Benjamin","3","Kept","0.2,0.65","9","0.2","trustrating_stim/white_mw060.bmp","4","5","1"
"html-keyboard-response","138","235313","0.0-19.0-2.0","63f7becf2322a5ba95aad1dc","bdp_trlrn","Mon Mar 13 2023 22:24:45 GMT-0500 (Central Daylight Time)","518287","Untrustworthy,Trustworthy","","null","","","","decisionFB","","<div class='trialDiv'><img src='trustrating_stim/white_mw060.bmp'><br><font class='baseline'><strong>Benjamin</strong><p>Choose number of points to send.</font><div class='respPicDiv'><img src='img/responseButtonOffersNo0L3.png' class='respPic'></div></div>","null","1","Benjamin","3","Kept","0.2,0.65","9","0.2","trustrating_stim/white_mw060.bmp","4","2","1"
"html-keyboard-response","139","236315","0.0-19.0-3.0","63f7becf2322a5ba95aad1dc","bdp_trlrn","Mon Mar 13 2023 22:24:45 GMT-0500 (Central Daylight Time)","518287","Untrustworthy,Trustworthy","","null","","","","feedback","","<div class='trialDiv'><img src='trustrating_stim/white_mw060.bmp'><br><font class='baseline'><strong>Benjamin</strong><p>Received: <strong>12</strong></font> &nbsp; &nbsp; &nbsp; &nbsp; &nbsp; &nbsp;<font class='negOutcome'>Shared back: <strong>0</strong></font></font><div class='respPicDiv'><img src='img/responseButtonOffersNo0_wht.png' class='respPic'></div></div>","null","1","Benjamin","3","Kept","0.2,0.65","9","0.2","trustrating_stim/white_mw060.bmp","4","2","1"
"html-keyboard-response","140","238933","0.0-19.0-1.1","63f7becf2322a5ba95aad1dc","bdp_trlrn","Mon Mar 13 2023 22:24:45 GMT-0500 (Central Daylight Time)","518287","Untrustworthy,Trustworthy","","2617","","","","decision","","<div class='trialDiv'><img src='trustrating_stim/white_00129_931230_fb_edt.bmp'><br><font class='baseline'><strong>Jordan</strong><p>Choose number of points to send.</font><div class='respPicDiv'><img src='img/responseButtonOffersNo0L.png' class='respPic'></div></div>","4","1","Jordan","9","Kept","0.65,0.35","9","0.65","trustrating_stim/white_00129_931230_fb_edt.bmp","7","7","2"
"html-keyboard-response","141","239185","0.0-19.0-2.1","63f7becf2322a5ba95aad1dc","bdp_trlrn","Mon Mar 13 2023 22:24:45 GMT-0500 (Central Daylight Time)","518287","Untrustworthy,Trustworthy","","null","","","","decisionFB","","<div class='trialDiv'><img src='trustrating_stim/white_00129_931230_fb_edt.bmp'><br><font class='baseline'><strong>Jordan</strong><p>Choose number of points to send.</font><div class='respPicDiv'><img src='img/responseButtonOffersNo0L4.png' class='respPic'></div></div>","null","1","Jordan","9","Kept","0.65,0.35","9","0.65","trustrating_stim/white_00129_931230_fb_edt.bmp","7","3","2"
"html-keyboard-response","142","240186","0.0-19.0-3.1","63f7becf2322a5ba95aad1dc","bdp_trlrn","Mon Mar 13 2023 22:24:45 GMT-0500 (Central Daylight Time)","518287","Untrustworthy,Trustworthy","","null","","","","feedback","","<div class='trialDiv'><img src='trustrating_stim/white_00129_931230_fb_edt.bmp'><br><font class='baseline'><strong>Jordan</strong><p>Received: <strong>16</strong></font> &nbsp; &nbsp; &nbsp; &nbsp; &nbsp; &nbsp;<font class='negOutcome'>Shared back: <strong>0</strong></font></font><div class='respPicDiv'><img src='img/responseButtonOffersNo0_wht.png' class='respPic'></div></div>","null","1","Jordan","9","Kept","0.65,0.35","9","0.65","trustrating_stim/white_00129_931230_fb_edt.bmp","7","3","2"
"html-keyboard-response","143","241775","0.0-19.0-1.2","63f7becf2322a5ba95aad1dc","bdp_trlrn","Mon Mar 13 2023 22:24:45 GMT-0500 (Central Daylight Time)","518287","Untrustworthy,Trustworthy","","1588","","","","decision","","<div class='trialDiv'><img src='trustrating_stim/white_00519_940519_fb_edt.bmp'><br><font class='baseline'><strong>Sean</strong><p>Choose number of points to send.</font><div class='respPicDiv'><img src='img/responseButtonOffersNo0L.png' class='respPic'></div></div>","3","1","Sean","4","Shared","0.8,0.35","9","0.8","trustrating_stim/white_00519_940519_fb_edt.bmp","5.5","8","3"
"html-keyboard-response","144","242027","0.0-19.0-2.2","63f7becf2322a5ba95aad1dc","bdp_trlrn","Mon Mar 13 2023 22:24:45 GMT-0500 (Central Daylight Time)","518287","Untrustworthy,Trustworthy","","null","","","","decisionFB","","<div class='trialDiv'><img src='trustrating_stim/white_00519_940519_fb_edt.bmp'><br><font class='baseline'><strong>Sean</strong><p>Choose number of points to send.</font><div class='respPicDiv'><img src='img/responseButtonOffersNo0L3.png' class='respPic'></div></div>","null","1","Sean","4","Shared","0.8,0.35","9","0.8","trustrating_stim/white_00519_940519_fb_edt.bmp","5.5","5","3"
"html-keyboard-response","145","243029","0.0-19.0-3.2","63f7becf2322a5ba95aad1dc","bdp_trlrn","Mon Mar 13 2023 22:24:45 GMT-0500 (Central Daylight Time)","518287","Untrustworthy,Trustworthy","","null","","","","feedback","","<div class='trialDiv'><img src='trustrating_stim/white_00519_940519_fb_edt.bmp'><br><font class='baseline'><strong>Sean</strong><p>Received: <strong>12</strong></font> &nbsp; &nbsp; &nbsp; &nbsp; &nbsp; &nbsp;<font class='posOutcome'>Shared back: <strong>6</strong></font></font><div class='respPicDiv'><img src='img/responseButtonOffersNo0_wht.png' class='respPic'></div></div>","null","1","Sean","4","Shared","0.8,0.35","9","0.8","trustrating_stim/white_00519_940519_fb_edt.bmp","5.5","11","3"
"html-keyboard-response","146","244711","0.0-19.0-1.3","63f7becf2322a5ba95aad1dc","bdp_trlrn","Mon Mar 13 2023 22:24:45 GMT-0500 (Central Daylight Time)","518287","Untrustworthy,Trustworthy","","1682","","","","decision","","<div class='trialDiv'><img src='trustrating_stim/white_mw060.bmp'><br><font class='baseline'><strong>Benjamin</strong><p>Choose number of points to send.</font><div class='respPicDiv'><img src='img/responseButtonOffersNo0L.png' class='respPic'></div></div>","1","2","Benjamin","3","Kept","0.2,0.65","9","0.2","trustrating_stim/white_mw060.bmp","4","16","4"
"html-keyboard-response","147","244963","0.0-19.0-2.3","63f7becf2322a5ba95aad1dc","bdp_trlrn","Mon Mar 13 2023 22:24:45 GMT-0500 (Central Daylight Time)","518287","Untrustworthy,Trustworthy","","null","","","","decisionFB","","<div class='trialDiv'><img src='trustrating_stim/white_mw060.bmp'><br><font class='baseline'><strong>Benjamin</strong><p>Choose number of points to send.</font><div class='respPicDiv'><img src='img/responseButtonOffersNo0L1.png' class='respPic'></div></div>","null","2","Benjamin","3","Kept","0.2,0.65","9","0.2","trustrating_stim/white_mw060.bmp","4","15","4"
"html-keyboard-response","148","245966","0.0-19.0-3.3","63f7becf2322a5ba95aad1dc","bdp_trlrn","Mon Mar 13 2023 22:24:45 GMT-0500 (Central Daylight Time)","518287","Untrustworthy,Trustworthy","","null","","","","feedback","","<div class='trialDiv'><img src='trustrating_stim/white_mw060.bmp'><br><font class='baseline'><strong>Benjamin</strong><p>Received: <strong>4</strong></font> &nbsp; &nbsp; &nbsp; &nbsp; &nbsp; &nbsp;<font class='negOutcome'>Shared back: <strong>0</strong></font></font><div class='respPicDiv'><img src='img/responseButtonOffersNo0_wht.png' class='respPic'></div></div>","null","2","Benjamin","3","Kept","0.2,0.65","9","0.2","trustrating_stim/white_mw060.bmp","4","15","4"
"html-keyboard-response","149","247147","0.0-19.0-1.4","63f7becf2322a5ba95aad1dc","bdp_trlrn","Mon Mar 13 2023 22:24:45 GMT-0500 (Central Daylight Time)","518287","Untrustworthy,Trustworthy","","1181","","","","decision","","<div class='trialDiv'><img src='trustrating_stim/white_00129_931230_fb_edt.bmp'><br><font class='baseline'><strong>Jordan</strong><p>Choose number of points to send.</font><div class='respPicDiv'><img src='img/responseButtonOffersNo0L.png' class='respPic'></div></div>","2","2","Jordan","9","Shared","0.65,0.35","9","0.65","trustrating_stim/white_00129_931230_fb_edt.bmp","7","20","5"
"html-keyboard-response","150","247399","0.0-19.0-2.4","63f7becf2322a5ba95aad1dc","bdp_trlrn","Mon Mar 13 2023 22:24:45 GMT-0500 (Central Daylight Time)","518287","Untrustworthy,Trustworthy","","null","","","","decisionFB","","<div class='trialDiv'><img src='trustrating_stim/white_00129_931230_fb_edt.bmp'><br><font class='baseline'><strong>Jordan</strong><p>Choose number of points to send.</font><div class='respPicDiv'><img src='img/responseButtonOffersNo0L2.png' class='respPic'></div></div>","null","2","Jordan","9","Shared","0.65,0.35","9","0.65","trustrating_stim/white_00129_931230_fb_edt.bmp","7","18","5"
"html-keyboard-response","151","248401","0.0-19.0-3.4","63f7becf2322a5ba95aad1dc","bdp_trlrn","Mon Mar 13 2023 22:24:45 GMT-0500 (Central Daylight Time)","518287","Untrustworthy,Trustworthy","","null","","","","feedback","","<div class='trialDiv'><img src='trustrating_stim/white_00129_931230_fb_edt.bmp'><br><font class='baseline'><strong>Jordan</strong><p>Received: <strong>8</strong></font> &nbsp; &nbsp; &nbsp; &nbsp; &nbsp; &nbsp;<font class='posOutcome'>Shared back: <strong>4</strong></font></font><div class='respPicDiv'><img src='img/responseButtonOffersNo0_wht.png' class='respPic'></div></div>","null","2","Jordan","9","Shared","0.65,0.35","9","0.65","trustrating_stim/white_00129_931230_fb_edt.bmp","7","22","5"
"html-keyboard-response","152","250100","0.0-19.0-1.5","63f7becf2322a5ba95aad1dc","bdp_trlrn","Mon Mar 13 2023 22:24:45 GMT-0500 (Central Daylight Time)","518287","Untrustworthy,Trustworthy","","1697","","","","decision","","<div class='trialDiv'><img src='trustrating_stim/white_00519_940519_fb_edt.bmp'><br><font class='baseline'><strong>Sean</strong><p>Choose number of points to send.</font><div class='respPicDiv'><img src='img/responseButtonOffersNo0L.png' class='respPic'></div></div>","4","2","Sean","4","Kept","0.8,0.35","9","0.8","trustrating_stim/white_00519_940519_fb_edt.bmp","5.5","27","6"
"html-keyboard-response","153","250352","0.0-19.0-2.5","63f7becf2322a5ba95aad1dc","bdp_trlrn","Mon Mar 13 2023 22:24:45 GMT-0500 (Central Daylight Time)","518287","Untrustworthy,Trustworthy","","null","","","","decisionFB","","<div class='trialDiv'><img src='trustrating_stim/white_00519_940519_fb_edt.bmp'><br><font class='baseline'><strong>Sean</strong><p>Choose number of points to send.</font><div class='respPicDiv'><img src='img/responseButtonOffersNo0L4.png' class='respPic'></div></div>","null","2","Sean","4","Kept","0.8,0.35","9","0.8","trustrating_stim/white_00519_940519_fb_edt.bmp","5.5","23","6"
"html-keyboard-response","154","251353","0.0-19.0-3.5","63f7becf2322a5ba95aad1dc","bdp_trlrn","Mon Mar 13 2023 22:24:45 GMT-0500 (Central Daylight Time)","518287","Untrustworthy,Trustworthy","","null","","","","feedback","","<div class='trialDiv'><img src='trustrating_stim/white_00519_940519_fb_edt.bmp'><br><font class='baseline'><strong>Sean</strong><p>Received: <strong>16</strong></font> &nbsp; &nbsp; &nbsp; &nbsp; &nbsp; &nbsp;<font class='negOutcome'>Shared back: <strong>0</strong></font></font><div class='respPicDiv'><img src='img/responseButtonOffersNo0_wht.png' class='respPic'></div></div>","null","2","Sean","4","Kept","0.8,0.35","9","0.8","trustrating_stim/white_00519_940519_fb_edt.bmp","5.5","23","6"
"html-keyboard-response","155","252826","0.0-19.0-1.6","63f7becf2322a5ba95aad1dc","bdp_trlrn","Mon Mar 13 2023 22:24:45 GMT-0500 (Central Daylight Time)","518287","Untrustworthy,Trustworthy","","1473","","","","decision","","<div class='trialDiv'><img src='trustrating_stim/white_mw060.bmp'><br><font class='baseline'><strong>Benjamin</strong><p>Choose number of points to send.</font><div class='respPicDiv'><img src='img/responseButtonOffersNo0L.png' class='respPic'></div></div>","3","3","Benjamin","3","Kept","0.2,0.65","9","0.2","trustrating_stim/white_mw060.bmp","4","28","7"
"html-keyboard-response","156","253079","0.0-19.0-2.6","63f7becf2322a5ba95aad1dc","bdp_trlrn","Mon Mar 13 2023 22:24:45 GMT-0500 (Central Daylight Time)","518287","Untrustworthy,Trustworthy","","null","","","","decisionFB","","<div class='trialDiv'><img src='trustrating_stim/white_mw060.bmp'><br><font class='baseline'><strong>Benjamin</strong><p>Choose number of points to send.</font><div class='respPicDiv'><img src='img/responseButtonOffersNo0L3.png' class='respPic'></div></div>","null","3","Benjamin","3","Kept","0.2,0.65","9","0.2","trustrating_stim/white_mw060.bmp","4","25","7"
"html-keyboard-response","157","254080","0.0-19.0-3.6","63f7becf2322a5ba95aad1dc","bdp_trlrn","Mon Mar 13 2023 22:24:45 GMT-0500 (Central Daylight Time)","518287","Untrustworthy,Trustworthy","","null","","","","feedback","","<div class='trialDiv'><img src='trustrating_stim/white_mw060.bmp'><br><font class='baseline'><strong>Benjamin</strong><p>Received: <strong>12</strong></font> &nbsp; &nbsp; &nbsp; &nbsp; &nbsp; &nbsp;<font class='negOutcome'>Shared back: <strong>0</strong></font></font><div class='respPicDiv'><img src='img/responseButtonOffersNo0_wht.png' class='respPic'></div></div>","null","3","Benjamin","3","Kept","0.2,0.65","9","0.2","trustrating_stim/white_mw060.bmp","4","25","7"
"html-keyboard-response","158","255408","0.0-19.0-1.7","63f7becf2322a5ba95aad1dc","bdp_trlrn","Mon Mar 13 2023 22:24:45 GMT-0500 (Central Daylight Time)","518287","Untrustworthy,Trustworthy","","1326","","","","decision","","<div class='trialDiv'><img src='trustrating_stim/white_00129_931230_fb_edt.bmp'><br><font class='baseline'><strong>Jordan</strong><p>Choose number of points to send.</font><div class='respPicDiv'><img src='img/responseButtonOffersNo0L.png' class='respPic'></div></div>","3","3","Jordan","9","Shared","0.65,0.35","9","0.65","trustrating_stim/white_00129_931230_fb_edt.bmp","7","30","8"
"html-keyboard-response","159","255659","0.0-19.0-2.7","63f7becf2322a5ba95aad1dc","bdp_trlrn","Mon Mar 13 2023 22:24:45 GMT-0500 (Central Daylight Time)","518287","Untrustworthy,Trustworthy","","null","","","","decisionFB","","<div class='trialDiv'><img src='trustrating_stim/white_00129_931230_fb_edt.bmp'><br><font class='baseline'><strong>Jordan</strong><p>Choose number of points to send.</font><div class='respPicDiv'><img src='img/responseButtonOffersNo0L3.png' class='respPic'></div></div>","null","3","Jordan","9","Shared","0.65,0.35","9","0.65","trustrating_stim/white_00129_931230_fb_edt.bmp","7","27","8"
"html-keyboard-response","160","256661","0.0-19.0-3.7","63f7becf2322a5ba95aad1dc","bdp_trlrn","Mon Mar 13 2023 22:24:45 GMT-0500 (Central Daylight Time)","518287","Untrustworthy,Trustworthy","","null","","","","feedback","","<div class='trialDiv'><img src='trustrating_stim/white_00129_931230_fb_edt.bmp'><br><font class='baseline'><strong>Jordan</strong><p>Received: <strong>12</strong></font> &nbsp; &nbsp; &nbsp; &nbsp; &nbsp; &nbsp;<font class='posOutcome'>Shared back: <strong>6</strong></font></font><div class='respPicDiv'><img src='img/responseButtonOffersNo0_wht.png' class='respPic'></div></div>","null","3","Jordan","9","Shared","0.65,0.35","9","0.65","trustrating_stim/white_00129_931230_fb_edt.bmp","7","33","8"
"html-keyboard-response","161","257736","0.0-19.0-1.8","63f7becf2322a5ba95aad1dc","bdp_trlrn","Mon Mar 13 2023 22:24:45 GMT-0500 (Central Daylight Time)","518287","Untrustworthy,Trustworthy","","1074","","","","decision","","<div class='trialDiv'><img src='trustrating_stim/white_00519_940519_fb_edt.bmp'><br><font class='baseline'><strong>Sean</strong><p>Choose number of points to send.</font><div class='respPicDiv'><img src='img/responseButtonOffersNo0L.png' class='respPic'></div></div>","2","3","Sean","4","Shared","0.8,0.35","9","0.8","trustrating_stim/white_00519_940519_fb_edt.bmp","5.5","38","9"
"html-keyboard-response","162","257988","0.0-19.0-2.8","63f7becf2322a5ba95aad1dc","bdp_trlrn","Mon Mar 13 2023 22:24:45 GMT-0500 (Central Daylight Time)","518287","Untrustworthy,Trustworthy","","null","","","","decisionFB","","<div class='trialDiv'><img src='trustrating_stim/white_00519_940519_fb_edt.bmp'><br><font class='baseline'><strong>Sean</strong><p>Choose number of points to send.</font><div class='respPicDiv'><img src='img/responseButtonOffersNo0L2.png' class='respPic'></div></div>","null","3","Sean","4","Shared","0.8,0.35","9","0.8","trustrating_stim/white_00519_940519_fb_edt.bmp","5.5","36","9"
"html-keyboard-response","163","258989","0.0-19.0-3.8","63f7becf2322a5ba95aad1dc","bdp_trlrn","Mon Mar 13 2023 22:24:45 GMT-0500 (Central Daylight Time)","518287","Untrustworthy,Trustworthy","","null","","","","feedback","","<div class='trialDiv'><img src='trustrating_stim/white_00519_940519_fb_edt.bmp'><br><font class='baseline'><strong>Sean</strong><p>Received: <strong>8</strong></font> &nbsp; &nbsp; &nbsp; &nbsp; &nbsp; &nbsp;<font class='posOutcome'>Shared back: <strong>4</strong></font></font><div class='respPicDiv'><img src='img/responseButtonOffersNo0_wht.png' class='respPic'></div></div>","null","3","Sean","4","Shared","0.8,0.35","9","0.8","trustrating_stim/white_00519_940519_fb_edt.bmp","5.5","40","9"
"html-keyboard-response","164","261064","0.0-19.0-1.9","63f7becf2322a5ba95aad1dc","bdp_trlrn","Mon Mar 13 2023 22:24:45 GMT-0500 (Central Daylight Time)","518287","Untrustworthy,Trustworthy","","2073","","","","decision","","<div class='trialDiv'><img src='trustrating_stim/white_00129_931230_fb_edt.bmp'><br><font class='baseline'><strong>Jordan</strong><p>Choose number of points to send.</font><div class='respPicDiv'><img src='img/responseButtonOffersNo0L.png' class='respPic'></div></div>","4","4","Jordan","9","Shared","0.65,0.35","9","0.65","trustrating_stim/white_00129_931230_fb_edt.bmp","7","45","10"
"html-keyboard-response","165","261315","0.0-19.0-2.9","63f7becf2322a5ba95aad1dc","bdp_trlrn","Mon Mar 13 2023 22:24:45 GMT-0500 (Central Daylight Time)","518287","Untrustworthy,Trustworthy","","null","","","","decisionFB","","<div class='trialDiv'><img src='trustrating_stim/white_00129_931230_fb_edt.bmp'><br><font class='baseline'><strong>Jordan</strong><p>Choose number of points to send.</font><div class='respPicDiv'><img src='img/responseButtonOffersNo0L4.png' class='respPic'></div></div>","null","4","Jordan","9","Shared","0.65,0.35","9","0.65","trustrating_stim/white_00129_931230_fb_edt.bmp","7","41","10"
"html-keyboard-response","166","262323","0.0-19.0-3.9","63f7becf2322a5ba95aad1dc","bdp_trlrn","Mon Mar 13 2023 22:24:45 GMT-0500 (Central Daylight Time)","518287","Untrustworthy,Trustworthy","","null","","","","feedback","","<div class='trialDiv'><img src='trustrating_stim/white_00129_931230_fb_edt.bmp'><br><font class='baseline'><strong>Jordan</strong><p>Received: <strong>16</strong></font> &nbsp; &nbsp; &nbsp; &nbsp; &nbsp; &nbsp;<font class='posOutcome'>Shared back: <strong>8</strong></font></font><div class='respPicDiv'><img src='img/responseButtonOffersNo0_wht.png' class='respPic'></div></div>","null","4","Jordan","9","Shared","0.65,0.35","9","0.65","trustrating_stim/white_00129_931230_fb_edt.bmp","7","49","10"
"html-keyboard-response","167","263344","0.0-19.0-1.10","63f7becf2322a5ba95aad1dc","bdp_trlrn","Mon Mar 13 2023 22:24:45 GMT-0500 (Central Daylight Time)","518287","Untrustworthy,Trustworthy","","1019","","","","decision","","<div class='trialDiv'><img src='trustrating_stim/white_00519_940519_fb_edt.bmp'><br><font class='baseline'><strong>Sean</strong><p>Choose number of points to send.</font><div class='respPicDiv'><img src='img/responseButtonOffersNo0L.png' class='respPic'></div></div>","3","4","Sean","4","Shared","0.8,0.35","9","0.8","trustrating_stim/white_00519_940519_fb_edt.bmp","5.5","54","11"
"html-keyboard-response","168","263594","0.0-19.0-2.10","63f7becf2322a5ba95aad1dc","bdp_trlrn","Mon Mar 13 2023 22:24:45 GMT-0500 (Central Daylight Time)","518287","Untrustworthy,Trustworthy","","null","","","","decisionFB","","<div class='trialDiv'><img src='trustrating_stim/white_00519_940519_fb_edt.bmp'><br><font class='baseline'><strong>Sean</strong><p>Choose number of points to send.</font><div class='respPicDiv'><img src='img/responseButtonOffersNo0L3.png' class='respPic'></div></div>","null","4","Sean","4","Shared","0.8,0.35","9","0.8","trustrating_stim/white_00519_940519_fb_edt.bmp","5.5","51","11"
"html-keyboard-response","169","264597","0.0-19.0-3.10","63f7becf2322a5ba95aad1dc","bdp_trlrn","Mon Mar 13 2023 22:24:45 GMT-0500 (Central Daylight Time)","518287","Untrustworthy,Trustworthy","","null","","","","feedback","","<div class='trialDiv'><img src='trustrating_stim/white_00519_940519_fb_edt.bmp'><br><font class='baseline'><strong>Sean</strong><p>Received: <strong>12</strong></font> &nbsp; &nbsp; &nbsp; &nbsp; &nbsp; &nbsp;<font class='posOutcome'>Shared back: <strong>6</strong></font></font><div class='respPicDiv'><img src='img/responseButtonOffersNo0_wht.png' class='respPic'></div></div>","null","4","Sean","4","Shared","0.8,0.35","9","0.8","trustrating_stim/white_00519_940519_fb_edt.bmp","5.5","57","11"
"html-keyboard-response","170","265374","0.0-19.0-1.11","63f7becf2322a5ba95aad1dc","bdp_trlrn","Mon Mar 13 2023 22:24:45 GMT-0500 (Central Daylight Time)","518287","Untrustworthy,Trustworthy","","777","","","","decision","","<div class='trialDiv'><img src='trustrating_stim/white_mw060.bmp'><br><font class='baseline'><strong>Benjamin</strong><p>Choose number of points to send.</font><div class='respPicDiv'><img src='img/responseButtonOffersNo0L.png' class='respPic'></div></div>","1","4","Benjamin","3","Kept","0.2,0.65","9","0.2","trustrating_stim/white_mw060.bmp","4","62","12"
"html-keyboard-response","171","265626","0.0-19.0-2.11","63f7becf2322a5ba95aad1dc","bdp_trlrn","Mon Mar 13 2023 22:24:45 GMT-0500 (Central Daylight Time)","518287","Untrustworthy,Trustworthy","","null","","","","decisionFB","","<div class='trialDiv'><img src='trustrating_stim/white_mw060.bmp'><br><font class='baseline'><strong>Benjamin</strong><p>Choose number of points to send.</font><div class='respPicDiv'><img src='img/responseButtonOffersNo0L1.png' class='respPic'></div></div>","null","4","Benjamin","3","Kept","0.2,0.65","9","0.2","trustrating_stim/white_mw060.bmp","4","61","12"
"html-keyboard-response","172","266627","0.0-19.0-3.11","63f7becf2322a5ba95aad1dc","bdp_trlrn","Mon Mar 13 2023 22:24:45 GMT-0500 (Central Daylight Time)","518287","Untrustworthy,Trustworthy","","null","","","","feedback","","<div class='trialDiv'><img src='trustrating_stim/white_mw060.bmp'><br><font class='baseline'><strong>Benjamin</strong><p>Received: <strong>4</strong></font> &nbsp; &nbsp; &nbsp; &nbsp; &nbsp; &nbsp;<font class='negOutcome'>Shared back: <strong>0</strong></font></font><div class='respPicDiv'><img src='img/responseButtonOffersNo0_wht.png' class='respPic'></div></div>","null","4","Benjamin","3","Kept","0.2,0.65","9","0.2","trustrating_stim/white_mw060.bmp","4","61","12"
"html-keyboard-response","173","268669","0.0-19.0-1.12","63f7becf2322a5ba95aad1dc","bdp_trlrn","Mon Mar 13 2023 22:24:45 GMT-0500 (Central Daylight Time)","518287","Untrustworthy,Trustworthy","","2041","","","","decision","","<div class='trialDiv'><img src='trustrating_stim/white_00129_931230_fb_edt.bmp'><br><font class='baseline'><strong>Jordan</strong><p>Choose number of points to send.</font><div class='respPicDiv'><img src='img/responseButtonOffersNo0L.png' class='respPic'></div></div>","4","5","Jordan","9","Kept","0.65,0.35","9","0.65","trustrating_stim/white_00129_931230_fb_edt.bmp","7","66","13"
"html-keyboard-response","174","268921","0.0-19.0-2.12","63f7becf2322a5ba95aad1dc","bdp_trlrn","Mon Mar 13 2023 22:24:45 GMT-0500 (Central Daylight Time)","518287","Untrustworthy,Trustworthy","","null","","","","decisionFB","","<div class='trialDiv'><img src='trustrating_stim/white_00129_931230_fb_edt.bmp'><br><font class='baseline'><strong>Jordan</strong><p>Choose number of points to send.</font><div class='respPicDiv'><img src='img/responseButtonOffersNo0L4.png' class='respPic'></div></div>","null","5","Jordan","9","Kept","0.65,0.35","9","0.65","trustrating_stim/white_00129_931230_fb_edt.bmp","7","62","13"
"html-keyboard-response","175","269922","0.0-19.0-3.12","63f7becf2322a5ba95aad1dc","bdp_trlrn","Mon Mar 13 2023 22:24:45 GMT-0500 (Central Daylight Time)","518287","Untrustworthy,Trustworthy","","null","","","","feedback","","<div class='trialDiv'><img src='trustrating_stim/white_00129_931230_fb_edt.bmp'><br><font class='baseline'><strong>Jordan</strong><p>Received: <strong>16</strong></font> &nbsp; &nbsp; &nbsp; &nbsp; &nbsp; &nbsp;<font class='negOutcome'>Shared back: <strong>0</strong></font></font><div class='respPicDiv'><img src='img/responseButtonOffersNo0_wht.png' class='respPic'></div></div>","null","5","Jordan","9","Kept","0.65,0.35","9","0.65","trustrating_stim/white_00129_931230_fb_edt.bmp","7","62","13"
"html-keyboard-response","176","270683","0.0-19.0-1.13","63f7becf2322a5ba95aad1dc","bdp_trlrn","Mon Mar 13 2023 22:24:45 GMT-0500 (Central Daylight Time)","518287","Untrustworthy,Trustworthy","","760","","","","decision","","<div class='trialDiv'><img src='trustrating_stim/white_00519_940519_fb_edt.bmp'><br><font class='baseline'><strong>Sean</strong><p>Choose number of points to send.</font><div class='respPicDiv'><img src='img/responseButtonOffersNo0L.png' class='respPic'></div></div>","4","5","Sean","4","Shared","0.8,0.35","9","0.8","trustrating_stim/white_00519_940519_fb_edt.bmp","5.5","67","14"
"html-keyboard-response","177","270935","0.0-19.0-2.13","63f7becf2322a5ba95aad1dc","bdp_trlrn","Mon Mar 13 2023 22:24:45 GMT-0500 (Central Daylight Time)","518287","Untrustworthy,Trustworthy","","null","","","","decisionFB","","<div class='trialDiv'><img src='trustrating_stim/white_00519_940519_fb_edt.bmp'><br><font class='baseline'><strong>Sean</strong><p>Choose number of points to send.</font><div class='respPicDiv'><img src='img/responseButtonOffersNo0L4.png' class='respPic'></div></div>","null","5","Sean","4","Shared","0.8,0.35","9","0.8","trustrating_stim/white_00519_940519_fb_edt.bmp","5.5","63","14"
"html-keyboard-response","178","271936","0.0-19.0-3.13","63f7becf2322a5ba95aad1dc","bdp_trlrn","Mon Mar 13 2023 22:24:45 GMT-0500 (Central Daylight Time)","518287","Untrustworthy,Trustworthy","","null","","","","feedback","","<div class='trialDiv'><img src='trustrating_stim/white_00519_940519_fb_edt.bmp'><br><font class='baseline'><strong>Sean</strong><p>Received: <strong>16</strong></font> &nbsp; &nbsp; &nbsp; &nbsp; &nbsp; &nbsp;<font class='posOutcome'>Shared back: <strong>8</strong></font></font><div class='respPicDiv'><img src='img/responseButtonOffersNo0_wht.png' class='respPic'></div></div>","null","5","Sean","4","Shared","0.8,0.35","9","0.8","trustrating_stim/white_00519_940519_fb_edt.bmp","5.5","71","14"
"html-keyboard-response","179","272776","0.0-19.0-1.14","63f7becf2322a5ba95aad1dc","bdp_trlrn","Mon Mar 13 2023 22:24:45 GMT-0500 (Central Daylight Time)","518287","Untrustworthy,Trustworthy","","838","","","","decision","","<div class='trialDiv'><img src='trustrating_stim/white_mw060.bmp'><br><font class='baseline'><strong>Benjamin</strong><p>Choose number of points to send.</font><div class='respPicDiv'><img src='img/responseButtonOffersNo0L.png' class='respPic'></div></div>","1","5","Benjamin","3","Kept","0.2,0.65","9","0.2","trustrating_stim/white_mw060.bmp","4","76","15"
"html-keyboard-response","180","273027","0.0-19.0-2.14","63f7becf2322a5ba95aad1dc","bdp_trlrn","Mon Mar 13 2023 22:24:45 GMT-0500 (Central Daylight Time)","518287","Untrustworthy,Trustworthy","","null","","","","decisionFB","","<div class='trialDiv'><img src='trustrating_stim/white_mw060.bmp'><br><font class='baseline'><strong>Benjamin</strong><p>Choose number of points to send.</font><div class='respPicDiv'><img src='img/responseButtonOffersNo0L1.png' class='respPic'></div></div>","null","5","Benjamin","3","Kept","0.2,0.65","9","0.2","trustrating_stim/white_mw060.bmp","4","75","15"
"html-keyboard-response","181","274028","0.0-19.0-3.14","63f7becf2322a5ba95aad1dc","bdp_trlrn","Mon Mar 13 2023 22:24:45 GMT-0500 (Central Daylight Time)","518287","Untrustworthy,Trustworthy","","null","","","","feedback","","<div class='trialDiv'><img src='trustrating_stim/white_mw060.bmp'><br><font class='baseline'><strong>Benjamin</strong><p>Received: <strong>4</strong></font> &nbsp; &nbsp; &nbsp; &nbsp; &nbsp; &nbsp;<font class='negOutcome'>Shared back: <strong>0</strong></font></font><div class='respPicDiv'><img src='img/responseButtonOffersNo0_wht.png' class='respPic'></div></div>","null","5","Benjamin","3","Kept","0.2,0.65","9","0.2","trustrating_stim/white_mw060.bmp","4","75","15"
"html-keyboard-response","182","275328","0.0-19.0-1.15","63f7becf2322a5ba95aad1dc","bdp_trlrn","Mon Mar 13 2023 22:24:45 GMT-0500 (Central Daylight Time)","518287","Untrustworthy,Trustworthy","","1299","","","","decision","","<div class='trialDiv'><img src='trustrating_stim/white_00519_940519_fb_edt.bmp'><br><font class='baseline'><strong>Sean</strong><p>Choose number of points to send.</font><div class='respPicDiv'><img src='img/responseButtonOffersNo0L.png' class='respPic'></div></div>","4","6","Sean","4","Shared","0.8,0.35","9","0.8","trustrating_stim/white_00519_940519_fb_edt.bmp","5.5","80","16"
"html-keyboard-response","183","275579","0.0-19.0-2.15","63f7becf2322a5ba95aad1dc","bdp_trlrn","Mon Mar 13 2023 22:24:45 GMT-0500 (Central Daylight Time)","518287","Untrustworthy,Trustworthy","","null","","","","decisionFB","","<div class='trialDiv'><img src='trustrating_stim/white_00519_940519_fb_edt.bmp'><br><font class='baseline'><strong>Sean</strong><p>Choose number of points to send.</font><div class='respPicDiv'><img src='img/responseButtonOffersNo0L4.png' class='respPic'></div></div>","null","6","Sean","4","Shared","0.8,0.35","9","0.8","trustrating_stim/white_00519_940519_fb_edt.bmp","5.5","76","16"
"html-keyboard-response","184","276581","0.0-19.0-3.15","63f7becf2322a5ba95aad1dc","bdp_trlrn","Mon Mar 13 2023 22:24:45 GMT-0500 (Central Daylight Time)","518287","Untrustworthy,Trustworthy","","null","","","","feedback","","<div class='trialDiv'><img src='trustrating_stim/white_00519_940519_fb_edt.bmp'><br><font class='baseline'><strong>Sean</strong><p>Received: <strong>16</strong></font> &nbsp; &nbsp; &nbsp; &nbsp; &nbsp; &nbsp;<font class='posOutcome'>Shared back: <strong>8</strong></font></font><div class='respPicDiv'><img src='img/responseButtonOffersNo0_wht.png' class='respPic'></div></div>","null","6","Sean","4","Shared","0.8,0.35","9","0.8","trustrating_stim/white_00519_940519_fb_edt.bmp","5.5","84","16"
"html-keyboard-response","185","277754","0.0-19.0-1.16","63f7becf2322a5ba95aad1dc","bdp_trlrn","Mon Mar 13 2023 22:24:45 GMT-0500 (Central Daylight Time)","518287","Untrustworthy,Trustworthy","","1172","","","","decision","","<div class='trialDiv'><img src='trustrating_stim/white_mw060.bmp'><br><font class='baseline'><strong>Benjamin</strong><p>Choose number of points to send.</font><div class='respPicDiv'><img src='img/responseButtonOffersNo0L.png' class='respPic'></div></div>","2","6","Benjamin","3","Shared","0.2,0.65","9","0.2","trustrating_stim/white_mw060.bmp","4","89","17"
"html-keyboard-response","186","278006","0.0-19.0-2.16","63f7becf2322a5ba95aad1dc","bdp_trlrn","Mon Mar 13 2023 22:24:45 GMT-0500 (Central Daylight Time)","518287","Untrustworthy,Trustworthy","","null","","","","decisionFB","","<div class='trialDiv'><img src='trustrating_stim/white_mw060.bmp'><br><font class='baseline'><strong>Benjamin</strong><p>Choose number of points to send.</font><div class='respPicDiv'><img src='img/responseButtonOffersNo0L2.png' class='respPic'></div></div>","null","6","Benjamin","3","Shared","0.2,0.65","9","0.2","trustrating_stim/white_mw060.bmp","4","87","17"
"html-keyboard-response","187","279008","0.0-19.0-3.16","63f7becf2322a5ba95aad1dc","bdp_trlrn","Mon Mar 13 2023 22:24:45 GMT-0500 (Central Daylight Time)","518287","Untrustworthy,Trustworthy","","null","","","","feedback","","<div class='trialDiv'><img src='trustrating_stim/white_mw060.bmp'><br><font class='baseline'><strong>Benjamin</strong><p>Received: <strong>8</strong></font> &nbsp; &nbsp; &nbsp; &nbsp; &nbsp; &nbsp;<font class='posOutcome'>Shared back: <strong>4</strong></font></font><div class='respPicDiv'><img src='img/responseButtonOffersNo0_wht.png' class='respPic'></div></div>","null","6","Benjamin","3","Shared","0.2,0.65","9","0.2","trustrating_stim/white_mw060.bmp","4","91","17"
"html-keyboard-response","188","280378","0.0-19.0-1.17","63f7becf2322a5ba95aad1dc","bdp_trlrn","Mon Mar 13 2023 22:24:45 GMT-0500 (Central Daylight Time)","518287","Untrustworthy,Trustworthy","","1370","","","","decision","","<div class='trialDiv'><img src='trustrating_stim/white_00129_931230_fb_edt.bmp'><br><font class='baseline'><strong>Jordan</strong><p>Choose number of points to send.</font><div class='respPicDiv'><img src='img/responseButtonOffersNo0L.png' class='respPic'></div></div>","3","6","Jordan","9","Shared","0.65,0.35","9","0.65","trustrating_stim/white_00129_931230_fb_edt.bmp","7","96","18"
"html-keyboard-response","189","280630","0.0-19.0-2.17","63f7becf2322a5ba95aad1dc","bdp_trlrn","Mon Mar 13 2023 22:24:45 GMT-0500 (Central Daylight Time)","518287","Untrustworthy,Trustworthy","","null","","","","decisionFB","","<div class='trialDiv'><img src='trustrating_stim/white_00129_931230_fb_edt.bmp'><br><font class='baseline'><strong>Jordan</strong><p>Choose number of points to send.</font><div class='respPicDiv'><img src='img/responseButtonOffersNo0L3.png' class='respPic'></div></div>","null","6","Jordan","9","Shared","0.65,0.35","9","0.65","trustrating_stim/white_00129_931230_fb_edt.bmp","7","93","18"
"html-keyboard-response","190","281632","0.0-19.0-3.17","63f7becf2322a5ba95aad1dc","bdp_trlrn","Mon Mar 13 2023 22:24:45 GMT-0500 (Central Daylight Time)","518287","Untrustworthy,Trustworthy","","null","","","","feedback","","<div class='trialDiv'><img src='trustrating_stim/white_00129_931230_fb_edt.bmp'><br><font class='baseline'><strong>Jordan</strong><p>Received: <strong>12</strong></font> &nbsp; &nbsp; &nbsp; &nbsp; &nbsp; &nbsp;<font class='posOutcome'>Shared back: <strong>6</strong></font></font><div class='respPicDiv'><img src='img/responseButtonOffersNo0_wht.png' class='respPic'></div></div>","null","6","Jordan","9","Shared","0.65,0.35","9","0.65","trustrating_stim/white_00129_931230_fb_edt.bmp","7","99","18"
"html-keyboard-response","191","282667","0.0-19.0-1.18","63f7becf2322a5ba95aad1dc","bdp_trlrn","Mon Mar 13 2023 22:24:45 GMT-0500 (Central Daylight Time)","518287","Untrustworthy,Trustworthy","","1035","","","","decision","","<div class='trialDiv'><img src='trustrating_stim/white_00519_940519_fb_edt.bmp'><br><font class='baseline'><strong>Sean</strong><p>Choose number of points to send.</font><div class='respPicDiv'><img src='img/responseButtonOffersNo0L.png' class='respPic'></div></div>","4","7","Sean","4","Shared","0.8,0.35","9","0.8","trustrating_stim/white_00519_940519_fb_edt.bmp","5.5","104","19"
"html-keyboard-response","192","282919","0.0-19.0-2.18","63f7becf2322a5ba95aad1dc","bdp_trlrn","Mon Mar 13 2023 22:24:45 GMT-0500 (Central Daylight Time)","518287","Untrustworthy,Trustworthy","","null","","","","decisionFB","","<div class='trialDiv'><img src='trustrating_stim/white_00519_940519_fb_edt.bmp'><br><font class='baseline'><strong>Sean</strong><p>Choose number of points to send.</font><div class='respPicDiv'><img src='img/responseButtonOffersNo0L4.png' class='respPic'></div></div>","null","7","Sean","4","Shared","0.8,0.35","9","0.8","trustrating_stim/white_00519_940519_fb_edt.bmp","5.5","100","19"
"html-keyboard-response","193","283921","0.0-19.0-3.18","63f7becf2322a5ba95aad1dc","bdp_trlrn","Mon Mar 13 2023 22:24:45 GMT-0500 (Central Daylight Time)","518287","Untrustworthy,Trustworthy","","null","","","","feedback","","<div class='trialDiv'><img src='trustrating_stim/white_00519_940519_fb_edt.bmp'><br><font class='baseline'><strong>Sean</strong><p>Received: <strong>16</strong></font> &nbsp; &nbsp; &nbsp; &nbsp; &nbsp; &nbsp;<font class='posOutcome'>Shared back: <strong>8</strong></font></font><div class='respPicDiv'><img src='img/responseButtonOffersNo0_wht.png' class='respPic'></div></div>","null","7","Sean","4","Shared","0.8,0.35","9","0.8","trustrating_stim/white_00519_940519_fb_edt.bmp","5.5","108","19"
"html-keyboard-response","194","284790","0.0-19.0-1.19","63f7becf2322a5ba95aad1dc","bdp_trlrn","Mon Mar 13 2023 22:24:45 GMT-0500 (Central Daylight Time)","518287","Untrustworthy,Trustworthy","","869","","","","decision","","<div class='trialDiv'><img src='trustrating_stim/white_00129_931230_fb_edt.bmp'><br><font class='baseline'><strong>Jordan</strong><p>Choose number of points to send.</font><div class='respPicDiv'><img src='img/responseButtonOffersNo0L.png' class='respPic'></div></div>","3","7","Jordan","9","Shared","0.65,0.35","9","0.65","trustrating_stim/white_00129_931230_fb_edt.bmp","7","113","20"
"html-keyboard-response","195","285041","0.0-19.0-2.19","63f7becf2322a5ba95aad1dc","bdp_trlrn","Mon Mar 13 2023 22:24:45 GMT-0500 (Central Daylight Time)","518287","Untrustworthy,Trustworthy","","null","","","","decisionFB","","<div class='trialDiv'><img src='trustrating_stim/white_00129_931230_fb_edt.bmp'><br><font class='baseline'><strong>Jordan</strong><p>Choose number of points to send.</font><div class='respPicDiv'><img src='img/responseButtonOffersNo0L3.png' class='respPic'></div></div>","null","7","Jordan","9","Shared","0.65,0.35","9","0.65","trustrating_stim/white_00129_931230_fb_edt.bmp","7","110","20"
"html-keyboard-response","196","286043","0.0-19.0-3.19","63f7becf2322a5ba95aad1dc","bdp_trlrn","Mon Mar 13 2023 22:24:45 GMT-0500 (Central Daylight Time)","518287","Untrustworthy,Trustworthy","","null","","","","feedback","","<div class='trialDiv'><img src='trustrating_stim/white_00129_931230_fb_edt.bmp'><br><font class='baseline'><strong>Jordan</strong><p>Received: <strong>12</strong></font> &nbsp; &nbsp; &nbsp; &nbsp; &nbsp; &nbsp;<font class='posOutcome'>Shared back: <strong>6</strong></font></font><div class='respPicDiv'><img src='img/responseButtonOffersNo0_wht.png' class='respPic'></div></div>","null","7","Jordan","9","Shared","0.65,0.35","9","0.65","trustrating_stim/white_00129_931230_fb_edt.bmp","7","116","20"
"html-keyboard-response","197","287320","0.0-19.0-1.20","63f7becf2322a5ba95aad1dc","bdp_trlrn","Mon Mar 13 2023 22:24:45 GMT-0500 (Central Daylight Time)","518287","Untrustworthy,Trustworthy","","1276","","","","decision","","<div class='trialDiv'><img src='trustrating_stim/white_mw060.bmp'><br><font class='baseline'><strong>Benjamin</strong><p>Choose number of points to send.</font><div class='respPicDiv'><img src='img/responseButtonOffersNo0L.png' class='respPic'></div></div>","1","7","Benjamin","3","Shared","0.2,0.65","9","0.2","trustrating_stim/white_mw060.bmp","4","121","21"
"html-keyboard-response","198","287572","0.0-19.0-2.20","63f7becf2322a5ba95aad1dc","bdp_trlrn","Mon Mar 13 2023 22:24:45 GMT-0500 (Central Daylight Time)","518287","Untrustworthy,Trustworthy","","null","","","","decisionFB","","<div class='trialDiv'><img src='trustrating_stim/white_mw060.bmp'><br><font class='baseline'><strong>Benjamin</strong><p>Choose number of points to send.</font><div class='respPicDiv'><img src='img/responseButtonOffersNo0L1.png' class='respPic'></div></div>","null","7","Benjamin","3","Shared","0.2,0.65","9","0.2","trustrating_stim/white_mw060.bmp","4","120","21"
"html-keyboard-response","199","288573","0.0-19.0-3.20","63f7becf2322a5ba95aad1dc","bdp_trlrn","Mon Mar 13 2023 22:24:45 GMT-0500 (Central Daylight Time)","518287","Untrustworthy,Trustworthy","","null","","","","feedback","","<div class='trialDiv'><img src='trustrating_stim/white_mw060.bmp'><br><font class='baseline'><strong>Benjamin</strong><p>Received: <strong>4</strong></font> &nbsp; &nbsp; &nbsp; &nbsp; &nbsp; &nbsp;<font class='posOutcome'>Shared back: <strong>2</strong></font></font><div class='respPicDiv'><img src='img/responseButtonOffersNo0_wht.png' class='respPic'></div></div>","null","7","Benjamin","3","Shared","0.2,0.65","9","0.2","trustrating_stim/white_mw060.bmp","4","122","21"
"html-keyboard-response","200","292123","0.0-19.0-1.21","63f7becf2322a5ba95aad1dc","bdp_trlrn","Mon Mar 13 2023 22:24:45 GMT-0500 (Central Daylight Time)","518287","Untrustworthy,Trustworthy","","3549","","","","decision","","<div class='trialDiv'><img src='trustrating_stim/white_00129_931230_fb_edt.bmp'><br><font class='baseline'><strong>Jordan</strong><p>Choose number of points to send.</font><div class='respPicDiv'><img src='img/responseButtonOffersNo0L.png' class='respPic'></div></div>","4","8","Jordan","9","Shared","0.65,0.35","9","0.65","trustrating_stim/white_00129_931230_fb_edt.bmp","7","127","22"
"html-keyboard-response","201","292374","0.0-19.0-2.21","63f7becf2322a5ba95aad1dc","bdp_trlrn","Mon Mar 13 2023 22:24:45 GMT-0500 (Central Daylight Time)","518287","Untrustworthy,Trustworthy","","null","","","","decisionFB","","<div class='trialDiv'><img src='trustrating_stim/white_00129_931230_fb_edt.bmp'><br><font class='baseline'><strong>Jordan</strong><p>Choose number of points to send.</font><div class='respPicDiv'><img src='img/responseButtonOffersNo0L4.png' class='respPic'></div></div>","null","8","Jordan","9","Shared","0.65,0.35","9","0.65","trustrating_stim/white_00129_931230_fb_edt.bmp","7","123","22"
"html-keyboard-response","202","293376","0.0-19.0-3.21","63f7becf2322a5ba95aad1dc","bdp_trlrn","Mon Mar 13 2023 22:24:45 GMT-0500 (Central Daylight Time)","518287","Untrustworthy,Trustworthy","","null","","","","feedback","","<div class='trialDiv'><img src='trustrating_stim/white_00129_931230_fb_edt.bmp'><br><font class='baseline'><strong>Jordan</strong><p>Received: <strong>16</strong></font> &nbsp; &nbsp; &nbsp; &nbsp; &nbsp; &nbsp;<font class='posOutcome'>Shared back: <strong>8</strong></font></font><div class='respPicDiv'><img src='img/responseButtonOffersNo0_wht.png' class='respPic'></div></div>","null","8","Jordan","9","Shared","0.65,0.35","9","0.65","trustrating_stim/white_00129_931230_fb_edt.bmp","7","131","22"
"html-keyboard-response","203","296135","0.0-19.0-1.22","63f7becf2322a5ba95aad1dc","bdp_trlrn","Mon Mar 13 2023 22:24:45 GMT-0500 (Central Daylight Time)","518287","Untrustworthy,Trustworthy","","2759","","","","decision","","<div class='trialDiv'><img src='trustrating_stim/white_00519_940519_fb_edt.bmp'><br><font class='baseline'><strong>Sean</strong><p>Choose number of points to send.</font><div class='respPicDiv'><img src='img/responseButtonOffersNo0L.png' class='respPic'></div></div>","5","8","Sean","4","Shared","0.8,0.35","9","0.8","trustrating_stim/white_00519_940519_fb_edt.bmp","5.5","136","23"
"html-keyboard-response","204","296387","0.0-19.0-2.22","63f7becf2322a5ba95aad1dc","bdp_trlrn","Mon Mar 13 2023 22:24:45 GMT-0500 (Central Daylight Time)","518287","Untrustworthy,Trustworthy","","null","","","","decisionFB","","<div class='trialDiv'><img src='trustrating_stim/white_00519_940519_fb_edt.bmp'><br><font class='baseline'><strong>Sean</strong><p>Choose number of points to send.</font><div class='respPicDiv'><img src='img/responseButtonOffersNo0L5.png' class='respPic'></div></div>","null","8","Sean","4","Shared","0.8,0.35","9","0.8","trustrating_stim/white_00519_940519_fb_edt.bmp","5.5","131","23"
"html-keyboard-response","205","297389","0.0-19.0-3.22","63f7becf2322a5ba95aad1dc","bdp_trlrn","Mon Mar 13 2023 22:24:45 GMT-0500 (Central Daylight Time)","518287","Untrustworthy,Trustworthy","","null","","","","feedback","","<div class='trialDiv'><img src='trustrating_stim/white_00519_940519_fb_edt.bmp'><br><font class='baseline'><strong>Sean</strong><p>Received: <strong>20</strong></font> &nbsp; &nbsp; &nbsp; &nbsp; &nbsp; &nbsp;<font class='posOutcome'>Shared back: <strong>10</strong></font></font><div class='respPicDiv'><img src='img/responseButtonOffersNo0_wht.png' class='respPic'></div></div>","null","8","Sean","4","Shared","0.8,0.35","9","0.8","trustrating_stim/white_00519_940519_fb_edt.bmp","5.5","141","23"
"html-keyboard-response","206","298877","0.0-19.0-1.23","63f7becf2322a5ba95aad1dc","bdp_trlrn","Mon Mar 13 2023 22:24:45 GMT-0500 (Central Daylight Time)","518287","Untrustworthy,Trustworthy","","1487","","","","decision","","<div class='trialDiv'><img src='trustrating_stim/white_mw060.bmp'><br><font class='baseline'><strong>Benjamin</strong><p>Choose number of points to send.</font><div class='respPicDiv'><img src='img/responseButtonOffersNo0L.png' class='respPic'></div></div>","1","8","Benjamin","3","Kept","0.2,0.65","9","0.2","trustrating_stim/white_mw060.bmp","4","146","24"
"html-keyboard-response","207","299129","0.0-19.0-2.23","63f7becf2322a5ba95aad1dc","bdp_trlrn","Mon Mar 13 2023 22:24:45 GMT-0500 (Central Daylight Time)","518287","Untrustworthy,Trustworthy","","null","","","","decisionFB","","<div class='trialDiv'><img src='trustrating_stim/white_mw060.bmp'><br><font class='baseline'><strong>Benjamin</strong><p>Choose number of points to send.</font><div class='respPicDiv'><img src='img/responseButtonOffersNo0L1.png' class='respPic'></div></div>","null","8","Benjamin","3","Kept","0.2,0.65","9","0.2","trustrating_stim/white_mw060.bmp","4","145","24"
"html-keyboard-response","208","300131","0.0-19.0-3.23","63f7becf2322a5ba95aad1dc","bdp_trlrn","Mon Mar 13 2023 22:24:45 GMT-0500 (Central Daylight Time)","518287","Untrustworthy,Trustworthy","","null","","","","feedback","","<div class='trialDiv'><img src='trustrating_stim/white_mw060.bmp'><br><font class='baseline'><strong>Benjamin</strong><p>Received: <strong>4</strong></font> &nbsp; &nbsp; &nbsp; &nbsp; &nbsp; &nbsp;<font class='negOutcome'>Shared back: <strong>0</strong></font></font><div class='respPicDiv'><img src='img/responseButtonOffersNo0_wht.png' class='respPic'></div></div>","null","8","Benjamin","3","Kept","0.2,0.65","9","0.2","trustrating_stim/white_mw060.bmp","4","145","24"
"html-keyboard-response","209","301716","0.0-19.0-1.24","63f7becf2322a5ba95aad1dc","bdp_trlrn","Mon Mar 13 2023 22:24:45 GMT-0500 (Central Daylight Time)","518287","Untrustworthy,Trustworthy","","1583","","","","decision","","<div class='trialDiv'><img src='trustrating_stim/white_00129_931230_fb_edt.bmp'><br><font class='baseline'><strong>Jordan</strong><p>Choose number of points to send.</font><div class='respPicDiv'><img src='img/responseButtonOffersNo0L.png' class='respPic'></div></div>","3","9","Jordan","9","Shared","0.65,0.35","9","0.65","trustrating_stim/white_00129_931230_fb_edt.bmp","7","150","25"
"html-keyboard-response","210","301978","0.0-19.0-2.24","63f7becf2322a5ba95aad1dc","bdp_trlrn","Mon Mar 13 2023 22:24:45 GMT-0500 (Central Daylight Time)","518287","Untrustworthy,Trustworthy","","null","","","","decisionFB","","<div class='trialDiv'><img src='trustrating_stim/white_00129_931230_fb_edt.bmp'><br><font class='baseline'><strong>Jordan</strong><p>Choose number of points to send.</font><div class='respPicDiv'><img src='img/responseButtonOffersNo0L3.png' class='respPic'></div></div>","null","9","Jordan","9","Shared","0.65,0.35","9","0.65","trustrating_stim/white_00129_931230_fb_edt.bmp","7","147","25"
"html-keyboard-response","211","302980","0.0-19.0-3.24","63f7becf2322a5ba95aad1dc","bdp_trlrn","Mon Mar 13 2023 22:24:45 GMT-0500 (Central Daylight Time)","518287","Untrustworthy,Trustworthy","","null","","","","feedback","","<div class='trialDiv'><img src='trustrating_stim/white_00129_931230_fb_edt.bmp'><br><font class='baseline'><strong>Jordan</strong><p>Received: <strong>12</strong></font> &nbsp; &nbsp; &nbsp; &nbsp; &nbsp; &nbsp;<font class='posOutcome'>Shared back: <strong>6</strong></font></font><div class='respPicDiv'><img src='img/responseButtonOffersNo0_wht.png' class='respPic'></div></div>","null","9","Jordan","9","Shared","0.65,0.35","9","0.65","trustrating_stim/white_00129_931230_fb_edt.bmp","7","153","25"
"html-keyboard-response","212","303359","0.0-19.0-1.25","63f7becf2322a5ba95aad1dc","bdp_trlrn","Mon Mar 13 2023 22:24:45 GMT-0500 (Central Daylight Time)","518287","Untrustworthy,Trustworthy","","378","","","","decision","","<div class='trialDiv'><img src='trustrating_stim/white_00519_940519_fb_edt.bmp'><br><font class='baseline'><strong>Sean</strong><p>Choose number of points to send.</font><div class='respPicDiv'><img src='img/responseButtonOffersNo0L.png' class='respPic'></div></div>","5","9","Sean","4","Kept","0.8,0.35","9","0.8","trustrating_stim/white_00519_940519_fb_edt.bmp","5.5","158","26"
"html-keyboard-response","213","303611","0.0-19.0-2.25","63f7becf2322a5ba95aad1dc","bdp_trlrn","Mon Mar 13 2023 22:24:45 GMT-0500 (Central Daylight Time)","518287","Untrustworthy,Trustworthy","","null","","","","decisionFB","","<div class='trialDiv'><img src='trustrating_stim/white_00519_940519_fb_edt.bmp'><br><font class='baseline'><strong>Sean</strong><p>Choose number of points to send.</font><div class='respPicDiv'><img src='img/responseButtonOffersNo0L5.png' class='respPic'></div></div>","null","9","Sean","4","Kept","0.8,0.35","9","0.8","trustrating_stim/white_00519_940519_fb_edt.bmp","5.5","153","26"
"html-keyboard-response","214","304613","0.0-19.0-3.25","63f7becf2322a5ba95aad1dc","bdp_trlrn","Mon Mar 13 2023 22:24:45 GMT-0500 (Central Daylight Time)","518287","Untrustworthy,Trustworthy","","null","","","","feedback","","<div class='trialDiv'><img src='trustrating_stim/white_00519_940519_fb_edt.bmp'><br><font class='baseline'><strong>Sean</strong><p>Received: <strong>20</strong></font> &nbsp; &nbsp; &nbsp; &nbsp; &nbsp; &nbsp;<font class='negOutcome'>Shared back: <strong>0</strong></font></font><div class='respPicDiv'><img src='img/responseButtonOffersNo0_wht.png' class='respPic'></div></div>","null","9","Sean","4","Kept","0.8,0.35","9","0.8","trustrating_stim/white_00519_940519_fb_edt.bmp","5.5","153","26"
"html-keyboard-response","215","306377","0.0-19.0-1.26","63f7becf2322a5ba95aad1dc","bdp_trlrn","Mon Mar 13 2023 22:24:45 GMT-0500 (Central Daylight Time)","518287","Untrustworthy,Trustworthy","","1763","","","","decision","","<div class='trialDiv'><img src='trustrating_stim/white_mw060.bmp'><br><font class='baseline'><strong>Benjamin</strong><p>Choose number of points to send.</font><div class='respPicDiv'><img src='img/responseButtonOffersNo0L.png' class='respPic'></div></div>","2","9","Benjamin","3","Shared","0.2,0.65","9","0.2","trustrating_stim/white_mw060.bmp","4","158","27"
"html-keyboard-response","216","306629","0.0-19.0-2.26","63f7becf2322a5ba95aad1dc","bdp_trlrn","Mon Mar 13 2023 22:24:45 GMT-0500 (Central Daylight Time)","518287","Untrustworthy,Trustworthy","","null","","","","decisionFB","","<div class='trialDiv'><img src='trustrating_stim/white_mw060.bmp'><br><font class='baseline'><strong>Benjamin</strong><p>Choose number of points to send.</font><div class='respPicDiv'><img src='img/responseButtonOffersNo0L2.png' class='respPic'></div></div>","null","9","Benjamin","3","Shared","0.2,0.65","9","0.2","trustrating_stim/white_mw060.bmp","4","156","27"
"html-keyboard-response","217","307630","0.0-19.0-3.26","63f7becf2322a5ba95aad1dc","bdp_trlrn","Mon Mar 13 2023 22:24:45 GMT-0500 (Central Daylight Time)","518287","Untrustworthy,Trustworthy","","null","","","","feedback","","<div class='trialDiv'><img src='trustrating_stim/white_mw060.bmp'><br><font class='baseline'><strong>Benjamin</strong><p>Received: <strong>8</strong></font> &nbsp; &nbsp; &nbsp; &nbsp; &nbsp; &nbsp;<font class='posOutcome'>Shared back: <strong>4</strong></font></font><div class='respPicDiv'><img src='img/responseButtonOffersNo0_wht.png' class='respPic'></div></div>","null","9","Benjamin","3","Shared","0.2,0.65","9","0.2","trustrating_stim/white_mw060.bmp","4","160","27"
"html-keyboard-response","218","308683","0.0-19.0-1.27","63f7becf2322a5ba95aad1dc","bdp_trlrn","Mon Mar 13 2023 22:24:45 GMT-0500 (Central Daylight Time)","518287","Untrustworthy,Trustworthy","","1052","","","","decision","","<div class='trialDiv'><img src='trustrating_stim/white_00129_931230_fb_edt.bmp'><br><font class='baseline'><strong>Jordan</strong><p>Choose number of points to send.</font><div class='respPicDiv'><img src='img/responseButtonOffersNo0L.png' class='respPic'></div></div>","5","10","Jordan","9","Kept","0.65,0.35","9","0.65","trustrating_stim/white_00129_931230_fb_edt.bmp","7","165","28"
"html-keyboard-response","219","308934","0.0-19.0-2.27","63f7becf2322a5ba95aad1dc","bdp_trlrn","Mon Mar 13 2023 22:24:45 GMT-0500 (Central Daylight Time)","518287","Untrustworthy,Trustworthy","","null","","","","decisionFB","","<div class='trialDiv'><img src='trustrating_stim/white_00129_931230_fb_edt.bmp'><br><font class='baseline'><strong>Jordan</strong><p>Choose number of points to send.</font><div class='respPicDiv'><img src='img/responseButtonOffersNo0L5.png' class='respPic'></div></div>","null","10","Jordan","9","Kept","0.65,0.35","9","0.65","trustrating_stim/white_00129_931230_fb_edt.bmp","7","160","28"
