"trial_type","trial_index","time_elapsed","internal_node_id","subject_id","task","startTime","totalTime","labels","view_history","rt","event","trial","time","trialtype","success","stimulus","key_press","aground","name","faceID","outcome","agenttype","agentswpt","agentcurrpshare","face","avgRating","point_total","round"
"pavlovia","0","3","0.0-0.0","63e1f5009f56fcb831963f19","bdp_trlrn","Sun Mar 12 2023 14:19:34 GMT-0700 (Pacific Daylight Time)","906390","Untrustworthy,Trustworthy","","","","","","","","","","","","","","","","","","","",""
"instructions","1","11016","0.0-1.0","63e1f5009f56fcb831963f19","bdp_trlrn","Sun Mar 12 2023 14:19:34 GMT-0700 (Pacific Daylight Time)","906390","Untrustworthy,Trustworthy","[{""page_index"":0,""viewing_time"":11013}]","11013","","","","","","","","","","","","","","","","","",""
"","","","","63e1f5009f56fcb831963f19","bdp_trlrn","Sun Mar 12 2023 14:19:34 GMT-0700 (Pacific Daylight Time)","906390","Untrustworthy,Trustworthy","","","fullscreenenter","2","15424","fullscreenenter","","","","","","","","","","","","","",""
"fullscreen","2","16435","0.0-2.0","63e1f5009f56fcb831963f19","bdp_trlrn","Sun Mar 12 2023 14:19:34 GMT-0700 (Pacific Daylight Time)","906390","Untrustworthy,Trustworthy","","","","","","","true","","","","","","","","","","","","",""
"instructions","3","46451","0.0-4.0","63e1f5009f56fcb831963f19","bdp_trlrn","Sun Mar 12 2023 14:19:34 GMT-0700 (Pacific Daylight Time)","906390","Untrustworthy,Trustworthy","[{""page_index"":0,""viewing_time"":17171},{""page_index"":1,""viewing_time"":12844}]","30015","","","","","","","","","","","","","","","","","",""
"instructions","4","48905","0.0-5.0","63e1f5009f56fcb831963f19","bdp_trlrn","Sun Mar 12 2023 14:19:34 GMT-0700 (Pacific Daylight Time)","906390","Untrustworthy,Trustworthy","[{""page_index"":0,""viewing_time"":2454}]","2454","","","","","","","","","","","","","","","","","",""
"image-keyboard-response","5","52922","0.0-6.0-1.0","63e1f5009f56fcb831963f19","bdp_trlrn","Sun Mar 12 2023 14:19:34 GMT-0700 (Pacific Daylight Time)","906390","Untrustworthy,Trustworthy","","3913","","","","rating","","trustrating_stim/white_mw097.bmp","4","","","","","","","","","","",""
"image-keyboard-response","6","53125","0.0-6.0-2.0","63e1f5009f56fcb831963f19","bdp_trlrn","Sun Mar 12 2023 14:19:34 GMT-0700 (Pacific Daylight Time)","906390","Untrustworthy,Trustworthy","","null","","","","ratingFB","","trustrating_stim/white_mw097.bmp","null","","","","","","","","","","",""
"image-keyboard-response","7","55465","0.0-6.0-1.1","63e1f5009f56fcb831963f19","bdp_trlrn","Sun Mar 12 2023 14:19:34 GMT-0700 (Pacific Daylight Time)","906390","Untrustworthy,Trustworthy","","2237","","","","rating","","trustrating_stim/white_00519_940519_fb_edt.bmp","5","","","","","","","","","","",""
"image-keyboard-response","8","55667","0.0-6.0-2.1","63e1f5009f56fcb831963f19","bdp_trlrn","Sun Mar 12 2023 14:19:34 GMT-0700 (Pacific Daylight Time)","906390","Untrustworthy,Trustworthy","","null","","","","ratingFB","","trustrating_stim/white_00519_940519_fb_edt.bmp","null","","","","","","","","","","",""
"image-keyboard-response","9","58458","0.0-6.0-1.2","63e1f5009f56fcb831963f19","bdp_trlrn","Sun Mar 12 2023 14:19:34 GMT-0700 (Pacific Daylight Time)","906390","Untrustworthy,Trustworthy","","2690","","","","rating","","trustrating_stim/white_mw071.bmp","6","","","","","","","","","","",""
"image-keyboard-response","10","58661","0.0-6.0-2.2","63e1f5009f56fcb831963f19","bdp_trlrn","Sun Mar 12 2023 14:19:34 GMT-0700 (Pacific Daylight Time)","906390","Untrustworthy,Trustworthy","","null","","","","ratingFB","","trustrating_stim/white_mw071.bmp","null","","","","","","","","","","",""
"image-keyboard-response","11","60954","0.0-6.0-1.3","63e1f5009f56fcb831963f19","bdp_trlrn","Sun Mar 12 2023 14:19:34 GMT-0700 (Pacific Daylight Time)","906390","Untrustworthy,Trustworthy","","2190","","","","rating","","trustrating_stim/white_00807_941205_fb_edt.bmp","6","","","","","","","","","","",""
"image-keyboard-response","12","61155","0.0-6.0-2.3","63e1f5009f56fcb831963f19","bdp_trlrn","Sun Mar 12 2023 14:19:34 GMT-0700 (Pacific Daylight Time)","906390","Untrustworthy,Trustworthy","","null","","","","ratingFB","","trustrating_stim/white_00807_941205_fb_edt.bmp","null","","","","","","","","","","",""
"image-keyboard-response","13","63070","0.0-6.0-1.4","63e1f5009f56fcb831963f19","bdp_trlrn","Sun Mar 12 2023 14:19:34 GMT-0700 (Pacific Daylight Time)","906390","Untrustworthy,Trustworthy","","1814","","","","rating","","trustrating_stim/white_mw046.bmp","5","","","","","","","","","","",""
"image-keyboard-response","14","63271","0.0-6.0-2.4","63e1f5009f56fcb831963f19","bdp_trlrn","Sun Mar 12 2023 14:19:34 GMT-0700 (Pacific Daylight Time)","906390","Untrustworthy,Trustworthy","","null","","","","ratingFB","","trustrating_stim/white_mw046.bmp","null","","","","","","","","","","",""
"image-keyboard-response","15","65189","0.0-6.0-1.5","63e1f5009f56fcb831963f19","bdp_trlrn","Sun Mar 12 2023 14:19:34 GMT-0700 (Pacific Daylight Time)","906390","Untrustworthy,Trustworthy","","1816","","","","rating","","trustrating_stim/white_mw060.bmp","5","","","","","","","","","","",""
"image-keyboard-response","16","65391","0.0-6.0-2.5","63e1f5009f56fcb831963f19","bdp_trlrn","Sun Mar 12 2023 14:19:34 GMT-0700 (Pacific Daylight Time)","906390","Untrustworthy,Trustworthy","","null","","","","ratingFB","","trustrating_stim/white_mw060.bmp","null","","","","","","","","","","",""
"image-keyboard-response","17","67521","0.0-6.0-1.6","63e1f5009f56fcb831963f19","bdp_trlrn","Sun Mar 12 2023 14:19:34 GMT-0700 (Pacific Daylight Time)","906390","Untrustworthy,Trustworthy","","2028","","","","rating","","trustrating_stim/white_mw056.bmp","5","","","","","","","","","","",""
"image-keyboard-response","18","67722","0.0-6.0-2.6","63e1f5009f56fcb831963f19","bdp_trlrn","Sun Mar 12 2023 14:19:34 GMT-0700 (Pacific Daylight Time)","906390","Untrustworthy,Trustworthy","","null","","","","ratingFB","","trustrating_stim/white_mw056.bmp","null","","","","","","","","","","",""
"image-keyboard-response","19","69948","0.0-6.0-1.7","63e1f5009f56fcb831963f19","bdp_trlrn","Sun Mar 12 2023 14:19:34 GMT-0700 (Pacific Daylight Time)","906390","Untrustworthy,Trustworthy","","2124","","","","rating","","trustrating_stim/white_mw048.bmp","6","","","","","","","","","","",""
"image-keyboard-response","20","70150","0.0-6.0-2.7","63e1f5009f56fcb831963f19","bdp_trlrn","Sun Mar 12 2023 14:19:34 GMT-0700 (Pacific Daylight Time)","906390","Untrustworthy,Trustworthy","","null","","","","ratingFB","","trustrating_stim/white_mw048.bmp","null","","","","","","","","","","",""
"image-keyboard-response","21","72285","0.0-6.0-1.8","63e1f5009f56fcb831963f19","bdp_trlrn","Sun Mar 12 2023 14:19:34 GMT-0700 (Pacific Daylight Time)","906390","Untrustworthy,Trustworthy","","2032","","","","rating","","trustrating_stim/white_00659_941121_fa_edt.bmp","6","","","","","","","","","","",""
"image-keyboard-response","22","72488","0.0-6.0-2.8","63e1f5009f56fcb831963f19","bdp_trlrn","Sun Mar 12 2023 14:19:34 GMT-0700 (Pacific Daylight Time)","906390","Untrustworthy,Trustworthy","","null","","","","ratingFB","","trustrating_stim/white_00659_941121_fa_edt.bmp","null","","","","","","","","","","",""
"image-keyboard-response","23","74345","0.0-6.0-1.9","63e1f5009f56fcb831963f19","bdp_trlrn","Sun Mar 12 2023 14:19:34 GMT-0700 (Pacific Daylight Time)","906390","Untrustworthy,Trustworthy","","1755","","","","rating","","trustrating_stim/white_00761_941201_fb_edt.bmp","7","","","","","","","","","","",""
"image-keyboard-response","24","74547","0.0-6.0-2.9","63e1f5009f56fcb831963f19","bdp_trlrn","Sun Mar 12 2023 14:19:34 GMT-0700 (Pacific Daylight Time)","906390","Untrustworthy,Trustworthy","","null","","","","ratingFB","","trustrating_stim/white_00761_941201_fb_edt.bmp","null","","","","","","","","","","",""
"image-keyboard-response","25","76343","0.0-6.0-1.10","63e1f5009f56fcb831963f19","bdp_trlrn","Sun Mar 12 2023 14:19:34 GMT-0700 (Pacific Daylight Time)","906390","Untrustworthy,Trustworthy","","1694","","","","rating","","trustrating_stim/white_mw066.bmp","7","","","","","","","","","","",""
"image-keyboard-response","26","76545","0.0-6.0-2.10","63e1f5009f56fcb831963f19","bdp_trlrn","Sun Mar 12 2023 14:19:34 GMT-0700 (Pacific Daylight Time)","906390","Untrustworthy,Trustworthy","","null","","","","ratingFB","","trustrating_stim/white_mw066.bmp","null","","","","","","","","","","",""
"image-keyboard-response","27","78598","0.0-6.0-1.11","63e1f5009f56fcb831963f19","bdp_trlrn","Sun Mar 12 2023 14:19:34 GMT-0700 (Pacific Daylight Time)","906390","Untrustworthy,Trustworthy","","1951","","","","rating","","trustrating_stim/white_mw089.bmp","8","","","","","","","","","","",""
"image-keyboard-response","28","78800","0.0-6.0-2.11","63e1f5009f56fcb831963f19","bdp_trlrn","Sun Mar 12 2023 14:19:34 GMT-0700 (Pacific Daylight Time)","906390","Untrustworthy,Trustworthy","","null","","","","ratingFB","","trustrating_stim/white_mw089.bmp","null","","","","","","","","","","",""
"image-keyboard-response","29","80630","0.0-6.0-1.12","63e1f5009f56fcb831963f19","bdp_trlrn","Sun Mar 12 2023 14:19:34 GMT-0700 (Pacific Daylight Time)","906390","Untrustworthy,Trustworthy","","1728","","","","rating","","trustrating_stim/white_00757_941201_fa_edt.bmp","8","","","","","","","","","","",""
"image-keyboard-response","30","80832","0.0-6.0-2.12","63e1f5009f56fcb831963f19","bdp_trlrn","Sun Mar 12 2023 14:19:34 GMT-0700 (Pacific Daylight Time)","906390","Untrustworthy,Trustworthy","","null","","","","ratingFB","","trustrating_stim/white_00757_941201_fa_edt.bmp","null","","","","","","","","","","",""
"image-keyboard-response","31","83105","0.0-6.0-1.13","63e1f5009f56fcb831963f19","bdp_trlrn","Sun Mar 12 2023 14:19:34 GMT-0700 (Pacific Daylight Time)","906390","Untrustworthy,Trustworthy","","2171","","","","rating","","trustrating_stim/white_00129_931230_fb_edt.bmp","7","","","","","","","","","","",""
"image-keyboard-response","32","83306","0.0-6.0-2.13","63e1f5009f56fcb831963f19","bdp_trlrn","Sun Mar 12 2023 14:19:34 GMT-0700 (Pacific Daylight Time)","906390","Untrustworthy,Trustworthy","","null","","","","ratingFB","","trustrating_stim/white_00129_931230_fb_edt.bmp","null","","","","","","","","","","",""
"image-keyboard-response","33","85122","0.0-6.0-1.14","63e1f5009f56fcb831963f19","bdp_trlrn","Sun Mar 12 2023 14:19:34 GMT-0700 (Pacific Daylight Time)","906390","Untrustworthy,Trustworthy","","1714","","","","rating","","trustrating_stim/white_mw053.bmp","7","","","","","","","","","","",""
"image-keyboard-response","34","85323","0.0-6.0-2.14","63e1f5009f56fcb831963f19","bdp_trlrn","Sun Mar 12 2023 14:19:34 GMT-0700 (Pacific Daylight Time)","906390","Untrustworthy,Trustworthy","","null","","","","ratingFB","","trustrating_stim/white_mw053.bmp","null","","","","","","","","","","",""
"image-keyboard-response","35","88278","0.0-6.0-1.15","63e1f5009f56fcb831963f19","bdp_trlrn","Sun Mar 12 2023 14:19:34 GMT-0700 (Pacific Daylight Time)","906390","Untrustworthy,Trustworthy","","2853","","","","rating","","trustrating_stim/white_mw033.bmp","5","","","","","","","","","","",""
"image-keyboard-response","36","88481","0.0-6.0-2.15","63e1f5009f56fcb831963f19","bdp_trlrn","Sun Mar 12 2023 14:19:34 GMT-0700 (Pacific Daylight Time)","906390","Untrustworthy,Trustworthy","","null","","","","ratingFB","","trustrating_stim/white_mw033.bmp","null","","","","","","","","","","",""
"image-keyboard-response","37","90623","0.0-6.0-1.16","63e1f5009f56fcb831963f19","bdp_trlrn","Sun Mar 12 2023 14:19:34 GMT-0700 (Pacific Daylight Time)","906390","Untrustworthy,Trustworthy","","2040","","","","rating","","trustrating_stim/white_00602_940928_fb_edt.bmp","5","","","","","","","","","","",""
"image-keyboard-response","38","90825","0.0-6.0-2.16","63e1f5009f56fcb831963f19","bdp_trlrn","Sun Mar 12 2023 14:19:34 GMT-0700 (Pacific Daylight Time)","906390","Untrustworthy,Trustworthy","","null","","","","ratingFB","","trustrating_stim/white_00602_940928_fb_edt.bmp","null","","","","","","","","","","",""
"image-keyboard-response","39","92723","0.0-6.0-1.17","63e1f5009f56fcb831963f19","bdp_trlrn","Sun Mar 12 2023 14:19:34 GMT-0700 (Pacific Daylight Time)","906390","Untrustworthy,Trustworthy","","1795","","","","rating","","trustrating_stim/white_00109_931230_fa_edt.bmp","6","","","","","","","","","","",""
"image-keyboard-response","40","92925","0.0-6.0-2.17","63e1f5009f56fcb831963f19","bdp_trlrn","Sun Mar 12 2023 14:19:34 GMT-0700 (Pacific Daylight Time)","906390","Untrustworthy,Trustworthy","","null","","","","ratingFB","","trustrating_stim/white_00109_931230_fa_edt.bmp","null","","","","","","","","","","",""
"image-keyboard-response","41","94956","0.0-6.0-1.18","63e1f5009f56fcb831963f19","bdp_trlrn","Sun Mar 12 2023 14:19:34 GMT-0700 (Pacific Daylight Time)","906390","Untrustworthy,Trustworthy","","1929","","","","rating","","trustrating_stim/white_mw063.bmp","6","","","","","","","","","","",""
"image-keyboard-response","42","95158","0.0-6.0-2.18","63e1f5009f56fcb831963f19","bdp_trlrn","Sun Mar 12 2023 14:19:34 GMT-0700 (Pacific Daylight Time)","906390","Untrustworthy,Trustworthy","","null","","","","ratingFB","","trustrating_stim/white_mw063.bmp","null","","","","","","","","","","",""
"image-keyboard-response","43","97182","0.0-6.0-1.19","63e1f5009f56fcb831963f19","bdp_trlrn","Sun Mar 12 2023 14:19:34 GMT-0700 (Pacific Daylight Time)","906390","Untrustworthy,Trustworthy","","1923","","","","rating","","trustrating_stim/white_00898_960530_fa_edt.bmp","8","","","","","","","","","","",""
"image-keyboard-response","44","97384","0.0-6.0-2.19","63e1f5009f56fcb831963f19","bdp_trlrn","Sun Mar 12 2023 14:19:34 GMT-0700 (Pacific Daylight Time)","906390","Untrustworthy,Trustworthy","","null","","","","ratingFB","","trustrating_stim/white_00898_960530_fa_edt.bmp","null","","","","","","","","","","",""
"image-keyboard-response","45","99291","0.0-6.0-1.20","63e1f5009f56fcb831963f19","bdp_trlrn","Sun Mar 12 2023 14:19:34 GMT-0700 (Pacific Daylight Time)","906390","Untrustworthy,Trustworthy","","1805","","","","rating","","trustrating_stim/white_mw084.bmp","8","","","","","","","","","","",""
"image-keyboard-response","46","99493","0.0-6.0-2.20","63e1f5009f56fcb831963f19","bdp_trlrn","Sun Mar 12 2023 14:19:34 GMT-0700 (Pacific Daylight Time)","906390","Untrustworthy,Trustworthy","","null","","","","ratingFB","","trustrating_stim/white_mw084.bmp","null","","","","","","","","","","",""
"image-keyboard-response","47","102047","0.0-6.0-1.21","63e1f5009f56fcb831963f19","bdp_trlrn","Sun Mar 12 2023 14:19:34 GMT-0700 (Pacific Daylight Time)","906390","Untrustworthy,Trustworthy","","2452","","","","rating","","trustrating_stim/white_00577_940928_fa_edt.bmp","6","","","","","","","","","","",""
"image-keyboard-response","48","102249","0.0-6.0-2.21","63e1f5009f56fcb831963f19","bdp_trlrn","Sun Mar 12 2023 14:19:34 GMT-0700 (Pacific Daylight Time)","906390","Untrustworthy,Trustworthy","","null","","","","ratingFB","","trustrating_stim/white_00577_940928_fa_edt.bmp","null","","","","","","","","","","",""
"image-keyboard-response","49","104771","0.0-6.0-1.22","63e1f5009f56fcb831963f19","bdp_trlrn","Sun Mar 12 2023 14:19:34 GMT-0700 (Pacific Daylight Time)","906390","Untrustworthy,Trustworthy","","2420","","","","rating","","trustrating_stim/white_mw099.bmp","6","","","","","","","","","","",""
"image-keyboard-response","50","104974","0.0-6.0-2.22","63e1f5009f56fcb831963f19","bdp_trlrn","Sun Mar 12 2023 14:19:34 GMT-0700 (Pacific Daylight Time)","906390","Untrustworthy,Trustworthy","","null","","","","ratingFB","","trustrating_stim/white_mw099.bmp","null","","","","","","","","","","",""
"image-keyboard-response","51","106982","0.0-6.0-1.23","63e1f5009f56fcb831963f19","bdp_trlrn","Sun Mar 12 2023 14:19:34 GMT-0700 (Pacific Daylight Time)","906390","Untrustworthy,Trustworthy","","1906","","","","rating","","trustrating_stim/white_mw049.bmp","9","","","","","","","","","","",""
"image-keyboard-response","52","107184","0.0-6.0-2.23","63e1f5009f56fcb831963f19","bdp_trlrn","Sun Mar 12 2023 14:19:34 GMT-0700 (Pacific Daylight Time)","906390","Untrustworthy,Trustworthy","","null","","","","ratingFB","","trustrating_stim/white_mw049.bmp","null","","","","","","","","","","",""
"image-keyboard-response","53","110073","0.0-6.0-1.24","63e1f5009f56fcb831963f19","bdp_trlrn","Sun Mar 12 2023 14:19:34 GMT-0700 (Pacific Daylight Time)","906390","Untrustworthy,Trustworthy","","2787","","","","rating","","trustrating_stim/white_00340_940422_fa_edt.bmp","4","","","","","","","","","","",""
"image-keyboard-response","54","110275","0.0-6.0-2.24","63e1f5009f56fcb831963f19","bdp_trlrn","Sun Mar 12 2023 14:19:34 GMT-0700 (Pacific Daylight Time)","906390","Untrustworthy,Trustworthy","","null","","","","ratingFB","","trustrating_stim/white_00340_940422_fa_edt.bmp","null","","","","","","","","","","",""
"image-keyboard-response","55","112244","0.0-6.0-1.25","63e1f5009f56fcb831963f19","bdp_trlrn","Sun Mar 12 2023 14:19:34 GMT-0700 (Pacific Daylight Time)","906390","Untrustworthy,Trustworthy","","1866","","","","rating","","trustrating_stim/white_00299_940422_fa_edt.bmp","5","","","","","","","","","","",""
"image-keyboard-response","56","112445","0.0-6.0-2.25","63e1f5009f56fcb831963f19","bdp_trlrn","Sun Mar 12 2023 14:19:34 GMT-0700 (Pacific Daylight Time)","906390","Untrustworthy,Trustworthy","","null","","","","ratingFB","","trustrating_stim/white_00299_940422_fa_edt.bmp","null","","","","","","","","","","",""
"image-keyboard-response","57","114205","0.0-6.0-1.26","63e1f5009f56fcb831963f19","bdp_trlrn","Sun Mar 12 2023 14:19:34 GMT-0700 (Pacific Daylight Time)","906390","Untrustworthy,Trustworthy","","1657","","","","rating","","trustrating_stim/white_00223_940128_fb_edt.bmp","5","","","","","","","","","","",""
"image-keyboard-response","58","114406","0.0-6.0-2.26","63e1f5009f56fcb831963f19","bdp_trlrn","Sun Mar 12 2023 14:19:34 GMT-0700 (Pacific Daylight Time)","906390","Untrustworthy,Trustworthy","","null","","","","ratingFB","","trustrating_stim/white_00223_940128_fb_edt.bmp","null","","","","","","","","","","",""
"image-keyboard-response","59","116117","0.0-6.0-1.27","63e1f5009f56fcb831963f19","bdp_trlrn","Sun Mar 12 2023 14:19:34 GMT-0700 (Pacific Daylight Time)","906390","Untrustworthy,Trustworthy","","1609","","","","rating","","trustrating_stim/white_00120_931230_fa_edt.bmp","6","","","","","","","","","","",""
"image-keyboard-response","60","116319","0.0-6.0-2.27","63e1f5009f56fcb831963f19","bdp_trlrn","Sun Mar 12 2023 14:19:34 GMT-0700 (Pacific Daylight Time)","906390","Untrustworthy,Trustworthy","","null","","","","ratingFB","","trustrating_stim/white_00120_931230_fa_edt.bmp","null","","","","","","","","","","",""
"image-keyboard-response","61","118589","0.0-6.0-1.28","63e1f5009f56fcb831963f19","bdp_trlrn","Sun Mar 12 2023 14:19:34 GMT-0700 (Pacific Daylight Time)","906390","Untrustworthy,Trustworthy","","2167","","","","rating","","trustrating_stim/white_mw035.bmp","8","","","","","","","","","","",""
"image-keyboard-response","62","118791","0.0-6.0-2.28","63e1f5009f56fcb831963f19","bdp_trlrn","Sun Mar 12 2023 14:19:34 GMT-0700 (Pacific Daylight Time)","906390","Untrustworthy,Trustworthy","","null","","","","ratingFB","","trustrating_stim/white_mw035.bmp","null","","","","","","","","","","",""
"image-keyboard-response","63","120831","0.0-6.0-1.29","63e1f5009f56fcb831963f19","bdp_trlrn","Sun Mar 12 2023 14:19:34 GMT-0700 (Pacific Daylight Time)","906390","Untrustworthy,Trustworthy","","1938","","","","rating","","trustrating_stim/white_00785_941205_fb_edt.bmp","7","","","","","","","","","","",""
"image-keyboard-response","64","121034","0.0-6.0-2.29","63e1f5009f56fcb831963f19","bdp_trlrn","Sun Mar 12 2023 14:19:34 GMT-0700 (Pacific Daylight Time)","906390","Untrustworthy,Trustworthy","","null","","","","ratingFB","","trustrating_stim/white_00785_941205_fb_edt.bmp","null","","","","","","","","","","",""
"image-keyboard-response","65","125532","0.0-6.0-1.30","63e1f5009f56fcb831963f19","bdp_trlrn","Sun Mar 12 2023 14:19:34 GMT-0700 (Pacific Daylight Time)","906390","Untrustworthy,Trustworthy","","4397","","","","rating","","trustrating_stim/white_00340_940422_fa_edt.bmp","5","","","","","","","","","","",""
"image-keyboard-response","66","125734","0.0-6.0-2.30","63e1f5009f56fcb831963f19","bdp_trlrn","Sun Mar 12 2023 14:19:34 GMT-0700 (Pacific Daylight Time)","906390","Untrustworthy,Trustworthy","","null","","","","ratingFB","","trustrating_stim/white_00340_940422_fa_edt.bmp","null","","","","","","","","","","",""
"image-keyboard-response","67","129937","0.0-6.0-1.31","63e1f5009f56fcb831963f19","bdp_trlrn","Sun Mar 12 2023 14:19:34 GMT-0700 (Pacific Daylight Time)","906390","Untrustworthy,Trustworthy","","4100","","","","rating","","trustrating_stim/white_mw053.bmp","8","","","","","","","","","","",""
"image-keyboard-response","68","130140","0.0-6.0-2.31","63e1f5009f56fcb831963f19","bdp_trlrn","Sun Mar 12 2023 14:19:34 GMT-0700 (Pacific Daylight Time)","906390","Untrustworthy,Trustworthy","","null","","","","ratingFB","","trustrating_stim/white_mw053.bmp","null","","","","","","","","","","",""
"image-keyboard-response","69","132095","0.0-6.0-1.32","63e1f5009f56fcb831963f19","bdp_trlrn","Sun Mar 12 2023 14:19:34 GMT-0700 (Pacific Daylight Time)","906390","Untrustworthy,Trustworthy","","1852","","","","rating","","trustrating_stim/white_00120_931230_fa_edt.bmp","6","","","","","","","","","","",""
"image-keyboard-response","70","132296","0.0-6.0-2.32","63e1f5009f56fcb831963f19","bdp_trlrn","Sun Mar 12 2023 14:19:34 GMT-0700 (Pacific Daylight Time)","906390","Untrustworthy,Trustworthy","","null","","","","ratingFB","","trustrating_stim/white_00120_931230_fa_edt.bmp","null","","","","","","","","","","",""
"image-keyboard-response","71","134941","0.0-6.0-1.33","63e1f5009f56fcb831963f19","bdp_trlrn","Sun Mar 12 2023 14:19:34 GMT-0700 (Pacific Daylight Time)","906390","Untrustworthy,Trustworthy","","2543","","","","rating","","trustrating_stim/white_mw046.bmp","6","","","","","","","","","","",""
"image-keyboard-response","72","135144","0.0-6.0-2.33","63e1f5009f56fcb831963f19","bdp_trlrn","Sun Mar 12 2023 14:19:34 GMT-0700 (Pacific Daylight Time)","906390","Untrustworthy,Trustworthy","","null","","","","ratingFB","","trustrating_stim/white_mw046.bmp","null","","","","","","","","","","",""
"image-keyboard-response","73","138209","0.0-6.0-1.34","63e1f5009f56fcb831963f19","bdp_trlrn","Sun Mar 12 2023 14:19:34 GMT-0700 (Pacific Daylight Time)","906390","Untrustworthy,Trustworthy","","2964","","","","rating","","trustrating_stim/white_mw071.bmp","8","","","","","","","","","","",""
"image-keyboard-response","74","138412","0.0-6.0-2.34","63e1f5009f56fcb831963f19","bdp_trlrn","Sun Mar 12 2023 14:19:34 GMT-0700 (Pacific Daylight Time)","906390","Untrustworthy,Trustworthy","","null","","","","ratingFB","","trustrating_stim/white_mw071.bmp","null","","","","","","","","","","",""
"image-keyboard-response","75","139931","0.0-6.0-1.35","63e1f5009f56fcb831963f19","bdp_trlrn","Sun Mar 12 2023 14:19:34 GMT-0700 (Pacific Daylight Time)","906390","Untrustworthy,Trustworthy","","1417","","","","rating","","trustrating_stim/white_00898_960530_fa_edt.bmp","7","","","","","","","","","","",""
"image-keyboard-response","76","140133","0.0-6.0-2.35","63e1f5009f56fcb831963f19","bdp_trlrn","Sun Mar 12 2023 14:19:34 GMT-0700 (Pacific Daylight Time)","906390","Untrustworthy,Trustworthy","","null","","","","ratingFB","","trustrating_stim/white_00898_960530_fa_edt.bmp","null","","","","","","","","","","",""
"image-keyboard-response","77","144022","0.0-6.0-1.36","63e1f5009f56fcb831963f19","bdp_trlrn","Sun Mar 12 2023 14:19:34 GMT-0700 (Pacific Daylight Time)","906390","Untrustworthy,Trustworthy","","3786","","","","rating","","trustrating_stim/white_mw063.bmp","6","","","","","","","","","","",""
"image-keyboard-response","78","144225","0.0-6.0-2.36","63e1f5009f56fcb831963f19","bdp_trlrn","Sun Mar 12 2023 14:19:34 GMT-0700 (Pacific Daylight Time)","906390","Untrustworthy,Trustworthy","","null","","","","ratingFB","","trustrating_stim/white_mw063.bmp","null","","","","","","","","","","",""
"image-keyboard-response","79","146462","0.0-6.0-1.37","63e1f5009f56fcb831963f19","bdp_trlrn","Sun Mar 12 2023 14:19:34 GMT-0700 (Pacific Daylight Time)","906390","Untrustworthy,Trustworthy","","2134","","","","rating","","trustrating_stim/white_00129_931230_fb_edt.bmp","6","","","","","","","","","","",""
"image-keyboard-response","80","146663","0.0-6.0-2.37","63e1f5009f56fcb831963f19","bdp_trlrn","Sun Mar 12 2023 14:19:34 GMT-0700 (Pacific Daylight Time)","906390","Untrustworthy,Trustworthy","","null","","","","ratingFB","","trustrating_stim/white_00129_931230_fb_edt.bmp","null","","","","","","","","","","",""
"image-keyboard-response","81","148999","0.0-6.0-1.38","63e1f5009f56fcb831963f19","bdp_trlrn","Sun Mar 12 2023 14:19:34 GMT-0700 (Pacific Daylight Time)","906390","Untrustworthy,Trustworthy","","2234","","","","rating","","trustrating_stim/white_mw049.bmp","8","","","","","","","","","","",""
"image-keyboard-response","82","149200","0.0-6.0-2.38","63e1f5009f56fcb831963f19","bdp_trlrn","Sun Mar 12 2023 14:19:34 GMT-0700 (Pacific Daylight Time)","906390","Untrustworthy,Trustworthy","","null","","","","ratingFB","","trustrating_stim/white_mw049.bmp","null","","","","","","","","","","",""
"image-keyboard-response","83","150945","0.0-6.0-1.39","63e1f5009f56fcb831963f19","bdp_trlrn","Sun Mar 12 2023 14:19:34 GMT-0700 (Pacific Daylight Time)","906390","Untrustworthy,Trustworthy","","1643","","","","rating","","trustrating_stim/white_mw060.bmp","7","","","","","","","","","","",""
"image-keyboard-response","84","151146","0.0-6.0-2.39","63e1f5009f56fcb831963f19","bdp_trlrn","Sun Mar 12 2023 14:19:34 GMT-0700 (Pacific Daylight Time)","906390","Untrustworthy,Trustworthy","","null","","","","ratingFB","","trustrating_stim/white_mw060.bmp","null","","","","","","","","","","",""
"image-keyboard-response","85","153329","0.0-6.0-1.40","63e1f5009f56fcb831963f19","bdp_trlrn","Sun Mar 12 2023 14:19:34 GMT-0700 (Pacific Daylight Time)","906390","Untrustworthy,Trustworthy","","2081","","","","rating","","trustrating_stim/white_00577_940928_fa_edt.bmp","5","","","","","","","","","","",""
"image-keyboard-response","86","153531","0.0-6.0-2.40","63e1f5009f56fcb831963f19","bdp_trlrn","Sun Mar 12 2023 14:19:34 GMT-0700 (Pacific Daylight Time)","906390","Untrustworthy,Trustworthy","","null","","","","ratingFB","","trustrating_stim/white_00577_940928_fa_edt.bmp","null","","","","","","","","","","",""
"image-keyboard-response","87","155799","0.0-6.0-1.41","63e1f5009f56fcb831963f19","bdp_trlrn","Sun Mar 12 2023 14:19:34 GMT-0700 (Pacific Daylight Time)","906390","Untrustworthy,Trustworthy","","2166","","","","rating","","trustrating_stim/white_mw056.bmp","6","","","","","","","","","","",""
"image-keyboard-response","88","156000","0.0-6.0-2.41","63e1f5009f56fcb831963f19","bdp_trlrn","Sun Mar 12 2023 14:19:34 GMT-0700 (Pacific Daylight Time)","906390","Untrustworthy,Trustworthy","","null","","","","ratingFB","","trustrating_stim/white_mw056.bmp","null","","","","","","","","","","",""
"image-keyboard-response","89","158307","0.0-6.0-1.42","63e1f5009f56fcb831963f19","bdp_trlrn","Sun Mar 12 2023 14:19:34 GMT-0700 (Pacific Daylight Time)","906390","Untrustworthy,Trustworthy","","2205","","","","rating","","trustrating_stim/white_mw033.bmp","7","","","","","","","","","","",""
"image-keyboard-response","90","158509","0.0-6.0-2.42","63e1f5009f56fcb831963f19","bdp_trlrn","Sun Mar 12 2023 14:19:34 GMT-0700 (Pacific Daylight Time)","906390","Untrustworthy,Trustworthy","","null","","","","ratingFB","","trustrating_stim/white_mw033.bmp","null","","","","","","","","","","",""
"image-keyboard-response","91","160949","0.0-6.0-1.43","63e1f5009f56fcb831963f19","bdp_trlrn","Sun Mar 12 2023 14:19:34 GMT-0700 (Pacific Daylight Time)","906390","Untrustworthy,Trustworthy","","2338","","","","rating","","trustrating_stim/white_mw084.bmp","8","","","","","","","","","","",""
"image-keyboard-response","92","161151","0.0-6.0-2.43","63e1f5009f56fcb831963f19","bdp_trlrn","Sun Mar 12 2023 14:19:34 GMT-0700 (Pacific Daylight Time)","906390","Untrustworthy,Trustworthy","","null","","","","ratingFB","","trustrating_stim/white_mw084.bmp","null","","","","","","","","","","",""
"image-keyboard-response","93","163063","0.0-6.0-1.44","63e1f5009f56fcb831963f19","bdp_trlrn","Sun Mar 12 2023 14:19:34 GMT-0700 (Pacific Daylight Time)","906390","Untrustworthy,Trustworthy","","1811","","","","rating","","trustrating_stim/white_00757_941201_fa_edt.bmp","7","","","","","","","","","","",""
"image-keyboard-response","94","163265","0.0-6.0-2.44","63e1f5009f56fcb831963f19","bdp_trlrn","Sun Mar 12 2023 14:19:34 GMT-0700 (Pacific Daylight Time)","906390","Untrustworthy,Trustworthy","","null","","","","ratingFB","","trustrating_stim/white_00757_941201_fa_edt.bmp","null","","","","","","","","","","",""
"image-keyboard-response","95","165552","0.0-6.0-1.45","63e1f5009f56fcb831963f19","bdp_trlrn","Sun Mar 12 2023 14:19:34 GMT-0700 (Pacific Daylight Time)","906390","Untrustworthy,Trustworthy","","2185","","","","rating","","trustrating_stim/white_mw099.bmp","6","","","","","","","","","","",""
"image-keyboard-response","96","165754","0.0-6.0-2.45","63e1f5009f56fcb831963f19","bdp_trlrn","Sun Mar 12 2023 14:19:34 GMT-0700 (Pacific Daylight Time)","906390","Untrustworthy,Trustworthy","","null","","","","ratingFB","","trustrating_stim/white_mw099.bmp","null","","","","","","","","","","",""
"image-keyboard-response","97","168095","0.0-6.0-1.46","63e1f5009f56fcb831963f19","bdp_trlrn","Sun Mar 12 2023 14:19:34 GMT-0700 (Pacific Daylight Time)","906390","Untrustworthy,Trustworthy","","2239","","","","rating","","trustrating_stim/white_00299_940422_fa_edt.bmp","6","","","","","","","","","","",""
"image-keyboard-response","98","168297","0.0-6.0-2.46","63e1f5009f56fcb831963f19","bdp_trlrn","Sun Mar 12 2023 14:19:34 GMT-0700 (Pacific Daylight Time)","906390","Untrustworthy,Trustworthy","","null","","","","ratingFB","","trustrating_stim/white_00299_940422_fa_edt.bmp","null","","","","","","","","","","",""
"image-keyboard-response","99","170383","0.0-6.0-1.47","63e1f5009f56fcb831963f19","bdp_trlrn","Sun Mar 12 2023 14:19:34 GMT-0700 (Pacific Daylight Time)","906390","Untrustworthy,Trustworthy","","1984","","","","rating","","trustrating_stim/white_00785_941205_fb_edt.bmp","5","","","","","","","","","","",""
"image-keyboard-response","100","170585","0.0-6.0-2.47","63e1f5009f56fcb831963f19","bdp_trlrn","Sun Mar 12 2023 14:19:34 GMT-0700 (Pacific Daylight Time)","906390","Untrustworthy,Trustworthy","","null","","","","ratingFB","","trustrating_stim/white_00785_941205_fb_edt.bmp","null","","","","","","","","","","",""
"image-keyboard-response","101","175156","0.0-6.0-1.48","63e1f5009f56fcb831963f19","bdp_trlrn","Sun Mar 12 2023 14:19:34 GMT-0700 (Pacific Daylight Time)","906390","Untrustworthy,Trustworthy","","4468","","","","rating","","trustrating_stim/white_mw066.bmp","6","","","","","","","","","","",""
"image-keyboard-response","102","175359","0.0-6.0-2.48","63e1f5009f56fcb831963f19","bdp_trlrn","Sun Mar 12 2023 14:19:34 GMT-0700 (Pacific Daylight Time)","906390","Untrustworthy,Trustworthy","","null","","","","ratingFB","","trustrating_stim/white_mw066.bmp","null","","","","","","","","","","",""
"image-keyboard-response","103","178584","0.0-6.0-1.49","63e1f5009f56fcb831963f19","bdp_trlrn","Sun Mar 12 2023 14:19:34 GMT-0700 (Pacific Daylight Time)","906390","Untrustworthy,Trustworthy","","3122","","","","rating","","trustrating_stim/white_00519_940519_fb_edt.bmp","8","","","","","","","","","","",""
"image-keyboard-response","104","178788","0.0-6.0-2.49","63e1f5009f56fcb831963f19","bdp_trlrn","Sun Mar 12 2023 14:19:34 GMT-0700 (Pacific Daylight Time)","906390","Untrustworthy,Trustworthy","","null","","","","ratingFB","","trustrating_stim/white_00519_940519_fb_edt.bmp","null","","","","","","","","","","",""
"image-keyboard-response","105","180895","0.0-6.0-1.50","63e1f5009f56fcb831963f19","bdp_trlrn","Sun Mar 12 2023 14:19:34 GMT-0700 (Pacific Daylight Time)","906390","Untrustworthy,Trustworthy","","2004","","","","rating","","trustrating_stim/white_mw089.bmp","6","","","","","","","","","","",""
"image-keyboard-response","106","181096","0.0-6.0-2.50","63e1f5009f56fcb831963f19","bdp_trlrn","Sun Mar 12 2023 14:19:34 GMT-0700 (Pacific Daylight Time)","906390","Untrustworthy,Trustworthy","","null","","","","ratingFB","","trustrating_stim/white_mw089.bmp","null","","","","","","","","","","",""
"image-keyboard-response","107","183251","0.0-6.0-1.51","63e1f5009f56fcb831963f19","bdp_trlrn","Sun Mar 12 2023 14:19:34 GMT-0700 (Pacific Daylight Time)","906390","Untrustworthy,Trustworthy","","2052","","","","rating","","trustrating_stim/white_mw048.bmp","5","","","","","","","","","","",""
"image-keyboard-response","108","183453","0.0-6.0-2.51","63e1f5009f56fcb831963f19","bdp_trlrn","Sun Mar 12 2023 14:19:34 GMT-0700 (Pacific Daylight Time)","906390","Untrustworthy,Trustworthy","","null","","","","ratingFB","","trustrating_stim/white_mw048.bmp","null","","","","","","","","","","",""
"image-keyboard-response","109","185755","0.0-6.0-1.52","63e1f5009f56fcb831963f19","bdp_trlrn","Sun Mar 12 2023 14:19:34 GMT-0700 (Pacific Daylight Time)","906390","Untrustworthy,Trustworthy","","2200","","","","rating","","trustrating_stim/white_00602_940928_fb_edt.bmp","6","","","","","","","","","","",""
"image-keyboard-response","110","185957","0.0-6.0-2.52","63e1f5009f56fcb831963f19","bdp_trlrn","Sun Mar 12 2023 14:19:34 GMT-0700 (Pacific Daylight Time)","906390","Untrustworthy,Trustworthy","","null","","","","ratingFB","","trustrating_stim/white_00602_940928_fb_edt.bmp","null","","","","","","","","","","",""
"image-keyboard-response","111","187748","0.0-6.0-1.53","63e1f5009f56fcb831963f19","bdp_trlrn","Sun Mar 12 2023 14:19:34 GMT-0700 (Pacific Daylight Time)","906390","Untrustworthy,Trustworthy","","1688","","","","rating","","trustrating_stim/white_00761_941201_fb_edt.bmp","5","","","","","","","","","","",""
"image-keyboard-response","112","187950","0.0-6.0-2.53","63e1f5009f56fcb831963f19","bdp_trlrn","Sun Mar 12 2023 14:19:34 GMT-0700 (Pacific Daylight Time)","906390","Untrustworthy,Trustworthy","","null","","","","ratingFB","","trustrating_stim/white_00761_941201_fb_edt.bmp","null","","","","","","","","","","",""
"image-keyboard-response","113","190025","0.0-6.0-1.54","63e1f5009f56fcb831963f19","bdp_trlrn","Sun Mar 12 2023 14:19:34 GMT-0700 (Pacific Daylight Time)","906390","Untrustworthy,Trustworthy","","1974","","","","rating","","trustrating_stim/white_mw035.bmp","6","","","","","","","","","","",""
"image-keyboard-response","114","190227","0.0-6.0-2.54","63e1f5009f56fcb831963f19","bdp_trlrn","Sun Mar 12 2023 14:19:34 GMT-0700 (Pacific Daylight Time)","906390","Untrustworthy,Trustworthy","","null","","","","ratingFB","","trustrating_stim/white_mw035.bmp","null","","","","","","","","","","",""
"image-keyboard-response","115","192191","0.0-6.0-1.55","63e1f5009f56fcb831963f19","bdp_trlrn","Sun Mar 12 2023 14:19:34 GMT-0700 (Pacific Daylight Time)","906390","Untrustworthy,Trustworthy","","1861","","","","rating","","trustrating_stim/white_00659_941121_fa_edt.bmp","6","","","","","","","","","","",""
"image-keyboard-response","116","192393","0.0-6.0-2.55","63e1f5009f56fcb831963f19","bdp_trlrn","Sun Mar 12 2023 14:19:34 GMT-0700 (Pacific Daylight Time)","906390","Untrustworthy,Trustworthy","","null","","","","ratingFB","","trustrating_stim/white_00659_941121_fa_edt.bmp","null","","","","","","","","","","",""
"image-keyboard-response","117","194279","0.0-6.0-1.56","63e1f5009f56fcb831963f19","bdp_trlrn","Sun Mar 12 2023 14:19:34 GMT-0700 (Pacific Daylight Time)","906390","Untrustworthy,Trustworthy","","1775","","","","rating","","trustrating_stim/white_00807_941205_fb_edt.bmp","6","","","","","","","","","","",""
"image-keyboard-response","118","194481","0.0-6.0-2.56","63e1f5009f56fcb831963f19","bdp_trlrn","Sun Mar 12 2023 14:19:34 GMT-0700 (Pacific Daylight Time)","906390","Untrustworthy,Trustworthy","","null","","","","ratingFB","","trustrating_stim/white_00807_941205_fb_edt.bmp","null","","","","","","","","","","",""
"image-keyboard-response","119","196387","0.0-6.0-1.57","63e1f5009f56fcb831963f19","bdp_trlrn","Sun Mar 12 2023 14:19:34 GMT-0700 (Pacific Daylight Time)","906390","Untrustworthy,Trustworthy","","1804","","","","rating","","trustrating_stim/white_00109_931230_fa_edt.bmp","7","","","","","","","","","","",""
"image-keyboard-response","120","196590","0.0-6.0-2.57","63e1f5009f56fcb831963f19","bdp_trlrn","Sun Mar 12 2023 14:19:34 GMT-0700 (Pacific Daylight Time)","906390","Untrustworthy,Trustworthy","","null","","","","ratingFB","","trustrating_stim/white_00109_931230_fa_edt.bmp","null","","","","","","","","","","",""
"image-keyboard-response","121","199006","0.0-6.0-1.58","63e1f5009f56fcb831963f19","bdp_trlrn","Sun Mar 12 2023 14:19:34 GMT-0700 (Pacific Daylight Time)","906390","Untrustworthy,Trustworthy","","2314","","","","rating","","trustrating_stim/white_mw097.bmp","6","","","","","","","","","","",""
"image-keyboard-response","122","199208","0.0-6.0-2.58","63e1f5009f56fcb831963f19","bdp_trlrn","Sun Mar 12 2023 14:19:34 GMT-0700 (Pacific Daylight Time)","906390","Untrustworthy,Trustworthy","","null","","","","ratingFB","","trustrating_stim/white_mw097.bmp","null","","","","","","","","","","",""
"image-keyboard-response","123","201700","0.0-6.0-1.59","63e1f5009f56fcb831963f19","bdp_trlrn","Sun Mar 12 2023 14:19:34 GMT-0700 (Pacific Daylight Time)","906390","Untrustworthy,Trustworthy","","2389","","","","rating","","trustrating_stim/white_00223_940128_fb_edt.bmp","5","","","","","","","","","","",""
"image-keyboard-response","124","201903","0.0-6.0-2.59","63e1f5009f56fcb831963f19","bdp_trlrn","Sun Mar 12 2023 14:19:34 GMT-0700 (Pacific Daylight Time)","906390","Untrustworthy,Trustworthy","","null","","","","ratingFB","","trustrating_stim/white_00223_940128_fb_edt.bmp","null","","","","","","","","","","",""
"instructions","125","204811","0.0-7.0","63e1f5009f56fcb831963f19","bdp_trlrn","Sun Mar 12 2023 14:19:34 GMT-0700 (Pacific Daylight Time)","906390","Untrustworthy,Trustworthy","[{""page_index"":0,""viewing_time"":2806}]","2806","","","","","","","","","","","","","","","","","",""
"instructions","126","470030","0.0-8.0","63e1f5009f56fcb831963f19","bdp_trlrn","Sun Mar 12 2023 14:19:34 GMT-0700 (Pacific Daylight Time)","906390","Untrustworthy,Trustworthy","[{""page_index"":0,""viewing_time"":117843},{""page_index"":1,""viewing_time"":22815},{""page_index"":2,""viewing_time"":15015},{""page_index"":3,""viewing_time"":13963},{""page_index"":4,""viewing_time"":38121},{""page_index"":5,""viewing_time"":19214},{""page_index"":6,""viewing_time"":30152},{""page_index"":7,""viewing_time"":7994}]","265117","","","","","","","","","","","","","","","","","",""
"html-keyboard-response","127","474972","0.0-9.0","63e1f5009f56fcb831963f19","bdp_trlrn","Sun Mar 12 2023 14:19:34 GMT-0700 (Pacific Daylight Time)","906390","Untrustworthy,Trustworthy","","4941","","","","","","<div class='header' style='text-align:left; position: absolute; top: 5%; left: 5%;'><small>Task 3 of 5</small></div><div class='instruxDiv'><p><strong>1) What is the minimum number of points you can choose to send to your partner?</strong></p><p>a) 0</p><p>b) 1</p><p>c) 5</p>","C","","","","","","","","","","",""
"html-keyboard-response","128","494122","0.0-10.0","63e1f5009f56fcb831963f19","bdp_trlrn","Sun Mar 12 2023 14:19:34 GMT-0700 (Pacific Daylight Time)","906390","Untrustworthy,Trustworthy","","19047","","","","","","<div class='header' style='text-align:left; position: absolute; top: 5%; left: 5%;'><small>Task 3 of 5</small></div><div class='instruxDiv'><p><strong>1) What is the minimum number of points you can choose to send to your partner?</strong></p><p>a) 1</p><p>b) 1</p><p style='color:#FF0000'>c) 5</p><h3 style='color:#FF0000'>Incorrect!</h3><h3 class='center-content'>The correct response is b).</h3><h3 class='center-content'>The minimum number of points you can choose to send to your partner is 1 point.</h3><p><em>Press SPACEBAR to continue</em></p></div>"," ","","","","","","","","","","",""
"html-keyboard-response","129","499094","0.0-11.0","63e1f5009f56fcb831963f19","bdp_trlrn","Sun Mar 12 2023 14:19:34 GMT-0700 (Pacific Daylight Time)","906390","Untrustworthy,Trustworthy","","4870","","","","","","<div class='header' style='text-align:left; position: absolute; top: 5%; left: 5%;'><small>Task 3 of 5</small></div><div class='instruxDiv'><p><strong>2) What is the maximum number of points you can choose to send to your partner?</strong></p><p>a) 8</p><p>b) 5</p><p>c) 3</p>","B","","","","","","","","","","",""
"html-keyboard-response","130","502284","0.0-12.0","63e1f5009f56fcb831963f19","bdp_trlrn","Sun Mar 12 2023 14:19:34 GMT-0700 (Pacific Daylight Time)","906390","Untrustworthy,Trustworthy","","3089","","","","","","<div class='header' style='text-align:left; position: absolute; top: 5%; left: 5%;'><small>Task 3 of 5</small></div><div class='instruxDiv'><p><strong>2) What is the maximum number of points you can choose to send to your partner?</strong></p><p>a) 8</p><p style='color:#00FF00'>b) 5</p><p>c) 3</p><h3 style='color:#00FF00'>Correct!</h3><h3 class='center-content'>The correct response is b).</h3><h3 class='center-content'>The maximum number of points you can choose to send to your partner is 5 points.</h3><p><em>Press SPACEBAR to continue</em></p></div>"," ","","","","","","","","","","",""
"html-keyboard-response","131","506622","0.0-13.0","63e1f5009f56fcb831963f19","bdp_trlrn","Sun Mar 12 2023 14:19:34 GMT-0700 (Pacific Daylight Time)","906390","Untrustworthy,Trustworthy","","4237","","","","","","<div class='header' style='text-align:left; position: absolute; top: 5%; left: 5%;'><small>Task 3 of 5</small></div><div class='instruxDiv'><p><strong>3) What happens to the amount of points you send to your partner?</strong></p><p>a) Nothing</p><p>b) It doubles</p><p>c) It quadruples</p>","C","","","","","","","","","","",""
"html-keyboard-response","132","511055","0.0-14.0","63e1f5009f56fcb831963f19","bdp_trlrn","Sun Mar 12 2023 14:19:34 GMT-0700 (Pacific Daylight Time)","906390","Untrustworthy,Trustworthy","","4332","","","","","","<div class='header' style='text-align:left; position: absolute; top: 5%; left: 5%;'><small>Task 3 of 5</small></div><div class='instruxDiv'><p><strong>3) What happens to the amount of points you send to your partner?</strong></p><p>a) Nothing</p><p>b) It doubles</p><p style='color:#00FF00'>c) It quadruples</p><h3 style='color:#00FF00'>Correct!</h3><h3 class='center-content'>The correct response is c).</h3><h3 class='center-content'>The amount of points you send to your partner quadruples.</h3><p><em>Press SPACEBAR to continue</em></p></div>"," ","","","","","","","","","","",""
"html-keyboard-response","133","543064","0.0-15.0","63e1f5009f56fcb831963f19","bdp_trlrn","Sun Mar 12 2023 14:19:34 GMT-0700 (Pacific Daylight Time)","906390","Untrustworthy,Trustworthy","","31907","","","","","","<div class='header' style='text-align:left; position: absolute; top: 5%; left: 5%;'><small>Task 3 of 5</small></div><div class='instruxDiv'><p><strong>4) If you decided to share 4 out of 5 points with your partner, and they decided to share half of the amount they received with you, how many points would you receive back from them on this round?</strong></p><p>a) 16</p><p>b) 0</p><p>c) 8</p>","C","","","","","","","","","","",""
"html-keyboard-response","134","547834","0.0-16.0","63e1f5009f56fcb831963f19","bdp_trlrn","Sun Mar 12 2023 14:19:34 GMT-0700 (Pacific Daylight Time)","906390","Untrustworthy,Trustworthy","","4668","","","","","","<div class='header' style='text-align:left; position: absolute; top: 5%; left: 5%;'><small>Task 3 of 5</small></div><div class='instruxDiv'><p><strong>4) If you decided to share 4 out of 5 points with your partner, and they decided to share half of the amount they received with you, how many points would you receive back from them on this round?</strong></p><p>a) 16</p><p>b) 0</p><p style='color:#00FF00'>c) 8</p><h3 style='color:#00FF00'>Correct!</h3><h3 class='center-content'>The correct response is c).</h3><h3 class='center-content'>If you shared 4 out of 5 points with your partner and they decided to share half of the amount they received with you, you would receive 8 points back (i.e. (4 x 4)/2 = 8).</h3><p><em>Press SPACEBAR to continue</em></p></div>"," ","","","","","","","","","","",""
"html-keyboard-response","135","552939","0.0-17.0","63e1f5009f56fcb831963f19","bdp_trlrn","Sun Mar 12 2023 14:19:34 GMT-0700 (Pacific Daylight Time)","906390","Untrustworthy,Trustworthy","","null","","","","","","<div class='header' style='text-align:left; position: absolute; top: 5%; left: 5%;'><small>Task 3 of 5</small></div><div class='instruxDiv'><p>Thank you for completing the quiz<p>These are the actual partners you will be interacting with in the next block:<p><div class='tc' align='center'><img class='introPic' src='trustrating_stim/white_mw097.bmp'><br><strong>Benjamin</strong></div><div class='bl' align='center'><img class='introPic' src='trustrating_stim/white_mw033.bmp'><br><strong>Aaron</strong></div><div class='br' align='center'><img class='introPic' src='trustrating_stim/white_00898_960530_fa_edt.bmp'><br><strong>Joseph</strong></div></div><p>Across <strong>66 rounds</strong> you will interact with each partner <strong>22 times</strong> (in random order).<p style='align:center; color:white'><font <em>Press SPACEBAR to continue</em></p>","null","","","","","","","","","","",""
"instructions","136","567558","0.0-18.0","63e1f5009f56fcb831963f19","bdp_trlrn","Sun Mar 12 2023 14:19:34 GMT-0700 (Pacific Daylight Time)","906390","Untrustworthy,Trustworthy","[{""page_index"":0,""viewing_time"":6464},{""page_index"":1,""viewing_time"":8154}]","14618","","","","","","","","","","","","","","","","","",""
"html-keyboard-response","137","571240","0.0-19.0-1.0","63e1f5009f56fcb831963f19","bdp_trlrn","Sun Mar 12 2023 14:19:34 GMT-0700 (Pacific Daylight Time)","906390","Untrustworthy,Trustworthy","","3579","","","","decision","","<div class='trialDiv'><img src='trustrating_stim/white_mw097.bmp'><br><font class='baseline'><strong>Benjamin</strong><p>Choose number of points to send.</font><div class='respPicDiv'><img src='img/responseButtonOffersNo0L.png' class='respPic'></div></div>","3","1","Benjamin","1","Kept","0.35,0.8","13","0.35","trustrating_stim/white_mw097.bmp","5","5","1"
"html-keyboard-response","138","571492","0.0-19.0-2.0","63e1f5009f56fcb831963f19","bdp_trlrn","Sun Mar 12 2023 14:19:34 GMT-0700 (Pacific Daylight Time)","906390","Untrustworthy,Trustworthy","","null","","","","decisionFB","","<div class='trialDiv'><img src='trustrating_stim/white_mw097.bmp'><br><font class='baseline'><strong>Benjamin</strong><p>Choose number of points to send.</font><div class='respPicDiv'><img src='img/responseButtonOffersNo0L3.png' class='respPic'></div></div>","null","1","Benjamin","1","Kept","0.35,0.8","13","0.35","trustrating_stim/white_mw097.bmp","5","2","1"
"html-keyboard-response","139","572495","0.0-19.0-3.0","63e1f5009f56fcb831963f19","bdp_trlrn","Sun Mar 12 2023 14:19:34 GMT-0700 (Pacific Daylight Time)","906390","Untrustworthy,Trustworthy","","null","","","","feedback","","<div class='trialDiv'><img src='trustrating_stim/white_mw097.bmp'><br><font class='baseline'><strong>Benjamin</strong><p>Received: <strong>12</strong></font> &nbsp; &nbsp; &nbsp; &nbsp; &nbsp; &nbsp;<font class='negOutcome'>Shared back: <strong>0</strong></font></font><div class='respPicDiv'><img src='img/responseButtonOffersNo0_wht.png' class='respPic'></div></div>","null","1","Benjamin","1","Kept","0.35,0.8","13","0.35","trustrating_stim/white_mw097.bmp","5","2","1"
"html-keyboard-response","140","575724","0.0-19.0-1.1","63e1f5009f56fcb831963f19","bdp_trlrn","Sun Mar 12 2023 14:19:34 GMT-0700 (Pacific Daylight Time)","906390","Untrustworthy,Trustworthy","","3228","","","","decision","","<div class='trialDiv'><img src='trustrating_stim/white_mw033.bmp'><br><font class='baseline'><strong>Aaron</strong><p>Choose number of points to send.</font><div class='respPicDiv'><img src='img/responseButtonOffersNo0L.png' class='respPic'></div></div>","2","1","Aaron","4","Shared","0.8,0.2","10","0.8","trustrating_stim/white_mw033.bmp","6","7","2"
"html-keyboard-response","141","575977","0.0-19.0-2.1","63e1f5009f56fcb831963f19","bdp_trlrn","Sun Mar 12 2023 14:19:34 GMT-0700 (Pacific Daylight Time)","906390","Untrustworthy,Trustworthy","","null","","","","decisionFB","","<div class='trialDiv'><img src='trustrating_stim/white_mw033.bmp'><br><font class='baseline'><strong>Aaron</strong><p>Choose number of points to send.</font><div class='respPicDiv'><img src='img/responseButtonOffersNo0L2.png' class='respPic'></div></div>","null","1","Aaron","4","Shared","0.8,0.2","10","0.8","trustrating_stim/white_mw033.bmp","6","5","2"
"html-keyboard-response","142","576979","0.0-19.0-3.1","63e1f5009f56fcb831963f19","bdp_trlrn","Sun Mar 12 2023 14:19:34 GMT-0700 (Pacific Daylight Time)","906390","Untrustworthy,Trustworthy","","null","","","","feedback","","<div class='trialDiv'><img src='trustrating_stim/white_mw033.bmp'><br><font class='baseline'><strong>Aaron</strong><p>Received: <strong>8</strong></font> &nbsp; &nbsp; &nbsp; &nbsp; &nbsp; &nbsp;<font class='posOutcome'>Shared back: <strong>4</strong></font></font><div class='respPicDiv'><img src='img/responseButtonOffersNo0_wht.png' class='respPic'></div></div>","null","1","Aaron","4","Shared","0.8,0.2","10","0.8","trustrating_stim/white_mw033.bmp","6","9","2"
"html-keyboard-response","143","578812","0.0-19.0-1.2","63e1f5009f56fcb831963f19","bdp_trlrn","Sun Mar 12 2023 14:19:34 GMT-0700 (Pacific Daylight Time)","906390","Untrustworthy,Trustworthy","","1832","","","","decision","","<div class='trialDiv'><img src='trustrating_stim/white_00898_960530_fa_edt.bmp'><br><font class='baseline'><strong>Joseph</strong><p>Choose number of points to send.</font><div class='respPicDiv'><img src='img/responseButtonOffersNo0L.png' class='respPic'></div></div>","4","1","Joseph","8","Shared","0.8,0.35","11","0.8","trustrating_stim/white_00898_960530_fa_edt.bmp","7.5","14","3"
"html-keyboard-response","144","579065","0.0-19.0-2.2","63e1f5009f56fcb831963f19","bdp_trlrn","Sun Mar 12 2023 14:19:34 GMT-0700 (Pacific Daylight Time)","906390","Untrustworthy,Trustworthy","","null","","","","decisionFB","","<div class='trialDiv'><img src='trustrating_stim/white_00898_960530_fa_edt.bmp'><br><font class='baseline'><strong>Joseph</strong><p>Choose number of points to send.</font><div class='respPicDiv'><img src='img/responseButtonOffersNo0L4.png' class='respPic'></div></div>","null","1","Joseph","8","Shared","0.8,0.35","11","0.8","trustrating_stim/white_00898_960530_fa_edt.bmp","7.5","10","3"
"html-keyboard-response","145","580066","0.0-19.0-3.2","63e1f5009f56fcb831963f19","bdp_trlrn","Sun Mar 12 2023 14:19:34 GMT-0700 (Pacific Daylight Time)","906390","Untrustworthy,Trustworthy","","null","","","","feedback","","<div class='trialDiv'><img src='trustrating_stim/white_00898_960530_fa_edt.bmp'><br><font class='baseline'><strong>Joseph</strong><p>Received: <strong>16</strong></font> &nbsp; &nbsp; &nbsp; &nbsp; &nbsp; &nbsp;<font class='posOutcome'>Shared back: <strong>8</strong></font></font><div class='respPicDiv'><img src='img/responseButtonOffersNo0_wht.png' class='respPic'></div></div>","null","1","Joseph","8","Shared","0.8,0.35","11","0.8","trustrating_stim/white_00898_960530_fa_edt.bmp","7.5","18","3"
"html-keyboard-response","146","581555","0.0-19.0-1.3","63e1f5009f56fcb831963f19","bdp_trlrn","Sun Mar 12 2023 14:19:34 GMT-0700 (Pacific Daylight Time)","906390","Untrustworthy,Trustworthy","","1488","","","","decision","","<div class='trialDiv'><img src='trustrating_stim/white_mw097.bmp'><br><font class='baseline'><strong>Benjamin</strong><p>Choose number of points to send.</font><div class='respPicDiv'><img src='img/responseButtonOffersNo0L.png' class='respPic'></div></div>","5","2","Benjamin","1","Kept","0.35,0.8","13","0.35","trustrating_stim/white_mw097.bmp","5","23","4"
"html-keyboard-response","147","581807","0.0-19.0-2.3","63e1f5009f56fcb831963f19","bdp_trlrn","Sun Mar 12 2023 14:19:34 GMT-0700 (Pacific Daylight Time)","906390","Untrustworthy,Trustworthy","","null","","","","decisionFB","","<div class='trialDiv'><img src='trustrating_stim/white_mw097.bmp'><br><font class='baseline'><strong>Benjamin</strong><p>Choose number of points to send.</font><div class='respPicDiv'><img src='img/responseButtonOffersNo0L5.png' class='respPic'></div></div>","null","2","Benjamin","1","Kept","0.35,0.8","13","0.35","trustrating_stim/white_mw097.bmp","5","18","4"
"html-keyboard-response","148","582810","0.0-19.0-3.3","63e1f5009f56fcb831963f19","bdp_trlrn","Sun Mar 12 2023 14:19:34 GMT-0700 (Pacific Daylight Time)","906390","Untrustworthy,Trustworthy","","null","","","","feedback","","<div class='trialDiv'><img src='trustrating_stim/white_mw097.bmp'><br><font class='baseline'><strong>Benjamin</strong><p>Received: <strong>20</strong></font> &nbsp; &nbsp; &nbsp; &nbsp; &nbsp; &nbsp;<font class='negOutcome'>Shared back: <strong>0</strong></font></font><div class='respPicDiv'><img src='img/responseButtonOffersNo0_wht.png' class='respPic'></div></div>","null","2","Benjamin","1","Kept","0.35,0.8","13","0.35","trustrating_stim/white_mw097.bmp","5","18","4"
"html-keyboard-response","149","584195","0.0-19.0-1.4","63e1f5009f56fcb831963f19","bdp_trlrn","Sun Mar 12 2023 14:19:34 GMT-0700 (Pacific Daylight Time)","906390","Untrustworthy,Trustworthy","","1384","","","","decision","","<div class='trialDiv'><img src='trustrating_stim/white_00898_960530_fa_edt.bmp'><br><font class='baseline'><strong>Joseph</strong><p>Choose number of points to send.</font><div class='respPicDiv'><img src='img/responseButtonOffersNo0L.png' class='respPic'></div></div>","2","2","Joseph","8","Kept","0.8,0.35","11","0.8","trustrating_stim/white_00898_960530_fa_edt.bmp","7.5","23","5"
"html-keyboard-response","150","584446","0.0-19.0-2.4","63e1f5009f56fcb831963f19","bdp_trlrn","Sun Mar 12 2023 14:19:34 GMT-0700 (Pacific Daylight Time)","906390","Untrustworthy,Trustworthy","","null","","","","decisionFB","","<div class='trialDiv'><img src='trustrating_stim/white_00898_960530_fa_edt.bmp'><br><font class='baseline'><strong>Joseph</strong><p>Choose number of points to send.</font><div class='respPicDiv'><img src='img/responseButtonOffersNo0L2.png' class='respPic'></div></div>","null","2","Joseph","8","Kept","0.8,0.35","11","0.8","trustrating_stim/white_00898_960530_fa_edt.bmp","7.5","21","5"
"html-keyboard-response","151","585448","0.0-19.0-3.4","63e1f5009f56fcb831963f19","bdp_trlrn","Sun Mar 12 2023 14:19:34 GMT-0700 (Pacific Daylight Time)","906390","Untrustworthy,Trustworthy","","null","","","","feedback","","<div class='trialDiv'><img src='trustrating_stim/white_00898_960530_fa_edt.bmp'><br><font class='baseline'><strong>Joseph</strong><p>Received: <strong>8</strong></font> &nbsp; &nbsp; &nbsp; &nbsp; &nbsp; &nbsp;<font class='negOutcome'>Shared back: <strong>0</strong></font></font><div class='respPicDiv'><img src='img/responseButtonOffersNo0_wht.png' class='respPic'></div></div>","null","2","Joseph","8","Kept","0.8,0.35","11","0.8","trustrating_stim/white_00898_960530_fa_edt.bmp","7.5","21","5"
"html-keyboard-response","152","587065","0.0-19.0-1.5","63e1f5009f56fcb831963f19","bdp_trlrn","Sun Mar 12 2023 14:19:34 GMT-0700 (Pacific Daylight Time)","906390","Untrustworthy,Trustworthy","","1616","","","","decision","","<div class='trialDiv'><img src='trustrating_stim/white_mw033.bmp'><br><font class='baseline'><strong>Aaron</strong><p>Choose number of points to send.</font><div class='respPicDiv'><img src='img/responseButtonOffersNo0L.png' class='respPic'></div></div>","1","2","Aaron","4","Shared","0.8,0.2","10","0.8","trustrating_stim/white_mw033.bmp","6","26","6"
"html-keyboard-response","153","587317","0.0-19.0-2.5","63e1f5009f56fcb831963f19","bdp_trlrn","Sun Mar 12 2023 14:19:34 GMT-0700 (Pacific Daylight Time)","906390","Untrustworthy,Trustworthy","","null","","","","decisionFB","","<div class='trialDiv'><img src='trustrating_stim/white_mw033.bmp'><br><font class='baseline'><strong>Aaron</strong><p>Choose number of points to send.</font><div class='respPicDiv'><img src='img/responseButtonOffersNo0L1.png' class='respPic'></div></div>","null","2","Aaron","4","Shared","0.8,0.2","10","0.8","trustrating_stim/white_mw033.bmp","6","25","6"
"html-keyboard-response","154","588319","0.0-19.0-3.5","63e1f5009f56fcb831963f19","bdp_trlrn","Sun Mar 12 2023 14:19:34 GMT-0700 (Pacific Daylight Time)","906390","Untrustworthy,Trustworthy","","null","","","","feedback","","<div class='trialDiv'><img src='trustrating_stim/white_mw033.bmp'><br><font class='baseline'><strong>Aaron</strong><p>Received: <strong>4</strong></font> &nbsp; &nbsp; &nbsp; &nbsp; &nbsp; &nbsp;<font class='posOutcome'>Shared back: <strong>2</strong></font></font><div class='respPicDiv'><img src='img/responseButtonOffersNo0_wht.png' class='respPic'></div></div>","null","2","Aaron","4","Shared","0.8,0.2","10","0.8","trustrating_stim/white_mw033.bmp","6","27","6"
"html-keyboard-response","155","590390","0.0-19.0-1.6","63e1f5009f56fcb831963f19","bdp_trlrn","Sun Mar 12 2023 14:19:34 GMT-0700 (Pacific Daylight Time)","906390","Untrustworthy,Trustworthy","","2069","","","","decision","","<div class='trialDiv'><img src='trustrating_stim/white_00898_960530_fa_edt.bmp'><br><font class='baseline'><strong>Joseph</strong><p>Choose number of points to send.</font><div class='respPicDiv'><img src='img/responseButtonOffersNo0L.png' class='respPic'></div></div>","3","3","Joseph","8","Shared","0.8,0.35","11","0.8","trustrating_stim/white_00898_960530_fa_edt.bmp","7.5","32","7"
"html-keyboard-response","156","590641","0.0-19.0-2.6","63e1f5009f56fcb831963f19","bdp_trlrn","Sun Mar 12 2023 14:19:34 GMT-0700 (Pacific Daylight Time)","906390","Untrustworthy,Trustworthy","","null","","","","decisionFB","","<div class='trialDiv'><img src='trustrating_stim/white_00898_960530_fa_edt.bmp'><br><font class='baseline'><strong>Joseph</strong><p>Choose number of points to send.</font><div class='respPicDiv'><img src='img/responseButtonOffersNo0L3.png' class='respPic'></div></div>","null","3","Joseph","8","Shared","0.8,0.35","11","0.8","trustrating_stim/white_00898_960530_fa_edt.bmp","7.5","29","7"
"html-keyboard-response","157","591644","0.0-19.0-3.6","63e1f5009f56fcb831963f19","bdp_trlrn","Sun Mar 12 2023 14:19:34 GMT-0700 (Pacific Daylight Time)","906390","Untrustworthy,Trustworthy","","null","","","","feedback","","<div class='trialDiv'><img src='trustrating_stim/white_00898_960530_fa_edt.bmp'><br><font class='baseline'><strong>Joseph</strong><p>Received: <strong>12</strong></font> &nbsp; &nbsp; &nbsp; &nbsp; &nbsp; &nbsp;<font class='posOutcome'>Shared back: <strong>6</strong></font></font><div class='respPicDiv'><img src='img/responseButtonOffersNo0_wht.png' class='respPic'></div></div>","null","3","Joseph","8","Shared","0.8,0.35","11","0.8","trustrating_stim/white_00898_960530_fa_edt.bmp","7.5","35","7"
"html-keyboard-response","158","597735","0.0-19.0-1.7","63e1f5009f56fcb831963f19","bdp_trlrn","Sun Mar 12 2023 14:19:34 GMT-0700 (Pacific Daylight Time)","906390","Untrustworthy,Trustworthy","","6090","","","","decision","","<div class='trialDiv'><img src='trustrating_stim/white_mw097.bmp'><br><font class='baseline'><strong>Benjamin</strong><p>Choose number of points to send.</font><div class='respPicDiv'><img src='img/responseButtonOffersNo0L.png' class='respPic'></div></div>","4","3","Benjamin","1","Kept","0.35,0.8","13","0.35","trustrating_stim/white_mw097.bmp","5","40","8"
"html-keyboard-response","159","597988","0.0-19.0-2.7","63e1f5009f56fcb831963f19","bdp_trlrn","Sun Mar 12 2023 14:19:34 GMT-0700 (Pacific Daylight Time)","906390","Untrustworthy,Trustworthy","","null","","","","decisionFB","","<div class='trialDiv'><img src='trustrating_stim/white_mw097.bmp'><br><font class='baseline'><strong>Benjamin</strong><p>Choose number of points to send.</font><div class='respPicDiv'><img src='img/responseButtonOffersNo0L4.png' class='respPic'></div></div>","null","3","Benjamin","1","Kept","0.35,0.8","13","0.35","trustrating_stim/white_mw097.bmp","5","36","8"
"html-keyboard-response","160","598989","0.0-19.0-3.7","63e1f5009f56fcb831963f19","bdp_trlrn","Sun Mar 12 2023 14:19:34 GMT-0700 (Pacific Daylight Time)","906390","Untrustworthy,Trustworthy","","null","","","","feedback","","<div class='trialDiv'><img src='trustrating_stim/white_mw097.bmp'><br><font class='baseline'><strong>Benjamin</strong><p>Received: <strong>16</strong></font> &nbsp; &nbsp; &nbsp; &nbsp; &nbsp; &nbsp;<font class='negOutcome'>Shared back: <strong>0</strong></font></font><div class='respPicDiv'><img src='img/responseButtonOffersNo0_wht.png' class='respPic'></div></div>","null","3","Benjamin","1","Kept","0.35,0.8","13","0.35","trustrating_stim/white_mw097.bmp","5","36","8"
"html-keyboard-response","161","604220","0.0-19.0-1.8","63e1f5009f56fcb831963f19","bdp_trlrn","Sun Mar 12 2023 14:19:34 GMT-0700 (Pacific Daylight Time)","906390","Untrustworthy,Trustworthy","","5229","","","","decision","","<div class='trialDiv'><img src='trustrating_stim/white_mw033.bmp'><br><font class='baseline'><strong>Aaron</strong><p>Choose number of points to send.</font><div class='respPicDiv'><img src='img/responseButtonOffersNo0L.png' class='respPic'></div></div>","2","3","Aaron","4","Shared","0.8,0.2","10","0.8","trustrating_stim/white_mw033.bmp","6","41","9"
"html-keyboard-response","162","604471","0.0-19.0-2.8","63e1f5009f56fcb831963f19","bdp_trlrn","Sun Mar 12 2023 14:19:34 GMT-0700 (Pacific Daylight Time)","906390","Untrustworthy,Trustworthy","","null","","","","decisionFB","","<div class='trialDiv'><img src='trustrating_stim/white_mw033.bmp'><br><font class='baseline'><strong>Aaron</strong><p>Choose number of points to send.</font><div class='respPicDiv'><img src='img/responseButtonOffersNo0L2.png' class='respPic'></div></div>","null","3","Aaron","4","Shared","0.8,0.2","10","0.8","trustrating_stim/white_mw033.bmp","6","39","9"
"html-keyboard-response","163","605477","0.0-19.0-3.8","63e1f5009f56fcb831963f19","bdp_trlrn","Sun Mar 12 2023 14:19:34 GMT-0700 (Pacific Daylight Time)","906390","Untrustworthy,Trustworthy","","null","","","","feedback","","<div class='trialDiv'><img src='trustrating_stim/white_mw033.bmp'><br><font class='baseline'><strong>Aaron</strong><p>Received: <strong>8</strong></font> &nbsp; &nbsp; &nbsp; &nbsp; &nbsp; &nbsp;<font class='posOutcome'>Shared back: <strong>4</strong></font></font><div class='respPicDiv'><img src='img/responseButtonOffersNo0_wht.png' class='respPic'></div></div>","null","3","Aaron","4","Shared","0.8,0.2","10","0.8","trustrating_stim/white_mw033.bmp","6","43","9"
"html-keyboard-response","164","607707","0.0-19.0-1.9","63e1f5009f56fcb831963f19","bdp_trlrn","Sun Mar 12 2023 14:19:34 GMT-0700 (Pacific Daylight Time)","906390","Untrustworthy,Trustworthy","","2228","","","","decision","","<div class='trialDiv'><img src='trustrating_stim/white_mw097.bmp'><br><font class='baseline'><strong>Benjamin</strong><p>Choose number of points to send.</font><div class='respPicDiv'><img src='img/responseButtonOffersNo0L.png' class='respPic'></div></div>","5","4","Benjamin","1","Kept","0.35,0.8","13","0.35","trustrating_stim/white_mw097.bmp","5","48","10"
"html-keyboard-response","165","607959","0.0-19.0-2.9","63e1f5009f56fcb831963f19","bdp_trlrn","Sun Mar 12 2023 14:19:34 GMT-0700 (Pacific Daylight Time)","906390","Untrustworthy,Trustworthy","","null","","","","decisionFB","","<div class='trialDiv'><img src='trustrating_stim/white_mw097.bmp'><br><font class='baseline'><strong>Benjamin</strong><p>Choose number of points to send.</font><div class='respPicDiv'><img src='img/responseButtonOffersNo0L5.png' class='respPic'></div></div>","null","4","Benjamin","1","Kept","0.35,0.8","13","0.35","trustrating_stim/white_mw097.bmp","5","43","10"
"html-keyboard-response","166","608961","0.0-19.0-3.9","63e1f5009f56fcb831963f19","bdp_trlrn","Sun Mar 12 2023 14:19:34 GMT-0700 (Pacific Daylight Time)","906390","Untrustworthy,Trustworthy","","null","","","","feedback","","<div class='trialDiv'><img src='trustrating_stim/white_mw097.bmp'><br><font class='baseline'><strong>Benjamin</strong><p>Received: <strong>20</strong></font> &nbsp; &nbsp; &nbsp; &nbsp; &nbsp; &nbsp;<font class='negOutcome'>Shared back: <strong>0</strong></font></font><div class='respPicDiv'><img src='img/responseButtonOffersNo0_wht.png' class='respPic'></div></div>","null","4","Benjamin","1","Kept","0.35,0.8","13","0.35","trustrating_stim/white_mw097.bmp","5","43","10"
"html-keyboard-response","167","611636","0.0-19.0-1.10","63e1f5009f56fcb831963f19","bdp_trlrn","Sun Mar 12 2023 14:19:34 GMT-0700 (Pacific Daylight Time)","906390","Untrustworthy,Trustworthy","","2674","","","","decision","","<div class='trialDiv'><img src='trustrating_stim/white_00898_960530_fa_edt.bmp'><br><font class='baseline'><strong>Joseph</strong><p>Choose number of points to send.</font><div class='respPicDiv'><img src='img/responseButtonOffersNo0L.png' class='respPic'></div></div>","2","4","Joseph","8","Shared","0.8,0.35","11","0.8","trustrating_stim/white_00898_960530_fa_edt.bmp","7.5","48","11"
"html-keyboard-response","168","611889","0.0-19.0-2.10","63e1f5009f56fcb831963f19","bdp_trlrn","Sun Mar 12 2023 14:19:34 GMT-0700 (Pacific Daylight Time)","906390","Untrustworthy,Trustworthy","","null","","","","decisionFB","","<div class='trialDiv'><img src='trustrating_stim/white_00898_960530_fa_edt.bmp'><br><font class='baseline'><strong>Joseph</strong><p>Choose number of points to send.</font><div class='respPicDiv'><img src='img/responseButtonOffersNo0L2.png' class='respPic'></div></div>","null","4","Joseph","8","Shared","0.8,0.35","11","0.8","trustrating_stim/white_00898_960530_fa_edt.bmp","7.5","46","11"
"html-keyboard-response","169","612891","0.0-19.0-3.10","63e1f5009f56fcb831963f19","bdp_trlrn","Sun Mar 12 2023 14:19:34 GMT-0700 (Pacific Daylight Time)","906390","Untrustworthy,Trustworthy","","null","","","","feedback","","<div class='trialDiv'><img src='trustrating_stim/white_00898_960530_fa_edt.bmp'><br><font class='baseline'><strong>Joseph</strong><p>Received: <strong>8</strong></font> &nbsp; &nbsp; &nbsp; &nbsp; &nbsp; &nbsp;<font class='posOutcome'>Shared back: <strong>4</strong></font></font><div class='respPicDiv'><img src='img/responseButtonOffersNo0_wht.png' class='respPic'></div></div>","null","4","Joseph","8","Shared","0.8,0.35","11","0.8","trustrating_stim/white_00898_960530_fa_edt.bmp","7.5","50","11"
"html-keyboard-response","170","613896","0.0-19.0-1.11","63e1f5009f56fcb831963f19","bdp_trlrn","Sun Mar 12 2023 14:19:34 GMT-0700 (Pacific Daylight Time)","906390","Untrustworthy,Trustworthy","","1003","","","","decision","","<div class='trialDiv'><img src='trustrating_stim/white_mw033.bmp'><br><font class='baseline'><strong>Aaron</strong><p>Choose number of points to send.</font><div class='respPicDiv'><img src='img/responseButtonOffersNo0L.png' class='respPic'></div></div>","1","4","Aaron","4","Kept","0.8,0.2","10","0.8","trustrating_stim/white_mw033.bmp","6","55","12"
"html-keyboard-response","171","614147","0.0-19.0-2.11","63e1f5009f56fcb831963f19","bdp_trlrn","Sun Mar 12 2023 14:19:34 GMT-0700 (Pacific Daylight Time)","906390","Untrustworthy,Trustworthy","","null","","","","decisionFB","","<div class='trialDiv'><img src='trustrating_stim/white_mw033.bmp'><br><font class='baseline'><strong>Aaron</strong><p>Choose number of points to send.</font><div class='respPicDiv'><img src='img/responseButtonOffersNo0L1.png' class='respPic'></div></div>","null","4","Aaron","4","Kept","0.8,0.2","10","0.8","trustrating_stim/white_mw033.bmp","6","54","12"
"html-keyboard-response","172","615151","0.0-19.0-3.11","63e1f5009f56fcb831963f19","bdp_trlrn","Sun Mar 12 2023 14:19:34 GMT-0700 (Pacific Daylight Time)","906390","Untrustworthy,Trustworthy","","null","","","","feedback","","<div class='trialDiv'><img src='trustrating_stim/white_mw033.bmp'><br><font class='baseline'><strong>Aaron</strong><p>Received: <strong>4</strong></font> &nbsp; &nbsp; &nbsp; &nbsp; &nbsp; &nbsp;<font class='negOutcome'>Shared back: <strong>0</strong></font></font><div class='respPicDiv'><img src='img/responseButtonOffersNo0_wht.png' class='respPic'></div></div>","null","4","Aaron","4","Kept","0.8,0.2","10","0.8","trustrating_stim/white_mw033.bmp","6","54","12"
"html-keyboard-response","173","616209","0.0-19.0-1.12","63e1f5009f56fcb831963f19","bdp_trlrn","Sun Mar 12 2023 14:19:34 GMT-0700 (Pacific Daylight Time)","906390","Untrustworthy,Trustworthy","","1057","","","","decision","","<div class='trialDiv'><img src='trustrating_stim/white_00898_960530_fa_edt.bmp'><br><font class='baseline'><strong>Joseph</strong><p>Choose number of points to send.</font><div class='respPicDiv'><img src='img/responseButtonOffersNo0L.png' class='respPic'></div></div>","2","5","Joseph","8","Shared","0.8,0.35","11","0.8","trustrating_stim/white_00898_960530_fa_edt.bmp","7.5","59","13"
"html-keyboard-response","174","616461","0.0-19.0-2.12","63e1f5009f56fcb831963f19","bdp_trlrn","Sun Mar 12 2023 14:19:34 GMT-0700 (Pacific Daylight Time)","906390","Untrustworthy,Trustworthy","","null","","","","decisionFB","","<div class='trialDiv'><img src='trustrating_stim/white_00898_960530_fa_edt.bmp'><br><font class='baseline'><strong>Joseph</strong><p>Choose number of points to send.</font><div class='respPicDiv'><img src='img/responseButtonOffersNo0L2.png' class='respPic'></div></div>","null","5","Joseph","8","Shared","0.8,0.35","11","0.8","trustrating_stim/white_00898_960530_fa_edt.bmp","7.5","57","13"
"html-keyboard-response","175","617463","0.0-19.0-3.12","63e1f5009f56fcb831963f19","bdp_trlrn","Sun Mar 12 2023 14:19:34 GMT-0700 (Pacific Daylight Time)","906390","Untrustworthy,Trustworthy","","null","","","","feedback","","<div class='trialDiv'><img src='trustrating_stim/white_00898_960530_fa_edt.bmp'><br><font class='baseline'><strong>Joseph</strong><p>Received: <strong>8</strong></font> &nbsp; &nbsp; &nbsp; &nbsp; &nbsp; &nbsp;<font class='posOutcome'>Shared back: <strong>4</strong></font></font><div class='respPicDiv'><img src='img/responseButtonOffersNo0_wht.png' class='respPic'></div></div>","null","5","Joseph","8","Shared","0.8,0.35","11","0.8","trustrating_stim/white_00898_960530_fa_edt.bmp","7.5","61","13"
"html-keyboard-response","176","618207","0.0-19.0-1.13","63e1f5009f56fcb831963f19","bdp_trlrn","Sun Mar 12 2023 14:19:34 GMT-0700 (Pacific Daylight Time)","906390","Untrustworthy,Trustworthy","","743","","","","decision","","<div class='trialDiv'><img src='trustrating_stim/white_mw033.bmp'><br><font class='baseline'><strong>Aaron</strong><p>Choose number of points to send.</font><div class='respPicDiv'><img src='img/responseButtonOffersNo0L.png' class='respPic'></div></div>","3","5","Aaron","4","Kept","0.8,0.2","10","0.8","trustrating_stim/white_mw033.bmp","6","66","14"
"html-keyboard-response","177","618459","0.0-19.0-2.13","63e1f5009f56fcb831963f19","bdp_trlrn","Sun Mar 12 2023 14:19:34 GMT-0700 (Pacific Daylight Time)","906390","Untrustworthy,Trustworthy","","null","","","","decisionFB","","<div class='trialDiv'><img src='trustrating_stim/white_mw033.bmp'><br><font class='baseline'><strong>Aaron</strong><p>Choose number of points to send.</font><div class='respPicDiv'><img src='img/responseButtonOffersNo0L3.png' class='respPic'></div></div>","null","5","Aaron","4","Kept","0.8,0.2","10","0.8","trustrating_stim/white_mw033.bmp","6","63","14"
"html-keyboard-response","178","619461","0.0-19.0-3.13","63e1f5009f56fcb831963f19","bdp_trlrn","Sun Mar 12 2023 14:19:34 GMT-0700 (Pacific Daylight Time)","906390","Untrustworthy,Trustworthy","","null","","","","feedback","","<div class='trialDiv'><img src='trustrating_stim/white_mw033.bmp'><br><font class='baseline'><strong>Aaron</strong><p>Received: <strong>12</strong></font> &nbsp; &nbsp; &nbsp; &nbsp; &nbsp; &nbsp;<font class='negOutcome'>Shared back: <strong>0</strong></font></font><div class='respPicDiv'><img src='img/responseButtonOffersNo0_wht.png' class='respPic'></div></div>","null","5","Aaron","4","Kept","0.8,0.2","10","0.8","trustrating_stim/white_mw033.bmp","6","63","14"
"html-keyboard-response","179","619852","0.0-19.0-1.14","63e1f5009f56fcb831963f19","bdp_trlrn","Sun Mar 12 2023 14:19:34 GMT-0700 (Pacific Daylight Time)","906390","Untrustworthy,Trustworthy","","390","","","","decision","","<div class='trialDiv'><img src='trustrating_stim/white_mw097.bmp'><br><font class='baseline'><strong>Benjamin</strong><p>Choose number of points to send.</font><div class='respPicDiv'><img src='img/responseButtonOffersNo0L.png' class='respPic'></div></div>","5","5","Benjamin","1","Shared","0.35,0.8","13","0.35","trustrating_stim/white_mw097.bmp","5","68","15"
"html-keyboard-response","180","620107","0.0-19.0-2.14","63e1f5009f56fcb831963f19","bdp_trlrn","Sun Mar 12 2023 14:19:34 GMT-0700 (Pacific Daylight Time)","906390","Untrustworthy,Trustworthy","","null","","","","decisionFB","","<div class='trialDiv'><img src='trustrating_stim/white_mw097.bmp'><br><font class='baseline'><strong>Benjamin</strong><p>Choose number of points to send.</font><div class='respPicDiv'><img src='img/responseButtonOffersNo0L5.png' class='respPic'></div></div>","null","5","Benjamin","1","Shared","0.35,0.8","13","0.35","trustrating_stim/white_mw097.bmp","5","63","15"
"html-keyboard-response","181","621109","0.0-19.0-3.14","63e1f5009f56fcb831963f19","bdp_trlrn","Sun Mar 12 2023 14:19:34 GMT-0700 (Pacific Daylight Time)","906390","Untrustworthy,Trustworthy","","null","","","","feedback","","<div class='trialDiv'><img src='trustrating_stim/white_mw097.bmp'><br><font class='baseline'><strong>Benjamin</strong><p>Received: <strong>20</strong></font> &nbsp; &nbsp; &nbsp; &nbsp; &nbsp; &nbsp;<font class='posOutcome'>Shared back: <strong>10</strong></font></font><div class='respPicDiv'><img src='img/responseButtonOffersNo0_wht.png' class='respPic'></div></div>","null","5","Benjamin","1","Shared","0.35,0.8","13","0.35","trustrating_stim/white_mw097.bmp","5","73","15"
"html-keyboard-response","182","621502","0.0-19.0-1.15","63e1f5009f56fcb831963f19","bdp_trlrn","Sun Mar 12 2023 14:19:34 GMT-0700 (Pacific Daylight Time)","906390","Untrustworthy,Trustworthy","","392","","","","decision","","<div class='trialDiv'><img src='trustrating_stim/white_mw033.bmp'><br><font class='baseline'><strong>Aaron</strong><p>Choose number of points to send.</font><div class='respPicDiv'><img src='img/responseButtonOffersNo0L.png' class='respPic'></div></div>","5","6","Aaron","4","Kept","0.8,0.2","10","0.8","trustrating_stim/white_mw033.bmp","6","78","16"
"html-keyboard-response","183","621754","0.0-19.0-2.15","63e1f5009f56fcb831963f19","bdp_trlrn","Sun Mar 12 2023 14:19:34 GMT-0700 (Pacific Daylight Time)","906390","Untrustworthy,Trustworthy","","null","","","","decisionFB","","<div class='trialDiv'><img src='trustrating_stim/white_mw033.bmp'><br><font class='baseline'><strong>Aaron</strong><p>Choose number of points to send.</font><div class='respPicDiv'><img src='img/responseButtonOffersNo0L5.png' class='respPic'></div></div>","null","6","Aaron","4","Kept","0.8,0.2","10","0.8","trustrating_stim/white_mw033.bmp","6","73","16"
"html-keyboard-response","184","622756","0.0-19.0-3.15","63e1f5009f56fcb831963f19","bdp_trlrn","Sun Mar 12 2023 14:19:34 GMT-0700 (Pacific Daylight Time)","906390","Untrustworthy,Trustworthy","","null","","","","feedback","","<div class='trialDiv'><img src='trustrating_stim/white_mw033.bmp'><br><font class='baseline'><strong>Aaron</strong><p>Received: <strong>20</strong></font> &nbsp; &nbsp; &nbsp; &nbsp; &nbsp; &nbsp;<font class='negOutcome'>Shared back: <strong>0</strong></font></font><div class='respPicDiv'><img src='img/responseButtonOffersNo0_wht.png' class='respPic'></div></div>","null","6","Aaron","4","Kept","0.8,0.2","10","0.8","trustrating_stim/white_mw033.bmp","6","73","16"
"html-keyboard-response","185","623290","0.0-19.0-1.16","63e1f5009f56fcb831963f19","bdp_trlrn","Sun Mar 12 2023 14:19:34 GMT-0700 (Pacific Daylight Time)","906390","Untrustworthy,Trustworthy","","533","","","","decision","","<div class='trialDiv'><img src='trustrating_stim/white_00898_960530_fa_edt.bmp'><br><font class='baseline'><strong>Joseph</strong><p>Choose number of points to send.</font><div class='respPicDiv'><img src='img/responseButtonOffersNo0L.png' class='respPic'></div></div>","4","6","Joseph","8","Kept","0.8,0.35","11","0.8","trustrating_stim/white_00898_960530_fa_edt.bmp","7.5","78","17"
"html-keyboard-response","186","623543","0.0-19.0-2.16","63e1f5009f56fcb831963f19","bdp_trlrn","Sun Mar 12 2023 14:19:34 GMT-0700 (Pacific Daylight Time)","906390","Untrustworthy,Trustworthy","","null","","","","decisionFB","","<div class='trialDiv'><img src='trustrating_stim/white_00898_960530_fa_edt.bmp'><br><font class='baseline'><strong>Joseph</strong><p>Choose number of points to send.</font><div class='respPicDiv'><img src='img/responseButtonOffersNo0L4.png' class='respPic'></div></div>","null","6","Joseph","8","Kept","0.8,0.35","11","0.8","trustrating_stim/white_00898_960530_fa_edt.bmp","7.5","74","17"
"html-keyboard-response","187","624545","0.0-19.0-3.16","63e1f5009f56fcb831963f19","bdp_trlrn","Sun Mar 12 2023 14:19:34 GMT-0700 (Pacific Daylight Time)","906390","Untrustworthy,Trustworthy","","null","","","","feedback","","<div class='trialDiv'><img src='trustrating_stim/white_00898_960530_fa_edt.bmp'><br><font class='baseline'><strong>Joseph</strong><p>Received: <strong>16</strong></font> &nbsp; &nbsp; &nbsp; &nbsp; &nbsp; &nbsp;<font class='negOutcome'>Shared back: <strong>0</strong></font></font><div class='respPicDiv'><img src='img/responseButtonOffersNo0_wht.png' class='respPic'></div></div>","null","6","Joseph","8","Kept","0.8,0.35","11","0.8","trustrating_stim/white_00898_960530_fa_edt.bmp","7.5","74","17"
"html-keyboard-response","188","624806","0.0-19.0-1.17","63e1f5009f56fcb831963f19","bdp_trlrn","Sun Mar 12 2023 14:19:34 GMT-0700 (Pacific Daylight Time)","906390","Untrustworthy,Trustworthy","","259","","","","decision","","<div class='trialDiv'><img src='trustrating_stim/white_mw097.bmp'><br><font class='baseline'><strong>Benjamin</strong><p>Choose number of points to send.</font><div class='respPicDiv'><img src='img/responseButtonOffersNo0L.png' class='respPic'></div></div>","3","6","Benjamin","1","Shared","0.35,0.8","13","0.35","trustrating_stim/white_mw097.bmp","5","79","18"
"html-keyboard-response","189","625057","0.0-19.0-2.17","63e1f5009f56fcb831963f19","bdp_trlrn","Sun Mar 12 2023 14:19:34 GMT-0700 (Pacific Daylight Time)","906390","Untrustworthy,Trustworthy","","null","","","","decisionFB","","<div class='trialDiv'><img src='trustrating_stim/white_mw097.bmp'><br><font class='baseline'><strong>Benjamin</strong><p>Choose number of points to send.</font><div class='respPicDiv'><img src='img/responseButtonOffersNo0L3.png' class='respPic'></div></div>","null","6","Benjamin","1","Shared","0.35,0.8","13","0.35","trustrating_stim/white_mw097.bmp","5","76","18"
"html-keyboard-response","190","626059","0.0-19.0-3.17","63e1f5009f56fcb831963f19","bdp_trlrn","Sun Mar 12 2023 14:19:34 GMT-0700 (Pacific Daylight Time)","906390","Untrustworthy,Trustworthy","","null","","","","feedback","","<div class='trialDiv'><img src='trustrating_stim/white_mw097.bmp'><br><font class='baseline'><strong>Benjamin</strong><p>Received: <strong>12</strong></font> &nbsp; &nbsp; &nbsp; &nbsp; &nbsp; &nbsp;<font class='posOutcome'>Shared back: <strong>6</strong></font></font><div class='respPicDiv'><img src='img/responseButtonOffersNo0_wht.png' class='respPic'></div></div>","null","6","Benjamin","1","Shared","0.35,0.8","13","0.35","trustrating_stim/white_mw097.bmp","5","82","18"
"html-keyboard-response","191","626861","0.0-19.0-1.18","63e1f5009f56fcb831963f19","bdp_trlrn","Sun Mar 12 2023 14:19:34 GMT-0700 (Pacific Daylight Time)","906390","Untrustworthy,Trustworthy","","800","","","","decision","","<div class='trialDiv'><img src='trustrating_stim/white_00898_960530_fa_edt.bmp'><br><font class='baseline'><strong>Joseph</strong><p>Choose number of points to send.</font><div class='respPicDiv'><img src='img/responseButtonOffersNo0L.png' class='respPic'></div></div>","3","7","Joseph","8","Shared","0.8,0.35","11","0.8","trustrating_stim/white_00898_960530_fa_edt.bmp","7.5","87","19"
"html-keyboard-response","192","627112","0.0-19.0-2.18","63e1f5009f56fcb831963f19","bdp_trlrn","Sun Mar 12 2023 14:19:34 GMT-0700 (Pacific Daylight Time)","906390","Untrustworthy,Trustworthy","","null","","","","decisionFB","","<div class='trialDiv'><img src='trustrating_stim/white_00898_960530_fa_edt.bmp'><br><font class='baseline'><strong>Joseph</strong><p>Choose number of points to send.</font><div class='respPicDiv'><img src='img/responseButtonOffersNo0L3.png' class='respPic'></div></div>","null","7","Joseph","8","Shared","0.8,0.35","11","0.8","trustrating_stim/white_00898_960530_fa_edt.bmp","7.5","84","19"
"html-keyboard-response","193","628114","0.0-19.0-3.18","63e1f5009f56fcb831963f19","bdp_trlrn","Sun Mar 12 2023 14:19:34 GMT-0700 (Pacific Daylight Time)","906390","Untrustworthy,Trustworthy","","null","","","","feedback","","<div class='trialDiv'><img src='trustrating_stim/white_00898_960530_fa_edt.bmp'><br><font class='baseline'><strong>Joseph</strong><p>Received: <strong>12</strong></font> &nbsp; &nbsp; &nbsp; &nbsp; &nbsp; &nbsp;<font class='posOutcome'>Shared back: <strong>6</strong></font></font><div class='respPicDiv'><img src='img/responseButtonOffersNo0_wht.png' class='respPic'></div></div>","null","7","Joseph","8","Shared","0.8,0.35","11","0.8","trustrating_stim/white_00898_960530_fa_edt.bmp","7.5","90","19"
"html-keyboard-response","194","628773","0.0-19.0-1.19","63e1f5009f56fcb831963f19","bdp_trlrn","Sun Mar 12 2023 14:19:34 GMT-0700 (Pacific Daylight Time)","906390","Untrustworthy,Trustworthy","","658","","","","decision","","<div class='trialDiv'><img src='trustrating_stim/white_mw097.bmp'><br><font class='baseline'><strong>Benjamin</strong><p>Choose number of points to send.</font><div class='respPicDiv'><img src='img/responseButtonOffersNo0L.png' class='respPic'></div></div>","2","7","Benjamin","1","Kept","0.35,0.8","13","0.35","trustrating_stim/white_mw097.bmp","5","95","20"
"html-keyboard-response","195","629025","0.0-19.0-2.19","63e1f5009f56fcb831963f19","bdp_trlrn","Sun Mar 12 2023 14:19:34 GMT-0700 (Pacific Daylight Time)","906390","Untrustworthy,Trustworthy","","null","","","","decisionFB","","<div class='trialDiv'><img src='trustrating_stim/white_mw097.bmp'><br><font class='baseline'><strong>Benjamin</strong><p>Choose number of points to send.</font><div class='respPicDiv'><img src='img/responseButtonOffersNo0L2.png' class='respPic'></div></div>","null","7","Benjamin","1","Kept","0.35,0.8","13","0.35","trustrating_stim/white_mw097.bmp","5","93","20"
"html-keyboard-response","196","630030","0.0-19.0-3.19","63e1f5009f56fcb831963f19","bdp_trlrn","Sun Mar 12 2023 14:19:34 GMT-0700 (Pacific Daylight Time)","906390","Untrustworthy,Trustworthy","","null","","","","feedback","","<div class='trialDiv'><img src='trustrating_stim/white_mw097.bmp'><br><font class='baseline'><strong>Benjamin</strong><p>Received: <strong>8</strong></font> &nbsp; &nbsp; &nbsp; &nbsp; &nbsp; &nbsp;<font class='negOutcome'>Shared back: <strong>0</strong></font></font><div class='respPicDiv'><img src='img/responseButtonOffersNo0_wht.png' class='respPic'></div></div>","null","7","Benjamin","1","Kept","0.35,0.8","13","0.35","trustrating_stim/white_mw097.bmp","5","93","20"
"html-keyboard-response","197","630344","0.0-19.0-1.20","63e1f5009f56fcb831963f19","bdp_trlrn","Sun Mar 12 2023 14:19:34 GMT-0700 (Pacific Daylight Time)","906390","Untrustworthy,Trustworthy","","313","","","","decision","","<div class='trialDiv'><img src='trustrating_stim/white_mw033.bmp'><br><font class='baseline'><strong>Aaron</strong><p>Choose number of points to send.</font><div class='respPicDiv'><img src='img/responseButtonOffersNo0L.png' class='respPic'></div></div>","5","7","Aaron","4","Shared","0.8,0.2","10","0.8","trustrating_stim/white_mw033.bmp","6","98","21"
"html-keyboard-response","198","630596","0.0-19.0-2.20","63e1f5009f56fcb831963f19","bdp_trlrn","Sun Mar 12 2023 14:19:34 GMT-0700 (Pacific Daylight Time)","906390","Untrustworthy,Trustworthy","","null","","","","decisionFB","","<div class='trialDiv'><img src='trustrating_stim/white_mw033.bmp'><br><font class='baseline'><strong>Aaron</strong><p>Choose number of points to send.</font><div class='respPicDiv'><img src='img/responseButtonOffersNo0L5.png' class='respPic'></div></div>","null","7","Aaron","4","Shared","0.8,0.2","10","0.8","trustrating_stim/white_mw033.bmp","6","93","21"
"html-keyboard-response","199","631598","0.0-19.0-3.20","63e1f5009f56fcb831963f19","bdp_trlrn","Sun Mar 12 2023 14:19:34 GMT-0700 (Pacific Daylight Time)","906390","Untrustworthy,Trustworthy","","null","","","","feedback","","<div class='trialDiv'><img src='trustrating_stim/white_mw033.bmp'><br><font class='baseline'><strong>Aaron</strong><p>Received: <strong>20</strong></font> &nbsp; &nbsp; &nbsp; &nbsp; &nbsp; &nbsp;<font class='posOutcome'>Shared back: <strong>10</strong></font></font><div class='respPicDiv'><img src='img/responseButtonOffersNo0_wht.png' class='respPic'></div></div>","null","7","Aaron","4","Shared","0.8,0.2","10","0.8","trustrating_stim/white_mw033.bmp","6","103","21"
"html-keyboard-response","200","632013","0.0-19.0-1.21","63e1f5009f56fcb831963f19","bdp_trlrn","Sun Mar 12 2023 14:19:34 GMT-0700 (Pacific Daylight Time)","906390","Untrustworthy,Trustworthy","","414","","","","decision","","<div class='trialDiv'><img src='trustrating_stim/white_00898_960530_fa_edt.bmp'><br><font class='baseline'><strong>Joseph</strong><p>Choose number of points to send.</font><div class='respPicDiv'><img src='img/responseButtonOffersNo0L.png' class='respPic'></div></div>","2","8","Joseph","8","Shared","0.8,0.35","11","0.8","trustrating_stim/white_00898_960530_fa_edt.bmp","7.5","108","22"
"html-keyboard-response","201","632266","0.0-19.0-2.21","63e1f5009f56fcb831963f19","bdp_trlrn","Sun Mar 12 2023 14:19:34 GMT-0700 (Pacific Daylight Time)","906390","Untrustworthy,Trustworthy","","null","","","","decisionFB","","<div class='trialDiv'><img src='trustrating_stim/white_00898_960530_fa_edt.bmp'><br><font class='baseline'><strong>Joseph</strong><p>Choose number of points to send.</font><div class='respPicDiv'><img src='img/responseButtonOffersNo0L2.png' class='respPic'></div></div>","null","8","Joseph","8","Shared","0.8,0.35","11","0.8","trustrating_stim/white_00898_960530_fa_edt.bmp","7.5","106","22"
"html-keyboard-response","202","633268","0.0-19.0-3.21","63e1f5009f56fcb831963f19","bdp_trlrn","Sun Mar 12 2023 14:19:34 GMT-0700 (Pacific Daylight Time)","906390","Untrustworthy,Trustworthy","","null","","","","feedback","","<div class='trialDiv'><img src='trustrating_stim/white_00898_960530_fa_edt.bmp'><br><font class='baseline'><strong>Joseph</strong><p>Received: <strong>8</strong></font> &nbsp; &nbsp; &nbsp; &nbsp; &nbsp; &nbsp;<font class='posOutcome'>Shared back: <strong>4</strong></font></font><div class='respPicDiv'><img src='img/responseButtonOffersNo0_wht.png' class='respPic'></div></div>","null","8","Joseph","8","Shared","0.8,0.35","11","0.8","trustrating_stim/white_00898_960530_fa_edt.bmp","7.5","110","22"
"html-keyboard-response","203","633713","0.0-19.0-1.22","63e1f5009f56fcb831963f19","bdp_trlrn","Sun Mar 12 2023 14:19:34 GMT-0700 (Pacific Daylight Time)","906390","Untrustworthy,Trustworthy","","443","","","","decision","","<div class='trialDiv'><img src='trustrating_stim/white_mw033.bmp'><br><font class='baseline'><strong>Aaron</strong><p>Choose number of points to send.</font><div class='respPicDiv'><img src='img/responseButtonOffersNo0L.png' class='respPic'></div></div>","1","8","Aaron","4","Shared","0.8,0.2","10","0.8","trustrating_stim/white_mw033.bmp","6","115","23"
"html-keyboard-response","204","633965","0.0-19.0-2.22","63e1f5009f56fcb831963f19","bdp_trlrn","Sun Mar 12 2023 14:19:34 GMT-0700 (Pacific Daylight Time)","906390","Untrustworthy,Trustworthy","","null","","","","decisionFB","","<div class='trialDiv'><img src='trustrating_stim/white_mw033.bmp'><br><font class='baseline'><strong>Aaron</strong><p>Choose number of points to send.</font><div class='respPicDiv'><img src='img/responseButtonOffersNo0L1.png' class='respPic'></div></div>","null","8","Aaron","4","Shared","0.8,0.2","10","0.8","trustrating_stim/white_mw033.bmp","6","114","23"
"html-keyboard-response","205","634968","0.0-19.0-3.22","63e1f5009f56fcb831963f19","bdp_trlrn","Sun Mar 12 2023 14:19:34 GMT-0700 (Pacific Daylight Time)","906390","Untrustworthy,Trustworthy","","null","","","","feedback","","<div class='trialDiv'><img src='trustrating_stim/white_mw033.bmp'><br><font class='baseline'><strong>Aaron</strong><p>Received: <strong>4</strong></font> &nbsp; &nbsp; &nbsp; &nbsp; &nbsp; &nbsp;<font class='posOutcome'>Shared back: <strong>2</strong></font></font><div class='respPicDiv'><img src='img/responseButtonOffersNo0_wht.png' class='respPic'></div></div>","null","8","Aaron","4","Shared","0.8,0.2","10","0.8","trustrating_stim/white_mw033.bmp","6","116","23"
"html-keyboard-response","206","635383","0.0-19.0-1.23","63e1f5009f56fcb831963f19","bdp_trlrn","Sun Mar 12 2023 14:19:34 GMT-0700 (Pacific Daylight Time)","906390","Untrustworthy,Trustworthy","","414","","","","decision","","<div class='trialDiv'><img src='trustrating_stim/white_mw097.bmp'><br><font class='baseline'><strong>Benjamin</strong><p>Choose number of points to send.</font><div class='respPicDiv'><img src='img/responseButtonOffersNo0L.png' class='respPic'></div></div>","2","8","Benjamin","1","Shared","0.35,0.8","13","0.35","trustrating_stim/white_mw097.bmp","5","121","24"
"html-keyboard-response","207","635635","0.0-19.0-2.23","63e1f5009f56fcb831963f19","bdp_trlrn","Sun Mar 12 2023 14:19:34 GMT-0700 (Pacific Daylight Time)","906390","Untrustworthy,Trustworthy","","null","","","","decisionFB","","<div class='trialDiv'><img src='trustrating_stim/white_mw097.bmp'><br><font class='baseline'><strong>Benjamin</strong><p>Choose number of points to send.</font><div class='respPicDiv'><img src='img/responseButtonOffersNo0L2.png' class='respPic'></div></div>","null","8","Benjamin","1","Shared","0.35,0.8","13","0.35","trustrating_stim/white_mw097.bmp","5","119","24"
"html-keyboard-response","208","636637","0.0-19.0-3.23","63e1f5009f56fcb831963f19","bdp_trlrn","Sun Mar 12 2023 14:19:34 GMT-0700 (Pacific Daylight Time)","906390","Untrustworthy,Trustworthy","","null","","","","feedback","","<div class='trialDiv'><img src='trustrating_stim/white_mw097.bmp'><br><font class='baseline'><strong>Benjamin</strong><p>Received: <strong>8</strong></font> &nbsp; &nbsp; &nbsp; &nbsp; &nbsp; &nbsp;<font class='posOutcome'>Shared back: <strong>4</strong></font></font><div class='respPicDiv'><img src='img/responseButtonOffersNo0_wht.png' class='respPic'></div></div>","null","8","Benjamin","1","Shared","0.35,0.8","13","0.35","trustrating_stim/white_mw097.bmp","5","123","24"
"html-keyboard-response","209","637122","0.0-19.0-1.24","63e1f5009f56fcb831963f19","bdp_trlrn","Sun Mar 12 2023 14:19:34 GMT-0700 (Pacific Daylight Time)","906390","Untrustworthy,Trustworthy","","485","","","","decision","","<div class='trialDiv'><img src='trustrating_stim/white_00898_960530_fa_edt.bmp'><br><font class='baseline'><strong>Joseph</strong><p>Choose number of points to send.</font><div class='respPicDiv'><img src='img/responseButtonOffersNo0L.png' class='respPic'></div></div>","4","9","Joseph","8","Shared","0.8,0.35","11","0.8","trustrating_stim/white_00898_960530_fa_edt.bmp","7.5","128","25"
"html-keyboard-response","210","637375","0.0-19.0-2.24","63e1f5009f56fcb831963f19","bdp_trlrn","Sun Mar 12 2023 14:19:34 GMT-0700 (Pacific Daylight Time)","906390","Untrustworthy,Trustworthy","","null","","","","decisionFB","","<div class='trialDiv'><img src='trustrating_stim/white_00898_960530_fa_edt.bmp'><br><font class='baseline'><strong>Joseph</strong><p>Choose number of points to send.</font><div class='respPicDiv'><img src='img/responseButtonOffersNo0L4.png' class='respPic'></div></div>","null","9","Joseph","8","Shared","0.8,0.35","11","0.8","trustrating_stim/white_00898_960530_fa_edt.bmp","7.5","124","25"
"html-keyboard-response","211","638376","0.0-19.0-3.24","63e1f5009f56fcb831963f19","bdp_trlrn","Sun Mar 12 2023 14:19:34 GMT-0700 (Pacific Daylight Time)","906390","Untrustworthy,Trustworthy","","null","","","","feedback","","<div class='trialDiv'><img src='trustrating_stim/white_00898_960530_fa_edt.bmp'><br><font class='baseline'><strong>Joseph</strong><p>Received: <strong>16</strong></font> &nbsp; &nbsp; &nbsp; &nbsp; &nbsp; &nbsp;<font class='posOutcome'>Shared back: <strong>8</strong></font></font><div class='respPicDiv'><img src='img/responseButtonOffersNo0_wht.png' class='respPic'></div></div>","null","9","Joseph","8","Shared","0.8,0.35","11","0.8","trustrating_stim/white_00898_960530_fa_edt.bmp","7.5","132","25"
"html-keyboard-response","212","638725","0.0-19.0-1.25","63e1f5009f56fcb831963f19","bdp_trlrn","Sun Mar 12 2023 14:19:34 GMT-0700 (Pacific Daylight Time)","906390","Untrustworthy,Trustworthy","","348","","","","decision","","<div class='trialDiv'><img src='trustrating_stim/white_mw097.bmp'><br><font class='baseline'><strong>Benjamin</strong><p>Choose number of points to send.</font><div class='respPicDiv'><img src='img/responseButtonOffersNo0L.png' class='respPic'></div></div>","5","9","Benjamin","1","Kept","0.35,0.8","13","0.35","trustrating_stim/white_mw097.bmp","5","137","26"
"html-keyboard-response","213","638977","0.0-19.0-2.25","63e1f5009f56fcb831963f19","bdp_trlrn","Sun Mar 12 2023 14:19:34 GMT-0700 (Pacific Daylight Time)","906390","Untrustworthy,Trustworthy","","null","","","","decisionFB","","<div class='trialDiv'><img src='trustrating_stim/white_mw097.bmp'><br><font class='baseline'><strong>Benjamin</strong><p>Choose number of points to send.</font><div class='respPicDiv'><img src='img/responseButtonOffersNo0L5.png' class='respPic'></div></div>","null","9","Benjamin","1","Kept","0.35,0.8","13","0.35","trustrating_stim/white_mw097.bmp","5","132","26"
"html-keyboard-response","214","639978","0.0-19.0-3.25","63e1f5009f56fcb831963f19","bdp_trlrn","Sun Mar 12 2023 14:19:34 GMT-0700 (Pacific Daylight Time)","906390","Untrustworthy,Trustworthy","","null","","","","feedback","","<div class='trialDiv'><img src='trustrating_stim/white_mw097.bmp'><br><font class='baseline'><strong>Benjamin</strong><p>Received: <strong>20</strong></font> &nbsp; &nbsp; &nbsp; &nbsp; &nbsp; &nbsp;<font class='negOutcome'>Shared back: <strong>0</strong></font></font><div class='respPicDiv'><img src='img/responseButtonOffersNo0_wht.png' class='respPic'></div></div>","null","9","Benjamin","1","Kept","0.35,0.8","13","0.35","trustrating_stim/white_mw097.bmp","5","132","26"
"html-keyboard-response","215","640328","0.0-19.0-1.26","63e1f5009f56fcb831963f19","bdp_trlrn","Sun Mar 12 2023 14:19:34 GMT-0700 (Pacific Daylight Time)","906390","Untrustworthy,Trustworthy","","348","","","","decision","","<div class='trialDiv'><img src='trustrating_stim/white_mw033.bmp'><br><font class='baseline'><strong>Aaron</strong><p>Choose number of points to send.</font><div class='respPicDiv'><img src='img/responseButtonOffersNo0L.png' class='respPic'></div></div>","4","9","Aaron","4","Shared","0.8,0.2","10","0.8","trustrating_stim/white_mw033.bmp","6","137","27"
"html-keyboard-response","216","640579","0.0-19.0-2.26","63e1f5009f56fcb831963f19","bdp_trlrn","Sun Mar 12 2023 14:19:34 GMT-0700 (Pacific Daylight Time)","906390","Untrustworthy,Trustworthy","","null","","","","decisionFB","","<div class='trialDiv'><img src='trustrating_stim/white_mw033.bmp'><br><font class='baseline'><strong>Aaron</strong><p>Choose number of points to send.</font><div class='respPicDiv'><img src='img/responseButtonOffersNo0L4.png' class='respPic'></div></div>","null","9","Aaron","4","Shared","0.8,0.2","10","0.8","trustrating_stim/white_mw033.bmp","6","133","27"
"html-keyboard-response","217","641581","0.0-19.0-3.26","63e1f5009f56fcb831963f19","bdp_trlrn","Sun Mar 12 2023 14:19:34 GMT-0700 (Pacific Daylight Time)","906390","Untrustworthy,Trustworthy","","null","","","","feedback","","<div class='trialDiv'><img src='trustrating_stim/white_mw033.bmp'><br><font class='baseline'><strong>Aaron</strong><p>Received: <strong>16</strong></font> &nbsp; &nbsp; &nbsp; &nbsp; &nbsp; &nbsp;<font class='posOutcome'>Shared back: <strong>8</strong></font></font><div class='respPicDiv'><img src='img/responseButtonOffersNo0_wht.png' class='respPic'></div></div>","null","9","Aaron","4","Shared","0.8,0.2","10","0.8","trustrating_stim/white_mw033.bmp","6","141","27"
"html-keyboard-response","218","641748","0.0-19.0-1.27","63e1f5009f56fcb831963f19","bdp_trlrn","Sun Mar 12 2023 14:19:34 GMT-0700 (Pacific Daylight Time)","906390","Untrustworthy,Trustworthy","","165","","","","decision","","<div class='trialDiv'><img src='trustrating_stim/white_00898_960530_fa_edt.bmp'><br><font class='baseline'><strong>Joseph</strong><p>Choose number of points to send.</font><div class='respPicDiv'><img src='img/responseButtonOffersNo0L.png' class='respPic'></div></div>","3","10","Joseph","8","Shared","0.8,0.35","11","0.8","trustrating_stim/white_00898_960530_fa_edt.bmp","7.5","146","28"
"html-keyboard-response","219","641999","0.0-19.0-2.27","63e1f5009f56fcb831963f19","bdp_trlrn","Sun Mar 12 2023 14:19:34 GMT-0700 (Pacific Daylight Time)","906390","Untrustworthy,Trustworthy","","null","","","","decisionFB","","<div class='trialDiv'><img src='trustrating_stim/white_00898_960530_fa_edt.bmp'><br><font class='baseline'><strong>Joseph</strong><p>Choose number of points to send.</font><div class='respPicDiv'><img src='img/responseButtonOffersNo0L3.png' class='respPic'></div></div>","null","10","Joseph","8","Shared","0.8,0.35","11","0.8","trustrating_stim/white_00898_960530_fa_edt.bmp","7.5","143","28"
"html-keyboard-response","220","643002","0.0-19.0-3.27","63e1f5009f56fcb831963f19","bdp_trlrn","Sun Mar 12 2023 14:19:34 GMT-0700 (Pacific Daylight Time)","906390","Untrustworthy,Trustworthy","","null","","","","feedback","","<div class='trialDiv'><img src='trustrating_stim/white_00898_960530_fa_edt.bmp'><br><font class='baseline'><strong>Joseph</strong><p>Received: <strong>12</strong></font> &nbsp; &nbsp; &nbsp; &nbsp; &nbsp; &nbsp;<font class='posOutcome'>Shared back: <strong>6</strong></font></font><div class='respPicDiv'><img src='img/responseButtonOffersNo0_wht.png' class='respPic'></div></div>","null","10","Joseph","8","Shared","0.8,0.35","11","0.8","trustrating_stim/white_00898_960530_fa_edt.bmp","7.5","149","28"
