"trial_type","trial_index","time_elapsed","internal_node_id","subject_id","task","startTime","totalTime","labels","event","trial","time","trialtype","numBlurs","view_history","rt","success","stimulus","key_press","aground","name","faceID","outcome","agenttype","agentswpt","agentcurrpshare","face","avgRating","point_total","round"
"pavlovia","0","2","0.0-0.0","611d4519393cabb9a4a46ebd","bdp_trlrn","Wed Mar 15 2023 23:14:09 GMT-0400 (Eastern Daylight Time)","819858","Untrustworthy,Trustworthy","","","","","","","","","","","","","","","","","","","","",""
"","","","","611d4519393cabb9a4a46ebd","bdp_trlrn","Wed Mar 15 2023 23:14:09 GMT-0400 (Eastern Daylight Time)","819858","Untrustworthy,Trustworthy","blur","1","5751","blurevent","1","","","","","","","","","","","","","","","",""
"","","","","611d4519393cabb9a4a46ebd","bdp_trlrn","Wed Mar 15 2023 23:14:09 GMT-0400 (Eastern Daylight Time)","819858","Untrustworthy,Trustworthy","focus","1","13693","focusevent","","","","","","","","","","","","","","","","",""
"instructions","1","17924","0.0-1.0","611d4519393cabb9a4a46ebd","bdp_trlrn","Wed Mar 15 2023 23:14:09 GMT-0400 (Eastern Daylight Time)","819858","Untrustworthy,Trustworthy","","","","","","[{""page_index"":0,""viewing_time"":17921}]","17921","","","","","","","","","","","","","",""
"","","","","611d4519393cabb9a4a46ebd","bdp_trlrn","Wed Mar 15 2023 23:14:09 GMT-0400 (Eastern Daylight Time)","819858","Untrustworthy,Trustworthy","fullscreenenter","2","23663","fullscreenenter","","","","","","","","","","","","","","","","",""
"fullscreen","2","24669","0.0-2.0","611d4519393cabb9a4a46ebd","bdp_trlrn","Wed Mar 15 2023 23:14:09 GMT-0400 (Eastern Daylight Time)","819858","Untrustworthy,Trustworthy","","","","","","","","true","","","","","","","","","","","","",""
"instructions","3","43143","0.0-4.0","611d4519393cabb9a4a46ebd","bdp_trlrn","Wed Mar 15 2023 23:14:09 GMT-0400 (Eastern Daylight Time)","819858","Untrustworthy,Trustworthy","","","","","","[{""page_index"":0,""viewing_time"":11680},{""page_index"":1,""viewing_time"":6793}]","18473","","","","","","","","","","","","","",""
"instructions","4","44646","0.0-5.0","611d4519393cabb9a4a46ebd","bdp_trlrn","Wed Mar 15 2023 23:14:09 GMT-0400 (Eastern Daylight Time)","819858","Untrustworthy,Trustworthy","","","","","","[{""page_index"":0,""viewing_time"":1503}]","1503","","","","","","","","","","","","","",""
"image-keyboard-response","5","48030","0.0-6.0-1.0","611d4519393cabb9a4a46ebd","bdp_trlrn","Wed Mar 15 2023 23:14:09 GMT-0400 (Eastern Daylight Time)","819858","Untrustworthy,Trustworthy","","","","rating","","","3281","","trustrating_stim/white_mw084.bmp","5","","","","","","","","","","",""
"image-keyboard-response","6","48232","0.0-6.0-2.0","611d4519393cabb9a4a46ebd","bdp_trlrn","Wed Mar 15 2023 23:14:09 GMT-0400 (Eastern Daylight Time)","819858","Untrustworthy,Trustworthy","","","","ratingFB","","","null","","trustrating_stim/white_mw084.bmp","null","","","","","","","","","","",""
"image-keyboard-response","7","51475","0.0-6.0-1.1","611d4519393cabb9a4a46ebd","bdp_trlrn","Wed Mar 15 2023 23:14:09 GMT-0400 (Eastern Daylight Time)","819858","Untrustworthy,Trustworthy","","","","rating","","","3141","","trustrating_stim/white_mw033.bmp","5","","","","","","","","","","",""
"image-keyboard-response","8","51677","0.0-6.0-2.1","611d4519393cabb9a4a46ebd","bdp_trlrn","Wed Mar 15 2023 23:14:09 GMT-0400 (Eastern Daylight Time)","819858","Untrustworthy,Trustworthy","","","","ratingFB","","","null","","trustrating_stim/white_mw033.bmp","null","","","","","","","","","","",""
"image-keyboard-response","9","53978","0.0-6.0-1.2","611d4519393cabb9a4a46ebd","bdp_trlrn","Wed Mar 15 2023 23:14:09 GMT-0400 (Eastern Daylight Time)","819858","Untrustworthy,Trustworthy","","","","rating","","","2200","","trustrating_stim/white_00898_960530_fa_edt.bmp","6","","","","","","","","","","",""
"image-keyboard-response","10","54180","0.0-6.0-2.2","611d4519393cabb9a4a46ebd","bdp_trlrn","Wed Mar 15 2023 23:14:09 GMT-0400 (Eastern Daylight Time)","819858","Untrustworthy,Trustworthy","","","","ratingFB","","","null","","trustrating_stim/white_00898_960530_fa_edt.bmp","null","","","","","","","","","","",""
"image-keyboard-response","11","57176","0.0-6.0-1.3","611d4519393cabb9a4a46ebd","bdp_trlrn","Wed Mar 15 2023 23:14:09 GMT-0400 (Eastern Daylight Time)","819858","Untrustworthy,Trustworthy","","","","rating","","","2894","","trustrating_stim/white_00120_931230_fa_edt.bmp","6","","","","","","","","","","",""
"image-keyboard-response","12","57377","0.0-6.0-2.3","611d4519393cabb9a4a46ebd","bdp_trlrn","Wed Mar 15 2023 23:14:09 GMT-0400 (Eastern Daylight Time)","819858","Untrustworthy,Trustworthy","","","","ratingFB","","","null","","trustrating_stim/white_00120_931230_fa_edt.bmp","null","","","","","","","","","","",""
"image-keyboard-response","13","60770","0.0-6.0-1.4","611d4519393cabb9a4a46ebd","bdp_trlrn","Wed Mar 15 2023 23:14:09 GMT-0400 (Eastern Daylight Time)","819858","Untrustworthy,Trustworthy","","","","rating","","","3292","","trustrating_stim/white_00519_940519_fb_edt.bmp","5","","","","","","","","","","",""
"image-keyboard-response","14","60972","0.0-6.0-2.4","611d4519393cabb9a4a46ebd","bdp_trlrn","Wed Mar 15 2023 23:14:09 GMT-0400 (Eastern Daylight Time)","819858","Untrustworthy,Trustworthy","","","","ratingFB","","","null","","trustrating_stim/white_00519_940519_fb_edt.bmp","null","","","","","","","","","","",""
"image-keyboard-response","15","64616","0.0-6.0-1.5","611d4519393cabb9a4a46ebd","bdp_trlrn","Wed Mar 15 2023 23:14:09 GMT-0400 (Eastern Daylight Time)","819858","Untrustworthy,Trustworthy","","","","rating","","","3543","","trustrating_stim/white_mw066.bmp","5","","","","","","","","","","",""
"image-keyboard-response","16","64826","0.0-6.0-2.5","611d4519393cabb9a4a46ebd","bdp_trlrn","Wed Mar 15 2023 23:14:09 GMT-0400 (Eastern Daylight Time)","819858","Untrustworthy,Trustworthy","","","","ratingFB","","","null","","trustrating_stim/white_mw066.bmp","null","","","","","","","","","","",""
"image-keyboard-response","17","68969","0.0-6.0-1.6","611d4519393cabb9a4a46ebd","bdp_trlrn","Wed Mar 15 2023 23:14:09 GMT-0400 (Eastern Daylight Time)","819858","Untrustworthy,Trustworthy","","","","rating","","","4042","","trustrating_stim/white_mw089.bmp","5","","","","","","","","","","",""
"image-keyboard-response","18","69170","0.0-6.0-2.6","611d4519393cabb9a4a46ebd","bdp_trlrn","Wed Mar 15 2023 23:14:09 GMT-0400 (Eastern Daylight Time)","819858","Untrustworthy,Trustworthy","","","","ratingFB","","","null","","trustrating_stim/white_mw089.bmp","null","","","","","","","","","","",""
"image-keyboard-response","19","72597","0.0-6.0-1.7","611d4519393cabb9a4a46ebd","bdp_trlrn","Wed Mar 15 2023 23:14:09 GMT-0400 (Eastern Daylight Time)","819858","Untrustworthy,Trustworthy","","","","rating","","","3325","","trustrating_stim/white_mw053.bmp","4","","","","","","","","","","",""
"image-keyboard-response","20","72802","0.0-6.0-2.7","611d4519393cabb9a4a46ebd","bdp_trlrn","Wed Mar 15 2023 23:14:09 GMT-0400 (Eastern Daylight Time)","819858","Untrustworthy,Trustworthy","","","","ratingFB","","","null","","trustrating_stim/white_mw053.bmp","null","","","","","","","","","","",""
"image-keyboard-response","21","76115","0.0-6.0-1.8","611d4519393cabb9a4a46ebd","bdp_trlrn","Wed Mar 15 2023 23:14:09 GMT-0400 (Eastern Daylight Time)","819858","Untrustworthy,Trustworthy","","","","rating","","","3212","","trustrating_stim/white_00757_941201_fa_edt.bmp","3","","","","","","","","","","",""
"image-keyboard-response","22","76316","0.0-6.0-2.8","611d4519393cabb9a4a46ebd","bdp_trlrn","Wed Mar 15 2023 23:14:09 GMT-0400 (Eastern Daylight Time)","819858","Untrustworthy,Trustworthy","","","","ratingFB","","","null","","trustrating_stim/white_00757_941201_fa_edt.bmp","null","","","","","","","","","","",""
"image-keyboard-response","23","78538","0.0-6.0-1.9","611d4519393cabb9a4a46ebd","bdp_trlrn","Wed Mar 15 2023 23:14:09 GMT-0400 (Eastern Daylight Time)","819858","Untrustworthy,Trustworthy","","","","rating","","","2121","","trustrating_stim/white_00109_931230_fa_edt.bmp","7","","","","","","","","","","",""
"image-keyboard-response","24","78741","0.0-6.0-2.9","611d4519393cabb9a4a46ebd","bdp_trlrn","Wed Mar 15 2023 23:14:09 GMT-0400 (Eastern Daylight Time)","819858","Untrustworthy,Trustworthy","","","","ratingFB","","","null","","trustrating_stim/white_00109_931230_fa_edt.bmp","null","","","","","","","","","","",""
"image-keyboard-response","25","81178","0.0-6.0-1.10","611d4519393cabb9a4a46ebd","bdp_trlrn","Wed Mar 15 2023 23:14:09 GMT-0400 (Eastern Daylight Time)","819858","Untrustworthy,Trustworthy","","","","rating","","","2336","","trustrating_stim/white_mw099.bmp","5","","","","","","","","","","",""
"image-keyboard-response","26","81379","0.0-6.0-2.10","611d4519393cabb9a4a46ebd","bdp_trlrn","Wed Mar 15 2023 23:14:09 GMT-0400 (Eastern Daylight Time)","819858","Untrustworthy,Trustworthy","","","","ratingFB","","","null","","trustrating_stim/white_mw099.bmp","null","","","","","","","","","","",""
"image-keyboard-response","27","83998","0.0-6.0-1.11","611d4519393cabb9a4a46ebd","bdp_trlrn","Wed Mar 15 2023 23:14:09 GMT-0400 (Eastern Daylight Time)","819858","Untrustworthy,Trustworthy","","","","rating","","","2518","","trustrating_stim/white_00807_941205_fb_edt.bmp","3","","","","","","","","","","",""
"image-keyboard-response","28","84200","0.0-6.0-2.11","611d4519393cabb9a4a46ebd","bdp_trlrn","Wed Mar 15 2023 23:14:09 GMT-0400 (Eastern Daylight Time)","819858","Untrustworthy,Trustworthy","","","","ratingFB","","","null","","trustrating_stim/white_00807_941205_fb_edt.bmp","null","","","","","","","","","","",""
"image-keyboard-response","29","85913","0.0-6.0-1.12","611d4519393cabb9a4a46ebd","bdp_trlrn","Wed Mar 15 2023 23:14:09 GMT-0400 (Eastern Daylight Time)","819858","Untrustworthy,Trustworthy","","","","rating","","","1611","","trustrating_stim/white_mw063.bmp","2","","","","","","","","","","",""
"image-keyboard-response","30","86114","0.0-6.0-2.12","611d4519393cabb9a4a46ebd","bdp_trlrn","Wed Mar 15 2023 23:14:09 GMT-0400 (Eastern Daylight Time)","819858","Untrustworthy,Trustworthy","","","","ratingFB","","","null","","trustrating_stim/white_mw063.bmp","null","","","","","","","","","","",""
"image-keyboard-response","31","88531","0.0-6.0-1.13","611d4519393cabb9a4a46ebd","bdp_trlrn","Wed Mar 15 2023 23:14:09 GMT-0400 (Eastern Daylight Time)","819858","Untrustworthy,Trustworthy","","","","rating","","","2316","","trustrating_stim/white_00577_940928_fa_edt.bmp","4","","","","","","","","","","",""
"image-keyboard-response","32","88732","0.0-6.0-2.13","611d4519393cabb9a4a46ebd","bdp_trlrn","Wed Mar 15 2023 23:14:09 GMT-0400 (Eastern Daylight Time)","819858","Untrustworthy,Trustworthy","","","","ratingFB","","","null","","trustrating_stim/white_00577_940928_fa_edt.bmp","null","","","","","","","","","","",""
"image-keyboard-response","33","90583","0.0-6.0-1.14","611d4519393cabb9a4a46ebd","bdp_trlrn","Wed Mar 15 2023 23:14:09 GMT-0400 (Eastern Daylight Time)","819858","Untrustworthy,Trustworthy","","","","rating","","","1750","","trustrating_stim/white_mw060.bmp","2","","","","","","","","","","",""
"image-keyboard-response","34","90785","0.0-6.0-2.14","611d4519393cabb9a4a46ebd","bdp_trlrn","Wed Mar 15 2023 23:14:09 GMT-0400 (Eastern Daylight Time)","819858","Untrustworthy,Trustworthy","","","","ratingFB","","","null","","trustrating_stim/white_mw060.bmp","null","","","","","","","","","","",""
"image-keyboard-response","35","94040","0.0-6.0-1.15","611d4519393cabb9a4a46ebd","bdp_trlrn","Wed Mar 15 2023 23:14:09 GMT-0400 (Eastern Daylight Time)","819858","Untrustworthy,Trustworthy","","","","rating","","","3154","","trustrating_stim/white_00659_941121_fa_edt.bmp","2","","","","","","","","","","",""
"image-keyboard-response","36","94242","0.0-6.0-2.15","611d4519393cabb9a4a46ebd","bdp_trlrn","Wed Mar 15 2023 23:14:09 GMT-0400 (Eastern Daylight Time)","819858","Untrustworthy,Trustworthy","","","","ratingFB","","","null","","trustrating_stim/white_00659_941121_fa_edt.bmp","null","","","","","","","","","","",""
"image-keyboard-response","37","96874","0.0-6.0-1.16","611d4519393cabb9a4a46ebd","bdp_trlrn","Wed Mar 15 2023 23:14:09 GMT-0400 (Eastern Daylight Time)","819858","Untrustworthy,Trustworthy","","","","rating","","","2530","","trustrating_stim/white_00129_931230_fb_edt.bmp","6","","","","","","","","","","",""
"image-keyboard-response","38","97076","0.0-6.0-2.16","611d4519393cabb9a4a46ebd","bdp_trlrn","Wed Mar 15 2023 23:14:09 GMT-0400 (Eastern Daylight Time)","819858","Untrustworthy,Trustworthy","","","","ratingFB","","","null","","trustrating_stim/white_00129_931230_fb_edt.bmp","null","","","","","","","","","","",""
"image-keyboard-response","39","99333","0.0-6.0-1.17","611d4519393cabb9a4a46ebd","bdp_trlrn","Wed Mar 15 2023 23:14:09 GMT-0400 (Eastern Daylight Time)","819858","Untrustworthy,Trustworthy","","","","rating","","","2156","","trustrating_stim/white_00602_940928_fb_edt.bmp","6","","","","","","","","","","",""
"image-keyboard-response","40","99535","0.0-6.0-2.17","611d4519393cabb9a4a46ebd","bdp_trlrn","Wed Mar 15 2023 23:14:09 GMT-0400 (Eastern Daylight Time)","819858","Untrustworthy,Trustworthy","","","","ratingFB","","","null","","trustrating_stim/white_00602_940928_fb_edt.bmp","null","","","","","","","","","","",""
"image-keyboard-response","41","102637","0.0-6.0-1.18","611d4519393cabb9a4a46ebd","bdp_trlrn","Wed Mar 15 2023 23:14:09 GMT-0400 (Eastern Daylight Time)","819858","Untrustworthy,Trustworthy","","","","rating","","","3000","","trustrating_stim/white_00761_941201_fb_edt.bmp","7","","","","","","","","","","",""
"image-keyboard-response","42","102839","0.0-6.0-2.18","611d4519393cabb9a4a46ebd","bdp_trlrn","Wed Mar 15 2023 23:14:09 GMT-0400 (Eastern Daylight Time)","819858","Untrustworthy,Trustworthy","","","","ratingFB","","","null","","trustrating_stim/white_00761_941201_fb_edt.bmp","null","","","","","","","","","","",""
"image-keyboard-response","43","105549","0.0-6.0-1.19","611d4519393cabb9a4a46ebd","bdp_trlrn","Wed Mar 15 2023 23:14:09 GMT-0400 (Eastern Daylight Time)","819858","Untrustworthy,Trustworthy","","","","rating","","","2609","","trustrating_stim/white_00785_941205_fb_edt.bmp","5","","","","","","","","","","",""
"image-keyboard-response","44","105750","0.0-6.0-2.19","611d4519393cabb9a4a46ebd","bdp_trlrn","Wed Mar 15 2023 23:14:09 GMT-0400 (Eastern Daylight Time)","819858","Untrustworthy,Trustworthy","","","","ratingFB","","","null","","trustrating_stim/white_00785_941205_fb_edt.bmp","null","","","","","","","","","","",""
"image-keyboard-response","45","107898","0.0-6.0-1.20","611d4519393cabb9a4a46ebd","bdp_trlrn","Wed Mar 15 2023 23:14:09 GMT-0400 (Eastern Daylight Time)","819858","Untrustworthy,Trustworthy","","","","rating","","","2046","","trustrating_stim/white_mw071.bmp","5","","","","","","","","","","",""
"image-keyboard-response","46","108099","0.0-6.0-2.20","611d4519393cabb9a4a46ebd","bdp_trlrn","Wed Mar 15 2023 23:14:09 GMT-0400 (Eastern Daylight Time)","819858","Untrustworthy,Trustworthy","","","","ratingFB","","","null","","trustrating_stim/white_mw071.bmp","null","","","","","","","","","","",""
"image-keyboard-response","47","110032","0.0-6.0-1.21","611d4519393cabb9a4a46ebd","bdp_trlrn","Wed Mar 15 2023 23:14:09 GMT-0400 (Eastern Daylight Time)","819858","Untrustworthy,Trustworthy","","","","rating","","","1832","","trustrating_stim/white_mw046.bmp","4","","","","","","","","","","",""
"image-keyboard-response","48","110234","0.0-6.0-2.21","611d4519393cabb9a4a46ebd","bdp_trlrn","Wed Mar 15 2023 23:14:09 GMT-0400 (Eastern Daylight Time)","819858","Untrustworthy,Trustworthy","","","","ratingFB","","","null","","trustrating_stim/white_mw046.bmp","null","","","","","","","","","","",""
"image-keyboard-response","49","112403","0.0-6.0-1.22","611d4519393cabb9a4a46ebd","bdp_trlrn","Wed Mar 15 2023 23:14:09 GMT-0400 (Eastern Daylight Time)","819858","Untrustworthy,Trustworthy","","","","rating","","","2067","","trustrating_stim/white_mw097.bmp","2","","","","","","","","","","",""
"image-keyboard-response","50","112604","0.0-6.0-2.22","611d4519393cabb9a4a46ebd","bdp_trlrn","Wed Mar 15 2023 23:14:09 GMT-0400 (Eastern Daylight Time)","819858","Untrustworthy,Trustworthy","","","","ratingFB","","","null","","trustrating_stim/white_mw097.bmp","null","","","","","","","","","","",""
"image-keyboard-response","51","114488","0.0-6.0-1.23","611d4519393cabb9a4a46ebd","bdp_trlrn","Wed Mar 15 2023 23:14:09 GMT-0400 (Eastern Daylight Time)","819858","Untrustworthy,Trustworthy","","","","rating","","","1783","","trustrating_stim/white_mw035.bmp","6","","","","","","","","","","",""
"image-keyboard-response","52","114690","0.0-6.0-2.23","611d4519393cabb9a4a46ebd","bdp_trlrn","Wed Mar 15 2023 23:14:09 GMT-0400 (Eastern Daylight Time)","819858","Untrustworthy,Trustworthy","","","","ratingFB","","","null","","trustrating_stim/white_mw035.bmp","null","","","","","","","","","","",""
"image-keyboard-response","53","116825","0.0-6.0-1.24","611d4519393cabb9a4a46ebd","bdp_trlrn","Wed Mar 15 2023 23:14:09 GMT-0400 (Eastern Daylight Time)","819858","Untrustworthy,Trustworthy","","","","rating","","","2034","","trustrating_stim/white_mw048.bmp","4","","","","","","","","","","",""
"image-keyboard-response","54","117027","0.0-6.0-2.24","611d4519393cabb9a4a46ebd","bdp_trlrn","Wed Mar 15 2023 23:14:09 GMT-0400 (Eastern Daylight Time)","819858","Untrustworthy,Trustworthy","","","","ratingFB","","","null","","trustrating_stim/white_mw048.bmp","null","","","","","","","","","","",""
"image-keyboard-response","55","121702","0.0-6.0-1.25","611d4519393cabb9a4a46ebd","bdp_trlrn","Wed Mar 15 2023 23:14:09 GMT-0400 (Eastern Daylight Time)","819858","Untrustworthy,Trustworthy","","","","rating","","","4574","","trustrating_stim/white_00223_940128_fb_edt.bmp","6","","","","","","","","","","",""
"image-keyboard-response","56","121903","0.0-6.0-2.25","611d4519393cabb9a4a46ebd","bdp_trlrn","Wed Mar 15 2023 23:14:09 GMT-0400 (Eastern Daylight Time)","819858","Untrustworthy,Trustworthy","","","","ratingFB","","","null","","trustrating_stim/white_00223_940128_fb_edt.bmp","null","","","","","","","","","","",""
"image-keyboard-response","57","124417","0.0-6.0-1.26","611d4519393cabb9a4a46ebd","bdp_trlrn","Wed Mar 15 2023 23:14:09 GMT-0400 (Eastern Daylight Time)","819858","Untrustworthy,Trustworthy","","","","rating","","","2412","","trustrating_stim/white_mw056.bmp","3","","","","","","","","","","",""
"image-keyboard-response","58","124622","0.0-6.0-2.26","611d4519393cabb9a4a46ebd","bdp_trlrn","Wed Mar 15 2023 23:14:09 GMT-0400 (Eastern Daylight Time)","819858","Untrustworthy,Trustworthy","","","","ratingFB","","","null","","trustrating_stim/white_mw056.bmp","null","","","","","","","","","","",""
"image-keyboard-response","59","127107","0.0-6.0-1.27","611d4519393cabb9a4a46ebd","bdp_trlrn","Wed Mar 15 2023 23:14:09 GMT-0400 (Eastern Daylight Time)","819858","Untrustworthy,Trustworthy","","","","rating","","","2384","","trustrating_stim/white_00340_940422_fa_edt.bmp","5","","","","","","","","","","",""
"image-keyboard-response","60","127320","0.0-6.0-2.27","611d4519393cabb9a4a46ebd","bdp_trlrn","Wed Mar 15 2023 23:14:09 GMT-0400 (Eastern Daylight Time)","819858","Untrustworthy,Trustworthy","","","","ratingFB","","","null","","trustrating_stim/white_00340_940422_fa_edt.bmp","null","","","","","","","","","","",""
"image-keyboard-response","61","129738","0.0-6.0-1.28","611d4519393cabb9a4a46ebd","bdp_trlrn","Wed Mar 15 2023 23:14:09 GMT-0400 (Eastern Daylight Time)","819858","Untrustworthy,Trustworthy","","","","rating","","","2317","","trustrating_stim/white_00299_940422_fa_edt.bmp","4","","","","","","","","","","",""
"image-keyboard-response","62","129944","0.0-6.0-2.28","611d4519393cabb9a4a46ebd","bdp_trlrn","Wed Mar 15 2023 23:14:09 GMT-0400 (Eastern Daylight Time)","819858","Untrustworthy,Trustworthy","","","","ratingFB","","","null","","trustrating_stim/white_00299_940422_fa_edt.bmp","null","","","","","","","","","","",""
"image-keyboard-response","63","133046","0.0-6.0-1.29","611d4519393cabb9a4a46ebd","bdp_trlrn","Wed Mar 15 2023 23:14:09 GMT-0400 (Eastern Daylight Time)","819858","Untrustworthy,Trustworthy","","","","rating","","","2999","","trustrating_stim/white_mw049.bmp","8","","","","","","","","","","",""
"image-keyboard-response","64","133247","0.0-6.0-2.29","611d4519393cabb9a4a46ebd","bdp_trlrn","Wed Mar 15 2023 23:14:09 GMT-0400 (Eastern Daylight Time)","819858","Untrustworthy,Trustworthy","","","","ratingFB","","","null","","trustrating_stim/white_mw049.bmp","null","","","","","","","","","","",""
"image-keyboard-response","65","138859","0.0-6.0-1.30","611d4519393cabb9a4a46ebd","bdp_trlrn","Wed Mar 15 2023 23:14:09 GMT-0400 (Eastern Daylight Time)","819858","Untrustworthy,Trustworthy","","","","rating","","","5510","","trustrating_stim/white_mw053.bmp","5","","","","","","","","","","",""
"image-keyboard-response","66","139060","0.0-6.0-2.30","611d4519393cabb9a4a46ebd","bdp_trlrn","Wed Mar 15 2023 23:14:09 GMT-0400 (Eastern Daylight Time)","819858","Untrustworthy,Trustworthy","","","","ratingFB","","","null","","trustrating_stim/white_mw053.bmp","null","","","","","","","","","","",""
"image-keyboard-response","67","141228","0.0-6.0-1.31","611d4519393cabb9a4a46ebd","bdp_trlrn","Wed Mar 15 2023 23:14:09 GMT-0400 (Eastern Daylight Time)","819858","Untrustworthy,Trustworthy","","","","rating","","","2066","","trustrating_stim/white_mw056.bmp","4","","","","","","","","","","",""
"image-keyboard-response","68","141429","0.0-6.0-2.31","611d4519393cabb9a4a46ebd","bdp_trlrn","Wed Mar 15 2023 23:14:09 GMT-0400 (Eastern Daylight Time)","819858","Untrustworthy,Trustworthy","","","","ratingFB","","","null","","trustrating_stim/white_mw056.bmp","null","","","","","","","","","","",""
"image-keyboard-response","69","143742","0.0-6.0-1.32","611d4519393cabb9a4a46ebd","bdp_trlrn","Wed Mar 15 2023 23:14:09 GMT-0400 (Eastern Daylight Time)","819858","Untrustworthy,Trustworthy","","","","rating","","","2210","","trustrating_stim/white_mw033.bmp","4","","","","","","","","","","",""
"image-keyboard-response","70","143942","0.0-6.0-2.32","611d4519393cabb9a4a46ebd","bdp_trlrn","Wed Mar 15 2023 23:14:09 GMT-0400 (Eastern Daylight Time)","819858","Untrustworthy,Trustworthy","","","","ratingFB","","","null","","trustrating_stim/white_mw033.bmp","null","","","","","","","","","","",""
"image-keyboard-response","71","145791","0.0-6.0-1.33","611d4519393cabb9a4a46ebd","bdp_trlrn","Wed Mar 15 2023 23:14:09 GMT-0400 (Eastern Daylight Time)","819858","Untrustworthy,Trustworthy","","","","rating","","","1746","","trustrating_stim/white_00785_941205_fb_edt.bmp","3","","","","","","","","","","",""
"image-keyboard-response","72","145992","0.0-6.0-2.33","611d4519393cabb9a4a46ebd","bdp_trlrn","Wed Mar 15 2023 23:14:09 GMT-0400 (Eastern Daylight Time)","819858","Untrustworthy,Trustworthy","","","","ratingFB","","","null","","trustrating_stim/white_00785_941205_fb_edt.bmp","null","","","","","","","","","","",""
"image-keyboard-response","73","147897","0.0-6.0-1.34","611d4519393cabb9a4a46ebd","bdp_trlrn","Wed Mar 15 2023 23:14:09 GMT-0400 (Eastern Daylight Time)","819858","Untrustworthy,Trustworthy","","","","rating","","","1802","","trustrating_stim/white_00519_940519_fb_edt.bmp","4","","","","","","","","","","",""
"image-keyboard-response","74","148099","0.0-6.0-2.34","611d4519393cabb9a4a46ebd","bdp_trlrn","Wed Mar 15 2023 23:14:09 GMT-0400 (Eastern Daylight Time)","819858","Untrustworthy,Trustworthy","","","","ratingFB","","","null","","trustrating_stim/white_00519_940519_fb_edt.bmp","null","","","","","","","","","","",""
"image-keyboard-response","75","149978","0.0-6.0-1.35","611d4519393cabb9a4a46ebd","bdp_trlrn","Wed Mar 15 2023 23:14:09 GMT-0400 (Eastern Daylight Time)","819858","Untrustworthy,Trustworthy","","","","rating","","","1777","","trustrating_stim/white_00602_940928_fb_edt.bmp","6","","","","","","","","","","",""
"image-keyboard-response","76","150180","0.0-6.0-2.35","611d4519393cabb9a4a46ebd","bdp_trlrn","Wed Mar 15 2023 23:14:09 GMT-0400 (Eastern Daylight Time)","819858","Untrustworthy,Trustworthy","","","","ratingFB","","","null","","trustrating_stim/white_00602_940928_fb_edt.bmp","null","","","","","","","","","","",""
"image-keyboard-response","77","152009","0.0-6.0-1.36","611d4519393cabb9a4a46ebd","bdp_trlrn","Wed Mar 15 2023 23:14:09 GMT-0400 (Eastern Daylight Time)","819858","Untrustworthy,Trustworthy","","","","rating","","","1727","","trustrating_stim/white_00898_960530_fa_edt.bmp","6","","","","","","","","","","",""
"image-keyboard-response","78","152209","0.0-6.0-2.36","611d4519393cabb9a4a46ebd","bdp_trlrn","Wed Mar 15 2023 23:14:09 GMT-0400 (Eastern Daylight Time)","819858","Untrustworthy,Trustworthy","","","","ratingFB","","","null","","trustrating_stim/white_00898_960530_fa_edt.bmp","null","","","","","","","","","","",""
"image-keyboard-response","79","156237","0.0-6.0-1.37","611d4519393cabb9a4a46ebd","bdp_trlrn","Wed Mar 15 2023 23:14:09 GMT-0400 (Eastern Daylight Time)","819858","Untrustworthy,Trustworthy","","","","rating","","","3925","","trustrating_stim/white_00223_940128_fb_edt.bmp","4","","","","","","","","","","",""
"image-keyboard-response","80","156438","0.0-6.0-2.37","611d4519393cabb9a4a46ebd","bdp_trlrn","Wed Mar 15 2023 23:14:09 GMT-0400 (Eastern Daylight Time)","819858","Untrustworthy,Trustworthy","","","","ratingFB","","","null","","trustrating_stim/white_00223_940128_fb_edt.bmp","null","","","","","","","","","","",""
"image-keyboard-response","81","159352","0.0-6.0-1.38","611d4519393cabb9a4a46ebd","bdp_trlrn","Wed Mar 15 2023 23:14:09 GMT-0400 (Eastern Daylight Time)","819858","Untrustworthy,Trustworthy","","","","rating","","","2811","","trustrating_stim/white_mw049.bmp","5","","","","","","","","","","",""
"image-keyboard-response","82","159554","0.0-6.0-2.38","611d4519393cabb9a4a46ebd","bdp_trlrn","Wed Mar 15 2023 23:14:09 GMT-0400 (Eastern Daylight Time)","819858","Untrustworthy,Trustworthy","","","","ratingFB","","","null","","trustrating_stim/white_mw049.bmp","null","","","","","","","","","","",""
"image-keyboard-response","83","161498","0.0-6.0-1.39","611d4519393cabb9a4a46ebd","bdp_trlrn","Wed Mar 15 2023 23:14:09 GMT-0400 (Eastern Daylight Time)","819858","Untrustworthy,Trustworthy","","","","rating","","","1842","","trustrating_stim/white_mw071.bmp","3","","","","","","","","","","",""
"image-keyboard-response","84","161714","0.0-6.0-2.39","611d4519393cabb9a4a46ebd","bdp_trlrn","Wed Mar 15 2023 23:14:09 GMT-0400 (Eastern Daylight Time)","819858","Untrustworthy,Trustworthy","","","","ratingFB","","","null","","trustrating_stim/white_mw071.bmp","null","","","","","","","","","","",""
"image-keyboard-response","85","164263","0.0-6.0-1.40","611d4519393cabb9a4a46ebd","bdp_trlrn","Wed Mar 15 2023 23:14:09 GMT-0400 (Eastern Daylight Time)","819858","Untrustworthy,Trustworthy","","","","rating","","","2447","","trustrating_stim/white_00757_941201_fa_edt.bmp","3","","","","","","","","","","",""
"image-keyboard-response","86","164464","0.0-6.0-2.40","611d4519393cabb9a4a46ebd","bdp_trlrn","Wed Mar 15 2023 23:14:09 GMT-0400 (Eastern Daylight Time)","819858","Untrustworthy,Trustworthy","","","","ratingFB","","","null","","trustrating_stim/white_00757_941201_fa_edt.bmp","null","","","","","","","","","","",""
"image-keyboard-response","87","166178","0.0-6.0-1.41","611d4519393cabb9a4a46ebd","bdp_trlrn","Wed Mar 15 2023 23:14:09 GMT-0400 (Eastern Daylight Time)","819858","Untrustworthy,Trustworthy","","","","rating","","","1611","","trustrating_stim/white_mw060.bmp","2","","","","","","","","","","",""
"image-keyboard-response","88","166394","0.0-6.0-2.41","611d4519393cabb9a4a46ebd","bdp_trlrn","Wed Mar 15 2023 23:14:09 GMT-0400 (Eastern Daylight Time)","819858","Untrustworthy,Trustworthy","","","","ratingFB","","","null","","trustrating_stim/white_mw060.bmp","null","","","","","","","","","","",""
"image-keyboard-response","89","169072","0.0-6.0-1.42","611d4519393cabb9a4a46ebd","bdp_trlrn","Wed Mar 15 2023 23:14:09 GMT-0400 (Eastern Daylight Time)","819858","Untrustworthy,Trustworthy","","","","rating","","","2576","","trustrating_stim/white_00340_940422_fa_edt.bmp","2","","","","","","","","","","",""
"image-keyboard-response","90","169273","0.0-6.0-2.42","611d4519393cabb9a4a46ebd","bdp_trlrn","Wed Mar 15 2023 23:14:09 GMT-0400 (Eastern Daylight Time)","819858","Untrustworthy,Trustworthy","","","","ratingFB","","","null","","trustrating_stim/white_00340_940422_fa_edt.bmp","null","","","","","","","","","","",""
"image-keyboard-response","91","170835","0.0-6.0-1.43","611d4519393cabb9a4a46ebd","bdp_trlrn","Wed Mar 15 2023 23:14:09 GMT-0400 (Eastern Daylight Time)","819858","Untrustworthy,Trustworthy","","","","rating","","","1460","","trustrating_stim/white_00807_941205_fb_edt.bmp","3","","","","","","","","","","",""
"image-keyboard-response","92","171036","0.0-6.0-2.43","611d4519393cabb9a4a46ebd","bdp_trlrn","Wed Mar 15 2023 23:14:09 GMT-0400 (Eastern Daylight Time)","819858","Untrustworthy,Trustworthy","","","","ratingFB","","","null","","trustrating_stim/white_00807_941205_fb_edt.bmp","null","","","","","","","","","","",""
"image-keyboard-response","93","172702","0.0-6.0-1.44","611d4519393cabb9a4a46ebd","bdp_trlrn","Wed Mar 15 2023 23:14:09 GMT-0400 (Eastern Daylight Time)","819858","Untrustworthy,Trustworthy","","","","rating","","","1563","","trustrating_stim/white_00577_940928_fa_edt.bmp","3","","","","","","","","","","",""
"image-keyboard-response","94","172903","0.0-6.0-2.44","611d4519393cabb9a4a46ebd","bdp_trlrn","Wed Mar 15 2023 23:14:09 GMT-0400 (Eastern Daylight Time)","819858","Untrustworthy,Trustworthy","","","","ratingFB","","","null","","trustrating_stim/white_00577_940928_fa_edt.bmp","null","","","","","","","","","","",""
"image-keyboard-response","95","174945","0.0-6.0-1.45","611d4519393cabb9a4a46ebd","bdp_trlrn","Wed Mar 15 2023 23:14:09 GMT-0400 (Eastern Daylight Time)","819858","Untrustworthy,Trustworthy","","","","rating","","","1938","","trustrating_stim/white_00299_940422_fa_edt.bmp","6","","","","","","","","","","",""
"image-keyboard-response","96","175147","0.0-6.0-2.45","611d4519393cabb9a4a46ebd","bdp_trlrn","Wed Mar 15 2023 23:14:09 GMT-0400 (Eastern Daylight Time)","819858","Untrustworthy,Trustworthy","","","","ratingFB","","","null","","trustrating_stim/white_00299_940422_fa_edt.bmp","null","","","","","","","","","","",""
"image-keyboard-response","97","177124","0.0-6.0-1.46","611d4519393cabb9a4a46ebd","bdp_trlrn","Wed Mar 15 2023 23:14:09 GMT-0400 (Eastern Daylight Time)","819858","Untrustworthy,Trustworthy","","","","rating","","","1876","","trustrating_stim/white_00120_931230_fa_edt.bmp","6","","","","","","","","","","",""
"image-keyboard-response","98","177325","0.0-6.0-2.46","611d4519393cabb9a4a46ebd","bdp_trlrn","Wed Mar 15 2023 23:14:09 GMT-0400 (Eastern Daylight Time)","819858","Untrustworthy,Trustworthy","","","","ratingFB","","","null","","trustrating_stim/white_00120_931230_fa_edt.bmp","null","","","","","","","","","","",""
"image-keyboard-response","99","179058","0.0-6.0-1.47","611d4519393cabb9a4a46ebd","bdp_trlrn","Wed Mar 15 2023 23:14:09 GMT-0400 (Eastern Daylight Time)","819858","Untrustworthy,Trustworthy","","","","rating","","","1632","","trustrating_stim/white_mw063.bmp","3","","","","","","","","","","",""
"image-keyboard-response","100","179260","0.0-6.0-2.47","611d4519393cabb9a4a46ebd","bdp_trlrn","Wed Mar 15 2023 23:14:09 GMT-0400 (Eastern Daylight Time)","819858","Untrustworthy,Trustworthy","","","","ratingFB","","","null","","trustrating_stim/white_mw063.bmp","null","","","","","","","","","","",""
"image-keyboard-response","101","180838","0.0-6.0-1.48","611d4519393cabb9a4a46ebd","bdp_trlrn","Wed Mar 15 2023 23:14:09 GMT-0400 (Eastern Daylight Time)","819858","Untrustworthy,Trustworthy","","","","rating","","","1467","","trustrating_stim/white_00659_941121_fa_edt.bmp","3","","","","","","","","","","",""
"image-keyboard-response","102","181039","0.0-6.0-2.48","611d4519393cabb9a4a46ebd","bdp_trlrn","Wed Mar 15 2023 23:14:09 GMT-0400 (Eastern Daylight Time)","819858","Untrustworthy,Trustworthy","","","","ratingFB","","","null","","trustrating_stim/white_00659_941121_fa_edt.bmp","null","","","","","","","","","","",""
"image-keyboard-response","103","182967","0.0-6.0-1.49","611d4519393cabb9a4a46ebd","bdp_trlrn","Wed Mar 15 2023 23:14:09 GMT-0400 (Eastern Daylight Time)","819858","Untrustworthy,Trustworthy","","","","rating","","","1814","","trustrating_stim/white_mw084.bmp","2","","","","","","","","","","",""
"image-keyboard-response","104","183169","0.0-6.0-2.49","611d4519393cabb9a4a46ebd","bdp_trlrn","Wed Mar 15 2023 23:14:09 GMT-0400 (Eastern Daylight Time)","819858","Untrustworthy,Trustworthy","","","","ratingFB","","","null","","trustrating_stim/white_mw084.bmp","null","","","","","","","","","","",""
"image-keyboard-response","105","185200","0.0-6.0-1.50","611d4519393cabb9a4a46ebd","bdp_trlrn","Wed Mar 15 2023 23:14:09 GMT-0400 (Eastern Daylight Time)","819858","Untrustworthy,Trustworthy","","","","rating","","","1930","","trustrating_stim/white_mw066.bmp","4","","","","","","","","","","",""
"image-keyboard-response","106","185400","0.0-6.0-2.50","611d4519393cabb9a4a46ebd","bdp_trlrn","Wed Mar 15 2023 23:14:09 GMT-0400 (Eastern Daylight Time)","819858","Untrustworthy,Trustworthy","","","","ratingFB","","","null","","trustrating_stim/white_mw066.bmp","null","","","","","","","","","","",""
"image-keyboard-response","107","188521","0.0-6.0-1.51","611d4519393cabb9a4a46ebd","bdp_trlrn","Wed Mar 15 2023 23:14:09 GMT-0400 (Eastern Daylight Time)","819858","Untrustworthy,Trustworthy","","","","rating","","","3018","","trustrating_stim/white_00129_931230_fb_edt.bmp","5","","","","","","","","","","",""
"image-keyboard-response","108","188722","0.0-6.0-2.51","611d4519393cabb9a4a46ebd","bdp_trlrn","Wed Mar 15 2023 23:14:09 GMT-0400 (Eastern Daylight Time)","819858","Untrustworthy,Trustworthy","","","","ratingFB","","","null","","trustrating_stim/white_00129_931230_fb_edt.bmp","null","","","","","","","","","","",""
"image-keyboard-response","109","190674","0.0-6.0-1.52","611d4519393cabb9a4a46ebd","bdp_trlrn","Wed Mar 15 2023 23:14:09 GMT-0400 (Eastern Daylight Time)","819858","Untrustworthy,Trustworthy","","","","rating","","","1849","","trustrating_stim/white_mw099.bmp","4","","","","","","","","","","",""
"image-keyboard-response","110","190876","0.0-6.0-2.52","611d4519393cabb9a4a46ebd","bdp_trlrn","Wed Mar 15 2023 23:14:09 GMT-0400 (Eastern Daylight Time)","819858","Untrustworthy,Trustworthy","","","","ratingFB","","","null","","trustrating_stim/white_mw099.bmp","null","","","","","","","","","","",""
"image-keyboard-response","111","192521","0.0-6.0-1.53","611d4519393cabb9a4a46ebd","bdp_trlrn","Wed Mar 15 2023 23:14:09 GMT-0400 (Eastern Daylight Time)","819858","Untrustworthy,Trustworthy","","","","rating","","","1543","","trustrating_stim/white_mw097.bmp","2","","","","","","","","","","",""
"image-keyboard-response","112","192731","0.0-6.0-2.53","611d4519393cabb9a4a46ebd","bdp_trlrn","Wed Mar 15 2023 23:14:09 GMT-0400 (Eastern Daylight Time)","819858","Untrustworthy,Trustworthy","","","","ratingFB","","","null","","trustrating_stim/white_mw097.bmp","null","","","","","","","","","","",""
"image-keyboard-response","113","195355","0.0-6.0-1.54","611d4519393cabb9a4a46ebd","bdp_trlrn","Wed Mar 15 2023 23:14:09 GMT-0400 (Eastern Daylight Time)","819858","Untrustworthy,Trustworthy","","","","rating","","","2522","","trustrating_stim/white_00761_941201_fb_edt.bmp","7","","","","","","","","","","",""
"image-keyboard-response","114","195557","0.0-6.0-2.54","611d4519393cabb9a4a46ebd","bdp_trlrn","Wed Mar 15 2023 23:14:09 GMT-0400 (Eastern Daylight Time)","819858","Untrustworthy,Trustworthy","","","","ratingFB","","","null","","trustrating_stim/white_00761_941201_fb_edt.bmp","null","","","","","","","","","","",""
"image-keyboard-response","115","197655","0.0-6.0-1.55","611d4519393cabb9a4a46ebd","bdp_trlrn","Wed Mar 15 2023 23:14:09 GMT-0400 (Eastern Daylight Time)","819858","Untrustworthy,Trustworthy","","","","rating","","","1995","","trustrating_stim/white_mw035.bmp","3","","","","","","","","","","",""
"image-keyboard-response","116","197856","0.0-6.0-2.55","611d4519393cabb9a4a46ebd","bdp_trlrn","Wed Mar 15 2023 23:14:09 GMT-0400 (Eastern Daylight Time)","819858","Untrustworthy,Trustworthy","","","","ratingFB","","","null","","trustrating_stim/white_mw035.bmp","null","","","","","","","","","","",""
"image-keyboard-response","117","200699","0.0-6.0-1.56","611d4519393cabb9a4a46ebd","bdp_trlrn","Wed Mar 15 2023 23:14:09 GMT-0400 (Eastern Daylight Time)","819858","Untrustworthy,Trustworthy","","","","rating","","","2741","","trustrating_stim/white_mw089.bmp","3","","","","","","","","","","",""
"image-keyboard-response","118","200900","0.0-6.0-2.56","611d4519393cabb9a4a46ebd","bdp_trlrn","Wed Mar 15 2023 23:14:09 GMT-0400 (Eastern Daylight Time)","819858","Untrustworthy,Trustworthy","","","","ratingFB","","","null","","trustrating_stim/white_mw089.bmp","null","","","","","","","","","","",""
"image-keyboard-response","119","202846","0.0-6.0-1.57","611d4519393cabb9a4a46ebd","bdp_trlrn","Wed Mar 15 2023 23:14:09 GMT-0400 (Eastern Daylight Time)","819858","Untrustworthy,Trustworthy","","","","rating","","","1843","","trustrating_stim/white_mw046.bmp","4","","","","","","","","","","",""
"image-keyboard-response","120","203049","0.0-6.0-2.57","611d4519393cabb9a4a46ebd","bdp_trlrn","Wed Mar 15 2023 23:14:09 GMT-0400 (Eastern Daylight Time)","819858","Untrustworthy,Trustworthy","","","","ratingFB","","","null","","trustrating_stim/white_mw046.bmp","null","","","","","","","","","","",""
"image-keyboard-response","121","205186","0.0-6.0-1.58","611d4519393cabb9a4a46ebd","bdp_trlrn","Wed Mar 15 2023 23:14:09 GMT-0400 (Eastern Daylight Time)","819858","Untrustworthy,Trustworthy","","","","rating","","","2034","","trustrating_stim/white_00109_931230_fa_edt.bmp","7","","","","","","","","","","",""
"image-keyboard-response","122","205387","0.0-6.0-2.58","611d4519393cabb9a4a46ebd","bdp_trlrn","Wed Mar 15 2023 23:14:09 GMT-0400 (Eastern Daylight Time)","819858","Untrustworthy,Trustworthy","","","","ratingFB","","","null","","trustrating_stim/white_00109_931230_fa_edt.bmp","null","","","","","","","","","","",""
"image-keyboard-response","123","207222","0.0-6.0-1.59","611d4519393cabb9a4a46ebd","bdp_trlrn","Wed Mar 15 2023 23:14:09 GMT-0400 (Eastern Daylight Time)","819858","Untrustworthy,Trustworthy","","","","rating","","","1733","","trustrating_stim/white_mw048.bmp","3","","","","","","","","","","",""
"image-keyboard-response","124","207422","0.0-6.0-2.59","611d4519393cabb9a4a46ebd","bdp_trlrn","Wed Mar 15 2023 23:14:09 GMT-0400 (Eastern Daylight Time)","819858","Untrustworthy,Trustworthy","","","","ratingFB","","","null","","trustrating_stim/white_mw048.bmp","null","","","","","","","","","","",""
"instructions","125","209591","0.0-7.0","611d4519393cabb9a4a46ebd","bdp_trlrn","Wed Mar 15 2023 23:14:09 GMT-0400 (Eastern Daylight Time)","819858","Untrustworthy,Trustworthy","","","","","","[{""page_index"":0,""viewing_time"":2068}]","2068","","","","","","","","","","","","","",""
"instructions","126","339912","0.0-8.0","611d4519393cabb9a4a46ebd","bdp_trlrn","Wed Mar 15 2023 23:14:09 GMT-0400 (Eastern Daylight Time)","819858","Untrustworthy,Trustworthy","","","","","","[{""page_index"":0,""viewing_time"":26414},{""page_index"":1,""viewing_time"":17864},{""page_index"":2,""viewing_time"":8936},{""page_index"":3,""viewing_time"":9402},{""page_index"":4,""viewing_time"":6331},{""page_index"":5,""viewing_time"":28003},{""page_index"":6,""viewing_time"":31535},{""page_index"":7,""viewing_time"":1733}]","130218","","","","","","","","","","","","","",""
"html-keyboard-response","127","342827","0.0-9.0","611d4519393cabb9a4a46ebd","bdp_trlrn","Wed Mar 15 2023 23:14:09 GMT-0400 (Eastern Daylight Time)","819858","Untrustworthy,Trustworthy","","","","","","","2914","","<div class='header' style='text-align:left; position: absolute; top: 5%; left: 5%;'><small>Task 3 of 5</small></div><div class='instruxDiv'><p><strong>1) What is the minimum number of points you can choose to send to your partner?</strong></p><p>a) 0</p><p>b) 1</p><p>c) 5</p>","C","","","","","","","","","","",""
"html-keyboard-response","128","348633","0.0-10.0","611d4519393cabb9a4a46ebd","bdp_trlrn","Wed Mar 15 2023 23:14:09 GMT-0400 (Eastern Daylight Time)","819858","Untrustworthy,Trustworthy","","","","","","","5689","","<div class='header' style='text-align:left; position: absolute; top: 5%; left: 5%;'><small>Task 3 of 5</small></div><div class='instruxDiv'><p><strong>1) What is the minimum number of points you can choose to send to your partner?</strong></p><p>a) 1</p><p>b) 1</p><p style='color:#FF0000'>c) 5</p><h3 style='color:#FF0000'>Incorrect!</h3><h3 class='center-content'>The correct response is b).</h3><h3 class='center-content'>The minimum number of points you can choose to send to your partner is 1 point.</h3><p><em>Press SPACEBAR to continue</em></p></div>"," ","","","","","","","","","","",""
"html-keyboard-response","129","352428","0.0-11.0","611d4519393cabb9a4a46ebd","bdp_trlrn","Wed Mar 15 2023 23:14:09 GMT-0400 (Eastern Daylight Time)","819858","Untrustworthy,Trustworthy","","","","","","","3695","","<div class='header' style='text-align:left; position: absolute; top: 5%; left: 5%;'><small>Task 3 of 5</small></div><div class='instruxDiv'><p><strong>2) What is the maximum number of points you can choose to send to your partner?</strong></p><p>a) 8</p><p>b) 5</p><p>c) 3</p>","B","","","","","","","","","","",""
"html-keyboard-response","130","354528","0.0-12.0","611d4519393cabb9a4a46ebd","bdp_trlrn","Wed Mar 15 2023 23:14:09 GMT-0400 (Eastern Daylight Time)","819858","Untrustworthy,Trustworthy","","","","","","","1995","","<div class='header' style='text-align:left; position: absolute; top: 5%; left: 5%;'><small>Task 3 of 5</small></div><div class='instruxDiv'><p><strong>2) What is the maximum number of points you can choose to send to your partner?</strong></p><p>a) 8</p><p style='color:#00FF00'>b) 5</p><p>c) 3</p><h3 style='color:#00FF00'>Correct!</h3><h3 class='center-content'>The correct response is b).</h3><h3 class='center-content'>The maximum number of points you can choose to send to your partner is 5 points.</h3><p><em>Press SPACEBAR to continue</em></p></div>"," ","","","","","","","","","","",""
"html-keyboard-response","131","357573","0.0-13.0","611d4519393cabb9a4a46ebd","bdp_trlrn","Wed Mar 15 2023 23:14:09 GMT-0400 (Eastern Daylight Time)","819858","Untrustworthy,Trustworthy","","","","","","","2943","","<div class='header' style='text-align:left; position: absolute; top: 5%; left: 5%;'><small>Task 3 of 5</small></div><div class='instruxDiv'><p><strong>3) What happens to the amount of points you send to your partner?</strong></p><p>a) Nothing</p><p>b) It doubles</p><p>c) It quadruples</p>","C","","","","","","","","","","",""
"html-keyboard-response","132","359268","0.0-14.0","611d4519393cabb9a4a46ebd","bdp_trlrn","Wed Mar 15 2023 23:14:09 GMT-0400 (Eastern Daylight Time)","819858","Untrustworthy,Trustworthy","","","","","","","1594","","<div class='header' style='text-align:left; position: absolute; top: 5%; left: 5%;'><small>Task 3 of 5</small></div><div class='instruxDiv'><p><strong>3) What happens to the amount of points you send to your partner?</strong></p><p>a) Nothing</p><p>b) It doubles</p><p style='color:#00FF00'>c) It quadruples</p><h3 style='color:#00FF00'>Correct!</h3><h3 class='center-content'>The correct response is c).</h3><h3 class='center-content'>The amount of points you send to your partner quadruples.</h3><p><em>Press SPACEBAR to continue</em></p></div>"," ","","","","","","","","","","",""
"html-keyboard-response","133","384112","0.0-15.0","611d4519393cabb9a4a46ebd","bdp_trlrn","Wed Mar 15 2023 23:14:09 GMT-0400 (Eastern Daylight Time)","819858","Untrustworthy,Trustworthy","","","","","","","24744","","<div class='header' style='text-align:left; position: absolute; top: 5%; left: 5%;'><small>Task 3 of 5</small></div><div class='instruxDiv'><p><strong>4) If you decided to share 4 out of 5 points with your partner, and they decided to share half of the amount they received with you, how many points would you receive back from them on this round?</strong></p><p>a) 16</p><p>b) 0</p><p>c) 8</p>","C","","","","","","","","","","",""
"html-keyboard-response","134","385898","0.0-16.0","611d4519393cabb9a4a46ebd","bdp_trlrn","Wed Mar 15 2023 23:14:09 GMT-0400 (Eastern Daylight Time)","819858","Untrustworthy,Trustworthy","","","","","","","1684","","<div class='header' style='text-align:left; position: absolute; top: 5%; left: 5%;'><small>Task 3 of 5</small></div><div class='instruxDiv'><p><strong>4) If you decided to share 4 out of 5 points with your partner, and they decided to share half of the amount they received with you, how many points would you receive back from them on this round?</strong></p><p>a) 16</p><p>b) 0</p><p style='color:#00FF00'>c) 8</p><h3 style='color:#00FF00'>Correct!</h3><h3 class='center-content'>The correct response is c).</h3><h3 class='center-content'>If you shared 4 out of 5 points with your partner and they decided to share half of the amount they received with you, you would receive 8 points back (i.e. (4 x 4)/2 = 8).</h3><p><em>Press SPACEBAR to continue</em></p></div>"," ","","","","","","","","","","",""
"html-keyboard-response","135","391002","0.0-17.0","611d4519393cabb9a4a46ebd","bdp_trlrn","Wed Mar 15 2023 23:14:09 GMT-0400 (Eastern Daylight Time)","819858","Untrustworthy,Trustworthy","","","","","","","null","","<div class='header' style='text-align:left; position: absolute; top: 5%; left: 5%;'><small>Task 3 of 5</small></div><div class='instruxDiv'><p>Thank you for completing the quiz<p>These are the actual partners you will be interacting with in the next block:<p><div class='tc' align='center'><img class='introPic' src='trustrating_stim/white_mw063.bmp'><br><strong>Richard</strong></div><div class='bl' align='center'><img class='introPic' src='trustrating_stim/white_mw066.bmp'><br><strong>Brian</strong></div><div class='br' align='center'><img class='introPic' src='trustrating_stim/white_00761_941201_fb_edt.bmp'><br><strong>Tyler</strong></div></div><p>Across <strong>66 rounds</strong> you will interact with each partner <strong>22 times</strong> (in random order).<p style='align:center; color:white'><font <em>Press SPACEBAR to continue</em></p>","null","","","","","","","","","","",""
"instructions","136","400647","0.0-18.0","611d4519393cabb9a4a46ebd","bdp_trlrn","Wed Mar 15 2023 23:14:09 GMT-0400 (Eastern Daylight Time)","819858","Untrustworthy,Trustworthy","","","","","","[{""page_index"":0,""viewing_time"":4677},{""page_index"":1,""viewing_time"":4967}]","9644","","","","","","","","","","","","","",""
"html-keyboard-response","137","405863","0.0-19.0-1.0","611d4519393cabb9a4a46ebd","bdp_trlrn","Wed Mar 15 2023 23:14:09 GMT-0400 (Eastern Daylight Time)","819858","Untrustworthy,Trustworthy","","","","decision","","","5114","","<div class='trialDiv'><img src='trustrating_stim/white_mw063.bmp'><br><font class='baseline'><strong>Richard</strong><p>Choose number of points to send.</font><div class='respPicDiv'><img src='img/responseButtonOffersNo0L.png' class='respPic'></div></div>","2","1","Richard","3","Shared","0.35,0.8","10","0.35","trustrating_stim/white_mw063.bmp","2.5","5","1"
"html-keyboard-response","138","406114","0.0-19.0-2.0","611d4519393cabb9a4a46ebd","bdp_trlrn","Wed Mar 15 2023 23:14:09 GMT-0400 (Eastern Daylight Time)","819858","Untrustworthy,Trustworthy","","","","decisionFB","","","null","","<div class='trialDiv'><img src='trustrating_stim/white_mw063.bmp'><br><font class='baseline'><strong>Richard</strong><p>Choose number of points to send.</font><div class='respPicDiv'><img src='img/responseButtonOffersNo0L2.png' class='respPic'></div></div>","null","1","Richard","3","Shared","0.35,0.8","10","0.35","trustrating_stim/white_mw063.bmp","2.5","3","1"
"html-keyboard-response","139","407116","0.0-19.0-3.0","611d4519393cabb9a4a46ebd","bdp_trlrn","Wed Mar 15 2023 23:14:09 GMT-0400 (Eastern Daylight Time)","819858","Untrustworthy,Trustworthy","","","","feedback","","","null","","<div class='trialDiv'><img src='trustrating_stim/white_mw063.bmp'><br><font class='baseline'><strong>Richard</strong><p>Received: <strong>8</strong></font> &nbsp; &nbsp; &nbsp; &nbsp; &nbsp; &nbsp;<font class='posOutcome'>Shared back: <strong>4</strong></font></font><div class='respPicDiv'><img src='img/responseButtonOffersNo0_wht.png' class='respPic'></div></div>","null","1","Richard","3","Shared","0.35,0.8","10","0.35","trustrating_stim/white_mw063.bmp","2.5","7","1"
"html-keyboard-response","140","410418","0.0-19.0-1.1","611d4519393cabb9a4a46ebd","bdp_trlrn","Wed Mar 15 2023 23:14:09 GMT-0400 (Eastern Daylight Time)","819858","Untrustworthy,Trustworthy","","","","decision","","","3302","","<div class='trialDiv'><img src='trustrating_stim/white_mw066.bmp'><br><font class='baseline'><strong>Brian</strong><p>Choose number of points to send.</font><div class='respPicDiv'><img src='img/responseButtonOffersNo0L.png' class='respPic'></div></div>","3","1","Brian","7","Kept","0.8,0.35","12","0.8","trustrating_stim/white_mw066.bmp","4.5","12","2"
"html-keyboard-response","141","410669","0.0-19.0-2.1","611d4519393cabb9a4a46ebd","bdp_trlrn","Wed Mar 15 2023 23:14:09 GMT-0400 (Eastern Daylight Time)","819858","Untrustworthy,Trustworthy","","","","decisionFB","","","null","","<div class='trialDiv'><img src='trustrating_stim/white_mw066.bmp'><br><font class='baseline'><strong>Brian</strong><p>Choose number of points to send.</font><div class='respPicDiv'><img src='img/responseButtonOffersNo0L3.png' class='respPic'></div></div>","null","1","Brian","7","Kept","0.8,0.35","12","0.8","trustrating_stim/white_mw066.bmp","4.5","9","2"
"html-keyboard-response","142","411670","0.0-19.0-3.1","611d4519393cabb9a4a46ebd","bdp_trlrn","Wed Mar 15 2023 23:14:09 GMT-0400 (Eastern Daylight Time)","819858","Untrustworthy,Trustworthy","","","","feedback","","","null","","<div class='trialDiv'><img src='trustrating_stim/white_mw066.bmp'><br><font class='baseline'><strong>Brian</strong><p>Received: <strong>12</strong></font> &nbsp; &nbsp; &nbsp; &nbsp; &nbsp; &nbsp;<font class='negOutcome'>Shared back: <strong>0</strong></font></font><div class='respPicDiv'><img src='img/responseButtonOffersNo0_wht.png' class='respPic'></div></div>","null","1","Brian","7","Kept","0.8,0.35","12","0.8","trustrating_stim/white_mw066.bmp","4.5","9","2"
"html-keyboard-response","143","413435","0.0-19.0-1.2","611d4519393cabb9a4a46ebd","bdp_trlrn","Wed Mar 15 2023 23:14:09 GMT-0400 (Eastern Daylight Time)","819858","Untrustworthy,Trustworthy","","","","decision","","","1764","","<div class='trialDiv'><img src='trustrating_stim/white_00761_941201_fb_edt.bmp'><br><font class='baseline'><strong>Tyler</strong><p>Choose number of points to send.</font><div class='respPicDiv'><img src='img/responseButtonOffersNo0L.png' class='respPic'></div></div>","4","1","Tyler","11","Kept","0.65,0.35","11","0.65","trustrating_stim/white_00761_941201_fb_edt.bmp","7","14","3"
"html-keyboard-response","144","413686","0.0-19.0-2.2","611d4519393cabb9a4a46ebd","bdp_trlrn","Wed Mar 15 2023 23:14:09 GMT-0400 (Eastern Daylight Time)","819858","Untrustworthy,Trustworthy","","","","decisionFB","","","null","","<div class='trialDiv'><img src='trustrating_stim/white_00761_941201_fb_edt.bmp'><br><font class='baseline'><strong>Tyler</strong><p>Choose number of points to send.</font><div class='respPicDiv'><img src='img/responseButtonOffersNo0L4.png' class='respPic'></div></div>","null","1","Tyler","11","Kept","0.65,0.35","11","0.65","trustrating_stim/white_00761_941201_fb_edt.bmp","7","10","3"
"html-keyboard-response","145","414688","0.0-19.0-3.2","611d4519393cabb9a4a46ebd","bdp_trlrn","Wed Mar 15 2023 23:14:09 GMT-0400 (Eastern Daylight Time)","819858","Untrustworthy,Trustworthy","","","","feedback","","","null","","<div class='trialDiv'><img src='trustrating_stim/white_00761_941201_fb_edt.bmp'><br><font class='baseline'><strong>Tyler</strong><p>Received: <strong>16</strong></font> &nbsp; &nbsp; &nbsp; &nbsp; &nbsp; &nbsp;<font class='negOutcome'>Shared back: <strong>0</strong></font></font><div class='respPicDiv'><img src='img/responseButtonOffersNo0_wht.png' class='respPic'></div></div>","null","1","Tyler","11","Kept","0.65,0.35","11","0.65","trustrating_stim/white_00761_941201_fb_edt.bmp","7","10","3"
"html-keyboard-response","146","418446","0.0-19.0-1.3","611d4519393cabb9a4a46ebd","bdp_trlrn","Wed Mar 15 2023 23:14:09 GMT-0400 (Eastern Daylight Time)","819858","Untrustworthy,Trustworthy","","","","decision","","","3757","","<div class='trialDiv'><img src='trustrating_stim/white_mw066.bmp'><br><font class='baseline'><strong>Brian</strong><p>Choose number of points to send.</font><div class='respPicDiv'><img src='img/responseButtonOffersNo0L.png' class='respPic'></div></div>","2","2","Brian","7","Shared","0.8,0.35","12","0.8","trustrating_stim/white_mw066.bmp","4.5","15","4"
"html-keyboard-response","147","418697","0.0-19.0-2.3","611d4519393cabb9a4a46ebd","bdp_trlrn","Wed Mar 15 2023 23:14:09 GMT-0400 (Eastern Daylight Time)","819858","Untrustworthy,Trustworthy","","","","decisionFB","","","null","","<div class='trialDiv'><img src='trustrating_stim/white_mw066.bmp'><br><font class='baseline'><strong>Brian</strong><p>Choose number of points to send.</font><div class='respPicDiv'><img src='img/responseButtonOffersNo0L2.png' class='respPic'></div></div>","null","2","Brian","7","Shared","0.8,0.35","12","0.8","trustrating_stim/white_mw066.bmp","4.5","13","4"
"html-keyboard-response","148","419698","0.0-19.0-3.3","611d4519393cabb9a4a46ebd","bdp_trlrn","Wed Mar 15 2023 23:14:09 GMT-0400 (Eastern Daylight Time)","819858","Untrustworthy,Trustworthy","","","","feedback","","","null","","<div class='trialDiv'><img src='trustrating_stim/white_mw066.bmp'><br><font class='baseline'><strong>Brian</strong><p>Received: <strong>8</strong></font> &nbsp; &nbsp; &nbsp; &nbsp; &nbsp; &nbsp;<font class='posOutcome'>Shared back: <strong>4</strong></font></font><div class='respPicDiv'><img src='img/responseButtonOffersNo0_wht.png' class='respPic'></div></div>","null","2","Brian","7","Shared","0.8,0.35","12","0.8","trustrating_stim/white_mw066.bmp","4.5","17","4"
"html-keyboard-response","149","422183","0.0-19.0-1.4","611d4519393cabb9a4a46ebd","bdp_trlrn","Wed Mar 15 2023 23:14:09 GMT-0400 (Eastern Daylight Time)","819858","Untrustworthy,Trustworthy","","","","decision","","","2484","","<div class='trialDiv'><img src='trustrating_stim/white_00761_941201_fb_edt.bmp'><br><font class='baseline'><strong>Tyler</strong><p>Choose number of points to send.</font><div class='respPicDiv'><img src='img/responseButtonOffersNo0L.png' class='respPic'></div></div>","2","2","Tyler","11","Shared","0.65,0.35","11","0.65","trustrating_stim/white_00761_941201_fb_edt.bmp","7","22","5"
"html-keyboard-response","150","422434","0.0-19.0-2.4","611d4519393cabb9a4a46ebd","bdp_trlrn","Wed Mar 15 2023 23:14:09 GMT-0400 (Eastern Daylight Time)","819858","Untrustworthy,Trustworthy","","","","decisionFB","","","null","","<div class='trialDiv'><img src='trustrating_stim/white_00761_941201_fb_edt.bmp'><br><font class='baseline'><strong>Tyler</strong><p>Choose number of points to send.</font><div class='respPicDiv'><img src='img/responseButtonOffersNo0L2.png' class='respPic'></div></div>","null","2","Tyler","11","Shared","0.65,0.35","11","0.65","trustrating_stim/white_00761_941201_fb_edt.bmp","7","20","5"
"html-keyboard-response","151","423435","0.0-19.0-3.4","611d4519393cabb9a4a46ebd","bdp_trlrn","Wed Mar 15 2023 23:14:09 GMT-0400 (Eastern Daylight Time)","819858","Untrustworthy,Trustworthy","","","","feedback","","","null","","<div class='trialDiv'><img src='trustrating_stim/white_00761_941201_fb_edt.bmp'><br><font class='baseline'><strong>Tyler</strong><p>Received: <strong>8</strong></font> &nbsp; &nbsp; &nbsp; &nbsp; &nbsp; &nbsp;<font class='posOutcome'>Shared back: <strong>4</strong></font></font><div class='respPicDiv'><img src='img/responseButtonOffersNo0_wht.png' class='respPic'></div></div>","null","2","Tyler","11","Shared","0.65,0.35","11","0.65","trustrating_stim/white_00761_941201_fb_edt.bmp","7","24","5"
"html-keyboard-response","152","425318","0.0-19.0-1.5","611d4519393cabb9a4a46ebd","bdp_trlrn","Wed Mar 15 2023 23:14:09 GMT-0400 (Eastern Daylight Time)","819858","Untrustworthy,Trustworthy","","","","decision","","","1882","","<div class='trialDiv'><img src='trustrating_stim/white_mw063.bmp'><br><font class='baseline'><strong>Richard</strong><p>Choose number of points to send.</font><div class='respPicDiv'><img src='img/responseButtonOffersNo0L.png' class='respPic'></div></div>","3","2","Richard","3","Kept","0.35,0.8","10","0.35","trustrating_stim/white_mw063.bmp","2.5","29","6"
"html-keyboard-response","153","425570","0.0-19.0-2.5","611d4519393cabb9a4a46ebd","bdp_trlrn","Wed Mar 15 2023 23:14:09 GMT-0400 (Eastern Daylight Time)","819858","Untrustworthy,Trustworthy","","","","decisionFB","","","null","","<div class='trialDiv'><img src='trustrating_stim/white_mw063.bmp'><br><font class='baseline'><strong>Richard</strong><p>Choose number of points to send.</font><div class='respPicDiv'><img src='img/responseButtonOffersNo0L3.png' class='respPic'></div></div>","null","2","Richard","3","Kept","0.35,0.8","10","0.35","trustrating_stim/white_mw063.bmp","2.5","26","6"
"html-keyboard-response","154","426572","0.0-19.0-3.5","611d4519393cabb9a4a46ebd","bdp_trlrn","Wed Mar 15 2023 23:14:09 GMT-0400 (Eastern Daylight Time)","819858","Untrustworthy,Trustworthy","","","","feedback","","","null","","<div class='trialDiv'><img src='trustrating_stim/white_mw063.bmp'><br><font class='baseline'><strong>Richard</strong><p>Received: <strong>12</strong></font> &nbsp; &nbsp; &nbsp; &nbsp; &nbsp; &nbsp;<font class='negOutcome'>Shared back: <strong>0</strong></font></font><div class='respPicDiv'><img src='img/responseButtonOffersNo0_wht.png' class='respPic'></div></div>","null","2","Richard","3","Kept","0.35,0.8","10","0.35","trustrating_stim/white_mw063.bmp","2.5","26","6"
"html-keyboard-response","155","428890","0.0-19.0-1.6","611d4519393cabb9a4a46ebd","bdp_trlrn","Wed Mar 15 2023 23:14:09 GMT-0400 (Eastern Daylight Time)","819858","Untrustworthy,Trustworthy","","","","decision","","","2317","","<div class='trialDiv'><img src='trustrating_stim/white_mw066.bmp'><br><font class='baseline'><strong>Brian</strong><p>Choose number of points to send.</font><div class='respPicDiv'><img src='img/responseButtonOffersNo0L.png' class='respPic'></div></div>","3","3","Brian","7","Shared","0.8,0.35","12","0.8","trustrating_stim/white_mw066.bmp","4.5","31","7"
"html-keyboard-response","156","429141","0.0-19.0-2.6","611d4519393cabb9a4a46ebd","bdp_trlrn","Wed Mar 15 2023 23:14:09 GMT-0400 (Eastern Daylight Time)","819858","Untrustworthy,Trustworthy","","","","decisionFB","","","null","","<div class='trialDiv'><img src='trustrating_stim/white_mw066.bmp'><br><font class='baseline'><strong>Brian</strong><p>Choose number of points to send.</font><div class='respPicDiv'><img src='img/responseButtonOffersNo0L3.png' class='respPic'></div></div>","null","3","Brian","7","Shared","0.8,0.35","12","0.8","trustrating_stim/white_mw066.bmp","4.5","28","7"
"html-keyboard-response","157","430143","0.0-19.0-3.6","611d4519393cabb9a4a46ebd","bdp_trlrn","Wed Mar 15 2023 23:14:09 GMT-0400 (Eastern Daylight Time)","819858","Untrustworthy,Trustworthy","","","","feedback","","","null","","<div class='trialDiv'><img src='trustrating_stim/white_mw066.bmp'><br><font class='baseline'><strong>Brian</strong><p>Received: <strong>12</strong></font> &nbsp; &nbsp; &nbsp; &nbsp; &nbsp; &nbsp;<font class='posOutcome'>Shared back: <strong>6</strong></font></font><div class='respPicDiv'><img src='img/responseButtonOffersNo0_wht.png' class='respPic'></div></div>","null","3","Brian","7","Shared","0.8,0.35","12","0.8","trustrating_stim/white_mw066.bmp","4.5","34","7"
"html-keyboard-response","158","432429","0.0-19.0-1.7","611d4519393cabb9a4a46ebd","bdp_trlrn","Wed Mar 15 2023 23:14:09 GMT-0400 (Eastern Daylight Time)","819858","Untrustworthy,Trustworthy","","","","decision","","","2285","","<div class='trialDiv'><img src='trustrating_stim/white_mw063.bmp'><br><font class='baseline'><strong>Richard</strong><p>Choose number of points to send.</font><div class='respPicDiv'><img src='img/responseButtonOffersNo0L.png' class='respPic'></div></div>","1","3","Richard","3","Shared","0.35,0.8","10","0.35","trustrating_stim/white_mw063.bmp","2.5","39","8"
"html-keyboard-response","159","432680","0.0-19.0-2.7","611d4519393cabb9a4a46ebd","bdp_trlrn","Wed Mar 15 2023 23:14:09 GMT-0400 (Eastern Daylight Time)","819858","Untrustworthy,Trustworthy","","","","decisionFB","","","null","","<div class='trialDiv'><img src='trustrating_stim/white_mw063.bmp'><br><font class='baseline'><strong>Richard</strong><p>Choose number of points to send.</font><div class='respPicDiv'><img src='img/responseButtonOffersNo0L1.png' class='respPic'></div></div>","null","3","Richard","3","Shared","0.35,0.8","10","0.35","trustrating_stim/white_mw063.bmp","2.5","38","8"
"html-keyboard-response","160","433682","0.0-19.0-3.7","611d4519393cabb9a4a46ebd","bdp_trlrn","Wed Mar 15 2023 23:14:09 GMT-0400 (Eastern Daylight Time)","819858","Untrustworthy,Trustworthy","","","","feedback","","","null","","<div class='trialDiv'><img src='trustrating_stim/white_mw063.bmp'><br><font class='baseline'><strong>Richard</strong><p>Received: <strong>4</strong></font> &nbsp; &nbsp; &nbsp; &nbsp; &nbsp; &nbsp;<font class='posOutcome'>Shared back: <strong>2</strong></font></font><div class='respPicDiv'><img src='img/responseButtonOffersNo0_wht.png' class='respPic'></div></div>","null","3","Richard","3","Shared","0.35,0.8","10","0.35","trustrating_stim/white_mw063.bmp","2.5","40","8"
"html-keyboard-response","161","436389","0.0-19.0-1.8","611d4519393cabb9a4a46ebd","bdp_trlrn","Wed Mar 15 2023 23:14:09 GMT-0400 (Eastern Daylight Time)","819858","Untrustworthy,Trustworthy","","","","decision","","","2706","","<div class='trialDiv'><img src='trustrating_stim/white_00761_941201_fb_edt.bmp'><br><font class='baseline'><strong>Tyler</strong><p>Choose number of points to send.</font><div class='respPicDiv'><img src='img/responseButtonOffersNo0L.png' class='respPic'></div></div>","2","3","Tyler","11","Shared","0.65,0.35","11","0.65","trustrating_stim/white_00761_941201_fb_edt.bmp","7","45","9"
"html-keyboard-response","162","436641","0.0-19.0-2.8","611d4519393cabb9a4a46ebd","bdp_trlrn","Wed Mar 15 2023 23:14:09 GMT-0400 (Eastern Daylight Time)","819858","Untrustworthy,Trustworthy","","","","decisionFB","","","null","","<div class='trialDiv'><img src='trustrating_stim/white_00761_941201_fb_edt.bmp'><br><font class='baseline'><strong>Tyler</strong><p>Choose number of points to send.</font><div class='respPicDiv'><img src='img/responseButtonOffersNo0L2.png' class='respPic'></div></div>","null","3","Tyler","11","Shared","0.65,0.35","11","0.65","trustrating_stim/white_00761_941201_fb_edt.bmp","7","43","9"
"html-keyboard-response","163","437643","0.0-19.0-3.8","611d4519393cabb9a4a46ebd","bdp_trlrn","Wed Mar 15 2023 23:14:09 GMT-0400 (Eastern Daylight Time)","819858","Untrustworthy,Trustworthy","","","","feedback","","","null","","<div class='trialDiv'><img src='trustrating_stim/white_00761_941201_fb_edt.bmp'><br><font class='baseline'><strong>Tyler</strong><p>Received: <strong>8</strong></font> &nbsp; &nbsp; &nbsp; &nbsp; &nbsp; &nbsp;<font class='posOutcome'>Shared back: <strong>4</strong></font></font><div class='respPicDiv'><img src='img/responseButtonOffersNo0_wht.png' class='respPic'></div></div>","null","3","Tyler","11","Shared","0.65,0.35","11","0.65","trustrating_stim/white_00761_941201_fb_edt.bmp","7","47","9"
"html-keyboard-response","164","439023","0.0-19.0-1.9","611d4519393cabb9a4a46ebd","bdp_trlrn","Wed Mar 15 2023 23:14:09 GMT-0400 (Eastern Daylight Time)","819858","Untrustworthy,Trustworthy","","","","decision","","","1379","","<div class='trialDiv'><img src='trustrating_stim/white_mw066.bmp'><br><font class='baseline'><strong>Brian</strong><p>Choose number of points to send.</font><div class='respPicDiv'><img src='img/responseButtonOffersNo0L.png' class='respPic'></div></div>","5","4","Brian","7","Shared","0.8,0.35","12","0.8","trustrating_stim/white_mw066.bmp","4.5","52","10"
"html-keyboard-response","165","439274","0.0-19.0-2.9","611d4519393cabb9a4a46ebd","bdp_trlrn","Wed Mar 15 2023 23:14:09 GMT-0400 (Eastern Daylight Time)","819858","Untrustworthy,Trustworthy","","","","decisionFB","","","null","","<div class='trialDiv'><img src='trustrating_stim/white_mw066.bmp'><br><font class='baseline'><strong>Brian</strong><p>Choose number of points to send.</font><div class='respPicDiv'><img src='img/responseButtonOffersNo0L5.png' class='respPic'></div></div>","null","4","Brian","7","Shared","0.8,0.35","12","0.8","trustrating_stim/white_mw066.bmp","4.5","47","10"
"html-keyboard-response","166","440275","0.0-19.0-3.9","611d4519393cabb9a4a46ebd","bdp_trlrn","Wed Mar 15 2023 23:14:09 GMT-0400 (Eastern Daylight Time)","819858","Untrustworthy,Trustworthy","","","","feedback","","","null","","<div class='trialDiv'><img src='trustrating_stim/white_mw066.bmp'><br><font class='baseline'><strong>Brian</strong><p>Received: <strong>20</strong></font> &nbsp; &nbsp; &nbsp; &nbsp; &nbsp; &nbsp;<font class='posOutcome'>Shared back: <strong>10</strong></font></font><div class='respPicDiv'><img src='img/responseButtonOffersNo0_wht.png' class='respPic'></div></div>","null","4","Brian","7","Shared","0.8,0.35","12","0.8","trustrating_stim/white_mw066.bmp","4.5","57","10"
"html-keyboard-response","167","442667","0.0-19.0-1.10","611d4519393cabb9a4a46ebd","bdp_trlrn","Wed Mar 15 2023 23:14:09 GMT-0400 (Eastern Daylight Time)","819858","Untrustworthy,Trustworthy","","","","decision","","","2391","","<div class='trialDiv'><img src='trustrating_stim/white_00761_941201_fb_edt.bmp'><br><font class='baseline'><strong>Tyler</strong><p>Choose number of points to send.</font><div class='respPicDiv'><img src='img/responseButtonOffersNo0L.png' class='respPic'></div></div>","2","4","Tyler","11","Shared","0.65,0.35","11","0.65","trustrating_stim/white_00761_941201_fb_edt.bmp","7","62","11"
"html-keyboard-response","168","442918","0.0-19.0-2.10","611d4519393cabb9a4a46ebd","bdp_trlrn","Wed Mar 15 2023 23:14:09 GMT-0400 (Eastern Daylight Time)","819858","Untrustworthy,Trustworthy","","","","decisionFB","","","null","","<div class='trialDiv'><img src='trustrating_stim/white_00761_941201_fb_edt.bmp'><br><font class='baseline'><strong>Tyler</strong><p>Choose number of points to send.</font><div class='respPicDiv'><img src='img/responseButtonOffersNo0L2.png' class='respPic'></div></div>","null","4","Tyler","11","Shared","0.65,0.35","11","0.65","trustrating_stim/white_00761_941201_fb_edt.bmp","7","60","11"
"html-keyboard-response","169","443919","0.0-19.0-3.10","611d4519393cabb9a4a46ebd","bdp_trlrn","Wed Mar 15 2023 23:14:09 GMT-0400 (Eastern Daylight Time)","819858","Untrustworthy,Trustworthy","","","","feedback","","","null","","<div class='trialDiv'><img src='trustrating_stim/white_00761_941201_fb_edt.bmp'><br><font class='baseline'><strong>Tyler</strong><p>Received: <strong>8</strong></font> &nbsp; &nbsp; &nbsp; &nbsp; &nbsp; &nbsp;<font class='posOutcome'>Shared back: <strong>4</strong></font></font><div class='respPicDiv'><img src='img/responseButtonOffersNo0_wht.png' class='respPic'></div></div>","null","4","Tyler","11","Shared","0.65,0.35","11","0.65","trustrating_stim/white_00761_941201_fb_edt.bmp","7","64","11"
"html-keyboard-response","170","445362","0.0-19.0-1.11","611d4519393cabb9a4a46ebd","bdp_trlrn","Wed Mar 15 2023 23:14:09 GMT-0400 (Eastern Daylight Time)","819858","Untrustworthy,Trustworthy","","","","decision","","","1441","","<div class='trialDiv'><img src='trustrating_stim/white_mw063.bmp'><br><font class='baseline'><strong>Richard</strong><p>Choose number of points to send.</font><div class='respPicDiv'><img src='img/responseButtonOffersNo0L.png' class='respPic'></div></div>","1","4","Richard","3","Kept","0.35,0.8","10","0.35","trustrating_stim/white_mw063.bmp","2.5","69","12"
"html-keyboard-response","171","445613","0.0-19.0-2.11","611d4519393cabb9a4a46ebd","bdp_trlrn","Wed Mar 15 2023 23:14:09 GMT-0400 (Eastern Daylight Time)","819858","Untrustworthy,Trustworthy","","","","decisionFB","","","null","","<div class='trialDiv'><img src='trustrating_stim/white_mw063.bmp'><br><font class='baseline'><strong>Richard</strong><p>Choose number of points to send.</font><div class='respPicDiv'><img src='img/responseButtonOffersNo0L1.png' class='respPic'></div></div>","null","4","Richard","3","Kept","0.35,0.8","10","0.35","trustrating_stim/white_mw063.bmp","2.5","68","12"
"html-keyboard-response","172","446615","0.0-19.0-3.11","611d4519393cabb9a4a46ebd","bdp_trlrn","Wed Mar 15 2023 23:14:09 GMT-0400 (Eastern Daylight Time)","819858","Untrustworthy,Trustworthy","","","","feedback","","","null","","<div class='trialDiv'><img src='trustrating_stim/white_mw063.bmp'><br><font class='baseline'><strong>Richard</strong><p>Received: <strong>4</strong></font> &nbsp; &nbsp; &nbsp; &nbsp; &nbsp; &nbsp;<font class='negOutcome'>Shared back: <strong>0</strong></font></font><div class='respPicDiv'><img src='img/responseButtonOffersNo0_wht.png' class='respPic'></div></div>","null","4","Richard","3","Kept","0.35,0.8","10","0.35","trustrating_stim/white_mw063.bmp","2.5","68","12"
"html-keyboard-response","173","449132","0.0-19.0-1.12","611d4519393cabb9a4a46ebd","bdp_trlrn","Wed Mar 15 2023 23:14:09 GMT-0400 (Eastern Daylight Time)","819858","Untrustworthy,Trustworthy","","","","decision","","","2516","","<div class='trialDiv'><img src='trustrating_stim/white_00761_941201_fb_edt.bmp'><br><font class='baseline'><strong>Tyler</strong><p>Choose number of points to send.</font><div class='respPicDiv'><img src='img/responseButtonOffersNo0L.png' class='respPic'></div></div>","2","5","Tyler","11","Shared","0.65,0.35","11","0.65","trustrating_stim/white_00761_941201_fb_edt.bmp","7","73","13"
"html-keyboard-response","174","449385","0.0-19.0-2.12","611d4519393cabb9a4a46ebd","bdp_trlrn","Wed Mar 15 2023 23:14:09 GMT-0400 (Eastern Daylight Time)","819858","Untrustworthy,Trustworthy","","","","decisionFB","","","null","","<div class='trialDiv'><img src='trustrating_stim/white_00761_941201_fb_edt.bmp'><br><font class='baseline'><strong>Tyler</strong><p>Choose number of points to send.</font><div class='respPicDiv'><img src='img/responseButtonOffersNo0L2.png' class='respPic'></div></div>","null","5","Tyler","11","Shared","0.65,0.35","11","0.65","trustrating_stim/white_00761_941201_fb_edt.bmp","7","71","13"
"html-keyboard-response","175","450386","0.0-19.0-3.12","611d4519393cabb9a4a46ebd","bdp_trlrn","Wed Mar 15 2023 23:14:09 GMT-0400 (Eastern Daylight Time)","819858","Untrustworthy,Trustworthy","","","","feedback","","","null","","<div class='trialDiv'><img src='trustrating_stim/white_00761_941201_fb_edt.bmp'><br><font class='baseline'><strong>Tyler</strong><p>Received: <strong>8</strong></font> &nbsp; &nbsp; &nbsp; &nbsp; &nbsp; &nbsp;<font class='posOutcome'>Shared back: <strong>4</strong></font></font><div class='respPicDiv'><img src='img/responseButtonOffersNo0_wht.png' class='respPic'></div></div>","null","5","Tyler","11","Shared","0.65,0.35","11","0.65","trustrating_stim/white_00761_941201_fb_edt.bmp","7","75","13"
"html-keyboard-response","176","451206","0.0-19.0-1.13","611d4519393cabb9a4a46ebd","bdp_trlrn","Wed Mar 15 2023 23:14:09 GMT-0400 (Eastern Daylight Time)","819858","Untrustworthy,Trustworthy","","","","decision","","","819","","<div class='trialDiv'><img src='trustrating_stim/white_mw066.bmp'><br><font class='baseline'><strong>Brian</strong><p>Choose number of points to send.</font><div class='respPicDiv'><img src='img/responseButtonOffersNo0L.png' class='respPic'></div></div>","5","5","Brian","7","Shared","0.8,0.35","12","0.8","trustrating_stim/white_mw066.bmp","4.5","80","14"
"html-keyboard-response","177","451457","0.0-19.0-2.13","611d4519393cabb9a4a46ebd","bdp_trlrn","Wed Mar 15 2023 23:14:09 GMT-0400 (Eastern Daylight Time)","819858","Untrustworthy,Trustworthy","","","","decisionFB","","","null","","<div class='trialDiv'><img src='trustrating_stim/white_mw066.bmp'><br><font class='baseline'><strong>Brian</strong><p>Choose number of points to send.</font><div class='respPicDiv'><img src='img/responseButtonOffersNo0L5.png' class='respPic'></div></div>","null","5","Brian","7","Shared","0.8,0.35","12","0.8","trustrating_stim/white_mw066.bmp","4.5","75","14"
"html-keyboard-response","178","452459","0.0-19.0-3.13","611d4519393cabb9a4a46ebd","bdp_trlrn","Wed Mar 15 2023 23:14:09 GMT-0400 (Eastern Daylight Time)","819858","Untrustworthy,Trustworthy","","","","feedback","","","null","","<div class='trialDiv'><img src='trustrating_stim/white_mw066.bmp'><br><font class='baseline'><strong>Brian</strong><p>Received: <strong>20</strong></font> &nbsp; &nbsp; &nbsp; &nbsp; &nbsp; &nbsp;<font class='posOutcome'>Shared back: <strong>10</strong></font></font><div class='respPicDiv'><img src='img/responseButtonOffersNo0_wht.png' class='respPic'></div></div>","null","5","Brian","7","Shared","0.8,0.35","12","0.8","trustrating_stim/white_mw066.bmp","4.5","85","14"
"html-keyboard-response","179","455269","0.0-19.0-1.14","611d4519393cabb9a4a46ebd","bdp_trlrn","Wed Mar 15 2023 23:14:09 GMT-0400 (Eastern Daylight Time)","819858","Untrustworthy,Trustworthy","","","","decision","","","2810","","<div class='trialDiv'><img src='trustrating_stim/white_mw063.bmp'><br><font class='baseline'><strong>Richard</strong><p>Choose number of points to send.</font><div class='respPicDiv'><img src='img/responseButtonOffersNo0L.png' class='respPic'></div></div>","1","5","Richard","3","Kept","0.35,0.8","10","0.35","trustrating_stim/white_mw063.bmp","2.5","90","15"
"html-keyboard-response","180","455521","0.0-19.0-2.14","611d4519393cabb9a4a46ebd","bdp_trlrn","Wed Mar 15 2023 23:14:09 GMT-0400 (Eastern Daylight Time)","819858","Untrustworthy,Trustworthy","","","","decisionFB","","","null","","<div class='trialDiv'><img src='trustrating_stim/white_mw063.bmp'><br><font class='baseline'><strong>Richard</strong><p>Choose number of points to send.</font><div class='respPicDiv'><img src='img/responseButtonOffersNo0L1.png' class='respPic'></div></div>","null","5","Richard","3","Kept","0.35,0.8","10","0.35","trustrating_stim/white_mw063.bmp","2.5","89","15"
"html-keyboard-response","181","456522","0.0-19.0-3.14","611d4519393cabb9a4a46ebd","bdp_trlrn","Wed Mar 15 2023 23:14:09 GMT-0400 (Eastern Daylight Time)","819858","Untrustworthy,Trustworthy","","","","feedback","","","null","","<div class='trialDiv'><img src='trustrating_stim/white_mw063.bmp'><br><font class='baseline'><strong>Richard</strong><p>Received: <strong>4</strong></font> &nbsp; &nbsp; &nbsp; &nbsp; &nbsp; &nbsp;<font class='negOutcome'>Shared back: <strong>0</strong></font></font><div class='respPicDiv'><img src='img/responseButtonOffersNo0_wht.png' class='respPic'></div></div>","null","5","Richard","3","Kept","0.35,0.8","10","0.35","trustrating_stim/white_mw063.bmp","2.5","89","15"
"html-keyboard-response","182","459832","0.0-19.0-1.15","611d4519393cabb9a4a46ebd","bdp_trlrn","Wed Mar 15 2023 23:14:09 GMT-0400 (Eastern Daylight Time)","819858","Untrustworthy,Trustworthy","","","","decision","","","3309","","<div class='trialDiv'><img src='trustrating_stim/white_mw066.bmp'><br><font class='baseline'><strong>Brian</strong><p>Choose number of points to send.</font><div class='respPicDiv'><img src='img/responseButtonOffersNo0L.png' class='respPic'></div></div>","5","6","Brian","7","Shared","0.8,0.35","12","0.8","trustrating_stim/white_mw066.bmp","4.5","94","16"
"html-keyboard-response","183","460083","0.0-19.0-2.15","611d4519393cabb9a4a46ebd","bdp_trlrn","Wed Mar 15 2023 23:14:09 GMT-0400 (Eastern Daylight Time)","819858","Untrustworthy,Trustworthy","","","","decisionFB","","","null","","<div class='trialDiv'><img src='trustrating_stim/white_mw066.bmp'><br><font class='baseline'><strong>Brian</strong><p>Choose number of points to send.</font><div class='respPicDiv'><img src='img/responseButtonOffersNo0L5.png' class='respPic'></div></div>","null","6","Brian","7","Shared","0.8,0.35","12","0.8","trustrating_stim/white_mw066.bmp","4.5","89","16"
"html-keyboard-response","184","461084","0.0-19.0-3.15","611d4519393cabb9a4a46ebd","bdp_trlrn","Wed Mar 15 2023 23:14:09 GMT-0400 (Eastern Daylight Time)","819858","Untrustworthy,Trustworthy","","","","feedback","","","null","","<div class='trialDiv'><img src='trustrating_stim/white_mw066.bmp'><br><font class='baseline'><strong>Brian</strong><p>Received: <strong>20</strong></font> &nbsp; &nbsp; &nbsp; &nbsp; &nbsp; &nbsp;<font class='posOutcome'>Shared back: <strong>10</strong></font></font><div class='respPicDiv'><img src='img/responseButtonOffersNo0_wht.png' class='respPic'></div></div>","null","6","Brian","7","Shared","0.8,0.35","12","0.8","trustrating_stim/white_mw066.bmp","4.5","99","16"
"html-keyboard-response","185","463573","0.0-19.0-1.16","611d4519393cabb9a4a46ebd","bdp_trlrn","Wed Mar 15 2023 23:14:09 GMT-0400 (Eastern Daylight Time)","819858","Untrustworthy,Trustworthy","","","","decision","","","2488","","<div class='trialDiv'><img src='trustrating_stim/white_00761_941201_fb_edt.bmp'><br><font class='baseline'><strong>Tyler</strong><p>Choose number of points to send.</font><div class='respPicDiv'><img src='img/responseButtonOffersNo0L.png' class='respPic'></div></div>","2","6","Tyler","11","Kept","0.65,0.35","11","0.65","trustrating_stim/white_00761_941201_fb_edt.bmp","7","104","17"
"html-keyboard-response","186","463824","0.0-19.0-2.16","611d4519393cabb9a4a46ebd","bdp_trlrn","Wed Mar 15 2023 23:14:09 GMT-0400 (Eastern Daylight Time)","819858","Untrustworthy,Trustworthy","","","","decisionFB","","","null","","<div class='trialDiv'><img src='trustrating_stim/white_00761_941201_fb_edt.bmp'><br><font class='baseline'><strong>Tyler</strong><p>Choose number of points to send.</font><div class='respPicDiv'><img src='img/responseButtonOffersNo0L2.png' class='respPic'></div></div>","null","6","Tyler","11","Kept","0.65,0.35","11","0.65","trustrating_stim/white_00761_941201_fb_edt.bmp","7","102","17"
"html-keyboard-response","187","464825","0.0-19.0-3.16","611d4519393cabb9a4a46ebd","bdp_trlrn","Wed Mar 15 2023 23:14:09 GMT-0400 (Eastern Daylight Time)","819858","Untrustworthy,Trustworthy","","","","feedback","","","null","","<div class='trialDiv'><img src='trustrating_stim/white_00761_941201_fb_edt.bmp'><br><font class='baseline'><strong>Tyler</strong><p>Received: <strong>8</strong></font> &nbsp; &nbsp; &nbsp; &nbsp; &nbsp; &nbsp;<font class='negOutcome'>Shared back: <strong>0</strong></font></font><div class='respPicDiv'><img src='img/responseButtonOffersNo0_wht.png' class='respPic'></div></div>","null","6","Tyler","11","Kept","0.65,0.35","11","0.65","trustrating_stim/white_00761_941201_fb_edt.bmp","7","102","17"
"html-keyboard-response","188","465845","0.0-19.0-1.17","611d4519393cabb9a4a46ebd","bdp_trlrn","Wed Mar 15 2023 23:14:09 GMT-0400 (Eastern Daylight Time)","819858","Untrustworthy,Trustworthy","","","","decision","","","1019","","<div class='trialDiv'><img src='trustrating_stim/white_mw063.bmp'><br><font class='baseline'><strong>Richard</strong><p>Choose number of points to send.</font><div class='respPicDiv'><img src='img/responseButtonOffersNo0L.png' class='respPic'></div></div>","1","6","Richard","3","Shared","0.35,0.8","10","0.35","trustrating_stim/white_mw063.bmp","2.5","107","18"
"html-keyboard-response","189","466097","0.0-19.0-2.17","611d4519393cabb9a4a46ebd","bdp_trlrn","Wed Mar 15 2023 23:14:09 GMT-0400 (Eastern Daylight Time)","819858","Untrustworthy,Trustworthy","","","","decisionFB","","","null","","<div class='trialDiv'><img src='trustrating_stim/white_mw063.bmp'><br><font class='baseline'><strong>Richard</strong><p>Choose number of points to send.</font><div class='respPicDiv'><img src='img/responseButtonOffersNo0L1.png' class='respPic'></div></div>","null","6","Richard","3","Shared","0.35,0.8","10","0.35","trustrating_stim/white_mw063.bmp","2.5","106","18"
"html-keyboard-response","190","467098","0.0-19.0-3.17","611d4519393cabb9a4a46ebd","bdp_trlrn","Wed Mar 15 2023 23:14:09 GMT-0400 (Eastern Daylight Time)","819858","Untrustworthy,Trustworthy","","","","feedback","","","null","","<div class='trialDiv'><img src='trustrating_stim/white_mw063.bmp'><br><font class='baseline'><strong>Richard</strong><p>Received: <strong>4</strong></font> &nbsp; &nbsp; &nbsp; &nbsp; &nbsp; &nbsp;<font class='posOutcome'>Shared back: <strong>2</strong></font></font><div class='respPicDiv'><img src='img/responseButtonOffersNo0_wht.png' class='respPic'></div></div>","null","6","Richard","3","Shared","0.35,0.8","10","0.35","trustrating_stim/white_mw063.bmp","2.5","108","18"
"html-keyboard-response","191","467876","0.0-19.0-1.18","611d4519393cabb9a4a46ebd","bdp_trlrn","Wed Mar 15 2023 23:14:09 GMT-0400 (Eastern Daylight Time)","819858","Untrustworthy,Trustworthy","","","","decision","","","776","","<div class='trialDiv'><img src='trustrating_stim/white_mw066.bmp'><br><font class='baseline'><strong>Brian</strong><p>Choose number of points to send.</font><div class='respPicDiv'><img src='img/responseButtonOffersNo0L.png' class='respPic'></div></div>","5","7","Brian","7","Shared","0.8,0.35","12","0.8","trustrating_stim/white_mw066.bmp","4.5","113","19"
"html-keyboard-response","192","468126","0.0-19.0-2.18","611d4519393cabb9a4a46ebd","bdp_trlrn","Wed Mar 15 2023 23:14:09 GMT-0400 (Eastern Daylight Time)","819858","Untrustworthy,Trustworthy","","","","decisionFB","","","null","","<div class='trialDiv'><img src='trustrating_stim/white_mw066.bmp'><br><font class='baseline'><strong>Brian</strong><p>Choose number of points to send.</font><div class='respPicDiv'><img src='img/responseButtonOffersNo0L5.png' class='respPic'></div></div>","null","7","Brian","7","Shared","0.8,0.35","12","0.8","trustrating_stim/white_mw066.bmp","4.5","108","19"
"html-keyboard-response","193","469128","0.0-19.0-3.18","611d4519393cabb9a4a46ebd","bdp_trlrn","Wed Mar 15 2023 23:14:09 GMT-0400 (Eastern Daylight Time)","819858","Untrustworthy,Trustworthy","","","","feedback","","","null","","<div class='trialDiv'><img src='trustrating_stim/white_mw066.bmp'><br><font class='baseline'><strong>Brian</strong><p>Received: <strong>20</strong></font> &nbsp; &nbsp; &nbsp; &nbsp; &nbsp; &nbsp;<font class='posOutcome'>Shared back: <strong>10</strong></font></font><div class='respPicDiv'><img src='img/responseButtonOffersNo0_wht.png' class='respPic'></div></div>","null","7","Brian","7","Shared","0.8,0.35","12","0.8","trustrating_stim/white_mw066.bmp","4.5","118","19"
"html-keyboard-response","194","470334","0.0-19.0-1.19","611d4519393cabb9a4a46ebd","bdp_trlrn","Wed Mar 15 2023 23:14:09 GMT-0400 (Eastern Daylight Time)","819858","Untrustworthy,Trustworthy","","","","decision","","","1205","","<div class='trialDiv'><img src='trustrating_stim/white_mw063.bmp'><br><font class='baseline'><strong>Richard</strong><p>Choose number of points to send.</font><div class='respPicDiv'><img src='img/responseButtonOffersNo0L.png' class='respPic'></div></div>","1","7","Richard","3","Kept","0.35,0.8","10","0.35","trustrating_stim/white_mw063.bmp","2.5","123","20"
"html-keyboard-response","195","470586","0.0-19.0-2.19","611d4519393cabb9a4a46ebd","bdp_trlrn","Wed Mar 15 2023 23:14:09 GMT-0400 (Eastern Daylight Time)","819858","Untrustworthy,Trustworthy","","","","decisionFB","","","null","","<div class='trialDiv'><img src='trustrating_stim/white_mw063.bmp'><br><font class='baseline'><strong>Richard</strong><p>Choose number of points to send.</font><div class='respPicDiv'><img src='img/responseButtonOffersNo0L1.png' class='respPic'></div></div>","null","7","Richard","3","Kept","0.35,0.8","10","0.35","trustrating_stim/white_mw063.bmp","2.5","122","20"
"html-keyboard-response","196","471588","0.0-19.0-3.19","611d4519393cabb9a4a46ebd","bdp_trlrn","Wed Mar 15 2023 23:14:09 GMT-0400 (Eastern Daylight Time)","819858","Untrustworthy,Trustworthy","","","","feedback","","","null","","<div class='trialDiv'><img src='trustrating_stim/white_mw063.bmp'><br><font class='baseline'><strong>Richard</strong><p>Received: <strong>4</strong></font> &nbsp; &nbsp; &nbsp; &nbsp; &nbsp; &nbsp;<font class='negOutcome'>Shared back: <strong>0</strong></font></font><div class='respPicDiv'><img src='img/responseButtonOffersNo0_wht.png' class='respPic'></div></div>","null","7","Richard","3","Kept","0.35,0.8","10","0.35","trustrating_stim/white_mw063.bmp","2.5","122","20"
"html-keyboard-response","197","473737","0.0-19.0-1.20","611d4519393cabb9a4a46ebd","bdp_trlrn","Wed Mar 15 2023 23:14:09 GMT-0400 (Eastern Daylight Time)","819858","Untrustworthy,Trustworthy","","","","decision","","","2148","","<div class='trialDiv'><img src='trustrating_stim/white_00761_941201_fb_edt.bmp'><br><font class='baseline'><strong>Tyler</strong><p>Choose number of points to send.</font><div class='respPicDiv'><img src='img/responseButtonOffersNo0L.png' class='respPic'></div></div>","2","7","Tyler","11","Kept","0.65,0.35","11","0.65","trustrating_stim/white_00761_941201_fb_edt.bmp","7","127","21"
"html-keyboard-response","198","473988","0.0-19.0-2.20","611d4519393cabb9a4a46ebd","bdp_trlrn","Wed Mar 15 2023 23:14:09 GMT-0400 (Eastern Daylight Time)","819858","Untrustworthy,Trustworthy","","","","decisionFB","","","null","","<div class='trialDiv'><img src='trustrating_stim/white_00761_941201_fb_edt.bmp'><br><font class='baseline'><strong>Tyler</strong><p>Choose number of points to send.</font><div class='respPicDiv'><img src='img/responseButtonOffersNo0L2.png' class='respPic'></div></div>","null","7","Tyler","11","Kept","0.65,0.35","11","0.65","trustrating_stim/white_00761_941201_fb_edt.bmp","7","125","21"
"html-keyboard-response","199","474989","0.0-19.0-3.20","611d4519393cabb9a4a46ebd","bdp_trlrn","Wed Mar 15 2023 23:14:09 GMT-0400 (Eastern Daylight Time)","819858","Untrustworthy,Trustworthy","","","","feedback","","","null","","<div class='trialDiv'><img src='trustrating_stim/white_00761_941201_fb_edt.bmp'><br><font class='baseline'><strong>Tyler</strong><p>Received: <strong>8</strong></font> &nbsp; &nbsp; &nbsp; &nbsp; &nbsp; &nbsp;<font class='negOutcome'>Shared back: <strong>0</strong></font></font><div class='respPicDiv'><img src='img/responseButtonOffersNo0_wht.png' class='respPic'></div></div>","null","7","Tyler","11","Kept","0.65,0.35","11","0.65","trustrating_stim/white_00761_941201_fb_edt.bmp","7","125","21"
"html-keyboard-response","200","475899","0.0-19.0-1.21","611d4519393cabb9a4a46ebd","bdp_trlrn","Wed Mar 15 2023 23:14:09 GMT-0400 (Eastern Daylight Time)","819858","Untrustworthy,Trustworthy","","","","decision","","","909","","<div class='trialDiv'><img src='trustrating_stim/white_mw063.bmp'><br><font class='baseline'><strong>Richard</strong><p>Choose number of points to send.</font><div class='respPicDiv'><img src='img/responseButtonOffersNo0L.png' class='respPic'></div></div>","5","8","Richard","3","Kept","0.35,0.8","10","0.35","trustrating_stim/white_mw063.bmp","2.5","130","22"
"html-keyboard-response","201","476150","0.0-19.0-2.21","611d4519393cabb9a4a46ebd","bdp_trlrn","Wed Mar 15 2023 23:14:09 GMT-0400 (Eastern Daylight Time)","819858","Untrustworthy,Trustworthy","","","","decisionFB","","","null","","<div class='trialDiv'><img src='trustrating_stim/white_mw063.bmp'><br><font class='baseline'><strong>Richard</strong><p>Choose number of points to send.</font><div class='respPicDiv'><img src='img/responseButtonOffersNo0L5.png' class='respPic'></div></div>","null","8","Richard","3","Kept","0.35,0.8","10","0.35","trustrating_stim/white_mw063.bmp","2.5","125","22"
"html-keyboard-response","202","477151","0.0-19.0-3.21","611d4519393cabb9a4a46ebd","bdp_trlrn","Wed Mar 15 2023 23:14:09 GMT-0400 (Eastern Daylight Time)","819858","Untrustworthy,Trustworthy","","","","feedback","","","null","","<div class='trialDiv'><img src='trustrating_stim/white_mw063.bmp'><br><font class='baseline'><strong>Richard</strong><p>Received: <strong>20</strong></font> &nbsp; &nbsp; &nbsp; &nbsp; &nbsp; &nbsp;<font class='negOutcome'>Shared back: <strong>0</strong></font></font><div class='respPicDiv'><img src='img/responseButtonOffersNo0_wht.png' class='respPic'></div></div>","null","8","Richard","3","Kept","0.35,0.8","10","0.35","trustrating_stim/white_mw063.bmp","2.5","125","22"
"html-keyboard-response","203","479007","0.0-19.0-1.22","611d4519393cabb9a4a46ebd","bdp_trlrn","Wed Mar 15 2023 23:14:09 GMT-0400 (Eastern Daylight Time)","819858","Untrustworthy,Trustworthy","","","","decision","","","1855","","<div class='trialDiv'><img src='trustrating_stim/white_mw066.bmp'><br><font class='baseline'><strong>Brian</strong><p>Choose number of points to send.</font><div class='respPicDiv'><img src='img/responseButtonOffersNo0L.png' class='respPic'></div></div>","5","8","Brian","7","Shared","0.8,0.35","12","0.8","trustrating_stim/white_mw066.bmp","4.5","130","23"
"html-keyboard-response","204","479258","0.0-19.0-2.22","611d4519393cabb9a4a46ebd","bdp_trlrn","Wed Mar 15 2023 23:14:09 GMT-0400 (Eastern Daylight Time)","819858","Untrustworthy,Trustworthy","","","","decisionFB","","","null","","<div class='trialDiv'><img src='trustrating_stim/white_mw066.bmp'><br><font class='baseline'><strong>Brian</strong><p>Choose number of points to send.</font><div class='respPicDiv'><img src='img/responseButtonOffersNo0L5.png' class='respPic'></div></div>","null","8","Brian","7","Shared","0.8,0.35","12","0.8","trustrating_stim/white_mw066.bmp","4.5","125","23"
"html-keyboard-response","205","480260","0.0-19.0-3.22","611d4519393cabb9a4a46ebd","bdp_trlrn","Wed Mar 15 2023 23:14:09 GMT-0400 (Eastern Daylight Time)","819858","Untrustworthy,Trustworthy","","","","feedback","","","null","","<div class='trialDiv'><img src='trustrating_stim/white_mw066.bmp'><br><font class='baseline'><strong>Brian</strong><p>Received: <strong>20</strong></font> &nbsp; &nbsp; &nbsp; &nbsp; &nbsp; &nbsp;<font class='posOutcome'>Shared back: <strong>10</strong></font></font><div class='respPicDiv'><img src='img/responseButtonOffersNo0_wht.png' class='respPic'></div></div>","null","8","Brian","7","Shared","0.8,0.35","12","0.8","trustrating_stim/white_mw066.bmp","4.5","135","23"
"html-keyboard-response","206","486863","0.0-19.0-1.23","611d4519393cabb9a4a46ebd","bdp_trlrn","Wed Mar 15 2023 23:14:09 GMT-0400 (Eastern Daylight Time)","819858","Untrustworthy,Trustworthy","","","","decision","","","6602","","<div class='trialDiv'><img src='trustrating_stim/white_00761_941201_fb_edt.bmp'><br><font class='baseline'><strong>Tyler</strong><p>Choose number of points to send.</font><div class='respPicDiv'><img src='img/responseButtonOffersNo0L.png' class='respPic'></div></div>","1","8","Tyler","11","Kept","0.65,0.35","11","0.65","trustrating_stim/white_00761_941201_fb_edt.bmp","7","140","24"
"html-keyboard-response","207","487115","0.0-19.0-2.23","611d4519393cabb9a4a46ebd","bdp_trlrn","Wed Mar 15 2023 23:14:09 GMT-0400 (Eastern Daylight Time)","819858","Untrustworthy,Trustworthy","","","","decisionFB","","","null","","<div class='trialDiv'><img src='trustrating_stim/white_00761_941201_fb_edt.bmp'><br><font class='baseline'><strong>Tyler</strong><p>Choose number of points to send.</font><div class='respPicDiv'><img src='img/responseButtonOffersNo0L1.png' class='respPic'></div></div>","null","8","Tyler","11","Kept","0.65,0.35","11","0.65","trustrating_stim/white_00761_941201_fb_edt.bmp","7","139","24"
"html-keyboard-response","208","488116","0.0-19.0-3.23","611d4519393cabb9a4a46ebd","bdp_trlrn","Wed Mar 15 2023 23:14:09 GMT-0400 (Eastern Daylight Time)","819858","Untrustworthy,Trustworthy","","","","feedback","","","null","","<div class='trialDiv'><img src='trustrating_stim/white_00761_941201_fb_edt.bmp'><br><font class='baseline'><strong>Tyler</strong><p>Received: <strong>4</strong></font> &nbsp; &nbsp; &nbsp; &nbsp; &nbsp; &nbsp;<font class='negOutcome'>Shared back: <strong>0</strong></font></font><div class='respPicDiv'><img src='img/responseButtonOffersNo0_wht.png' class='respPic'></div></div>","null","8","Tyler","11","Kept","0.65,0.35","11","0.65","trustrating_stim/white_00761_941201_fb_edt.bmp","7","139","24"
"html-keyboard-response","209","488769","0.0-19.0-1.24","611d4519393cabb9a4a46ebd","bdp_trlrn","Wed Mar 15 2023 23:14:09 GMT-0400 (Eastern Daylight Time)","819858","Untrustworthy,Trustworthy","","","","decision","","","652","","<div class='trialDiv'><img src='trustrating_stim/white_mw063.bmp'><br><font class='baseline'><strong>Richard</strong><p>Choose number of points to send.</font><div class='respPicDiv'><img src='img/responseButtonOffersNo0L.png' class='respPic'></div></div>","1","9","Richard","3","Kept","0.35,0.8","10","0.35","trustrating_stim/white_mw063.bmp","2.5","144","25"
"html-keyboard-response","210","489020","0.0-19.0-2.24","611d4519393cabb9a4a46ebd","bdp_trlrn","Wed Mar 15 2023 23:14:09 GMT-0400 (Eastern Daylight Time)","819858","Untrustworthy,Trustworthy","","","","decisionFB","","","null","","<div class='trialDiv'><img src='trustrating_stim/white_mw063.bmp'><br><font class='baseline'><strong>Richard</strong><p>Choose number of points to send.</font><div class='respPicDiv'><img src='img/responseButtonOffersNo0L1.png' class='respPic'></div></div>","null","9","Richard","3","Kept","0.35,0.8","10","0.35","trustrating_stim/white_mw063.bmp","2.5","143","25"
"html-keyboard-response","211","490022","0.0-19.0-3.24","611d4519393cabb9a4a46ebd","bdp_trlrn","Wed Mar 15 2023 23:14:09 GMT-0400 (Eastern Daylight Time)","819858","Untrustworthy,Trustworthy","","","","feedback","","","null","","<div class='trialDiv'><img src='trustrating_stim/white_mw063.bmp'><br><font class='baseline'><strong>Richard</strong><p>Received: <strong>4</strong></font> &nbsp; &nbsp; &nbsp; &nbsp; &nbsp; &nbsp;<font class='negOutcome'>Shared back: <strong>0</strong></font></font><div class='respPicDiv'><img src='img/responseButtonOffersNo0_wht.png' class='respPic'></div></div>","null","9","Richard","3","Kept","0.35,0.8","10","0.35","trustrating_stim/white_mw063.bmp","2.5","143","25"
"html-keyboard-response","212","490814","0.0-19.0-1.25","611d4519393cabb9a4a46ebd","bdp_trlrn","Wed Mar 15 2023 23:14:09 GMT-0400 (Eastern Daylight Time)","819858","Untrustworthy,Trustworthy","","","","decision","","","791","","<div class='trialDiv'><img src='trustrating_stim/white_mw066.bmp'><br><font class='baseline'><strong>Brian</strong><p>Choose number of points to send.</font><div class='respPicDiv'><img src='img/responseButtonOffersNo0L.png' class='respPic'></div></div>","5","9","Brian","7","Shared","0.8,0.35","12","0.8","trustrating_stim/white_mw066.bmp","4.5","148","26"
"html-keyboard-response","213","491065","0.0-19.0-2.25","611d4519393cabb9a4a46ebd","bdp_trlrn","Wed Mar 15 2023 23:14:09 GMT-0400 (Eastern Daylight Time)","819858","Untrustworthy,Trustworthy","","","","decisionFB","","","null","","<div class='trialDiv'><img src='trustrating_stim/white_mw066.bmp'><br><font class='baseline'><strong>Brian</strong><p>Choose number of points to send.</font><div class='respPicDiv'><img src='img/responseButtonOffersNo0L5.png' class='respPic'></div></div>","null","9","Brian","7","Shared","0.8,0.35","12","0.8","trustrating_stim/white_mw066.bmp","4.5","143","26"
"html-keyboard-response","214","492066","0.0-19.0-3.25","611d4519393cabb9a4a46ebd","bdp_trlrn","Wed Mar 15 2023 23:14:09 GMT-0400 (Eastern Daylight Time)","819858","Untrustworthy,Trustworthy","","","","feedback","","","null","","<div class='trialDiv'><img src='trustrating_stim/white_mw066.bmp'><br><font class='baseline'><strong>Brian</strong><p>Received: <strong>20</strong></font> &nbsp; &nbsp; &nbsp; &nbsp; &nbsp; &nbsp;<font class='posOutcome'>Shared back: <strong>10</strong></font></font><div class='respPicDiv'><img src='img/responseButtonOffersNo0_wht.png' class='respPic'></div></div>","null","9","Brian","7","Shared","0.8,0.35","12","0.8","trustrating_stim/white_mw066.bmp","4.5","153","26"
"html-keyboard-response","215","493536","0.0-19.0-1.26","611d4519393cabb9a4a46ebd","bdp_trlrn","Wed Mar 15 2023 23:14:09 GMT-0400 (Eastern Daylight Time)","819858","Untrustworthy,Trustworthy","","","","decision","","","1468","","<div class='trialDiv'><img src='trustrating_stim/white_00761_941201_fb_edt.bmp'><br><font class='baseline'><strong>Tyler</strong><p>Choose number of points to send.</font><div class='respPicDiv'><img src='img/responseButtonOffersNo0L.png' class='respPic'></div></div>","1","9","Tyler","11","Shared","0.65,0.35","11","0.65","trustrating_stim/white_00761_941201_fb_edt.bmp","7","158","27"
"html-keyboard-response","216","493789","0.0-19.0-2.26","611d4519393cabb9a4a46ebd","bdp_trlrn","Wed Mar 15 2023 23:14:09 GMT-0400 (Eastern Daylight Time)","819858","Untrustworthy,Trustworthy","","","","decisionFB","","","null","","<div class='trialDiv'><img src='trustrating_stim/white_00761_941201_fb_edt.bmp'><br><font class='baseline'><strong>Tyler</strong><p>Choose number of points to send.</font><div class='respPicDiv'><img src='img/responseButtonOffersNo0L1.png' class='respPic'></div></div>","null","9","Tyler","11","Shared","0.65,0.35","11","0.65","trustrating_stim/white_00761_941201_fb_edt.bmp","7","157","27"
"html-keyboard-response","217","494790","0.0-19.0-3.26","611d4519393cabb9a4a46ebd","bdp_trlrn","Wed Mar 15 2023 23:14:09 GMT-0400 (Eastern Daylight Time)","819858","Untrustworthy,Trustworthy","","","","feedback","","","null","","<div class='trialDiv'><img src='trustrating_stim/white_00761_941201_fb_edt.bmp'><br><font class='baseline'><strong>Tyler</strong><p>Received: <strong>4</strong></font> &nbsp; &nbsp; &nbsp; &nbsp; &nbsp; &nbsp;<font class='posOutcome'>Shared back: <strong>2</strong></font></font><div class='respPicDiv'><img src='img/responseButtonOffersNo0_wht.png' class='respPic'></div></div>","null","9","Tyler","11","Shared","0.65,0.35","11","0.65","trustrating_stim/white_00761_941201_fb_edt.bmp","7","159","27"
"html-keyboard-response","218","495787","0.0-19.0-1.27","611d4519393cabb9a4a46ebd","bdp_trlrn","Wed Mar 15 2023 23:14:09 GMT-0400 (Eastern Daylight Time)","819858","Untrustworthy,Trustworthy","","","","decision","","","996","","<div class='trialDiv'><img src='trustrating_stim/white_mw063.bmp'><br><font class='baseline'><strong>Richard</strong><p>Choose number of points to send.</font><div class='respPicDiv'><img src='img/responseButtonOffersNo0L.png' class='respPic'></div></div>","2","10","Richard","3","Shared","0.35,0.8","10","0.35","trustrating_stim/white_mw063.bmp","2.5","164","28"
"html-keyboard-response","219","496043","0.0-19.0-2.27","611d4519393cabb9a4a46ebd","bdp_trlrn","Wed Mar 15 2023 23:14:09 GMT-0400 (Eastern Daylight Time)","819858","Untrustworthy,Trustworthy","","","","decisionFB","","","null","","<div class='trialDiv'><img src='trustrating_stim/white_mw063.bmp'><br><font class='baseline'><strong>Richard</strong><p>Choose number of points to send.</font><div class='respPicDiv'><img src='img/responseButtonOffersNo0L2.png' class='respPic'></div></div>","null","10","Richard","3","Shared","0.35,0.8","10","0.35","trustrating_stim/white_mw063.bmp","2.5","162","28"
