"event","trial","time","trialtype","numBlurs","subject_id","task","startTime","totalTime","labels","trial_type","trial_index","time_elapsed","internal_node_id","view_history","rt","success","stimulus","key_press","aground","name","faceID","outcome","agenttype","agentswpt","agentcurrpshare","face","avgRating","point_total","round"
"blur","0","0","blurevent","1","60d2d061fd054556769ca306","bdp_trlrn","Sun Mar 12 2023 23:50:45 GMT-0400 (Eastern Daylight Time)","580486","Trustworthy,Untrustworthy","","","","","","","","","","","","","","","","","","","",""
"","","","","","60d2d061fd054556769ca306","bdp_trlrn","Sun Mar 12 2023 23:50:45 GMT-0400 (Eastern Daylight Time)","580486","Trustworthy,Untrustworthy","pavlovia","0","5","0.0-0.0","","","","","","","","","","","","","","","",""
"focus","1","2187","focusevent","","60d2d061fd054556769ca306","bdp_trlrn","Sun Mar 12 2023 23:50:45 GMT-0400 (Eastern Daylight Time)","580486","Trustworthy,Untrustworthy","","","","","","","","","","","","","","","","","","","",""
"","","","","","60d2d061fd054556769ca306","bdp_trlrn","Sun Mar 12 2023 23:50:45 GMT-0400 (Eastern Daylight Time)","580486","Trustworthy,Untrustworthy","instructions","1","8037","0.0-1.0","[{""page_index"":0,""viewing_time"":8031}]","8031","","","","","","","","","","","","","",""
"fullscreenenter","2","10070","fullscreenenter","","60d2d061fd054556769ca306","bdp_trlrn","Sun Mar 12 2023 23:50:45 GMT-0400 (Eastern Daylight Time)","580486","Trustworthy,Untrustworthy","","","","","","","","","","","","","","","","","","","",""
"","","","","","60d2d061fd054556769ca306","bdp_trlrn","Sun Mar 12 2023 23:50:45 GMT-0400 (Eastern Daylight Time)","580486","Trustworthy,Untrustworthy","fullscreen","2","11030","0.0-2.0","","","true","","","","","","","","","","","","",""
"","","","","","60d2d061fd054556769ca306","bdp_trlrn","Sun Mar 12 2023 23:50:45 GMT-0400 (Eastern Daylight Time)","580486","Trustworthy,Untrustworthy","instructions","3","37181","0.0-4.0","[{""page_index"":0,""viewing_time"":15065},{""page_index"":1,""viewing_time"":11084}]","26149","","","","","","","","","","","","","",""
"","","","","","60d2d061fd054556769ca306","bdp_trlrn","Sun Mar 12 2023 23:50:45 GMT-0400 (Eastern Daylight Time)","580486","Trustworthy,Untrustworthy","instructions","4","38557","0.0-5.0","[{""page_index"":0,""viewing_time"":1375}]","1375","","","","","","","","","","","","","",""
"","","","rating","","60d2d061fd054556769ca306","bdp_trlrn","Sun Mar 12 2023 23:50:45 GMT-0400 (Eastern Daylight Time)","580486","Trustworthy,Untrustworthy","image-keyboard-response","5","40262","0.0-6.0-1.0","","1595","","trustrating_stim/white_00757_941201_fa_edt.bmp","4","","","","","","","","","","",""
"","","","ratingFB","","60d2d061fd054556769ca306","bdp_trlrn","Sun Mar 12 2023 23:50:45 GMT-0400 (Eastern Daylight Time)","580486","Trustworthy,Untrustworthy","image-keyboard-response","6","40464","0.0-6.0-2.0","","null","","trustrating_stim/white_00757_941201_fa_edt.bmp","null","","","","","","","","","","",""
"","","","rating","","60d2d061fd054556769ca306","bdp_trlrn","Sun Mar 12 2023 23:50:45 GMT-0400 (Eastern Daylight Time)","580486","Trustworthy,Untrustworthy","image-keyboard-response","7","42618","0.0-6.0-1.1","","2048","","trustrating_stim/white_00602_940928_fb_edt.bmp","6","","","","","","","","","","",""
"","","","ratingFB","","60d2d061fd054556769ca306","bdp_trlrn","Sun Mar 12 2023 23:50:45 GMT-0400 (Eastern Daylight Time)","580486","Trustworthy,Untrustworthy","image-keyboard-response","8","42825","0.0-6.0-2.1","","null","","trustrating_stim/white_00602_940928_fb_edt.bmp","null","","","","","","","","","","",""
"","","","rating","","60d2d061fd054556769ca306","bdp_trlrn","Sun Mar 12 2023 23:50:45 GMT-0400 (Eastern Daylight Time)","580486","Trustworthy,Untrustworthy","image-keyboard-response","9","44826","0.0-6.0-1.2","","1895","","trustrating_stim/white_mw056.bmp","2","","","","","","","","","","",""
"","","","ratingFB","","60d2d061fd054556769ca306","bdp_trlrn","Sun Mar 12 2023 23:50:45 GMT-0400 (Eastern Daylight Time)","580486","Trustworthy,Untrustworthy","image-keyboard-response","10","45043","0.0-6.0-2.2","","null","","trustrating_stim/white_mw056.bmp","null","","","","","","","","","","",""
"","","","rating","","60d2d061fd054556769ca306","bdp_trlrn","Sun Mar 12 2023 23:50:45 GMT-0400 (Eastern Daylight Time)","580486","Trustworthy,Untrustworthy","image-keyboard-response","11","46832","0.0-6.0-1.3","","1684","","trustrating_stim/white_mw053.bmp","5","","","","","","","","","","",""
"","","","ratingFB","","60d2d061fd054556769ca306","bdp_trlrn","Sun Mar 12 2023 23:50:45 GMT-0400 (Eastern Daylight Time)","580486","Trustworthy,Untrustworthy","image-keyboard-response","12","47045","0.0-6.0-2.3","","null","","trustrating_stim/white_mw053.bmp","null","","","","","","","","","","",""
"","","","rating","","60d2d061fd054556769ca306","bdp_trlrn","Sun Mar 12 2023 23:50:45 GMT-0400 (Eastern Daylight Time)","580486","Trustworthy,Untrustworthy","image-keyboard-response","13","49286","0.0-6.0-1.4","","2138","","trustrating_stim/white_mw084.bmp","5","","","","","","","","","","",""
"","","","ratingFB","","60d2d061fd054556769ca306","bdp_trlrn","Sun Mar 12 2023 23:50:45 GMT-0400 (Eastern Daylight Time)","580486","Trustworthy,Untrustworthy","image-keyboard-response","14","49498","0.0-6.0-2.4","","null","","trustrating_stim/white_mw084.bmp","null","","","","","","","","","","",""
"","","","rating","","60d2d061fd054556769ca306","bdp_trlrn","Sun Mar 12 2023 23:50:45 GMT-0400 (Eastern Daylight Time)","580486","Trustworthy,Untrustworthy","image-keyboard-response","15","50687","0.0-6.0-1.5","","1074","","trustrating_stim/white_00761_941201_fb_edt.bmp","4","","","","","","","","","","",""
"","","","ratingFB","","60d2d061fd054556769ca306","bdp_trlrn","Sun Mar 12 2023 23:50:45 GMT-0400 (Eastern Daylight Time)","580486","Trustworthy,Untrustworthy","image-keyboard-response","16","50893","0.0-6.0-2.5","","null","","trustrating_stim/white_00761_941201_fb_edt.bmp","null","","","","","","","","","","",""
"","","","rating","","60d2d061fd054556769ca306","bdp_trlrn","Sun Mar 12 2023 23:50:45 GMT-0400 (Eastern Daylight Time)","580486","Trustworthy,Untrustworthy","image-keyboard-response","17","52592","0.0-6.0-1.6","","1596","","trustrating_stim/white_mw089.bmp","4","","","","","","","","","","",""
"","","","ratingFB","","60d2d061fd054556769ca306","bdp_trlrn","Sun Mar 12 2023 23:50:45 GMT-0400 (Eastern Daylight Time)","580486","Trustworthy,Untrustworthy","image-keyboard-response","18","52799","0.0-6.0-2.6","","null","","trustrating_stim/white_mw089.bmp","null","","","","","","","","","","",""
"","","","rating","","60d2d061fd054556769ca306","bdp_trlrn","Sun Mar 12 2023 23:50:45 GMT-0400 (Eastern Daylight Time)","580486","Trustworthy,Untrustworthy","image-keyboard-response","19","54535","0.0-6.0-1.7","","1634","","trustrating_stim/white_00120_931230_fa_edt.bmp","5","","","","","","","","","","",""
"","","","ratingFB","","60d2d061fd054556769ca306","bdp_trlrn","Sun Mar 12 2023 23:50:45 GMT-0400 (Eastern Daylight Time)","580486","Trustworthy,Untrustworthy","image-keyboard-response","20","54740","0.0-6.0-2.7","","null","","trustrating_stim/white_00120_931230_fa_edt.bmp","null","","","","","","","","","","",""
"","","","rating","","60d2d061fd054556769ca306","bdp_trlrn","Sun Mar 12 2023 23:50:45 GMT-0400 (Eastern Daylight Time)","580486","Trustworthy,Untrustworthy","image-keyboard-response","21","55635","0.0-6.0-1.8","","787","","trustrating_stim/white_mw033.bmp","4","","","","","","","","","","",""
"","","","ratingFB","","60d2d061fd054556769ca306","bdp_trlrn","Sun Mar 12 2023 23:50:45 GMT-0400 (Eastern Daylight Time)","580486","Trustworthy,Untrustworthy","image-keyboard-response","22","55839","0.0-6.0-2.8","","null","","trustrating_stim/white_mw033.bmp","null","","","","","","","","","","",""
"","","","rating","","60d2d061fd054556769ca306","bdp_trlrn","Sun Mar 12 2023 23:50:45 GMT-0400 (Eastern Daylight Time)","580486","Trustworthy,Untrustworthy","image-keyboard-response","23","57271","0.0-6.0-1.9","","1324","","trustrating_stim/white_00340_940422_fa_edt.bmp","3","","","","","","","","","","",""
"","","","ratingFB","","60d2d061fd054556769ca306","bdp_trlrn","Sun Mar 12 2023 23:50:45 GMT-0400 (Eastern Daylight Time)","580486","Trustworthy,Untrustworthy","image-keyboard-response","24","57475","0.0-6.0-2.9","","null","","trustrating_stim/white_00340_940422_fa_edt.bmp","null","","","","","","","","","","",""
"","","","rating","","60d2d061fd054556769ca306","bdp_trlrn","Sun Mar 12 2023 23:50:45 GMT-0400 (Eastern Daylight Time)","580486","Trustworthy,Untrustworthy","image-keyboard-response","25","59109","0.0-6.0-1.10","","1523","","trustrating_stim/white_00577_940928_fa_edt.bmp","2","","","","","","","","","","",""
"","","","ratingFB","","60d2d061fd054556769ca306","bdp_trlrn","Sun Mar 12 2023 23:50:45 GMT-0400 (Eastern Daylight Time)","580486","Trustworthy,Untrustworthy","image-keyboard-response","26","59321","0.0-6.0-2.10","","null","","trustrating_stim/white_00577_940928_fa_edt.bmp","null","","","","","","","","","","",""
"","","","rating","","60d2d061fd054556769ca306","bdp_trlrn","Sun Mar 12 2023 23:50:45 GMT-0400 (Eastern Daylight Time)","580486","Trustworthy,Untrustworthy","image-keyboard-response","27","61162","0.0-6.0-1.11","","1731","","trustrating_stim/white_mw049.bmp","7","","","","","","","","","","",""
"","","","ratingFB","","60d2d061fd054556769ca306","bdp_trlrn","Sun Mar 12 2023 23:50:45 GMT-0400 (Eastern Daylight Time)","580486","Trustworthy,Untrustworthy","image-keyboard-response","28","61372","0.0-6.0-2.11","","null","","trustrating_stim/white_mw049.bmp","null","","","","","","","","","","",""
"","","","rating","","60d2d061fd054556769ca306","bdp_trlrn","Sun Mar 12 2023 23:50:45 GMT-0400 (Eastern Daylight Time)","580486","Trustworthy,Untrustworthy","image-keyboard-response","29","62662","0.0-6.0-1.12","","1183","","trustrating_stim/white_mw060.bmp","3","","","","","","","","","","",""
"","","","ratingFB","","60d2d061fd054556769ca306","bdp_trlrn","Sun Mar 12 2023 23:50:45 GMT-0400 (Eastern Daylight Time)","580486","Trustworthy,Untrustworthy","image-keyboard-response","30","62863","0.0-6.0-2.12","","null","","trustrating_stim/white_mw060.bmp","null","","","","","","","","","","",""
"","","","rating","","60d2d061fd054556769ca306","bdp_trlrn","Sun Mar 12 2023 23:50:45 GMT-0400 (Eastern Daylight Time)","580486","Trustworthy,Untrustworthy","image-keyboard-response","31","65314","0.0-6.0-1.13","","2334","","trustrating_stim/white_mw035.bmp","5","","","","","","","","","","",""
"","","","ratingFB","","60d2d061fd054556769ca306","bdp_trlrn","Sun Mar 12 2023 23:50:45 GMT-0400 (Eastern Daylight Time)","580486","Trustworthy,Untrustworthy","image-keyboard-response","32","65524","0.0-6.0-2.13","","null","","trustrating_stim/white_mw035.bmp","null","","","","","","","","","","",""
"","","","rating","","60d2d061fd054556769ca306","bdp_trlrn","Sun Mar 12 2023 23:50:45 GMT-0400 (Eastern Daylight Time)","580486","Trustworthy,Untrustworthy","image-keyboard-response","33","67229","0.0-6.0-1.14","","1592","","trustrating_stim/white_00898_960530_fa_edt.bmp","4","","","","","","","","","","",""
"","","","ratingFB","","60d2d061fd054556769ca306","bdp_trlrn","Sun Mar 12 2023 23:50:45 GMT-0400 (Eastern Daylight Time)","580486","Trustworthy,Untrustworthy","image-keyboard-response","34","67436","0.0-6.0-2.14","","null","","trustrating_stim/white_00898_960530_fa_edt.bmp","null","","","","","","","","","","",""
"","","","rating","","60d2d061fd054556769ca306","bdp_trlrn","Sun Mar 12 2023 23:50:45 GMT-0400 (Eastern Daylight Time)","580486","Trustworthy,Untrustworthy","image-keyboard-response","35","68586","0.0-6.0-1.15","","1040","","trustrating_stim/white_mw048.bmp","3","","","","","","","","","","",""
"","","","ratingFB","","60d2d061fd054556769ca306","bdp_trlrn","Sun Mar 12 2023 23:50:45 GMT-0400 (Eastern Daylight Time)","580486","Trustworthy,Untrustworthy","image-keyboard-response","36","68798","0.0-6.0-2.15","","null","","trustrating_stim/white_mw048.bmp","null","","","","","","","","","","",""
"","","","rating","","60d2d061fd054556769ca306","bdp_trlrn","Sun Mar 12 2023 23:50:45 GMT-0400 (Eastern Daylight Time)","580486","Trustworthy,Untrustworthy","image-keyboard-response","37","70411","0.0-6.0-1.16","","1498","","trustrating_stim/white_mw099.bmp","2","","","","","","","","","","",""
"","","","ratingFB","","60d2d061fd054556769ca306","bdp_trlrn","Sun Mar 12 2023 23:50:45 GMT-0400 (Eastern Daylight Time)","580486","Trustworthy,Untrustworthy","image-keyboard-response","38","70623","0.0-6.0-2.16","","null","","trustrating_stim/white_mw099.bmp","null","","","","","","","","","","",""
"","","","rating","","60d2d061fd054556769ca306","bdp_trlrn","Sun Mar 12 2023 23:50:45 GMT-0400 (Eastern Daylight Time)","580486","Trustworthy,Untrustworthy","image-keyboard-response","39","72366","0.0-6.0-1.17","","1628","","trustrating_stim/white_mw097.bmp","2","","","","","","","","","","",""
"","","","ratingFB","","60d2d061fd054556769ca306","bdp_trlrn","Sun Mar 12 2023 23:50:45 GMT-0400 (Eastern Daylight Time)","580486","Trustworthy,Untrustworthy","image-keyboard-response","40","72577","0.0-6.0-2.17","","null","","trustrating_stim/white_mw097.bmp","null","","","","","","","","","","",""
"","","","rating","","60d2d061fd054556769ca306","bdp_trlrn","Sun Mar 12 2023 23:50:45 GMT-0400 (Eastern Daylight Time)","580486","Trustworthy,Untrustworthy","image-keyboard-response","41","74043","0.0-6.0-1.18","","1348","","trustrating_stim/white_00659_941121_fa_edt.bmp","2","","","","","","","","","","",""
"","","","ratingFB","","60d2d061fd054556769ca306","bdp_trlrn","Sun Mar 12 2023 23:50:45 GMT-0400 (Eastern Daylight Time)","580486","Trustworthy,Untrustworthy","image-keyboard-response","42","74245","0.0-6.0-2.18","","null","","trustrating_stim/white_00659_941121_fa_edt.bmp","null","","","","","","","","","","",""
"","","","rating","","60d2d061fd054556769ca306","bdp_trlrn","Sun Mar 12 2023 23:50:45 GMT-0400 (Eastern Daylight Time)","580486","Trustworthy,Untrustworthy","image-keyboard-response","43","76557","0.0-6.0-1.19","","2196","","trustrating_stim/white_00109_931230_fa_edt.bmp","5","","","","","","","","","","",""
"","","","ratingFB","","60d2d061fd054556769ca306","bdp_trlrn","Sun Mar 12 2023 23:50:45 GMT-0400 (Eastern Daylight Time)","580486","Trustworthy,Untrustworthy","image-keyboard-response","44","76773","0.0-6.0-2.19","","null","","trustrating_stim/white_00109_931230_fa_edt.bmp","null","","","","","","","","","","",""
"","","","rating","","60d2d061fd054556769ca306","bdp_trlrn","Sun Mar 12 2023 23:50:45 GMT-0400 (Eastern Daylight Time)","580486","Trustworthy,Untrustworthy","image-keyboard-response","45","78819","0.0-6.0-1.20","","1939","","trustrating_stim/white_mw071.bmp","4","","","","","","","","","","",""
"","","","ratingFB","","60d2d061fd054556769ca306","bdp_trlrn","Sun Mar 12 2023 23:50:45 GMT-0400 (Eastern Daylight Time)","580486","Trustworthy,Untrustworthy","image-keyboard-response","46","79024","0.0-6.0-2.20","","null","","trustrating_stim/white_mw071.bmp","null","","","","","","","","","","",""
"","","","rating","","60d2d061fd054556769ca306","bdp_trlrn","Sun Mar 12 2023 23:50:45 GMT-0400 (Eastern Daylight Time)","580486","Trustworthy,Untrustworthy","image-keyboard-response","47","81244","0.0-6.0-1.21","","2116","","trustrating_stim/white_mw046.bmp","5","","","","","","","","","","",""
"","","","ratingFB","","60d2d061fd054556769ca306","bdp_trlrn","Sun Mar 12 2023 23:50:45 GMT-0400 (Eastern Daylight Time)","580486","Trustworthy,Untrustworthy","image-keyboard-response","48","81446","0.0-6.0-2.21","","null","","trustrating_stim/white_mw046.bmp","null","","","","","","","","","","",""
"","","","rating","","60d2d061fd054556769ca306","bdp_trlrn","Sun Mar 12 2023 23:50:45 GMT-0400 (Eastern Daylight Time)","580486","Trustworthy,Untrustworthy","image-keyboard-response","49","83090","0.0-6.0-1.22","","1527","","trustrating_stim/white_00223_940128_fb_edt.bmp","5","","","","","","","","","","",""
"","","","ratingFB","","60d2d061fd054556769ca306","bdp_trlrn","Sun Mar 12 2023 23:50:45 GMT-0400 (Eastern Daylight Time)","580486","Trustworthy,Untrustworthy","image-keyboard-response","50","83315","0.0-6.0-2.22","","null","","trustrating_stim/white_00223_940128_fb_edt.bmp","null","","","","","","","","","","",""
"","","","rating","","60d2d061fd054556769ca306","bdp_trlrn","Sun Mar 12 2023 23:50:45 GMT-0400 (Eastern Daylight Time)","580486","Trustworthy,Untrustworthy","image-keyboard-response","51","84648","0.0-6.0-1.23","","1217","","trustrating_stim/white_00299_940422_fa_edt.bmp","6","","","","","","","","","","",""
"","","","ratingFB","","60d2d061fd054556769ca306","bdp_trlrn","Sun Mar 12 2023 23:50:45 GMT-0400 (Eastern Daylight Time)","580486","Trustworthy,Untrustworthy","image-keyboard-response","52","84849","0.0-6.0-2.23","","null","","trustrating_stim/white_00299_940422_fa_edt.bmp","null","","","","","","","","","","",""
"","","","rating","","60d2d061fd054556769ca306","bdp_trlrn","Sun Mar 12 2023 23:50:45 GMT-0400 (Eastern Daylight Time)","580486","Trustworthy,Untrustworthy","image-keyboard-response","53","85854","0.0-6.0-1.24","","890","","trustrating_stim/white_00785_941205_fb_edt.bmp","2","","","","","","","","","","",""
"","","","ratingFB","","60d2d061fd054556769ca306","bdp_trlrn","Sun Mar 12 2023 23:50:45 GMT-0400 (Eastern Daylight Time)","580486","Trustworthy,Untrustworthy","image-keyboard-response","54","86058","0.0-6.0-2.24","","null","","trustrating_stim/white_00785_941205_fb_edt.bmp","null","","","","","","","","","","",""
"","","","rating","","60d2d061fd054556769ca306","bdp_trlrn","Sun Mar 12 2023 23:50:45 GMT-0400 (Eastern Daylight Time)","580486","Trustworthy,Untrustworthy","image-keyboard-response","55","87894","0.0-6.0-1.25","","1730","","trustrating_stim/white_00519_940519_fb_edt.bmp","6","","","","","","","","","","",""
"","","","ratingFB","","60d2d061fd054556769ca306","bdp_trlrn","Sun Mar 12 2023 23:50:45 GMT-0400 (Eastern Daylight Time)","580486","Trustworthy,Untrustworthy","image-keyboard-response","56","88110","0.0-6.0-2.25","","null","","trustrating_stim/white_00519_940519_fb_edt.bmp","null","","","","","","","","","","",""
"","","","rating","","60d2d061fd054556769ca306","bdp_trlrn","Sun Mar 12 2023 23:50:45 GMT-0400 (Eastern Daylight Time)","580486","Trustworthy,Untrustworthy","image-keyboard-response","57","89815","0.0-6.0-1.26","","1601","","trustrating_stim/white_00129_931230_fb_edt.bmp","6","","","","","","","","","","",""
"","","","ratingFB","","60d2d061fd054556769ca306","bdp_trlrn","Sun Mar 12 2023 23:50:45 GMT-0400 (Eastern Daylight Time)","580486","Trustworthy,Untrustworthy","image-keyboard-response","58","90031","0.0-6.0-2.26","","null","","trustrating_stim/white_00129_931230_fb_edt.bmp","null","","","","","","","","","","",""
"","","","rating","","60d2d061fd054556769ca306","bdp_trlrn","Sun Mar 12 2023 23:50:45 GMT-0400 (Eastern Daylight Time)","580486","Trustworthy,Untrustworthy","image-keyboard-response","59","91245","0.0-6.0-1.27","","1097","","trustrating_stim/white_00807_941205_fb_edt.bmp","3","","","","","","","","","","",""
"","","","ratingFB","","60d2d061fd054556769ca306","bdp_trlrn","Sun Mar 12 2023 23:50:45 GMT-0400 (Eastern Daylight Time)","580486","Trustworthy,Untrustworthy","image-keyboard-response","60","91457","0.0-6.0-2.27","","null","","trustrating_stim/white_00807_941205_fb_edt.bmp","null","","","","","","","","","","",""
"","","","rating","","60d2d061fd054556769ca306","bdp_trlrn","Sun Mar 12 2023 23:50:45 GMT-0400 (Eastern Daylight Time)","580486","Trustworthy,Untrustworthy","image-keyboard-response","61","94102","0.0-6.0-1.28","","2537","","trustrating_stim/white_mw063.bmp","4","","","","","","","","","","",""
"","","","ratingFB","","60d2d061fd054556769ca306","bdp_trlrn","Sun Mar 12 2023 23:50:45 GMT-0400 (Eastern Daylight Time)","580486","Trustworthy,Untrustworthy","image-keyboard-response","62","94313","0.0-6.0-2.28","","null","","trustrating_stim/white_mw063.bmp","null","","","","","","","","","","",""
"","","","rating","","60d2d061fd054556769ca306","bdp_trlrn","Sun Mar 12 2023 23:50:45 GMT-0400 (Eastern Daylight Time)","580486","Trustworthy,Untrustworthy","image-keyboard-response","63","96650","0.0-6.0-1.29","","2220","","trustrating_stim/white_mw066.bmp","5","","","","","","","","","","",""
"","","","ratingFB","","60d2d061fd054556769ca306","bdp_trlrn","Sun Mar 12 2023 23:50:45 GMT-0400 (Eastern Daylight Time)","580486","Trustworthy,Untrustworthy","image-keyboard-response","64","96856","0.0-6.0-2.29","","null","","trustrating_stim/white_mw066.bmp","null","","","","","","","","","","",""
"","","","rating","","60d2d061fd054556769ca306","bdp_trlrn","Sun Mar 12 2023 23:50:45 GMT-0400 (Eastern Daylight Time)","580486","Trustworthy,Untrustworthy","image-keyboard-response","65","98583","0.0-6.0-1.30","","1620","","trustrating_stim/white_mw099.bmp","4","","","","","","","","","","",""
"","","","ratingFB","","60d2d061fd054556769ca306","bdp_trlrn","Sun Mar 12 2023 23:50:45 GMT-0400 (Eastern Daylight Time)","580486","Trustworthy,Untrustworthy","image-keyboard-response","66","98790","0.0-6.0-2.30","","null","","trustrating_stim/white_mw099.bmp","null","","","","","","","","","","",""
"","","","rating","","60d2d061fd054556769ca306","bdp_trlrn","Sun Mar 12 2023 23:50:45 GMT-0400 (Eastern Daylight Time)","580486","Trustworthy,Untrustworthy","image-keyboard-response","67","100204","0.0-6.0-1.31","","1305","","trustrating_stim/white_mw063.bmp","3","","","","","","","","","","",""
"","","","ratingFB","","60d2d061fd054556769ca306","bdp_trlrn","Sun Mar 12 2023 23:50:45 GMT-0400 (Eastern Daylight Time)","580486","Trustworthy,Untrustworthy","image-keyboard-response","68","100406","0.0-6.0-2.31","","null","","trustrating_stim/white_mw063.bmp","null","","","","","","","","","","",""
"","","","rating","","60d2d061fd054556769ca306","bdp_trlrn","Sun Mar 12 2023 23:50:45 GMT-0400 (Eastern Daylight Time)","580486","Trustworthy,Untrustworthy","image-keyboard-response","69","101457","0.0-6.0-1.32","","942","","trustrating_stim/white_mw060.bmp","3","","","","","","","","","","",""
"","","","ratingFB","","60d2d061fd054556769ca306","bdp_trlrn","Sun Mar 12 2023 23:50:45 GMT-0400 (Eastern Daylight Time)","580486","Trustworthy,Untrustworthy","image-keyboard-response","70","101666","0.0-6.0-2.32","","null","","trustrating_stim/white_mw060.bmp","null","","","","","","","","","","",""
"","","","rating","","60d2d061fd054556769ca306","bdp_trlrn","Sun Mar 12 2023 23:50:45 GMT-0400 (Eastern Daylight Time)","580486","Trustworthy,Untrustworthy","image-keyboard-response","71","104091","0.0-6.0-1.33","","2311","","trustrating_stim/white_mw033.bmp","5","","","","","","","","","","",""
"","","","ratingFB","","60d2d061fd054556769ca306","bdp_trlrn","Sun Mar 12 2023 23:50:45 GMT-0400 (Eastern Daylight Time)","580486","Trustworthy,Untrustworthy","image-keyboard-response","72","104307","0.0-6.0-2.33","","null","","trustrating_stim/white_mw033.bmp","null","","","","","","","","","","",""
"","","","rating","","60d2d061fd054556769ca306","bdp_trlrn","Sun Mar 12 2023 23:50:45 GMT-0400 (Eastern Daylight Time)","580486","Trustworthy,Untrustworthy","image-keyboard-response","73","105568","0.0-6.0-1.34","","1156","","trustrating_stim/white_mw049.bmp","6","","","","","","","","","","",""
"","","","ratingFB","","60d2d061fd054556769ca306","bdp_trlrn","Sun Mar 12 2023 23:50:45 GMT-0400 (Eastern Daylight Time)","580486","Trustworthy,Untrustworthy","image-keyboard-response","74","105784","0.0-6.0-2.34","","null","","trustrating_stim/white_mw049.bmp","null","","","","","","","","","","",""
"","","","rating","","60d2d061fd054556769ca306","bdp_trlrn","Sun Mar 12 2023 23:50:45 GMT-0400 (Eastern Daylight Time)","580486","Trustworthy,Untrustworthy","image-keyboard-response","75","107132","0.0-6.0-1.35","","1244","","trustrating_stim/white_mw089.bmp","3","","","","","","","","","","",""
"","","","ratingFB","","60d2d061fd054556769ca306","bdp_trlrn","Sun Mar 12 2023 23:50:45 GMT-0400 (Eastern Daylight Time)","580486","Trustworthy,Untrustworthy","image-keyboard-response","76","107345","0.0-6.0-2.35","","null","","trustrating_stim/white_mw089.bmp","null","","","","","","","","","","",""
"","","","rating","","60d2d061fd054556769ca306","bdp_trlrn","Sun Mar 12 2023 23:50:45 GMT-0400 (Eastern Daylight Time)","580486","Trustworthy,Untrustworthy","image-keyboard-response","77","108662","0.0-6.0-1.36","","1201","","trustrating_stim/white_00785_941205_fb_edt.bmp","2","","","","","","","","","","",""
"","","","ratingFB","","60d2d061fd054556769ca306","bdp_trlrn","Sun Mar 12 2023 23:50:45 GMT-0400 (Eastern Daylight Time)","580486","Trustworthy,Untrustworthy","image-keyboard-response","78","108864","0.0-6.0-2.36","","null","","trustrating_stim/white_00785_941205_fb_edt.bmp","null","","","","","","","","","","",""
"","","","rating","","60d2d061fd054556769ca306","bdp_trlrn","Sun Mar 12 2023 23:50:45 GMT-0400 (Eastern Daylight Time)","580486","Trustworthy,Untrustworthy","image-keyboard-response","79","109987","0.0-6.0-1.37","","1005","","trustrating_stim/white_00898_960530_fa_edt.bmp","2","","","","","","","","","","",""
"","","","ratingFB","","60d2d061fd054556769ca306","bdp_trlrn","Sun Mar 12 2023 23:50:45 GMT-0400 (Eastern Daylight Time)","580486","Trustworthy,Untrustworthy","image-keyboard-response","80","110197","0.0-6.0-2.37","","null","","trustrating_stim/white_00898_960530_fa_edt.bmp","null","","","","","","","","","","",""
"","","","rating","","60d2d061fd054556769ca306","bdp_trlrn","Sun Mar 12 2023 23:50:45 GMT-0400 (Eastern Daylight Time)","580486","Trustworthy,Untrustworthy","image-keyboard-response","81","111624","0.0-6.0-1.38","","1311","","trustrating_stim/white_00129_931230_fb_edt.bmp","6","","","","","","","","","","",""
"","","","ratingFB","","60d2d061fd054556769ca306","bdp_trlrn","Sun Mar 12 2023 23:50:45 GMT-0400 (Eastern Daylight Time)","580486","Trustworthy,Untrustworthy","image-keyboard-response","82","111841","0.0-6.0-2.38","","null","","trustrating_stim/white_00129_931230_fb_edt.bmp","null","","","","","","","","","","",""
"","","","rating","","60d2d061fd054556769ca306","bdp_trlrn","Sun Mar 12 2023 23:50:45 GMT-0400 (Eastern Daylight Time)","580486","Trustworthy,Untrustworthy","image-keyboard-response","83","113096","0.0-6.0-1.39","","1149","","trustrating_stim/white_00519_940519_fb_edt.bmp","6","","","","","","","","","","",""
"","","","ratingFB","","60d2d061fd054556769ca306","bdp_trlrn","Sun Mar 12 2023 23:50:45 GMT-0400 (Eastern Daylight Time)","580486","Trustworthy,Untrustworthy","image-keyboard-response","84","113300","0.0-6.0-2.39","","null","","trustrating_stim/white_00519_940519_fb_edt.bmp","null","","","","","","","","","","",""
"","","","rating","","60d2d061fd054556769ca306","bdp_trlrn","Sun Mar 12 2023 23:50:45 GMT-0400 (Eastern Daylight Time)","580486","Trustworthy,Untrustworthy","image-keyboard-response","85","114517","0.0-6.0-1.40","","1101","","trustrating_stim/white_mw048.bmp","3","","","","","","","","","","",""
"","","","ratingFB","","60d2d061fd054556769ca306","bdp_trlrn","Sun Mar 12 2023 23:50:45 GMT-0400 (Eastern Daylight Time)","580486","Trustworthy,Untrustworthy","image-keyboard-response","86","114725","0.0-6.0-2.40","","null","","trustrating_stim/white_mw048.bmp","null","","","","","","","","","","",""
"","","","rating","","60d2d061fd054556769ca306","bdp_trlrn","Sun Mar 12 2023 23:50:45 GMT-0400 (Eastern Daylight Time)","580486","Trustworthy,Untrustworthy","image-keyboard-response","87","115919","0.0-6.0-1.41","","1087","","trustrating_stim/white_00761_941201_fb_edt.bmp","4","","","","","","","","","","",""
"","","","ratingFB","","60d2d061fd054556769ca306","bdp_trlrn","Sun Mar 12 2023 23:50:45 GMT-0400 (Eastern Daylight Time)","580486","Trustworthy,Untrustworthy","image-keyboard-response","88","116126","0.0-6.0-2.41","","null","","trustrating_stim/white_00761_941201_fb_edt.bmp","null","","","","","","","","","","",""
"","","","rating","","60d2d061fd054556769ca306","bdp_trlrn","Sun Mar 12 2023 23:50:45 GMT-0400 (Eastern Daylight Time)","580486","Trustworthy,Untrustworthy","image-keyboard-response","89","117795","0.0-6.0-1.42","","1561","","trustrating_stim/white_mw084.bmp","6","","","","","","","","","","",""
"","","","ratingFB","","60d2d061fd054556769ca306","bdp_trlrn","Sun Mar 12 2023 23:50:45 GMT-0400 (Eastern Daylight Time)","580486","Trustworthy,Untrustworthy","image-keyboard-response","90","118001","0.0-6.0-2.42","","null","","trustrating_stim/white_mw084.bmp","null","","","","","","","","","","",""
"","","","rating","","60d2d061fd054556769ca306","bdp_trlrn","Sun Mar 12 2023 23:50:45 GMT-0400 (Eastern Daylight Time)","580486","Trustworthy,Untrustworthy","image-keyboard-response","91","120083","0.0-6.0-1.43","","1968","","trustrating_stim/white_mw056.bmp","4","","","","","","","","","","",""
"","","","ratingFB","","60d2d061fd054556769ca306","bdp_trlrn","Sun Mar 12 2023 23:50:45 GMT-0400 (Eastern Daylight Time)","580486","Trustworthy,Untrustworthy","image-keyboard-response","92","120296","0.0-6.0-2.43","","null","","trustrating_stim/white_mw056.bmp","null","","","","","","","","","","",""
"","","","rating","","60d2d061fd054556769ca306","bdp_trlrn","Sun Mar 12 2023 23:50:45 GMT-0400 (Eastern Daylight Time)","580486","Trustworthy,Untrustworthy","image-keyboard-response","93","121729","0.0-6.0-1.44","","1316","","trustrating_stim/white_mw097.bmp","3","","","","","","","","","","",""
"","","","ratingFB","","60d2d061fd054556769ca306","bdp_trlrn","Sun Mar 12 2023 23:50:45 GMT-0400 (Eastern Daylight Time)","580486","Trustworthy,Untrustworthy","image-keyboard-response","94","121940","0.0-6.0-2.44","","null","","trustrating_stim/white_mw097.bmp","null","","","","","","","","","","",""
"","","","rating","","60d2d061fd054556769ca306","bdp_trlrn","Sun Mar 12 2023 23:50:45 GMT-0400 (Eastern Daylight Time)","580486","Trustworthy,Untrustworthy","image-keyboard-response","95","123458","0.0-6.0-1.45","","1410","","trustrating_stim/white_mw053.bmp","6","","","","","","","","","","",""
"","","","ratingFB","","60d2d061fd054556769ca306","bdp_trlrn","Sun Mar 12 2023 23:50:45 GMT-0400 (Eastern Daylight Time)","580486","Trustworthy,Untrustworthy","image-keyboard-response","96","123663","0.0-6.0-2.45","","null","","trustrating_stim/white_mw053.bmp","null","","","","","","","","","","",""
"","","","rating","","60d2d061fd054556769ca306","bdp_trlrn","Sun Mar 12 2023 23:50:45 GMT-0400 (Eastern Daylight Time)","580486","Trustworthy,Untrustworthy","image-keyboard-response","97","124666","0.0-6.0-1.46","","884","","trustrating_stim/white_00223_940128_fb_edt.bmp","3","","","","","","","","","","",""
"","","","ratingFB","","60d2d061fd054556769ca306","bdp_trlrn","Sun Mar 12 2023 23:50:45 GMT-0400 (Eastern Daylight Time)","580486","Trustworthy,Untrustworthy","image-keyboard-response","98","124874","0.0-6.0-2.46","","null","","trustrating_stim/white_00223_940128_fb_edt.bmp","null","","","","","","","","","","",""
"","","","rating","","60d2d061fd054556769ca306","bdp_trlrn","Sun Mar 12 2023 23:50:45 GMT-0400 (Eastern Daylight Time)","580486","Trustworthy,Untrustworthy","image-keyboard-response","99","126646","0.0-6.0-1.47","","1664","","trustrating_stim/white_00120_931230_fa_edt.bmp","7","","","","","","","","","","",""
"","","","ratingFB","","60d2d061fd054556769ca306","bdp_trlrn","Sun Mar 12 2023 23:50:45 GMT-0400 (Eastern Daylight Time)","580486","Trustworthy,Untrustworthy","image-keyboard-response","100","126861","0.0-6.0-2.47","","null","","trustrating_stim/white_00120_931230_fa_edt.bmp","null","","","","","","","","","","",""
"","","","rating","","60d2d061fd054556769ca306","bdp_trlrn","Sun Mar 12 2023 23:50:45 GMT-0400 (Eastern Daylight Time)","580486","Trustworthy,Untrustworthy","image-keyboard-response","101","127988","0.0-6.0-1.48","","1012","","trustrating_stim/white_mw035.bmp","3","","","","","","","","","","",""
"","","","ratingFB","","60d2d061fd054556769ca306","bdp_trlrn","Sun Mar 12 2023 23:50:45 GMT-0400 (Eastern Daylight Time)","580486","Trustworthy,Untrustworthy","image-keyboard-response","102","128193","0.0-6.0-2.48","","null","","trustrating_stim/white_mw035.bmp","null","","","","","","","","","","",""
"","","","rating","","60d2d061fd054556769ca306","bdp_trlrn","Sun Mar 12 2023 23:50:45 GMT-0400 (Eastern Daylight Time)","580486","Trustworthy,Untrustworthy","image-keyboard-response","103","129988","0.0-6.0-1.49","","1687","","trustrating_stim/white_00659_941121_fa_edt.bmp","5","","","","","","","","","","",""
"","","","ratingFB","","60d2d061fd054556769ca306","bdp_trlrn","Sun Mar 12 2023 23:50:45 GMT-0400 (Eastern Daylight Time)","580486","Trustworthy,Untrustworthy","image-keyboard-response","104","130194","0.0-6.0-2.49","","null","","trustrating_stim/white_00659_941121_fa_edt.bmp","null","","","","","","","","","","",""
"","","","rating","","60d2d061fd054556769ca306","bdp_trlrn","Sun Mar 12 2023 23:50:45 GMT-0400 (Eastern Daylight Time)","580486","Trustworthy,Untrustworthy","image-keyboard-response","105","131572","0.0-6.0-1.50","","1274","","trustrating_stim/white_mw066.bmp","6","","","","","","","","","","",""
"","","","ratingFB","","60d2d061fd054556769ca306","bdp_trlrn","Sun Mar 12 2023 23:50:45 GMT-0400 (Eastern Daylight Time)","580486","Trustworthy,Untrustworthy","image-keyboard-response","106","131777","0.0-6.0-2.50","","null","","trustrating_stim/white_mw066.bmp","null","","","","","","","","","","",""
"","","","rating","","60d2d061fd054556769ca306","bdp_trlrn","Sun Mar 12 2023 23:50:45 GMT-0400 (Eastern Daylight Time)","580486","Trustworthy,Untrustworthy","image-keyboard-response","107","132736","0.0-6.0-1.51","","851","","trustrating_stim/white_mw071.bmp","3","","","","","","","","","","",""
"","","","ratingFB","","60d2d061fd054556769ca306","bdp_trlrn","Sun Mar 12 2023 23:50:45 GMT-0400 (Eastern Daylight Time)","580486","Trustworthy,Untrustworthy","image-keyboard-response","108","132939","0.0-6.0-2.51","","null","","trustrating_stim/white_mw071.bmp","null","","","","","","","","","","",""
"","","","rating","","60d2d061fd054556769ca306","bdp_trlrn","Sun Mar 12 2023 23:50:45 GMT-0400 (Eastern Daylight Time)","580486","Trustworthy,Untrustworthy","image-keyboard-response","109","133883","0.0-6.0-1.52","","832","","trustrating_stim/white_mw046.bmp","4","","","","","","","","","","",""
"","","","ratingFB","","60d2d061fd054556769ca306","bdp_trlrn","Sun Mar 12 2023 23:50:45 GMT-0400 (Eastern Daylight Time)","580486","Trustworthy,Untrustworthy","image-keyboard-response","110","134092","0.0-6.0-2.52","","null","","trustrating_stim/white_mw046.bmp","null","","","","","","","","","","",""
"","","","rating","","60d2d061fd054556769ca306","bdp_trlrn","Sun Mar 12 2023 23:50:45 GMT-0400 (Eastern Daylight Time)","580486","Trustworthy,Untrustworthy","image-keyboard-response","111","135689","0.0-6.0-1.53","","1489","","trustrating_stim/white_00340_940422_fa_edt.bmp","2","","","","","","","","","","",""
"","","","ratingFB","","60d2d061fd054556769ca306","bdp_trlrn","Sun Mar 12 2023 23:50:45 GMT-0400 (Eastern Daylight Time)","580486","Trustworthy,Untrustworthy","image-keyboard-response","112","135895","0.0-6.0-2.53","","null","","trustrating_stim/white_00340_940422_fa_edt.bmp","null","","","","","","","","","","",""
"","","","rating","","60d2d061fd054556769ca306","bdp_trlrn","Sun Mar 12 2023 23:50:45 GMT-0400 (Eastern Daylight Time)","580486","Trustworthy,Untrustworthy","image-keyboard-response","113","138228","0.0-6.0-1.54","","2229","","trustrating_stim/white_00577_940928_fa_edt.bmp","3","","","","","","","","","","",""
"","","","ratingFB","","60d2d061fd054556769ca306","bdp_trlrn","Sun Mar 12 2023 23:50:45 GMT-0400 (Eastern Daylight Time)","580486","Trustworthy,Untrustworthy","image-keyboard-response","114","138439","0.0-6.0-2.54","","null","","trustrating_stim/white_00577_940928_fa_edt.bmp","null","","","","","","","","","","",""
"","","","rating","","60d2d061fd054556769ca306","bdp_trlrn","Sun Mar 12 2023 23:50:45 GMT-0400 (Eastern Daylight Time)","580486","Trustworthy,Untrustworthy","image-keyboard-response","115","140065","0.0-6.0-1.55","","1517","","trustrating_stim/white_00299_940422_fa_edt.bmp","7","","","","","","","","","","",""
"","","","ratingFB","","60d2d061fd054556769ca306","bdp_trlrn","Sun Mar 12 2023 23:50:45 GMT-0400 (Eastern Daylight Time)","580486","Trustworthy,Untrustworthy","image-keyboard-response","116","140276","0.0-6.0-2.55","","null","","trustrating_stim/white_00299_940422_fa_edt.bmp","null","","","","","","","","","","",""
"","","","rating","","60d2d061fd054556769ca306","bdp_trlrn","Sun Mar 12 2023 23:50:45 GMT-0400 (Eastern Daylight Time)","580486","Trustworthy,Untrustworthy","image-keyboard-response","117","142286","0.0-6.0-1.56","","1899","","trustrating_stim/white_00807_941205_fb_edt.bmp","6","","","","","","","","","","",""
"","","","ratingFB","","60d2d061fd054556769ca306","bdp_trlrn","Sun Mar 12 2023 23:50:45 GMT-0400 (Eastern Daylight Time)","580486","Trustworthy,Untrustworthy","image-keyboard-response","118","142497","0.0-6.0-2.56","","null","","trustrating_stim/white_00807_941205_fb_edt.bmp","null","","","","","","","","","","",""
"","","","rating","","60d2d061fd054556769ca306","bdp_trlrn","Sun Mar 12 2023 23:50:45 GMT-0400 (Eastern Daylight Time)","580486","Trustworthy,Untrustworthy","image-keyboard-response","119","143696","0.0-6.0-1.57","","1081","","trustrating_stim/white_00602_940928_fb_edt.bmp","7","","","","","","","","","","",""
"","","","ratingFB","","60d2d061fd054556769ca306","bdp_trlrn","Sun Mar 12 2023 23:50:45 GMT-0400 (Eastern Daylight Time)","580486","Trustworthy,Untrustworthy","image-keyboard-response","120","143911","0.0-6.0-2.57","","null","","trustrating_stim/white_00602_940928_fb_edt.bmp","null","","","","","","","","","","",""
"","","","rating","","60d2d061fd054556769ca306","bdp_trlrn","Sun Mar 12 2023 23:50:45 GMT-0400 (Eastern Daylight Time)","580486","Trustworthy,Untrustworthy","image-keyboard-response","121","145815","0.0-6.0-1.58","","1798","","trustrating_stim/white_00757_941201_fa_edt.bmp","4","","","","","","","","","","",""
"","","","ratingFB","","60d2d061fd054556769ca306","bdp_trlrn","Sun Mar 12 2023 23:50:45 GMT-0400 (Eastern Daylight Time)","580486","Trustworthy,Untrustworthy","image-keyboard-response","122","146028","0.0-6.0-2.58","","null","","trustrating_stim/white_00757_941201_fa_edt.bmp","null","","","","","","","","","","",""
"","","","rating","","60d2d061fd054556769ca306","bdp_trlrn","Sun Mar 12 2023 23:50:45 GMT-0400 (Eastern Daylight Time)","580486","Trustworthy,Untrustworthy","image-keyboard-response","123","147789","0.0-6.0-1.59","","1646","","trustrating_stim/white_00109_931230_fa_edt.bmp","7","","","","","","","","","","",""
"","","","ratingFB","","60d2d061fd054556769ca306","bdp_trlrn","Sun Mar 12 2023 23:50:45 GMT-0400 (Eastern Daylight Time)","580486","Trustworthy,Untrustworthy","image-keyboard-response","124","148000","0.0-6.0-2.59","","null","","trustrating_stim/white_00109_931230_fa_edt.bmp","null","","","","","","","","","","",""
"","","","","","60d2d061fd054556769ca306","bdp_trlrn","Sun Mar 12 2023 23:50:45 GMT-0400 (Eastern Daylight Time)","580486","Trustworthy,Untrustworthy","instructions","125","149520","0.0-7.0","[{""page_index"":0,""viewing_time"":1402}]","1403","","","","","","","","","","","","","",""
"","","","","","60d2d061fd054556769ca306","bdp_trlrn","Sun Mar 12 2023 23:50:45 GMT-0400 (Eastern Daylight Time)","580486","Trustworthy,Untrustworthy","instructions","126","245232","0.0-8.0","[{""page_index"":0,""viewing_time"":5344},{""page_index"":1,""viewing_time"":33342},{""page_index"":2,""viewing_time"":4471},{""page_index"":3,""viewing_time"":12236},{""page_index"":4,""viewing_time"":12999},{""page_index"":5,""viewing_time"":10997},{""page_index"":6,""viewing_time"":15040},{""page_index"":7,""viewing_time"":1172}]","95601","","","","","","","","","","","","","",""
"","","","","","60d2d061fd054556769ca306","bdp_trlrn","Sun Mar 12 2023 23:50:45 GMT-0400 (Eastern Daylight Time)","580486","Trustworthy,Untrustworthy","html-keyboard-response","127","253236","0.0-9.0","","8002","","<div class='header' style='text-align:left; position: absolute; top: 5%; left: 5%;'><small>Task 2 of 5</small></div><div class='instruxDiv'><p><strong>1) What is the minimum number of points you can choose to send to your partner?</strong></p><p>a) 0</p><p>b) 1</p><p>c) 5</p>","A","","","","","","","","","","",""
"","","","","","60d2d061fd054556769ca306","bdp_trlrn","Sun Mar 12 2023 23:50:45 GMT-0400 (Eastern Daylight Time)","580486","Trustworthy,Untrustworthy","html-keyboard-response","128","257261","0.0-10.0","","3913","","<div class='header' style='text-align:left; position: absolute; top: 5%; left: 5%;'><small>Task 2 of 5</small></div><div class='instruxDiv'><p><strong>1) What is the minimum number of points you can choose to send to your partner?</strong></p><p style='color:#FF0000'>a) 0</p><p>b) 1</p><p>c) 5</p><h3 style='color:#FF0000'>Incorrect!</h3><h3 class='center-content'>The correct response is b).</h3><h3 class='center-content'>The minimum number of points you can choose to send to your partner is 1 point.</h3><p><em>Press SPACEBAR to continue</em></p></div>"," ","","","","","","","","","","",""
"","","","","","60d2d061fd054556769ca306","bdp_trlrn","Sun Mar 12 2023 23:50:45 GMT-0400 (Eastern Daylight Time)","580486","Trustworthy,Untrustworthy","html-keyboard-response","129","261123","0.0-11.0","","3761","","<div class='header' style='text-align:left; position: absolute; top: 5%; left: 5%;'><small>Task 2 of 5</small></div><div class='instruxDiv'><p><strong>2) What is the maximum number of points you can choose to send to your partner?</strong></p><p>a) 8</p><p>b) 5</p><p>c) 3</p>","B","","","","","","","","","","",""
"","","","","","60d2d061fd054556769ca306","bdp_trlrn","Sun Mar 12 2023 23:50:45 GMT-0400 (Eastern Daylight Time)","580486","Trustworthy,Untrustworthy","html-keyboard-response","130","262141","0.0-12.0","","912","","<div class='header' style='text-align:left; position: absolute; top: 5%; left: 5%;'><small>Task 2 of 5</small></div><div class='instruxDiv'><p><strong>2) What is the maximum number of points you can choose to send to your partner?</strong></p><p>a) 8</p><p style='color:#00FF00'>b) 5</p><p>c) 3</p><h3 style='color:#00FF00'>Correct!</h3><h3 class='center-content'>The correct response is b).</h3><h3 class='center-content'>The maximum number of points you can choose to send to your partner is 5 points.</h3><p><em>Press SPACEBAR to continue</em></p></div>"," ","","","","","","","","","","",""
"","","","","","60d2d061fd054556769ca306","bdp_trlrn","Sun Mar 12 2023 23:50:45 GMT-0400 (Eastern Daylight Time)","580486","Trustworthy,Untrustworthy","html-keyboard-response","131","268878","0.0-13.0","","6633","","<div class='header' style='text-align:left; position: absolute; top: 5%; left: 5%;'><small>Task 2 of 5</small></div><div class='instruxDiv'><p><strong>3) What happens to the amount of points you send to your partner?</strong></p><p>a) Nothing</p><p>b) It doubles</p><p>c) It quadruples</p>","C","","","","","","","","","","",""
"","","","","","60d2d061fd054556769ca306","bdp_trlrn","Sun Mar 12 2023 23:50:45 GMT-0400 (Eastern Daylight Time)","580486","Trustworthy,Untrustworthy","html-keyboard-response","132","270177","0.0-14.0","","1196","","<div class='header' style='text-align:left; position: absolute; top: 5%; left: 5%;'><small>Task 2 of 5</small></div><div class='instruxDiv'><p><strong>3) What happens to the amount of points you send to your partner?</strong></p><p>a) Nothing</p><p>b) It doubles</p><p style='color:#00FF00'>c) It quadruples</p><h3 style='color:#00FF00'>Correct!</h3><h3 class='center-content'>The correct response is c).</h3><h3 class='center-content'>The amount of points you send to your partner quadruples.</h3><p><em>Press SPACEBAR to continue</em></p></div>"," ","","","","","","","","","","",""
"","","","","","60d2d061fd054556769ca306","bdp_trlrn","Sun Mar 12 2023 23:50:45 GMT-0400 (Eastern Daylight Time)","580486","Trustworthy,Untrustworthy","html-keyboard-response","133","279349","0.0-15.0","","9069","","<div class='header' style='text-align:left; position: absolute; top: 5%; left: 5%;'><small>Task 2 of 5</small></div><div class='instruxDiv'><p><strong>4) If you decided to share 4 out of 5 points with your partner, and they decided to share half of the amount they received with you, how many points would you receive back from them on this round?</strong></p><p>a) 16</p><p>b) 0</p><p>c) 8</p>","C","","","","","","","","","","",""
"","","","","","60d2d061fd054556769ca306","bdp_trlrn","Sun Mar 12 2023 23:50:45 GMT-0400 (Eastern Daylight Time)","580486","Trustworthy,Untrustworthy","html-keyboard-response","134","280883","0.0-16.0","","1414","","<div class='header' style='text-align:left; position: absolute; top: 5%; left: 5%;'><small>Task 2 of 5</small></div><div class='instruxDiv'><p><strong>4) If you decided to share 4 out of 5 points with your partner, and they decided to share half of the amount they received with you, how many points would you receive back from them on this round?</strong></p><p>a) 16</p><p>b) 0</p><p style='color:#00FF00'>c) 8</p><h3 style='color:#00FF00'>Correct!</h3><h3 class='center-content'>The correct response is c).</h3><h3 class='center-content'>If you shared 4 out of 5 points with your partner and they decided to share half of the amount they received with you, you would receive 8 points back (i.e. (4 x 4)/2 = 8).</h3><p><em>Press SPACEBAR to continue</em></p></div>"," ","","","","","","","","","","",""
"","","","","","60d2d061fd054556769ca306","bdp_trlrn","Sun Mar 12 2023 23:50:45 GMT-0400 (Eastern Daylight Time)","580486","Trustworthy,Untrustworthy","html-keyboard-response","135","285989","0.0-17.0","","null","","<div class='header' style='text-align:left; position: absolute; top: 5%; left: 5%;'><small>Task 2 of 5</small></div><div class='instruxDiv'><p>Thank you for completing the quiz<p>These are the actual partners you will be interacting with in the next block:<p><div class='tc' align='center'><img class='introPic' src='trustrating_stim/white_00340_940422_fa_edt.bmp'><br><strong>Ethan</strong></div><div class='bl' align='center'><img class='introPic' src='trustrating_stim/white_00223_940128_fb_edt.bmp'><br><strong>Nathan</strong></div><div class='br' align='center'><img class='introPic' src='trustrating_stim/white_00299_940422_fa_edt.bmp'><br><strong>Michael</strong></div></div><p>Across <strong>66 rounds</strong> you will interact with each partner <strong>22 times</strong> (in random order).<p style='align:center; color:white'><font <em>Press SPACEBAR to continue</em></p>","null","","","","","","","","","","",""
"","","","","","60d2d061fd054556769ca306","bdp_trlrn","Sun Mar 12 2023 23:50:45 GMT-0400 (Eastern Daylight Time)","580486","Trustworthy,Untrustworthy","instructions","136","303062","0.0-18.0","[{""page_index"":0,""viewing_time"":7748},{""page_index"":1,""viewing_time"":9324}]","17073","","","","","","","","","","","","","",""
"","","","decision","","60d2d061fd054556769ca306","bdp_trlrn","Sun Mar 12 2023 23:50:45 GMT-0400 (Eastern Daylight Time)","580486","Trustworthy,Untrustworthy","html-keyboard-response","137","305099","0.0-19.0-1.0","","1919","","<div class='trialDiv'><img src='trustrating_stim/white_00340_940422_fa_edt.bmp'><br><font class='baseline'><strong>Ethan</strong><p>Choose number of points to send.</font><div class='respPicDiv'><img src='img/responseButtonOffersNo0L.png' class='respPic'></div></div>","2","1","Ethan","3","Shared","0.8,0.2","10","0.8","trustrating_stim/white_00340_940422_fa_edt.bmp","2.5","5","1"
"","","","decisionFB","","60d2d061fd054556769ca306","bdp_trlrn","Sun Mar 12 2023 23:50:45 GMT-0400 (Eastern Daylight Time)","580486","Trustworthy,Untrustworthy","html-keyboard-response","138","305364","0.0-19.0-2.0","","null","","<div class='trialDiv'><img src='trustrating_stim/white_00340_940422_fa_edt.bmp'><br><font class='baseline'><strong>Ethan</strong><p>Choose number of points to send.</font><div class='respPicDiv'><img src='img/responseButtonOffersNo0L2.png' class='respPic'></div></div>","null","1","Ethan","3","Shared","0.8,0.2","10","0.8","trustrating_stim/white_00340_940422_fa_edt.bmp","2.5","3","1"
"","","","feedback","","60d2d061fd054556769ca306","bdp_trlrn","Sun Mar 12 2023 23:50:45 GMT-0400 (Eastern Daylight Time)","580486","Trustworthy,Untrustworthy","html-keyboard-response","139","306368","0.0-19.0-3.0","","null","","<div class='trialDiv'><img src='trustrating_stim/white_00340_940422_fa_edt.bmp'><br><font class='baseline'><strong>Ethan</strong><p>Received: <strong>8</strong></font> &nbsp; &nbsp; &nbsp; &nbsp; &nbsp; &nbsp;<font class='posOutcome'>Shared back: <strong>4</strong></font></font><div class='respPicDiv'><img src='img/responseButtonOffersNo0_wht.png' class='respPic'></div></div>","null","1","Ethan","3","Shared","0.8,0.2","10","0.8","trustrating_stim/white_00340_940422_fa_edt.bmp","2.5","7","1"
"","","","decision","","60d2d061fd054556769ca306","bdp_trlrn","Sun Mar 12 2023 23:50:45 GMT-0400 (Eastern Daylight Time)","580486","Trustworthy,Untrustworthy","html-keyboard-response","140","310080","0.0-19.0-1.1","","3710","","<div class='trialDiv'><img src='trustrating_stim/white_00299_940422_fa_edt.bmp'><br><font class='baseline'><strong>Michael</strong><p>Choose number of points to send.</font><div class='respPicDiv'><img src='img/responseButtonOffersNo0L.png' class='respPic'></div></div>","3","1","Michael","11","Kept","0.2,0.65","13","0.2","trustrating_stim/white_00299_940422_fa_edt.bmp","6.5","12","2"
"","","","decisionFB","","60d2d061fd054556769ca306","bdp_trlrn","Sun Mar 12 2023 23:50:45 GMT-0400 (Eastern Daylight Time)","580486","Trustworthy,Untrustworthy","html-keyboard-response","141","310332","0.0-19.0-2.1","","null","","<div class='trialDiv'><img src='trustrating_stim/white_00299_940422_fa_edt.bmp'><br><font class='baseline'><strong>Michael</strong><p>Choose number of points to send.</font><div class='respPicDiv'><img src='img/responseButtonOffersNo0L3.png' class='respPic'></div></div>","null","1","Michael","11","Kept","0.2,0.65","13","0.2","trustrating_stim/white_00299_940422_fa_edt.bmp","6.5","9","2"
"","","","feedback","","60d2d061fd054556769ca306","bdp_trlrn","Sun Mar 12 2023 23:50:45 GMT-0400 (Eastern Daylight Time)","580486","Trustworthy,Untrustworthy","html-keyboard-response","142","311349","0.0-19.0-3.1","","null","","<div class='trialDiv'><img src='trustrating_stim/white_00299_940422_fa_edt.bmp'><br><font class='baseline'><strong>Michael</strong><p>Received: <strong>12</strong></font> &nbsp; &nbsp; &nbsp; &nbsp; &nbsp; &nbsp;<font class='negOutcome'>Shared back: <strong>0</strong></font></font><div class='respPicDiv'><img src='img/responseButtonOffersNo0_wht.png' class='respPic'></div></div>","null","1","Michael","11","Kept","0.2,0.65","13","0.2","trustrating_stim/white_00299_940422_fa_edt.bmp","6.5","9","2"
"","","","decision","","60d2d061fd054556769ca306","bdp_trlrn","Sun Mar 12 2023 23:50:45 GMT-0400 (Eastern Daylight Time)","580486","Trustworthy,Untrustworthy","html-keyboard-response","143","313284","0.0-19.0-1.2","","1934","","<div class='trialDiv'><img src='trustrating_stim/white_00223_940128_fb_edt.bmp'><br><font class='baseline'><strong>Nathan</strong><p>Choose number of points to send.</font><div class='respPicDiv'><img src='img/responseButtonOffersNo0L.png' class='respPic'></div></div>","3","1","Nathan","4","Shared","0.65,0.2","8","0.65","trustrating_stim/white_00223_940128_fb_edt.bmp","4","14","3"
"","","","decisionFB","","60d2d061fd054556769ca306","bdp_trlrn","Sun Mar 12 2023 23:50:45 GMT-0400 (Eastern Daylight Time)","580486","Trustworthy,Untrustworthy","html-keyboard-response","144","313541","0.0-19.0-2.2","","null","","<div class='trialDiv'><img src='trustrating_stim/white_00223_940128_fb_edt.bmp'><br><font class='baseline'><strong>Nathan</strong><p>Choose number of points to send.</font><div class='respPicDiv'><img src='img/responseButtonOffersNo0L3.png' class='respPic'></div></div>","null","1","Nathan","4","Shared","0.65,0.2","8","0.65","trustrating_stim/white_00223_940128_fb_edt.bmp","4","11","3"
"","","","feedback","","60d2d061fd054556769ca306","bdp_trlrn","Sun Mar 12 2023 23:50:45 GMT-0400 (Eastern Daylight Time)","580486","Trustworthy,Untrustworthy","html-keyboard-response","145","314551","0.0-19.0-3.2","","null","","<div class='trialDiv'><img src='trustrating_stim/white_00223_940128_fb_edt.bmp'><br><font class='baseline'><strong>Nathan</strong><p>Received: <strong>12</strong></font> &nbsp; &nbsp; &nbsp; &nbsp; &nbsp; &nbsp;<font class='posOutcome'>Shared back: <strong>6</strong></font></font><div class='respPicDiv'><img src='img/responseButtonOffersNo0_wht.png' class='respPic'></div></div>","null","1","Nathan","4","Shared","0.65,0.2","8","0.65","trustrating_stim/white_00223_940128_fb_edt.bmp","4","17","3"
"","","","decision","","60d2d061fd054556769ca306","bdp_trlrn","Sun Mar 12 2023 23:50:45 GMT-0400 (Eastern Daylight Time)","580486","Trustworthy,Untrustworthy","html-keyboard-response","146","316291","0.0-19.0-1.3","","1739","","<div class='trialDiv'><img src='trustrating_stim/white_00340_940422_fa_edt.bmp'><br><font class='baseline'><strong>Ethan</strong><p>Choose number of points to send.</font><div class='respPicDiv'><img src='img/responseButtonOffersNo0L.png' class='respPic'></div></div>","2","2","Ethan","3","Shared","0.8,0.2","10","0.8","trustrating_stim/white_00340_940422_fa_edt.bmp","2.5","22","4"
"","","","decisionFB","","60d2d061fd054556769ca306","bdp_trlrn","Sun Mar 12 2023 23:50:45 GMT-0400 (Eastern Daylight Time)","580486","Trustworthy,Untrustworthy","html-keyboard-response","147","316544","0.0-19.0-2.3","","null","","<div class='trialDiv'><img src='trustrating_stim/white_00340_940422_fa_edt.bmp'><br><font class='baseline'><strong>Ethan</strong><p>Choose number of points to send.</font><div class='respPicDiv'><img src='img/responseButtonOffersNo0L2.png' class='respPic'></div></div>","null","2","Ethan","3","Shared","0.8,0.2","10","0.8","trustrating_stim/white_00340_940422_fa_edt.bmp","2.5","20","4"
"","","","feedback","","60d2d061fd054556769ca306","bdp_trlrn","Sun Mar 12 2023 23:50:45 GMT-0400 (Eastern Daylight Time)","580486","Trustworthy,Untrustworthy","html-keyboard-response","148","317556","0.0-19.0-3.3","","null","","<div class='trialDiv'><img src='trustrating_stim/white_00340_940422_fa_edt.bmp'><br><font class='baseline'><strong>Ethan</strong><p>Received: <strong>8</strong></font> &nbsp; &nbsp; &nbsp; &nbsp; &nbsp; &nbsp;<font class='posOutcome'>Shared back: <strong>4</strong></font></font><div class='respPicDiv'><img src='img/responseButtonOffersNo0_wht.png' class='respPic'></div></div>","null","2","Ethan","3","Shared","0.8,0.2","10","0.8","trustrating_stim/white_00340_940422_fa_edt.bmp","2.5","24","4"
"","","","decision","","60d2d061fd054556769ca306","bdp_trlrn","Sun Mar 12 2023 23:50:45 GMT-0400 (Eastern Daylight Time)","580486","Trustworthy,Untrustworthy","html-keyboard-response","149","318752","0.0-19.0-1.4","","1195","","<div class='trialDiv'><img src='trustrating_stim/white_00223_940128_fb_edt.bmp'><br><font class='baseline'><strong>Nathan</strong><p>Choose number of points to send.</font><div class='respPicDiv'><img src='img/responseButtonOffersNo0L.png' class='respPic'></div></div>","2","2","Nathan","4","Kept","0.65,0.2","8","0.65","trustrating_stim/white_00223_940128_fb_edt.bmp","4","29","5"
"","","","decisionFB","","60d2d061fd054556769ca306","bdp_trlrn","Sun Mar 12 2023 23:50:45 GMT-0400 (Eastern Daylight Time)","580486","Trustworthy,Untrustworthy","html-keyboard-response","150","319008","0.0-19.0-2.4","","null","","<div class='trialDiv'><img src='trustrating_stim/white_00223_940128_fb_edt.bmp'><br><font class='baseline'><strong>Nathan</strong><p>Choose number of points to send.</font><div class='respPicDiv'><img src='img/responseButtonOffersNo0L2.png' class='respPic'></div></div>","null","2","Nathan","4","Kept","0.65,0.2","8","0.65","trustrating_stim/white_00223_940128_fb_edt.bmp","4","27","5"
"","","","feedback","","60d2d061fd054556769ca306","bdp_trlrn","Sun Mar 12 2023 23:50:45 GMT-0400 (Eastern Daylight Time)","580486","Trustworthy,Untrustworthy","html-keyboard-response","151","320017","0.0-19.0-3.4","","null","","<div class='trialDiv'><img src='trustrating_stim/white_00223_940128_fb_edt.bmp'><br><font class='baseline'><strong>Nathan</strong><p>Received: <strong>8</strong></font> &nbsp; &nbsp; &nbsp; &nbsp; &nbsp; &nbsp;<font class='negOutcome'>Shared back: <strong>0</strong></font></font><div class='respPicDiv'><img src='img/responseButtonOffersNo0_wht.png' class='respPic'></div></div>","null","2","Nathan","4","Kept","0.65,0.2","8","0.65","trustrating_stim/white_00223_940128_fb_edt.bmp","4","27","5"
"","","","decision","","60d2d061fd054556769ca306","bdp_trlrn","Sun Mar 12 2023 23:50:45 GMT-0400 (Eastern Daylight Time)","580486","Trustworthy,Untrustworthy","html-keyboard-response","152","323237","0.0-19.0-1.5","","3219","","<div class='trialDiv'><img src='trustrating_stim/white_00299_940422_fa_edt.bmp'><br><font class='baseline'><strong>Michael</strong><p>Choose number of points to send.</font><div class='respPicDiv'><img src='img/responseButtonOffersNo0L.png' class='respPic'></div></div>","4","2","Michael","11","Kept","0.2,0.65","13","0.2","trustrating_stim/white_00299_940422_fa_edt.bmp","6.5","32","6"
"","","","decisionFB","","60d2d061fd054556769ca306","bdp_trlrn","Sun Mar 12 2023 23:50:45 GMT-0400 (Eastern Daylight Time)","580486","Trustworthy,Untrustworthy","html-keyboard-response","153","323493","0.0-19.0-2.5","","null","","<div class='trialDiv'><img src='trustrating_stim/white_00299_940422_fa_edt.bmp'><br><font class='baseline'><strong>Michael</strong><p>Choose number of points to send.</font><div class='respPicDiv'><img src='img/responseButtonOffersNo0L4.png' class='respPic'></div></div>","null","2","Michael","11","Kept","0.2,0.65","13","0.2","trustrating_stim/white_00299_940422_fa_edt.bmp","6.5","28","6"
"","","","feedback","","60d2d061fd054556769ca306","bdp_trlrn","Sun Mar 12 2023 23:50:45 GMT-0400 (Eastern Daylight Time)","580486","Trustworthy,Untrustworthy","html-keyboard-response","154","324497","0.0-19.0-3.5","","null","","<div class='trialDiv'><img src='trustrating_stim/white_00299_940422_fa_edt.bmp'><br><font class='baseline'><strong>Michael</strong><p>Received: <strong>16</strong></font> &nbsp; &nbsp; &nbsp; &nbsp; &nbsp; &nbsp;<font class='negOutcome'>Shared back: <strong>0</strong></font></font><div class='respPicDiv'><img src='img/responseButtonOffersNo0_wht.png' class='respPic'></div></div>","null","2","Michael","11","Kept","0.2,0.65","13","0.2","trustrating_stim/white_00299_940422_fa_edt.bmp","6.5","28","6"
"","","","decision","","60d2d061fd054556769ca306","bdp_trlrn","Sun Mar 12 2023 23:50:45 GMT-0400 (Eastern Daylight Time)","580486","Trustworthy,Untrustworthy","html-keyboard-response","155","326115","0.0-19.0-1.6","","1617","","<div class='trialDiv'><img src='trustrating_stim/white_00340_940422_fa_edt.bmp'><br><font class='baseline'><strong>Ethan</strong><p>Choose number of points to send.</font><div class='respPicDiv'><img src='img/responseButtonOffersNo0L.png' class='respPic'></div></div>","4","3","Ethan","3","Shared","0.8,0.2","10","0.8","trustrating_stim/white_00340_940422_fa_edt.bmp","2.5","33","7"
"","","","decisionFB","","60d2d061fd054556769ca306","bdp_trlrn","Sun Mar 12 2023 23:50:45 GMT-0400 (Eastern Daylight Time)","580486","Trustworthy,Untrustworthy","html-keyboard-response","156","326380","0.0-19.0-2.6","","null","","<div class='trialDiv'><img src='trustrating_stim/white_00340_940422_fa_edt.bmp'><br><font class='baseline'><strong>Ethan</strong><p>Choose number of points to send.</font><div class='respPicDiv'><img src='img/responseButtonOffersNo0L4.png' class='respPic'></div></div>","null","3","Ethan","3","Shared","0.8,0.2","10","0.8","trustrating_stim/white_00340_940422_fa_edt.bmp","2.5","29","7"
"","","","feedback","","60d2d061fd054556769ca306","bdp_trlrn","Sun Mar 12 2023 23:50:45 GMT-0400 (Eastern Daylight Time)","580486","Trustworthy,Untrustworthy","html-keyboard-response","157","327388","0.0-19.0-3.6","","null","","<div class='trialDiv'><img src='trustrating_stim/white_00340_940422_fa_edt.bmp'><br><font class='baseline'><strong>Ethan</strong><p>Received: <strong>16</strong></font> &nbsp; &nbsp; &nbsp; &nbsp; &nbsp; &nbsp;<font class='posOutcome'>Shared back: <strong>8</strong></font></font><div class='respPicDiv'><img src='img/responseButtonOffersNo0_wht.png' class='respPic'></div></div>","null","3","Ethan","3","Shared","0.8,0.2","10","0.8","trustrating_stim/white_00340_940422_fa_edt.bmp","2.5","37","7"
"","","","decision","","60d2d061fd054556769ca306","bdp_trlrn","Sun Mar 12 2023 23:50:45 GMT-0400 (Eastern Daylight Time)","580486","Trustworthy,Untrustworthy","html-keyboard-response","158","328980","0.0-19.0-1.7","","1590","","<div class='trialDiv'><img src='trustrating_stim/white_00223_940128_fb_edt.bmp'><br><font class='baseline'><strong>Nathan</strong><p>Choose number of points to send.</font><div class='respPicDiv'><img src='img/responseButtonOffersNo0L.png' class='respPic'></div></div>","1","3","Nathan","4","Kept","0.65,0.2","8","0.65","trustrating_stim/white_00223_940128_fb_edt.bmp","4","42","8"
"","","","decisionFB","","60d2d061fd054556769ca306","bdp_trlrn","Sun Mar 12 2023 23:50:45 GMT-0400 (Eastern Daylight Time)","580486","Trustworthy,Untrustworthy","html-keyboard-response","159","329251","0.0-19.0-2.7","","null","","<div class='trialDiv'><img src='trustrating_stim/white_00223_940128_fb_edt.bmp'><br><font class='baseline'><strong>Nathan</strong><p>Choose number of points to send.</font><div class='respPicDiv'><img src='img/responseButtonOffersNo0L1.png' class='respPic'></div></div>","null","3","Nathan","4","Kept","0.65,0.2","8","0.65","trustrating_stim/white_00223_940128_fb_edt.bmp","4","41","8"
"","","","feedback","","60d2d061fd054556769ca306","bdp_trlrn","Sun Mar 12 2023 23:50:45 GMT-0400 (Eastern Daylight Time)","580486","Trustworthy,Untrustworthy","html-keyboard-response","160","330262","0.0-19.0-3.7","","null","","<div class='trialDiv'><img src='trustrating_stim/white_00223_940128_fb_edt.bmp'><br><font class='baseline'><strong>Nathan</strong><p>Received: <strong>4</strong></font> &nbsp; &nbsp; &nbsp; &nbsp; &nbsp; &nbsp;<font class='negOutcome'>Shared back: <strong>0</strong></font></font><div class='respPicDiv'><img src='img/responseButtonOffersNo0_wht.png' class='respPic'></div></div>","null","3","Nathan","4","Kept","0.65,0.2","8","0.65","trustrating_stim/white_00223_940128_fb_edt.bmp","4","41","8"
"","","","decision","","60d2d061fd054556769ca306","bdp_trlrn","Sun Mar 12 2023 23:50:45 GMT-0400 (Eastern Daylight Time)","580486","Trustworthy,Untrustworthy","html-keyboard-response","161","332373","0.0-19.0-1.8","","2110","","<div class='trialDiv'><img src='trustrating_stim/white_00299_940422_fa_edt.bmp'><br><font class='baseline'><strong>Michael</strong><p>Choose number of points to send.</font><div class='respPicDiv'><img src='img/responseButtonOffersNo0L.png' class='respPic'></div></div>","1","3","Michael","11","Kept","0.2,0.65","13","0.2","trustrating_stim/white_00299_940422_fa_edt.bmp","6.5","46","9"
"","","","decisionFB","","60d2d061fd054556769ca306","bdp_trlrn","Sun Mar 12 2023 23:50:45 GMT-0400 (Eastern Daylight Time)","580486","Trustworthy,Untrustworthy","html-keyboard-response","162","332627","0.0-19.0-2.8","","null","","<div class='trialDiv'><img src='trustrating_stim/white_00299_940422_fa_edt.bmp'><br><font class='baseline'><strong>Michael</strong><p>Choose number of points to send.</font><div class='respPicDiv'><img src='img/responseButtonOffersNo0L1.png' class='respPic'></div></div>","null","3","Michael","11","Kept","0.2,0.65","13","0.2","trustrating_stim/white_00299_940422_fa_edt.bmp","6.5","45","9"
"","","","feedback","","60d2d061fd054556769ca306","bdp_trlrn","Sun Mar 12 2023 23:50:45 GMT-0400 (Eastern Daylight Time)","580486","Trustworthy,Untrustworthy","html-keyboard-response","163","333635","0.0-19.0-3.8","","null","","<div class='trialDiv'><img src='trustrating_stim/white_00299_940422_fa_edt.bmp'><br><font class='baseline'><strong>Michael</strong><p>Received: <strong>4</strong></font> &nbsp; &nbsp; &nbsp; &nbsp; &nbsp; &nbsp;<font class='negOutcome'>Shared back: <strong>0</strong></font></font><div class='respPicDiv'><img src='img/responseButtonOffersNo0_wht.png' class='respPic'></div></div>","null","3","Michael","11","Kept","0.2,0.65","13","0.2","trustrating_stim/white_00299_940422_fa_edt.bmp","6.5","45","9"
"","","","decision","","60d2d061fd054556769ca306","bdp_trlrn","Sun Mar 12 2023 23:50:45 GMT-0400 (Eastern Daylight Time)","580486","Trustworthy,Untrustworthy","html-keyboard-response","164","334919","0.0-19.0-1.9","","1283","","<div class='trialDiv'><img src='trustrating_stim/white_00223_940128_fb_edt.bmp'><br><font class='baseline'><strong>Nathan</strong><p>Choose number of points to send.</font><div class='respPicDiv'><img src='img/responseButtonOffersNo0L.png' class='respPic'></div></div>","1","4","Nathan","4","Shared","0.65,0.2","8","0.65","trustrating_stim/white_00223_940128_fb_edt.bmp","4","50","10"
"","","","decisionFB","","60d2d061fd054556769ca306","bdp_trlrn","Sun Mar 12 2023 23:50:45 GMT-0400 (Eastern Daylight Time)","580486","Trustworthy,Untrustworthy","html-keyboard-response","165","335176","0.0-19.0-2.9","","null","","<div class='trialDiv'><img src='trustrating_stim/white_00223_940128_fb_edt.bmp'><br><font class='baseline'><strong>Nathan</strong><p>Choose number of points to send.</font><div class='respPicDiv'><img src='img/responseButtonOffersNo0L1.png' class='respPic'></div></div>","null","4","Nathan","4","Shared","0.65,0.2","8","0.65","trustrating_stim/white_00223_940128_fb_edt.bmp","4","49","10"
"","","","feedback","","60d2d061fd054556769ca306","bdp_trlrn","Sun Mar 12 2023 23:50:45 GMT-0400 (Eastern Daylight Time)","580486","Trustworthy,Untrustworthy","html-keyboard-response","166","336182","0.0-19.0-3.9","","null","","<div class='trialDiv'><img src='trustrating_stim/white_00223_940128_fb_edt.bmp'><br><font class='baseline'><strong>Nathan</strong><p>Received: <strong>4</strong></font> &nbsp; &nbsp; &nbsp; &nbsp; &nbsp; &nbsp;<font class='posOutcome'>Shared back: <strong>2</strong></font></font><div class='respPicDiv'><img src='img/responseButtonOffersNo0_wht.png' class='respPic'></div></div>","null","4","Nathan","4","Shared","0.65,0.2","8","0.65","trustrating_stim/white_00223_940128_fb_edt.bmp","4","51","10"
"","","","decision","","60d2d061fd054556769ca306","bdp_trlrn","Sun Mar 12 2023 23:50:45 GMT-0400 (Eastern Daylight Time)","580486","Trustworthy,Untrustworthy","html-keyboard-response","167","337280","0.0-19.0-1.10","","1096","","<div class='trialDiv'><img src='trustrating_stim/white_00299_940422_fa_edt.bmp'><br><font class='baseline'><strong>Michael</strong><p>Choose number of points to send.</font><div class='respPicDiv'><img src='img/responseButtonOffersNo0L.png' class='respPic'></div></div>","1","4","Michael","11","Kept","0.2,0.65","13","0.2","trustrating_stim/white_00299_940422_fa_edt.bmp","6.5","56","11"
"","","","decisionFB","","60d2d061fd054556769ca306","bdp_trlrn","Sun Mar 12 2023 23:50:45 GMT-0400 (Eastern Daylight Time)","580486","Trustworthy,Untrustworthy","html-keyboard-response","168","337548","0.0-19.0-2.10","","null","","<div class='trialDiv'><img src='trustrating_stim/white_00299_940422_fa_edt.bmp'><br><font class='baseline'><strong>Michael</strong><p>Choose number of points to send.</font><div class='respPicDiv'><img src='img/responseButtonOffersNo0L1.png' class='respPic'></div></div>","null","4","Michael","11","Kept","0.2,0.65","13","0.2","trustrating_stim/white_00299_940422_fa_edt.bmp","6.5","55","11"
"","","","feedback","","60d2d061fd054556769ca306","bdp_trlrn","Sun Mar 12 2023 23:50:45 GMT-0400 (Eastern Daylight Time)","580486","Trustworthy,Untrustworthy","html-keyboard-response","169","338560","0.0-19.0-3.10","","null","","<div class='trialDiv'><img src='trustrating_stim/white_00299_940422_fa_edt.bmp'><br><font class='baseline'><strong>Michael</strong><p>Received: <strong>4</strong></font> &nbsp; &nbsp; &nbsp; &nbsp; &nbsp; &nbsp;<font class='negOutcome'>Shared back: <strong>0</strong></font></font><div class='respPicDiv'><img src='img/responseButtonOffersNo0_wht.png' class='respPic'></div></div>","null","4","Michael","11","Kept","0.2,0.65","13","0.2","trustrating_stim/white_00299_940422_fa_edt.bmp","6.5","55","11"
"","","","decision","","60d2d061fd054556769ca306","bdp_trlrn","Sun Mar 12 2023 23:50:45 GMT-0400 (Eastern Daylight Time)","580486","Trustworthy,Untrustworthy","html-keyboard-response","170","341511","0.0-19.0-1.11","","2950","","<div class='trialDiv'><img src='trustrating_stim/white_00340_940422_fa_edt.bmp'><br><font class='baseline'><strong>Ethan</strong><p>Choose number of points to send.</font><div class='respPicDiv'><img src='img/responseButtonOffersNo0L.png' class='respPic'></div></div>","5","4","Ethan","3","Shared","0.8,0.2","10","0.8","trustrating_stim/white_00340_940422_fa_edt.bmp","2.5","60","12"
"","","","decisionFB","","60d2d061fd054556769ca306","bdp_trlrn","Sun Mar 12 2023 23:50:45 GMT-0400 (Eastern Daylight Time)","580486","Trustworthy,Untrustworthy","html-keyboard-response","171","341775","0.0-19.0-2.11","","null","","<div class='trialDiv'><img src='trustrating_stim/white_00340_940422_fa_edt.bmp'><br><font class='baseline'><strong>Ethan</strong><p>Choose number of points to send.</font><div class='respPicDiv'><img src='img/responseButtonOffersNo0L5.png' class='respPic'></div></div>","null","4","Ethan","3","Shared","0.8,0.2","10","0.8","trustrating_stim/white_00340_940422_fa_edt.bmp","2.5","55","12"
"","","","feedback","","60d2d061fd054556769ca306","bdp_trlrn","Sun Mar 12 2023 23:50:45 GMT-0400 (Eastern Daylight Time)","580486","Trustworthy,Untrustworthy","html-keyboard-response","172","342779","0.0-19.0-3.11","","null","","<div class='trialDiv'><img src='trustrating_stim/white_00340_940422_fa_edt.bmp'><br><font class='baseline'><strong>Ethan</strong><p>Received: <strong>20</strong></font> &nbsp; &nbsp; &nbsp; &nbsp; &nbsp; &nbsp;<font class='posOutcome'>Shared back: <strong>10</strong></font></font><div class='respPicDiv'><img src='img/responseButtonOffersNo0_wht.png' class='respPic'></div></div>","null","4","Ethan","3","Shared","0.8,0.2","10","0.8","trustrating_stim/white_00340_940422_fa_edt.bmp","2.5","65","12"
"","","","decision","","60d2d061fd054556769ca306","bdp_trlrn","Sun Mar 12 2023 23:50:45 GMT-0400 (Eastern Daylight Time)","580486","Trustworthy,Untrustworthy","html-keyboard-response","173","344897","0.0-19.0-1.12","","2116","","<div class='trialDiv'><img src='trustrating_stim/white_00223_940128_fb_edt.bmp'><br><font class='baseline'><strong>Nathan</strong><p>Choose number of points to send.</font><div class='respPicDiv'><img src='img/responseButtonOffersNo0L.png' class='respPic'></div></div>","1","5","Nathan","4","Shared","0.65,0.2","8","0.65","trustrating_stim/white_00223_940128_fb_edt.bmp","4","70","13"
"","","","decisionFB","","60d2d061fd054556769ca306","bdp_trlrn","Sun Mar 12 2023 23:50:45 GMT-0400 (Eastern Daylight Time)","580486","Trustworthy,Untrustworthy","html-keyboard-response","174","345156","0.0-19.0-2.12","","null","","<div class='trialDiv'><img src='trustrating_stim/white_00223_940128_fb_edt.bmp'><br><font class='baseline'><strong>Nathan</strong><p>Choose number of points to send.</font><div class='respPicDiv'><img src='img/responseButtonOffersNo0L1.png' class='respPic'></div></div>","null","5","Nathan","4","Shared","0.65,0.2","8","0.65","trustrating_stim/white_00223_940128_fb_edt.bmp","4","69","13"
"","","","feedback","","60d2d061fd054556769ca306","bdp_trlrn","Sun Mar 12 2023 23:50:45 GMT-0400 (Eastern Daylight Time)","580486","Trustworthy,Untrustworthy","html-keyboard-response","175","346168","0.0-19.0-3.12","","null","","<div class='trialDiv'><img src='trustrating_stim/white_00223_940128_fb_edt.bmp'><br><font class='baseline'><strong>Nathan</strong><p>Received: <strong>4</strong></font> &nbsp; &nbsp; &nbsp; &nbsp; &nbsp; &nbsp;<font class='posOutcome'>Shared back: <strong>2</strong></font></font><div class='respPicDiv'><img src='img/responseButtonOffersNo0_wht.png' class='respPic'></div></div>","null","5","Nathan","4","Shared","0.65,0.2","8","0.65","trustrating_stim/white_00223_940128_fb_edt.bmp","4","71","13"
"","","","decision","","60d2d061fd054556769ca306","bdp_trlrn","Sun Mar 12 2023 23:50:45 GMT-0400 (Eastern Daylight Time)","580486","Trustworthy,Untrustworthy","html-keyboard-response","176","347942","0.0-19.0-1.13","","1773","","<div class='trialDiv'><img src='trustrating_stim/white_00340_940422_fa_edt.bmp'><br><font class='baseline'><strong>Ethan</strong><p>Choose number of points to send.</font><div class='respPicDiv'><img src='img/responseButtonOffersNo0L.png' class='respPic'></div></div>","4","5","Ethan","3","Kept","0.8,0.2","10","0.8","trustrating_stim/white_00340_940422_fa_edt.bmp","2.5","76","14"
"","","","decisionFB","","60d2d061fd054556769ca306","bdp_trlrn","Sun Mar 12 2023 23:50:45 GMT-0400 (Eastern Daylight Time)","580486","Trustworthy,Untrustworthy","html-keyboard-response","177","348194","0.0-19.0-2.13","","null","","<div class='trialDiv'><img src='trustrating_stim/white_00340_940422_fa_edt.bmp'><br><font class='baseline'><strong>Ethan</strong><p>Choose number of points to send.</font><div class='respPicDiv'><img src='img/responseButtonOffersNo0L4.png' class='respPic'></div></div>","null","5","Ethan","3","Kept","0.8,0.2","10","0.8","trustrating_stim/white_00340_940422_fa_edt.bmp","2.5","72","14"
"","","","feedback","","60d2d061fd054556769ca306","bdp_trlrn","Sun Mar 12 2023 23:50:45 GMT-0400 (Eastern Daylight Time)","580486","Trustworthy,Untrustworthy","html-keyboard-response","178","349208","0.0-19.0-3.13","","null","","<div class='trialDiv'><img src='trustrating_stim/white_00340_940422_fa_edt.bmp'><br><font class='baseline'><strong>Ethan</strong><p>Received: <strong>16</strong></font> &nbsp; &nbsp; &nbsp; &nbsp; &nbsp; &nbsp;<font class='negOutcome'>Shared back: <strong>0</strong></font></font><div class='respPicDiv'><img src='img/responseButtonOffersNo0_wht.png' class='respPic'></div></div>","null","5","Ethan","3","Kept","0.8,0.2","10","0.8","trustrating_stim/white_00340_940422_fa_edt.bmp","2.5","72","14"
"","","","decision","","60d2d061fd054556769ca306","bdp_trlrn","Sun Mar 12 2023 23:50:45 GMT-0400 (Eastern Daylight Time)","580486","Trustworthy,Untrustworthy","html-keyboard-response","179","349984","0.0-19.0-1.14","","774","","<div class='trialDiv'><img src='trustrating_stim/white_00299_940422_fa_edt.bmp'><br><font class='baseline'><strong>Michael</strong><p>Choose number of points to send.</font><div class='respPicDiv'><img src='img/responseButtonOffersNo0L.png' class='respPic'></div></div>","4","5","Michael","11","Shared","0.2,0.65","13","0.2","trustrating_stim/white_00299_940422_fa_edt.bmp","6.5","77","15"
"","","","decisionFB","","60d2d061fd054556769ca306","bdp_trlrn","Sun Mar 12 2023 23:50:45 GMT-0400 (Eastern Daylight Time)","580486","Trustworthy,Untrustworthy","html-keyboard-response","180","350243","0.0-19.0-2.14","","null","","<div class='trialDiv'><img src='trustrating_stim/white_00299_940422_fa_edt.bmp'><br><font class='baseline'><strong>Michael</strong><p>Choose number of points to send.</font><div class='respPicDiv'><img src='img/responseButtonOffersNo0L4.png' class='respPic'></div></div>","null","5","Michael","11","Shared","0.2,0.65","13","0.2","trustrating_stim/white_00299_940422_fa_edt.bmp","6.5","73","15"
"","","","feedback","","60d2d061fd054556769ca306","bdp_trlrn","Sun Mar 12 2023 23:50:45 GMT-0400 (Eastern Daylight Time)","580486","Trustworthy,Untrustworthy","html-keyboard-response","181","351253","0.0-19.0-3.14","","null","","<div class='trialDiv'><img src='trustrating_stim/white_00299_940422_fa_edt.bmp'><br><font class='baseline'><strong>Michael</strong><p>Received: <strong>16</strong></font> &nbsp; &nbsp; &nbsp; &nbsp; &nbsp; &nbsp;<font class='posOutcome'>Shared back: <strong>8</strong></font></font><div class='respPicDiv'><img src='img/responseButtonOffersNo0_wht.png' class='respPic'></div></div>","null","5","Michael","11","Shared","0.2,0.65","13","0.2","trustrating_stim/white_00299_940422_fa_edt.bmp","6.5","81","15"
"","","","decision","","60d2d061fd054556769ca306","bdp_trlrn","Sun Mar 12 2023 23:50:45 GMT-0400 (Eastern Daylight Time)","580486","Trustworthy,Untrustworthy","html-keyboard-response","182","353705","0.0-19.0-1.15","","2451","","<div class='trialDiv'><img src='trustrating_stim/white_00223_940128_fb_edt.bmp'><br><font class='baseline'><strong>Nathan</strong><p>Choose number of points to send.</font><div class='respPicDiv'><img src='img/responseButtonOffersNo0L.png' class='respPic'></div></div>","4","6","Nathan","4","Shared","0.65,0.2","8","0.65","trustrating_stim/white_00223_940128_fb_edt.bmp","4","86","16"
"","","","decisionFB","","60d2d061fd054556769ca306","bdp_trlrn","Sun Mar 12 2023 23:50:45 GMT-0400 (Eastern Daylight Time)","580486","Trustworthy,Untrustworthy","html-keyboard-response","183","353961","0.0-19.0-2.15","","null","","<div class='trialDiv'><img src='trustrating_stim/white_00223_940128_fb_edt.bmp'><br><font class='baseline'><strong>Nathan</strong><p>Choose number of points to send.</font><div class='respPicDiv'><img src='img/responseButtonOffersNo0L4.png' class='respPic'></div></div>","null","6","Nathan","4","Shared","0.65,0.2","8","0.65","trustrating_stim/white_00223_940128_fb_edt.bmp","4","82","16"
"","","","feedback","","60d2d061fd054556769ca306","bdp_trlrn","Sun Mar 12 2023 23:50:45 GMT-0400 (Eastern Daylight Time)","580486","Trustworthy,Untrustworthy","html-keyboard-response","184","354978","0.0-19.0-3.15","","null","","<div class='trialDiv'><img src='trustrating_stim/white_00223_940128_fb_edt.bmp'><br><font class='baseline'><strong>Nathan</strong><p>Received: <strong>16</strong></font> &nbsp; &nbsp; &nbsp; &nbsp; &nbsp; &nbsp;<font class='posOutcome'>Shared back: <strong>8</strong></font></font><div class='respPicDiv'><img src='img/responseButtonOffersNo0_wht.png' class='respPic'></div></div>","null","6","Nathan","4","Shared","0.65,0.2","8","0.65","trustrating_stim/white_00223_940128_fb_edt.bmp","4","90","16"
"","","","decision","","60d2d061fd054556769ca306","bdp_trlrn","Sun Mar 12 2023 23:50:45 GMT-0400 (Eastern Daylight Time)","580486","Trustworthy,Untrustworthy","html-keyboard-response","185","355721","0.0-19.0-1.16","","742","","<div class='trialDiv'><img src='trustrating_stim/white_00340_940422_fa_edt.bmp'><br><font class='baseline'><strong>Ethan</strong><p>Choose number of points to send.</font><div class='respPicDiv'><img src='img/responseButtonOffersNo0L.png' class='respPic'></div></div>","5","6","Ethan","3","Kept","0.8,0.2","10","0.8","trustrating_stim/white_00340_940422_fa_edt.bmp","2.5","95","17"
"","","","decisionFB","","60d2d061fd054556769ca306","bdp_trlrn","Sun Mar 12 2023 23:50:45 GMT-0400 (Eastern Daylight Time)","580486","Trustworthy,Untrustworthy","html-keyboard-response","186","355981","0.0-19.0-2.16","","null","","<div class='trialDiv'><img src='trustrating_stim/white_00340_940422_fa_edt.bmp'><br><font class='baseline'><strong>Ethan</strong><p>Choose number of points to send.</font><div class='respPicDiv'><img src='img/responseButtonOffersNo0L5.png' class='respPic'></div></div>","null","6","Ethan","3","Kept","0.8,0.2","10","0.8","trustrating_stim/white_00340_940422_fa_edt.bmp","2.5","90","17"
"","","","feedback","","60d2d061fd054556769ca306","bdp_trlrn","Sun Mar 12 2023 23:50:45 GMT-0400 (Eastern Daylight Time)","580486","Trustworthy,Untrustworthy","html-keyboard-response","187","356994","0.0-19.0-3.16","","null","","<div class='trialDiv'><img src='trustrating_stim/white_00340_940422_fa_edt.bmp'><br><font class='baseline'><strong>Ethan</strong><p>Received: <strong>20</strong></font> &nbsp; &nbsp; &nbsp; &nbsp; &nbsp; &nbsp;<font class='negOutcome'>Shared back: <strong>0</strong></font></font><div class='respPicDiv'><img src='img/responseButtonOffersNo0_wht.png' class='respPic'></div></div>","null","6","Ethan","3","Kept","0.8,0.2","10","0.8","trustrating_stim/white_00340_940422_fa_edt.bmp","2.5","90","17"
"","","","decision","","60d2d061fd054556769ca306","bdp_trlrn","Sun Mar 12 2023 23:50:45 GMT-0400 (Eastern Daylight Time)","580486","Trustworthy,Untrustworthy","html-keyboard-response","188","357447","0.0-19.0-1.17","","452","","<div class='trialDiv'><img src='trustrating_stim/white_00299_940422_fa_edt.bmp'><br><font class='baseline'><strong>Michael</strong><p>Choose number of points to send.</font><div class='respPicDiv'><img src='img/responseButtonOffersNo0L.png' class='respPic'></div></div>","5","6","Michael","11","Shared","0.2,0.65","13","0.2","trustrating_stim/white_00299_940422_fa_edt.bmp","6.5","95","18"
"","","","decisionFB","","60d2d061fd054556769ca306","bdp_trlrn","Sun Mar 12 2023 23:50:45 GMT-0400 (Eastern Daylight Time)","580486","Trustworthy,Untrustworthy","html-keyboard-response","189","357702","0.0-19.0-2.17","","null","","<div class='trialDiv'><img src='trustrating_stim/white_00299_940422_fa_edt.bmp'><br><font class='baseline'><strong>Michael</strong><p>Choose number of points to send.</font><div class='respPicDiv'><img src='img/responseButtonOffersNo0L5.png' class='respPic'></div></div>","null","6","Michael","11","Shared","0.2,0.65","13","0.2","trustrating_stim/white_00299_940422_fa_edt.bmp","6.5","90","18"
"","","","feedback","","60d2d061fd054556769ca306","bdp_trlrn","Sun Mar 12 2023 23:50:45 GMT-0400 (Eastern Daylight Time)","580486","Trustworthy,Untrustworthy","html-keyboard-response","190","358706","0.0-19.0-3.17","","null","","<div class='trialDiv'><img src='trustrating_stim/white_00299_940422_fa_edt.bmp'><br><font class='baseline'><strong>Michael</strong><p>Received: <strong>20</strong></font> &nbsp; &nbsp; &nbsp; &nbsp; &nbsp; &nbsp;<font class='posOutcome'>Shared back: <strong>10</strong></font></font><div class='respPicDiv'><img src='img/responseButtonOffersNo0_wht.png' class='respPic'></div></div>","null","6","Michael","11","Shared","0.2,0.65","13","0.2","trustrating_stim/white_00299_940422_fa_edt.bmp","6.5","100","18"
"","","","decision","","60d2d061fd054556769ca306","bdp_trlrn","Sun Mar 12 2023 23:50:45 GMT-0400 (Eastern Daylight Time)","580486","Trustworthy,Untrustworthy","html-keyboard-response","191","359083","0.0-19.0-1.18","","376","","<div class='trialDiv'><img src='trustrating_stim/white_00340_940422_fa_edt.bmp'><br><font class='baseline'><strong>Ethan</strong><p>Choose number of points to send.</font><div class='respPicDiv'><img src='img/responseButtonOffersNo0L.png' class='respPic'></div></div>","5","7","Ethan","3","Kept","0.8,0.2","10","0.8","trustrating_stim/white_00340_940422_fa_edt.bmp","2.5","105","19"
"","","","decisionFB","","60d2d061fd054556769ca306","bdp_trlrn","Sun Mar 12 2023 23:50:45 GMT-0400 (Eastern Daylight Time)","580486","Trustworthy,Untrustworthy","html-keyboard-response","192","359343","0.0-19.0-2.18","","null","","<div class='trialDiv'><img src='trustrating_stim/white_00340_940422_fa_edt.bmp'><br><font class='baseline'><strong>Ethan</strong><p>Choose number of points to send.</font><div class='respPicDiv'><img src='img/responseButtonOffersNo0L5.png' class='respPic'></div></div>","null","7","Ethan","3","Kept","0.8,0.2","10","0.8","trustrating_stim/white_00340_940422_fa_edt.bmp","2.5","100","19"
"","","","feedback","","60d2d061fd054556769ca306","bdp_trlrn","Sun Mar 12 2023 23:50:45 GMT-0400 (Eastern Daylight Time)","580486","Trustworthy,Untrustworthy","html-keyboard-response","193","360359","0.0-19.0-3.18","","null","","<div class='trialDiv'><img src='trustrating_stim/white_00340_940422_fa_edt.bmp'><br><font class='baseline'><strong>Ethan</strong><p>Received: <strong>20</strong></font> &nbsp; &nbsp; &nbsp; &nbsp; &nbsp; &nbsp;<font class='negOutcome'>Shared back: <strong>0</strong></font></font><div class='respPicDiv'><img src='img/responseButtonOffersNo0_wht.png' class='respPic'></div></div>","null","7","Ethan","3","Kept","0.8,0.2","10","0.8","trustrating_stim/white_00340_940422_fa_edt.bmp","2.5","100","19"
"","","","decision","","60d2d061fd054556769ca306","bdp_trlrn","Sun Mar 12 2023 23:50:45 GMT-0400 (Eastern Daylight Time)","580486","Trustworthy,Untrustworthy","html-keyboard-response","194","360632","0.0-19.0-1.19","","272","","<div class='trialDiv'><img src='trustrating_stim/white_00299_940422_fa_edt.bmp'><br><font class='baseline'><strong>Michael</strong><p>Choose number of points to send.</font><div class='respPicDiv'><img src='img/responseButtonOffersNo0L.png' class='respPic'></div></div>","5","7","Michael","11","Kept","0.2,0.65","13","0.2","trustrating_stim/white_00299_940422_fa_edt.bmp","6.5","105","20"
"","","","decisionFB","","60d2d061fd054556769ca306","bdp_trlrn","Sun Mar 12 2023 23:50:45 GMT-0400 (Eastern Daylight Time)","580486","Trustworthy,Untrustworthy","html-keyboard-response","195","360896","0.0-19.0-2.19","","null","","<div class='trialDiv'><img src='trustrating_stim/white_00299_940422_fa_edt.bmp'><br><font class='baseline'><strong>Michael</strong><p>Choose number of points to send.</font><div class='respPicDiv'><img src='img/responseButtonOffersNo0L5.png' class='respPic'></div></div>","null","7","Michael","11","Kept","0.2,0.65","13","0.2","trustrating_stim/white_00299_940422_fa_edt.bmp","6.5","100","20"
"","","","feedback","","60d2d061fd054556769ca306","bdp_trlrn","Sun Mar 12 2023 23:50:45 GMT-0400 (Eastern Daylight Time)","580486","Trustworthy,Untrustworthy","html-keyboard-response","196","361911","0.0-19.0-3.19","","null","","<div class='trialDiv'><img src='trustrating_stim/white_00299_940422_fa_edt.bmp'><br><font class='baseline'><strong>Michael</strong><p>Received: <strong>20</strong></font> &nbsp; &nbsp; &nbsp; &nbsp; &nbsp; &nbsp;<font class='negOutcome'>Shared back: <strong>0</strong></font></font><div class='respPicDiv'><img src='img/responseButtonOffersNo0_wht.png' class='respPic'></div></div>","null","7","Michael","11","Kept","0.2,0.65","13","0.2","trustrating_stim/white_00299_940422_fa_edt.bmp","6.5","100","20"
"","","","decision","","60d2d061fd054556769ca306","bdp_trlrn","Sun Mar 12 2023 23:50:45 GMT-0400 (Eastern Daylight Time)","580486","Trustworthy,Untrustworthy","html-keyboard-response","197","362473","0.0-19.0-1.20","","560","","<div class='trialDiv'><img src='trustrating_stim/white_00223_940128_fb_edt.bmp'><br><font class='baseline'><strong>Nathan</strong><p>Choose number of points to send.</font><div class='respPicDiv'><img src='img/responseButtonOffersNo0L.png' class='respPic'></div></div>","5","7","Nathan","4","Shared","0.65,0.2","8","0.65","trustrating_stim/white_00223_940128_fb_edt.bmp","4","105","21"
"","","","decisionFB","","60d2d061fd054556769ca306","bdp_trlrn","Sun Mar 12 2023 23:50:45 GMT-0400 (Eastern Daylight Time)","580486","Trustworthy,Untrustworthy","html-keyboard-response","198","362734","0.0-19.0-2.20","","null","","<div class='trialDiv'><img src='trustrating_stim/white_00223_940128_fb_edt.bmp'><br><font class='baseline'><strong>Nathan</strong><p>Choose number of points to send.</font><div class='respPicDiv'><img src='img/responseButtonOffersNo0L5.png' class='respPic'></div></div>","null","7","Nathan","4","Shared","0.65,0.2","8","0.65","trustrating_stim/white_00223_940128_fb_edt.bmp","4","100","21"
"","","","feedback","","60d2d061fd054556769ca306","bdp_trlrn","Sun Mar 12 2023 23:50:45 GMT-0400 (Eastern Daylight Time)","580486","Trustworthy,Untrustworthy","html-keyboard-response","199","363746","0.0-19.0-3.20","","null","","<div class='trialDiv'><img src='trustrating_stim/white_00223_940128_fb_edt.bmp'><br><font class='baseline'><strong>Nathan</strong><p>Received: <strong>20</strong></font> &nbsp; &nbsp; &nbsp; &nbsp; &nbsp; &nbsp;<font class='posOutcome'>Shared back: <strong>10</strong></font></font><div class='respPicDiv'><img src='img/responseButtonOffersNo0_wht.png' class='respPic'></div></div>","null","7","Nathan","4","Shared","0.65,0.2","8","0.65","trustrating_stim/white_00223_940128_fb_edt.bmp","4","110","21"
"","","","decision","","60d2d061fd054556769ca306","bdp_trlrn","Sun Mar 12 2023 23:50:45 GMT-0400 (Eastern Daylight Time)","580486","Trustworthy,Untrustworthy","html-keyboard-response","200","364437","0.0-19.0-1.21","","689","","<div class='trialDiv'><img src='trustrating_stim/white_00299_940422_fa_edt.bmp'><br><font class='baseline'><strong>Michael</strong><p>Choose number of points to send.</font><div class='respPicDiv'><img src='img/responseButtonOffersNo0L.png' class='respPic'></div></div>","5","8","Michael","11","Kept","0.2,0.65","13","0.2","trustrating_stim/white_00299_940422_fa_edt.bmp","6.5","115","22"
"","","","decisionFB","","60d2d061fd054556769ca306","bdp_trlrn","Sun Mar 12 2023 23:50:45 GMT-0400 (Eastern Daylight Time)","580486","Trustworthy,Untrustworthy","html-keyboard-response","201","364698","0.0-19.0-2.21","","null","","<div class='trialDiv'><img src='trustrating_stim/white_00299_940422_fa_edt.bmp'><br><font class='baseline'><strong>Michael</strong><p>Choose number of points to send.</font><div class='respPicDiv'><img src='img/responseButtonOffersNo0L5.png' class='respPic'></div></div>","null","8","Michael","11","Kept","0.2,0.65","13","0.2","trustrating_stim/white_00299_940422_fa_edt.bmp","6.5","110","22"
"","","","feedback","","60d2d061fd054556769ca306","bdp_trlrn","Sun Mar 12 2023 23:50:45 GMT-0400 (Eastern Daylight Time)","580486","Trustworthy,Untrustworthy","html-keyboard-response","202","365711","0.0-19.0-3.21","","null","","<div class='trialDiv'><img src='trustrating_stim/white_00299_940422_fa_edt.bmp'><br><font class='baseline'><strong>Michael</strong><p>Received: <strong>20</strong></font> &nbsp; &nbsp; &nbsp; &nbsp; &nbsp; &nbsp;<font class='negOutcome'>Shared back: <strong>0</strong></font></font><div class='respPicDiv'><img src='img/responseButtonOffersNo0_wht.png' class='respPic'></div></div>","null","8","Michael","11","Kept","0.2,0.65","13","0.2","trustrating_stim/white_00299_940422_fa_edt.bmp","6.5","110","22"
"","","","decision","","60d2d061fd054556769ca306","bdp_trlrn","Sun Mar 12 2023 23:50:45 GMT-0400 (Eastern Daylight Time)","580486","Trustworthy,Untrustworthy","html-keyboard-response","203","365986","0.0-19.0-1.22","","274","","<div class='trialDiv'><img src='trustrating_stim/white_00340_940422_fa_edt.bmp'><br><font class='baseline'><strong>Ethan</strong><p>Choose number of points to send.</font><div class='respPicDiv'><img src='img/responseButtonOffersNo0L.png' class='respPic'></div></div>","5","8","Ethan","3","Shared","0.8,0.2","10","0.8","trustrating_stim/white_00340_940422_fa_edt.bmp","2.5","115","23"
"","","","decisionFB","","60d2d061fd054556769ca306","bdp_trlrn","Sun Mar 12 2023 23:50:45 GMT-0400 (Eastern Daylight Time)","580486","Trustworthy,Untrustworthy","html-keyboard-response","204","366243","0.0-19.0-2.22","","null","","<div class='trialDiv'><img src='trustrating_stim/white_00340_940422_fa_edt.bmp'><br><font class='baseline'><strong>Ethan</strong><p>Choose number of points to send.</font><div class='respPicDiv'><img src='img/responseButtonOffersNo0L5.png' class='respPic'></div></div>","null","8","Ethan","3","Shared","0.8,0.2","10","0.8","trustrating_stim/white_00340_940422_fa_edt.bmp","2.5","110","23"
"","","","feedback","","60d2d061fd054556769ca306","bdp_trlrn","Sun Mar 12 2023 23:50:45 GMT-0400 (Eastern Daylight Time)","580486","Trustworthy,Untrustworthy","html-keyboard-response","205","367252","0.0-19.0-3.22","","null","","<div class='trialDiv'><img src='trustrating_stim/white_00340_940422_fa_edt.bmp'><br><font class='baseline'><strong>Ethan</strong><p>Received: <strong>20</strong></font> &nbsp; &nbsp; &nbsp; &nbsp; &nbsp; &nbsp;<font class='posOutcome'>Shared back: <strong>10</strong></font></font><div class='respPicDiv'><img src='img/responseButtonOffersNo0_wht.png' class='respPic'></div></div>","null","8","Ethan","3","Shared","0.8,0.2","10","0.8","trustrating_stim/white_00340_940422_fa_edt.bmp","2.5","120","23"
"","","","decision","","60d2d061fd054556769ca306","bdp_trlrn","Sun Mar 12 2023 23:50:45 GMT-0400 (Eastern Daylight Time)","580486","Trustworthy,Untrustworthy","html-keyboard-response","206","367570","0.0-19.0-1.23","","316","","<div class='trialDiv'><img src='trustrating_stim/white_00223_940128_fb_edt.bmp'><br><font class='baseline'><strong>Nathan</strong><p>Choose number of points to send.</font><div class='respPicDiv'><img src='img/responseButtonOffersNo0L.png' class='respPic'></div></div>","5","8","Nathan","4","Kept","0.65,0.2","8","0.65","trustrating_stim/white_00223_940128_fb_edt.bmp","4","125","24"
"","","","decisionFB","","60d2d061fd054556769ca306","bdp_trlrn","Sun Mar 12 2023 23:50:45 GMT-0400 (Eastern Daylight Time)","580486","Trustworthy,Untrustworthy","html-keyboard-response","207","367824","0.0-19.0-2.23","","null","","<div class='trialDiv'><img src='trustrating_stim/white_00223_940128_fb_edt.bmp'><br><font class='baseline'><strong>Nathan</strong><p>Choose number of points to send.</font><div class='respPicDiv'><img src='img/responseButtonOffersNo0L5.png' class='respPic'></div></div>","null","8","Nathan","4","Kept","0.65,0.2","8","0.65","trustrating_stim/white_00223_940128_fb_edt.bmp","4","120","24"
"","","","feedback","","60d2d061fd054556769ca306","bdp_trlrn","Sun Mar 12 2023 23:50:45 GMT-0400 (Eastern Daylight Time)","580486","Trustworthy,Untrustworthy","html-keyboard-response","208","368828","0.0-19.0-3.23","","null","","<div class='trialDiv'><img src='trustrating_stim/white_00223_940128_fb_edt.bmp'><br><font class='baseline'><strong>Nathan</strong><p>Received: <strong>20</strong></font> &nbsp; &nbsp; &nbsp; &nbsp; &nbsp; &nbsp;<font class='negOutcome'>Shared back: <strong>0</strong></font></font><div class='respPicDiv'><img src='img/responseButtonOffersNo0_wht.png' class='respPic'></div></div>","null","8","Nathan","4","Kept","0.65,0.2","8","0.65","trustrating_stim/white_00223_940128_fb_edt.bmp","4","120","24"
"","","","decision","","60d2d061fd054556769ca306","bdp_trlrn","Sun Mar 12 2023 23:50:45 GMT-0400 (Eastern Daylight Time)","580486","Trustworthy,Untrustworthy","html-keyboard-response","209","369222","0.0-19.0-1.24","","393","","<div class='trialDiv'><img src='trustrating_stim/white_00299_940422_fa_edt.bmp'><br><font class='baseline'><strong>Michael</strong><p>Choose number of points to send.</font><div class='respPicDiv'><img src='img/responseButtonOffersNo0L.png' class='respPic'></div></div>","5","9","Michael","11","Kept","0.2,0.65","13","0.2","trustrating_stim/white_00299_940422_fa_edt.bmp","6.5","125","25"
"","","","decisionFB","","60d2d061fd054556769ca306","bdp_trlrn","Sun Mar 12 2023 23:50:45 GMT-0400 (Eastern Daylight Time)","580486","Trustworthy,Untrustworthy","html-keyboard-response","210","369489","0.0-19.0-2.24","","null","","<div class='trialDiv'><img src='trustrating_stim/white_00299_940422_fa_edt.bmp'><br><font class='baseline'><strong>Michael</strong><p>Choose number of points to send.</font><div class='respPicDiv'><img src='img/responseButtonOffersNo0L5.png' class='respPic'></div></div>","null","9","Michael","11","Kept","0.2,0.65","13","0.2","trustrating_stim/white_00299_940422_fa_edt.bmp","6.5","120","25"
"","","","feedback","","60d2d061fd054556769ca306","bdp_trlrn","Sun Mar 12 2023 23:50:45 GMT-0400 (Eastern Daylight Time)","580486","Trustworthy,Untrustworthy","html-keyboard-response","211","370498","0.0-19.0-3.24","","null","","<div class='trialDiv'><img src='trustrating_stim/white_00299_940422_fa_edt.bmp'><br><font class='baseline'><strong>Michael</strong><p>Received: <strong>20</strong></font> &nbsp; &nbsp; &nbsp; &nbsp; &nbsp; &nbsp;<font class='negOutcome'>Shared back: <strong>0</strong></font></font><div class='respPicDiv'><img src='img/responseButtonOffersNo0_wht.png' class='respPic'></div></div>","null","9","Michael","11","Kept","0.2,0.65","13","0.2","trustrating_stim/white_00299_940422_fa_edt.bmp","6.5","120","25"
"","","","decision","","60d2d061fd054556769ca306","bdp_trlrn","Sun Mar 12 2023 23:50:45 GMT-0400 (Eastern Daylight Time)","580486","Trustworthy,Untrustworthy","html-keyboard-response","212","370903","0.0-19.0-1.25","","404","","<div class='trialDiv'><img src='trustrating_stim/white_00340_940422_fa_edt.bmp'><br><font class='baseline'><strong>Ethan</strong><p>Choose number of points to send.</font><div class='respPicDiv'><img src='img/responseButtonOffersNo0L.png' class='respPic'></div></div>","5","9","Ethan","3","Shared","0.8,0.2","10","0.8","trustrating_stim/white_00340_940422_fa_edt.bmp","2.5","125","26"
"","","","decisionFB","","60d2d061fd054556769ca306","bdp_trlrn","Sun Mar 12 2023 23:50:45 GMT-0400 (Eastern Daylight Time)","580486","Trustworthy,Untrustworthy","html-keyboard-response","213","371159","0.0-19.0-2.25","","null","","<div class='trialDiv'><img src='trustrating_stim/white_00340_940422_fa_edt.bmp'><br><font class='baseline'><strong>Ethan</strong><p>Choose number of points to send.</font><div class='respPicDiv'><img src='img/responseButtonOffersNo0L5.png' class='respPic'></div></div>","null","9","Ethan","3","Shared","0.8,0.2","10","0.8","trustrating_stim/white_00340_940422_fa_edt.bmp","2.5","120","26"
"","","","feedback","","60d2d061fd054556769ca306","bdp_trlrn","Sun Mar 12 2023 23:50:45 GMT-0400 (Eastern Daylight Time)","580486","Trustworthy,Untrustworthy","html-keyboard-response","214","372172","0.0-19.0-3.25","","null","","<div class='trialDiv'><img src='trustrating_stim/white_00340_940422_fa_edt.bmp'><br><font class='baseline'><strong>Ethan</strong><p>Received: <strong>20</strong></font> &nbsp; &nbsp; &nbsp; &nbsp; &nbsp; &nbsp;<font class='posOutcome'>Shared back: <strong>10</strong></font></font><div class='respPicDiv'><img src='img/responseButtonOffersNo0_wht.png' class='respPic'></div></div>","null","9","Ethan","3","Shared","0.8,0.2","10","0.8","trustrating_stim/white_00340_940422_fa_edt.bmp","2.5","130","26"
"","","","decision","","60d2d061fd054556769ca306","bdp_trlrn","Sun Mar 12 2023 23:50:45 GMT-0400 (Eastern Daylight Time)","580486","Trustworthy,Untrustworthy","html-keyboard-response","215","372470","0.0-19.0-1.26","","296","","<div class='trialDiv'><img src='trustrating_stim/white_00223_940128_fb_edt.bmp'><br><font class='baseline'><strong>Nathan</strong><p>Choose number of points to send.</font><div class='respPicDiv'><img src='img/responseButtonOffersNo0L.png' class='respPic'></div></div>","5","9","Nathan","4","Kept","0.65,0.2","8","0.65","trustrating_stim/white_00223_940128_fb_edt.bmp","4","135","27"
"","","","decisionFB","","60d2d061fd054556769ca306","bdp_trlrn","Sun Mar 12 2023 23:50:45 GMT-0400 (Eastern Daylight Time)","580486","Trustworthy,Untrustworthy","html-keyboard-response","216","372724","0.0-19.0-2.26","","null","","<div class='trialDiv'><img src='trustrating_stim/white_00223_940128_fb_edt.bmp'><br><font class='baseline'><strong>Nathan</strong><p>Choose number of points to send.</font><div class='respPicDiv'><img src='img/responseButtonOffersNo0L5.png' class='respPic'></div></div>","null","9","Nathan","4","Kept","0.65,0.2","8","0.65","trustrating_stim/white_00223_940128_fb_edt.bmp","4","130","27"
