"event","trial","time","trialtype","subject_id","task","startTime","totalTime","labels","trial_type","trial_index","time_elapsed","internal_node_id","numBlurs","view_history","rt","success","stimulus","key_press","aground","name","faceID","outcome","agenttype","agentswpt","agentcurrpshare","face","avgRating","point_total","round"
"focus","0","0","focusevent","6005fd9c8bbd67931607e518","bdp_trlrn","Sun Mar 12 2023 20:28:29 GMT-0700 (Pacific Daylight Time)","461831","Untrustworthy,Trustworthy","","","","","","","","","","","","","","","","","","","","",""
"","","","","6005fd9c8bbd67931607e518","bdp_trlrn","Sun Mar 12 2023 20:28:29 GMT-0700 (Pacific Daylight Time)","461831","Untrustworthy,Trustworthy","pavlovia","0","1","0.0-0.0","","","","","","","","","","","","","","","","",""
"blur","1","1556","blurevent","6005fd9c8bbd67931607e518","bdp_trlrn","Sun Mar 12 2023 20:28:29 GMT-0700 (Pacific Daylight Time)","461831","Untrustworthy,Trustworthy","","","","","1","","","","","","","","","","","","","","","",""
"focus","1","2990","focusevent","6005fd9c8bbd67931607e518","bdp_trlrn","Sun Mar 12 2023 20:28:29 GMT-0700 (Pacific Daylight Time)","461831","Untrustworthy,Trustworthy","","","","","","","","","","","","","","","","","","","","",""
"","","","","6005fd9c8bbd67931607e518","bdp_trlrn","Sun Mar 12 2023 20:28:29 GMT-0700 (Pacific Daylight Time)","461831","Untrustworthy,Trustworthy","instructions","1","4560","0.0-1.0","","[{""page_index"":0,""viewing_time"":4558}]","4558","","","","","","","","","","","","","",""
"fullscreenexit","2","6157","fullscreenexit","6005fd9c8bbd67931607e518","bdp_trlrn","Sun Mar 12 2023 20:28:29 GMT-0700 (Pacific Daylight Time)","461831","Untrustworthy,Trustworthy","","","","","","","","","","","","","","","","","","","","",""
"","","","","6005fd9c8bbd67931607e518","bdp_trlrn","Sun Mar 12 2023 20:28:29 GMT-0700 (Pacific Daylight Time)","461831","Untrustworthy,Trustworthy","fullscreen","2","6911","0.0-2.0","","","","true","","","","","","","","","","","","",""
"","","","fullscreenfail","6005fd9c8bbd67931607e518","bdp_trlrn","Sun Mar 12 2023 20:28:29 GMT-0700 (Pacific Daylight Time)","461831","Untrustworthy,Trustworthy","image-keyboard-response","3","7658","0.0-3.0-0.0","","","743","","","32","","","","","","","","","","",""
"","","","","6005fd9c8bbd67931607e518","bdp_trlrn","Sun Mar 12 2023 20:28:29 GMT-0700 (Pacific Daylight Time)","461831","Untrustworthy,Trustworthy","instructions","4","11561","0.0-4.0","","[{""page_index"":0,""viewing_time"":2571},{""page_index"":1,""viewing_time"":1075}]","3646","","","","","","","","","","","","","",""
"","","","","6005fd9c8bbd67931607e518","bdp_trlrn","Sun Mar 12 2023 20:28:29 GMT-0700 (Pacific Daylight Time)","461831","Untrustworthy,Trustworthy","instructions","5","12929","0.0-5.0","","[{""page_index"":0,""viewing_time"":1367}]","1367","","","","","","","","","","","","","",""
"","","","rating","6005fd9c8bbd67931607e518","bdp_trlrn","Sun Mar 12 2023 20:28:29 GMT-0700 (Pacific Daylight Time)","461831","Untrustworthy,Trustworthy","image-keyboard-response","6","15553","0.0-6.0-1.0","","","2514","","trustrating_stim/white_00761_941201_fb_edt.bmp","6","","","","","","","","","","",""
"","","","ratingFB","6005fd9c8bbd67931607e518","bdp_trlrn","Sun Mar 12 2023 20:28:29 GMT-0700 (Pacific Daylight Time)","461831","Untrustworthy,Trustworthy","image-keyboard-response","7","15762","0.0-6.0-2.0","","","null","","trustrating_stim/white_00761_941201_fb_edt.bmp","null","","","","","","","","","","",""
"","","","rating","6005fd9c8bbd67931607e518","bdp_trlrn","Sun Mar 12 2023 20:28:29 GMT-0700 (Pacific Daylight Time)","461831","Untrustworthy,Trustworthy","image-keyboard-response","8","17440","0.0-6.0-1.1","","","1574","","trustrating_stim/white_00659_941121_fa_edt.bmp","5","","","","","","","","","","",""
"","","","ratingFB","6005fd9c8bbd67931607e518","bdp_trlrn","Sun Mar 12 2023 20:28:29 GMT-0700 (Pacific Daylight Time)","461831","Untrustworthy,Trustworthy","image-keyboard-response","9","17646","0.0-6.0-2.1","","","null","","trustrating_stim/white_00659_941121_fa_edt.bmp","null","","","","","","","","","","",""
"","","","rating","6005fd9c8bbd67931607e518","bdp_trlrn","Sun Mar 12 2023 20:28:29 GMT-0700 (Pacific Daylight Time)","461831","Untrustworthy,Trustworthy","image-keyboard-response","10","18543","0.0-6.0-1.2","","","788","","trustrating_stim/white_00757_941201_fa_edt.bmp","7","","","","","","","","","","",""
"","","","ratingFB","6005fd9c8bbd67931607e518","bdp_trlrn","Sun Mar 12 2023 20:28:29 GMT-0700 (Pacific Daylight Time)","461831","Untrustworthy,Trustworthy","image-keyboard-response","11","18746","0.0-6.0-2.2","","","null","","trustrating_stim/white_00757_941201_fa_edt.bmp","null","","","","","","","","","","",""
"","","","rating","6005fd9c8bbd67931607e518","bdp_trlrn","Sun Mar 12 2023 20:28:29 GMT-0700 (Pacific Daylight Time)","461831","Untrustworthy,Trustworthy","image-keyboard-response","12","19736","0.0-6.0-1.3","","","887","","trustrating_stim/white_00299_940422_fa_edt.bmp","8","","","","","","","","","","",""
"","","","ratingFB","6005fd9c8bbd67931607e518","bdp_trlrn","Sun Mar 12 2023 20:28:29 GMT-0700 (Pacific Daylight Time)","461831","Untrustworthy,Trustworthy","image-keyboard-response","13","19940","0.0-6.0-2.3","","","null","","trustrating_stim/white_00299_940422_fa_edt.bmp","null","","","","","","","","","","",""
"","","","rating","6005fd9c8bbd67931607e518","bdp_trlrn","Sun Mar 12 2023 20:28:29 GMT-0700 (Pacific Daylight Time)","461831","Untrustworthy,Trustworthy","image-keyboard-response","14","20818","0.0-6.0-1.4","","","770","","trustrating_stim/white_00129_931230_fb_edt.bmp","9","","","","","","","","","","",""
"","","","ratingFB","6005fd9c8bbd67931607e518","bdp_trlrn","Sun Mar 12 2023 20:28:29 GMT-0700 (Pacific Daylight Time)","461831","Untrustworthy,Trustworthy","image-keyboard-response","15","21025","0.0-6.0-2.4","","","null","","trustrating_stim/white_00129_931230_fb_edt.bmp","null","","","","","","","","","","",""
"","","","rating","6005fd9c8bbd67931607e518","bdp_trlrn","Sun Mar 12 2023 20:28:29 GMT-0700 (Pacific Daylight Time)","461831","Untrustworthy,Trustworthy","image-keyboard-response","16","22439","0.0-6.0-1.5","","","1311","","trustrating_stim/white_mw089.bmp","6","","","","","","","","","","",""
"","","","ratingFB","6005fd9c8bbd67931607e518","bdp_trlrn","Sun Mar 12 2023 20:28:29 GMT-0700 (Pacific Daylight Time)","461831","Untrustworthy,Trustworthy","image-keyboard-response","17","22645","0.0-6.0-2.5","","","null","","trustrating_stim/white_mw089.bmp","null","","","","","","","","","","",""
"","","","rating","6005fd9c8bbd67931607e518","bdp_trlrn","Sun Mar 12 2023 20:28:29 GMT-0700 (Pacific Daylight Time)","461831","Untrustworthy,Trustworthy","image-keyboard-response","18","23436","0.0-6.0-1.6","","","686","","trustrating_stim/white_mw084.bmp","7","","","","","","","","","","",""
"","","","ratingFB","6005fd9c8bbd67931607e518","bdp_trlrn","Sun Mar 12 2023 20:28:29 GMT-0700 (Pacific Daylight Time)","461831","Untrustworthy,Trustworthy","image-keyboard-response","19","23643","0.0-6.0-2.6","","","null","","trustrating_stim/white_mw084.bmp","null","","","","","","","","","","",""
"","","","rating","6005fd9c8bbd67931607e518","bdp_trlrn","Sun Mar 12 2023 20:28:29 GMT-0700 (Pacific Daylight Time)","461831","Untrustworthy,Trustworthy","image-keyboard-response","20","24822","0.0-6.0-1.7","","","1076","","trustrating_stim/white_00602_940928_fb_edt.bmp","7","","","","","","","","","","",""
"","","","ratingFB","6005fd9c8bbd67931607e518","bdp_trlrn","Sun Mar 12 2023 20:28:29 GMT-0700 (Pacific Daylight Time)","461831","Untrustworthy,Trustworthy","image-keyboard-response","21","25027","0.0-6.0-2.7","","","null","","trustrating_stim/white_00602_940928_fb_edt.bmp","null","","","","","","","","","","",""
"","","","rating","6005fd9c8bbd67931607e518","bdp_trlrn","Sun Mar 12 2023 20:28:29 GMT-0700 (Pacific Daylight Time)","461831","Untrustworthy,Trustworthy","image-keyboard-response","22","26586","0.0-6.0-1.8","","","1454","","trustrating_stim/white_mw060.bmp","5","","","","","","","","","","",""
"","","","ratingFB","6005fd9c8bbd67931607e518","bdp_trlrn","Sun Mar 12 2023 20:28:29 GMT-0700 (Pacific Daylight Time)","461831","Untrustworthy,Trustworthy","image-keyboard-response","23","26792","0.0-6.0-2.8","","","null","","trustrating_stim/white_mw060.bmp","null","","","","","","","","","","",""
"","","","rating","6005fd9c8bbd67931607e518","bdp_trlrn","Sun Mar 12 2023 20:28:29 GMT-0700 (Pacific Daylight Time)","461831","Untrustworthy,Trustworthy","image-keyboard-response","24","28341","0.0-6.0-1.9","","","1446","","trustrating_stim/white_mw066.bmp","6","","","","","","","","","","",""
"","","","ratingFB","6005fd9c8bbd67931607e518","bdp_trlrn","Sun Mar 12 2023 20:28:29 GMT-0700 (Pacific Daylight Time)","461831","Untrustworthy,Trustworthy","image-keyboard-response","25","28547","0.0-6.0-2.9","","","null","","trustrating_stim/white_mw066.bmp","null","","","","","","","","","","",""
"","","","rating","6005fd9c8bbd67931607e518","bdp_trlrn","Sun Mar 12 2023 20:28:29 GMT-0700 (Pacific Daylight Time)","461831","Untrustworthy,Trustworthy","image-keyboard-response","26","29743","0.0-6.0-1.10","","","1088","","trustrating_stim/white_00340_940422_fa_edt.bmp","6","","","","","","","","","","",""
"","","","ratingFB","6005fd9c8bbd67931607e518","bdp_trlrn","Sun Mar 12 2023 20:28:29 GMT-0700 (Pacific Daylight Time)","461831","Untrustworthy,Trustworthy","image-keyboard-response","27","29951","0.0-6.0-2.10","","","null","","trustrating_stim/white_00340_940422_fa_edt.bmp","null","","","","","","","","","","",""
"","","","rating","6005fd9c8bbd67931607e518","bdp_trlrn","Sun Mar 12 2023 20:28:29 GMT-0700 (Pacific Daylight Time)","461831","Untrustworthy,Trustworthy","image-keyboard-response","28","31225","0.0-6.0-1.11","","","1172","","trustrating_stim/white_mw048.bmp","6","","","","","","","","","","",""
"","","","ratingFB","6005fd9c8bbd67931607e518","bdp_trlrn","Sun Mar 12 2023 20:28:29 GMT-0700 (Pacific Daylight Time)","461831","Untrustworthy,Trustworthy","image-keyboard-response","29","31431","0.0-6.0-2.11","","","null","","trustrating_stim/white_mw048.bmp","null","","","","","","","","","","",""
"","","","rating","6005fd9c8bbd67931607e518","bdp_trlrn","Sun Mar 12 2023 20:28:29 GMT-0700 (Pacific Daylight Time)","461831","Untrustworthy,Trustworthy","image-keyboard-response","30","32404","0.0-6.0-1.12","","","866","","trustrating_stim/white_00519_940519_fb_edt.bmp","7","","","","","","","","","","",""
"","","","ratingFB","6005fd9c8bbd67931607e518","bdp_trlrn","Sun Mar 12 2023 20:28:29 GMT-0700 (Pacific Daylight Time)","461831","Untrustworthy,Trustworthy","image-keyboard-response","31","32606","0.0-6.0-2.12","","","null","","trustrating_stim/white_00519_940519_fb_edt.bmp","null","","","","","","","","","","",""
"","","","rating","6005fd9c8bbd67931607e518","bdp_trlrn","Sun Mar 12 2023 20:28:29 GMT-0700 (Pacific Daylight Time)","461831","Untrustworthy,Trustworthy","image-keyboard-response","32","33635","0.0-6.0-1.13","","","923","","trustrating_stim/white_00807_941205_fb_edt.bmp","7","","","","","","","","","","",""
"","","","ratingFB","6005fd9c8bbd67931607e518","bdp_trlrn","Sun Mar 12 2023 20:28:29 GMT-0700 (Pacific Daylight Time)","461831","Untrustworthy,Trustworthy","image-keyboard-response","33","33842","0.0-6.0-2.13","","","null","","trustrating_stim/white_00807_941205_fb_edt.bmp","null","","","","","","","","","","",""
"","","","rating","6005fd9c8bbd67931607e518","bdp_trlrn","Sun Mar 12 2023 20:28:29 GMT-0700 (Pacific Daylight Time)","461831","Untrustworthy,Trustworthy","image-keyboard-response","34","34675","0.0-6.0-1.14","","","730","","trustrating_stim/white_00898_960530_fa_edt.bmp","8","","","","","","","","","","",""
"","","","ratingFB","6005fd9c8bbd67931607e518","bdp_trlrn","Sun Mar 12 2023 20:28:29 GMT-0700 (Pacific Daylight Time)","461831","Untrustworthy,Trustworthy","image-keyboard-response","35","34879","0.0-6.0-2.14","","","null","","trustrating_stim/white_00898_960530_fa_edt.bmp","null","","","","","","","","","","",""
"","","","rating","6005fd9c8bbd67931607e518","bdp_trlrn","Sun Mar 12 2023 20:28:29 GMT-0700 (Pacific Daylight Time)","461831","Untrustworthy,Trustworthy","image-keyboard-response","36","36079","0.0-6.0-1.15","","","1094","","trustrating_stim/white_00577_940928_fa_edt.bmp","6","","","","","","","","","","",""
"","","","ratingFB","6005fd9c8bbd67931607e518","bdp_trlrn","Sun Mar 12 2023 20:28:29 GMT-0700 (Pacific Daylight Time)","461831","Untrustworthy,Trustworthy","image-keyboard-response","37","36285","0.0-6.0-2.15","","","null","","trustrating_stim/white_00577_940928_fa_edt.bmp","null","","","","","","","","","","",""
"","","","rating","6005fd9c8bbd67931607e518","bdp_trlrn","Sun Mar 12 2023 20:28:29 GMT-0700 (Pacific Daylight Time)","461831","Untrustworthy,Trustworthy","image-keyboard-response","38","37441","0.0-6.0-1.16","","","1049","","trustrating_stim/white_mw049.bmp","8","","","","","","","","","","",""
"","","","ratingFB","6005fd9c8bbd67931607e518","bdp_trlrn","Sun Mar 12 2023 20:28:29 GMT-0700 (Pacific Daylight Time)","461831","Untrustworthy,Trustworthy","image-keyboard-response","39","37646","0.0-6.0-2.16","","","null","","trustrating_stim/white_mw049.bmp","null","","","","","","","","","","",""
"","","","rating","6005fd9c8bbd67931607e518","bdp_trlrn","Sun Mar 12 2023 20:28:29 GMT-0700 (Pacific Daylight Time)","461831","Untrustworthy,Trustworthy","image-keyboard-response","40","38579","0.0-6.0-1.17","","","828","","trustrating_stim/white_00109_931230_fa_edt.bmp","8","","","","","","","","","","",""
"","","","ratingFB","6005fd9c8bbd67931607e518","bdp_trlrn","Sun Mar 12 2023 20:28:29 GMT-0700 (Pacific Daylight Time)","461831","Untrustworthy,Trustworthy","image-keyboard-response","41","38786","0.0-6.0-2.17","","","null","","trustrating_stim/white_00109_931230_fa_edt.bmp","null","","","","","","","","","","",""
"","","","rating","6005fd9c8bbd67931607e518","bdp_trlrn","Sun Mar 12 2023 20:28:29 GMT-0700 (Pacific Daylight Time)","461831","Untrustworthy,Trustworthy","image-keyboard-response","42","39680","0.0-6.0-1.18","","","792","","trustrating_stim/white_mw056.bmp","8","","","","","","","","","","",""
"","","","ratingFB","6005fd9c8bbd67931607e518","bdp_trlrn","Sun Mar 12 2023 20:28:29 GMT-0700 (Pacific Daylight Time)","461831","Untrustworthy,Trustworthy","image-keyboard-response","43","39882","0.0-6.0-2.18","","","null","","trustrating_stim/white_mw056.bmp","null","","","","","","","","","","",""
"","","","rating","6005fd9c8bbd67931607e518","bdp_trlrn","Sun Mar 12 2023 20:28:29 GMT-0700 (Pacific Daylight Time)","461831","Untrustworthy,Trustworthy","image-keyboard-response","44","40552","0.0-6.0-1.19","","","564","","trustrating_stim/white_mw033.bmp","8","","","","","","","","","","",""
"","","","ratingFB","6005fd9c8bbd67931607e518","bdp_trlrn","Sun Mar 12 2023 20:28:29 GMT-0700 (Pacific Daylight Time)","461831","Untrustworthy,Trustworthy","image-keyboard-response","45","40760","0.0-6.0-2.19","","","null","","trustrating_stim/white_mw033.bmp","null","","","","","","","","","","",""
"","","","rating","6005fd9c8bbd67931607e518","bdp_trlrn","Sun Mar 12 2023 20:28:29 GMT-0700 (Pacific Daylight Time)","461831","Untrustworthy,Trustworthy","image-keyboard-response","46","41563","0.0-6.0-1.20","","","696","","trustrating_stim/white_00785_941205_fb_edt.bmp","7","","","","","","","","","","",""
"","","","ratingFB","6005fd9c8bbd67931607e518","bdp_trlrn","Sun Mar 12 2023 20:28:29 GMT-0700 (Pacific Daylight Time)","461831","Untrustworthy,Trustworthy","image-keyboard-response","47","41768","0.0-6.0-2.20","","","null","","trustrating_stim/white_00785_941205_fb_edt.bmp","null","","","","","","","","","","",""
"","","","rating","6005fd9c8bbd67931607e518","bdp_trlrn","Sun Mar 12 2023 20:28:29 GMT-0700 (Pacific Daylight Time)","461831","Untrustworthy,Trustworthy","image-keyboard-response","48","42626","0.0-6.0-1.21","","","755","","trustrating_stim/white_mw071.bmp","6","","","","","","","","","","",""
"","","","ratingFB","6005fd9c8bbd67931607e518","bdp_trlrn","Sun Mar 12 2023 20:28:29 GMT-0700 (Pacific Daylight Time)","461831","Untrustworthy,Trustworthy","image-keyboard-response","49","42833","0.0-6.0-2.21","","","null","","trustrating_stim/white_mw071.bmp","null","","","","","","","","","","",""
"","","","rating","6005fd9c8bbd67931607e518","bdp_trlrn","Sun Mar 12 2023 20:28:29 GMT-0700 (Pacific Daylight Time)","461831","Untrustworthy,Trustworthy","image-keyboard-response","50","43785","0.0-6.0-1.22","","","848","","trustrating_stim/white_mw046.bmp","5","","","","","","","","","","",""
"","","","ratingFB","6005fd9c8bbd67931607e518","bdp_trlrn","Sun Mar 12 2023 20:28:29 GMT-0700 (Pacific Daylight Time)","461831","Untrustworthy,Trustworthy","image-keyboard-response","51","43991","0.0-6.0-2.22","","","null","","trustrating_stim/white_mw046.bmp","null","","","","","","","","","","",""
"","","","rating","6005fd9c8bbd67931607e518","bdp_trlrn","Sun Mar 12 2023 20:28:29 GMT-0700 (Pacific Daylight Time)","461831","Untrustworthy,Trustworthy","image-keyboard-response","52","45075","0.0-6.0-1.23","","","981","","trustrating_stim/white_mw097.bmp","5","","","","","","","","","","",""
"","","","ratingFB","6005fd9c8bbd67931607e518","bdp_trlrn","Sun Mar 12 2023 20:28:29 GMT-0700 (Pacific Daylight Time)","461831","Untrustworthy,Trustworthy","image-keyboard-response","53","45277","0.0-6.0-2.23","","","null","","trustrating_stim/white_mw097.bmp","null","","","","","","","","","","",""
"","","","rating","6005fd9c8bbd67931607e518","bdp_trlrn","Sun Mar 12 2023 20:28:29 GMT-0700 (Pacific Daylight Time)","461831","Untrustworthy,Trustworthy","image-keyboard-response","54","46312","0.0-6.0-1.24","","","929","","trustrating_stim/white_mw063.bmp","6","","","","","","","","","","",""
"","","","ratingFB","6005fd9c8bbd67931607e518","bdp_trlrn","Sun Mar 12 2023 20:28:29 GMT-0700 (Pacific Daylight Time)","461831","Untrustworthy,Trustworthy","image-keyboard-response","55","46519","0.0-6.0-2.24","","","null","","trustrating_stim/white_mw063.bmp","null","","","","","","","","","","",""
"","","","rating","6005fd9c8bbd67931607e518","bdp_trlrn","Sun Mar 12 2023 20:28:29 GMT-0700 (Pacific Daylight Time)","461831","Untrustworthy,Trustworthy","image-keyboard-response","56","47370","0.0-6.0-1.25","","","742","","trustrating_stim/white_00120_931230_fa_edt.bmp","5","","","","","","","","","","",""
"","","","ratingFB","6005fd9c8bbd67931607e518","bdp_trlrn","Sun Mar 12 2023 20:28:29 GMT-0700 (Pacific Daylight Time)","461831","Untrustworthy,Trustworthy","image-keyboard-response","57","47577","0.0-6.0-2.25","","","null","","trustrating_stim/white_00120_931230_fa_edt.bmp","null","","","","","","","","","","",""
"","","","rating","6005fd9c8bbd67931607e518","bdp_trlrn","Sun Mar 12 2023 20:28:29 GMT-0700 (Pacific Daylight Time)","461831","Untrustworthy,Trustworthy","image-keyboard-response","58","48710","0.0-6.0-1.26","","","1028","","trustrating_stim/white_00223_940128_fb_edt.bmp","5","","","","","","","","","","",""
"","","","ratingFB","6005fd9c8bbd67931607e518","bdp_trlrn","Sun Mar 12 2023 20:28:29 GMT-0700 (Pacific Daylight Time)","461831","Untrustworthy,Trustworthy","image-keyboard-response","59","48916","0.0-6.0-2.26","","","null","","trustrating_stim/white_00223_940128_fb_edt.bmp","null","","","","","","","","","","",""
"","","","rating","6005fd9c8bbd67931607e518","bdp_trlrn","Sun Mar 12 2023 20:28:29 GMT-0700 (Pacific Daylight Time)","461831","Untrustworthy,Trustworthy","image-keyboard-response","60","49753","0.0-6.0-1.27","","","734","","trustrating_stim/white_mw099.bmp","7","","","","","","","","","","",""
"","","","ratingFB","6005fd9c8bbd67931607e518","bdp_trlrn","Sun Mar 12 2023 20:28:29 GMT-0700 (Pacific Daylight Time)","461831","Untrustworthy,Trustworthy","image-keyboard-response","61","49954","0.0-6.0-2.27","","","null","","trustrating_stim/white_mw099.bmp","null","","","","","","","","","","",""
"","","","rating","6005fd9c8bbd67931607e518","bdp_trlrn","Sun Mar 12 2023 20:28:29 GMT-0700 (Pacific Daylight Time)","461831","Untrustworthy,Trustworthy","image-keyboard-response","62","50934","0.0-6.0-1.28","","","875","","trustrating_stim/white_mw053.bmp","8","","","","","","","","","","",""
"","","","ratingFB","6005fd9c8bbd67931607e518","bdp_trlrn","Sun Mar 12 2023 20:28:29 GMT-0700 (Pacific Daylight Time)","461831","Untrustworthy,Trustworthy","image-keyboard-response","63","51141","0.0-6.0-2.28","","","null","","trustrating_stim/white_mw053.bmp","null","","","","","","","","","","",""
"","","","rating","6005fd9c8bbd67931607e518","bdp_trlrn","Sun Mar 12 2023 20:28:29 GMT-0700 (Pacific Daylight Time)","461831","Untrustworthy,Trustworthy","image-keyboard-response","64","51842","0.0-6.0-1.29","","","594","","trustrating_stim/white_mw035.bmp","8","","","","","","","","","","",""
"","","","ratingFB","6005fd9c8bbd67931607e518","bdp_trlrn","Sun Mar 12 2023 20:28:29 GMT-0700 (Pacific Daylight Time)","461831","Untrustworthy,Trustworthy","image-keyboard-response","65","52045","0.0-6.0-2.29","","","null","","trustrating_stim/white_mw035.bmp","null","","","","","","","","","","",""
"","","","rating","6005fd9c8bbd67931607e518","bdp_trlrn","Sun Mar 12 2023 20:28:29 GMT-0700 (Pacific Daylight Time)","461831","Untrustworthy,Trustworthy","image-keyboard-response","66","52793","0.0-6.0-1.30","","","642","","trustrating_stim/white_mw053.bmp","8","","","","","","","","","","",""
"","","","ratingFB","6005fd9c8bbd67931607e518","bdp_trlrn","Sun Mar 12 2023 20:28:29 GMT-0700 (Pacific Daylight Time)","461831","Untrustworthy,Trustworthy","image-keyboard-response","67","52994","0.0-6.0-2.30","","","null","","trustrating_stim/white_mw053.bmp","null","","","","","","","","","","",""
"","","","rating","6005fd9c8bbd67931607e518","bdp_trlrn","Sun Mar 12 2023 20:28:29 GMT-0700 (Pacific Daylight Time)","461831","Untrustworthy,Trustworthy","image-keyboard-response","68","54194","0.0-6.0-1.31","","","1095","","trustrating_stim/white_mw060.bmp","6","","","","","","","","","","",""
"","","","ratingFB","6005fd9c8bbd67931607e518","bdp_trlrn","Sun Mar 12 2023 20:28:29 GMT-0700 (Pacific Daylight Time)","461831","Untrustworthy,Trustworthy","image-keyboard-response","69","54400","0.0-6.0-2.31","","","null","","trustrating_stim/white_mw060.bmp","null","","","","","","","","","","",""
"","","","rating","6005fd9c8bbd67931607e518","bdp_trlrn","Sun Mar 12 2023 20:28:29 GMT-0700 (Pacific Daylight Time)","461831","Untrustworthy,Trustworthy","image-keyboard-response","70","55216","0.0-6.0-1.32","","","708","","trustrating_stim/white_mw035.bmp","6","","","","","","","","","","",""
"","","","ratingFB","6005fd9c8bbd67931607e518","bdp_trlrn","Sun Mar 12 2023 20:28:29 GMT-0700 (Pacific Daylight Time)","461831","Untrustworthy,Trustworthy","image-keyboard-response","71","55422","0.0-6.0-2.32","","","null","","trustrating_stim/white_mw035.bmp","null","","","","","","","","","","",""
"","","","rating","6005fd9c8bbd67931607e518","bdp_trlrn","Sun Mar 12 2023 20:28:29 GMT-0700 (Pacific Daylight Time)","461831","Untrustworthy,Trustworthy","image-keyboard-response","72","56549","0.0-6.0-1.33","","","1020","","trustrating_stim/white_00898_960530_fa_edt.bmp","7","","","","","","","","","","",""
"","","","ratingFB","6005fd9c8bbd67931607e518","bdp_trlrn","Sun Mar 12 2023 20:28:29 GMT-0700 (Pacific Daylight Time)","461831","Untrustworthy,Trustworthy","image-keyboard-response","73","56753","0.0-6.0-2.33","","","null","","trustrating_stim/white_00898_960530_fa_edt.bmp","null","","","","","","","","","","",""
"","","","rating","6005fd9c8bbd67931607e518","bdp_trlrn","Sun Mar 12 2023 20:28:29 GMT-0700 (Pacific Daylight Time)","461831","Untrustworthy,Trustworthy","image-keyboard-response","74","57577","0.0-6.0-1.34","","","721","","trustrating_stim/white_mw046.bmp","6","","","","","","","","","","",""
"","","","ratingFB","6005fd9c8bbd67931607e518","bdp_trlrn","Sun Mar 12 2023 20:28:29 GMT-0700 (Pacific Daylight Time)","461831","Untrustworthy,Trustworthy","image-keyboard-response","75","57780","0.0-6.0-2.34","","","null","","trustrating_stim/white_mw046.bmp","null","","","","","","","","","","",""
"","","","rating","6005fd9c8bbd67931607e518","bdp_trlrn","Sun Mar 12 2023 20:28:29 GMT-0700 (Pacific Daylight Time)","461831","Untrustworthy,Trustworthy","image-keyboard-response","76","59114","0.0-6.0-1.35","","","1227","","trustrating_stim/white_mw048.bmp","6","","","","","","","","","","",""
"","","","ratingFB","6005fd9c8bbd67931607e518","bdp_trlrn","Sun Mar 12 2023 20:28:29 GMT-0700 (Pacific Daylight Time)","461831","Untrustworthy,Trustworthy","image-keyboard-response","77","59316","0.0-6.0-2.35","","","null","","trustrating_stim/white_mw048.bmp","null","","","","","","","","","","",""
"","","","rating","6005fd9c8bbd67931607e518","bdp_trlrn","Sun Mar 12 2023 20:28:29 GMT-0700 (Pacific Daylight Time)","461831","Untrustworthy,Trustworthy","image-keyboard-response","78","60207","0.0-6.0-1.36","","","790","","trustrating_stim/white_mw089.bmp","5","","","","","","","","","","",""
"","","","ratingFB","6005fd9c8bbd67931607e518","bdp_trlrn","Sun Mar 12 2023 20:28:29 GMT-0700 (Pacific Daylight Time)","461831","Untrustworthy,Trustworthy","image-keyboard-response","79","60415","0.0-6.0-2.36","","","null","","trustrating_stim/white_mw089.bmp","null","","","","","","","","","","",""
"","","","rating","6005fd9c8bbd67931607e518","bdp_trlrn","Sun Mar 12 2023 20:28:29 GMT-0700 (Pacific Daylight Time)","461831","Untrustworthy,Trustworthy","image-keyboard-response","80","61558","0.0-6.0-1.37","","","1038","","trustrating_stim/white_00602_940928_fb_edt.bmp","8","","","","","","","","","","",""
"","","","ratingFB","6005fd9c8bbd67931607e518","bdp_trlrn","Sun Mar 12 2023 20:28:29 GMT-0700 (Pacific Daylight Time)","461831","Untrustworthy,Trustworthy","image-keyboard-response","81","61763","0.0-6.0-2.37","","","null","","trustrating_stim/white_00602_940928_fb_edt.bmp","null","","","","","","","","","","",""
"","","","rating","6005fd9c8bbd67931607e518","bdp_trlrn","Sun Mar 12 2023 20:28:29 GMT-0700 (Pacific Daylight Time)","461831","Untrustworthy,Trustworthy","image-keyboard-response","82","62874","0.0-6.0-1.38","","","1003","","trustrating_stim/white_00223_940128_fb_edt.bmp","5","","","","","","","","","","",""
"","","","ratingFB","6005fd9c8bbd67931607e518","bdp_trlrn","Sun Mar 12 2023 20:28:29 GMT-0700 (Pacific Daylight Time)","461831","Untrustworthy,Trustworthy","image-keyboard-response","83","63080","0.0-6.0-2.38","","","null","","trustrating_stim/white_00223_940128_fb_edt.bmp","null","","","","","","","","","","",""
"","","","rating","6005fd9c8bbd67931607e518","bdp_trlrn","Sun Mar 12 2023 20:28:29 GMT-0700 (Pacific Daylight Time)","461831","Untrustworthy,Trustworthy","image-keyboard-response","84","64439","0.0-6.0-1.39","","","1249","","trustrating_stim/white_00761_941201_fb_edt.bmp","6","","","","","","","","","","",""
"","","","ratingFB","6005fd9c8bbd67931607e518","bdp_trlrn","Sun Mar 12 2023 20:28:29 GMT-0700 (Pacific Daylight Time)","461831","Untrustworthy,Trustworthy","image-keyboard-response","85","64646","0.0-6.0-2.39","","","null","","trustrating_stim/white_00761_941201_fb_edt.bmp","null","","","","","","","","","","",""
"","","","rating","6005fd9c8bbd67931607e518","bdp_trlrn","Sun Mar 12 2023 20:28:29 GMT-0700 (Pacific Daylight Time)","461831","Untrustworthy,Trustworthy","image-keyboard-response","86","65606","0.0-6.0-1.40","","","849","","trustrating_stim/white_mw066.bmp","7","","","","","","","","","","",""
"","","","ratingFB","6005fd9c8bbd67931607e518","bdp_trlrn","Sun Mar 12 2023 20:28:29 GMT-0700 (Pacific Daylight Time)","461831","Untrustworthy,Trustworthy","image-keyboard-response","87","65813","0.0-6.0-2.40","","","null","","trustrating_stim/white_mw066.bmp","null","","","","","","","","","","",""
"","","","rating","6005fd9c8bbd67931607e518","bdp_trlrn","Sun Mar 12 2023 20:28:29 GMT-0700 (Pacific Daylight Time)","461831","Untrustworthy,Trustworthy","image-keyboard-response","88","66592","0.0-6.0-1.41","","","670","","trustrating_stim/white_00120_931230_fa_edt.bmp","7","","","","","","","","","","",""
"","","","ratingFB","6005fd9c8bbd67931607e518","bdp_trlrn","Sun Mar 12 2023 20:28:29 GMT-0700 (Pacific Daylight Time)","461831","Untrustworthy,Trustworthy","image-keyboard-response","89","66798","0.0-6.0-2.41","","","null","","trustrating_stim/white_00120_931230_fa_edt.bmp","null","","","","","","","","","","",""
"","","","rating","6005fd9c8bbd67931607e518","bdp_trlrn","Sun Mar 12 2023 20:28:29 GMT-0700 (Pacific Daylight Time)","461831","Untrustworthy,Trustworthy","image-keyboard-response","90","67878","0.0-6.0-1.42","","","974","","trustrating_stim/white_00299_940422_fa_edt.bmp","7","","","","","","","","","","",""
"","","","ratingFB","6005fd9c8bbd67931607e518","bdp_trlrn","Sun Mar 12 2023 20:28:29 GMT-0700 (Pacific Daylight Time)","461831","Untrustworthy,Trustworthy","image-keyboard-response","91","68085","0.0-6.0-2.42","","","null","","trustrating_stim/white_00299_940422_fa_edt.bmp","null","","","","","","","","","","",""
"","","","rating","6005fd9c8bbd67931607e518","bdp_trlrn","Sun Mar 12 2023 20:28:29 GMT-0700 (Pacific Daylight Time)","461831","Untrustworthy,Trustworthy","image-keyboard-response","92","68700","0.0-6.0-1.43","","","507","","trustrating_stim/white_mw084.bmp","7","","","","","","","","","","",""
"","","","ratingFB","6005fd9c8bbd67931607e518","bdp_trlrn","Sun Mar 12 2023 20:28:29 GMT-0700 (Pacific Daylight Time)","461831","Untrustworthy,Trustworthy","image-keyboard-response","93","68903","0.0-6.0-2.43","","","null","","trustrating_stim/white_mw084.bmp","null","","","","","","","","","","",""
"","","","rating","6005fd9c8bbd67931607e518","bdp_trlrn","Sun Mar 12 2023 20:28:29 GMT-0700 (Pacific Daylight Time)","461831","Untrustworthy,Trustworthy","image-keyboard-response","94","70057","0.0-6.0-1.44","","","1049","","trustrating_stim/white_mw056.bmp","7","","","","","","","","","","",""
"","","","ratingFB","6005fd9c8bbd67931607e518","bdp_trlrn","Sun Mar 12 2023 20:28:29 GMT-0700 (Pacific Daylight Time)","461831","Untrustworthy,Trustworthy","image-keyboard-response","95","70262","0.0-6.0-2.44","","","null","","trustrating_stim/white_mw056.bmp","null","","","","","","","","","","",""
"","","","rating","6005fd9c8bbd67931607e518","bdp_trlrn","Sun Mar 12 2023 20:28:29 GMT-0700 (Pacific Daylight Time)","461831","Untrustworthy,Trustworthy","image-keyboard-response","96","70998","0.0-6.0-1.45","","","630","","trustrating_stim/white_mw049.bmp","8","","","","","","","","","","",""
"","","","ratingFB","6005fd9c8bbd67931607e518","bdp_trlrn","Sun Mar 12 2023 20:28:29 GMT-0700 (Pacific Daylight Time)","461831","Untrustworthy,Trustworthy","image-keyboard-response","97","71205","0.0-6.0-2.45","","","null","","trustrating_stim/white_mw049.bmp","null","","","","","","","","","","",""
"","","","rating","6005fd9c8bbd67931607e518","bdp_trlrn","Sun Mar 12 2023 20:28:29 GMT-0700 (Pacific Daylight Time)","461831","Untrustworthy,Trustworthy","image-keyboard-response","98","72435","0.0-6.0-1.46","","","1127","","trustrating_stim/white_00807_941205_fb_edt.bmp","6","","","","","","","","","","",""
"","","","ratingFB","6005fd9c8bbd67931607e518","bdp_trlrn","Sun Mar 12 2023 20:28:29 GMT-0700 (Pacific Daylight Time)","461831","Untrustworthy,Trustworthy","image-keyboard-response","99","72642","0.0-6.0-2.46","","","null","","trustrating_stim/white_00807_941205_fb_edt.bmp","null","","","","","","","","","","",""
"","","","rating","6005fd9c8bbd67931607e518","bdp_trlrn","Sun Mar 12 2023 20:28:29 GMT-0700 (Pacific Daylight Time)","461831","Untrustworthy,Trustworthy","image-keyboard-response","100","73568","0.0-6.0-1.47","","","823","","trustrating_stim/white_00659_941121_fa_edt.bmp","5","","","","","","","","","","",""
"","","","ratingFB","6005fd9c8bbd67931607e518","bdp_trlrn","Sun Mar 12 2023 20:28:29 GMT-0700 (Pacific Daylight Time)","461831","Untrustworthy,Trustworthy","image-keyboard-response","101","73776","0.0-6.0-2.47","","","null","","trustrating_stim/white_00659_941121_fa_edt.bmp","null","","","","","","","","","","",""
"","","","rating","6005fd9c8bbd67931607e518","bdp_trlrn","Sun Mar 12 2023 20:28:29 GMT-0700 (Pacific Daylight Time)","461831","Untrustworthy,Trustworthy","image-keyboard-response","102","75012","0.0-6.0-1.48","","","1128","","trustrating_stim/white_mw033.bmp","8","","","","","","","","","","",""
"","","","ratingFB","6005fd9c8bbd67931607e518","bdp_trlrn","Sun Mar 12 2023 20:28:29 GMT-0700 (Pacific Daylight Time)","461831","Untrustworthy,Trustworthy","image-keyboard-response","103","75214","0.0-6.0-2.48","","","null","","trustrating_stim/white_mw033.bmp","null","","","","","","","","","","",""
"","","","rating","6005fd9c8bbd67931607e518","bdp_trlrn","Sun Mar 12 2023 20:28:29 GMT-0700 (Pacific Daylight Time)","461831","Untrustworthy,Trustworthy","image-keyboard-response","104","76034","0.0-6.0-1.49","","","711","","trustrating_stim/white_00109_931230_fa_edt.bmp","8","","","","","","","","","","",""
"","","","ratingFB","6005fd9c8bbd67931607e518","bdp_trlrn","Sun Mar 12 2023 20:28:29 GMT-0700 (Pacific Daylight Time)","461831","Untrustworthy,Trustworthy","image-keyboard-response","105","76241","0.0-6.0-2.49","","","null","","trustrating_stim/white_00109_931230_fa_edt.bmp","null","","","","","","","","","","",""
"","","","rating","6005fd9c8bbd67931607e518","bdp_trlrn","Sun Mar 12 2023 20:28:29 GMT-0700 (Pacific Daylight Time)","461831","Untrustworthy,Trustworthy","image-keyboard-response","106","77539","0.0-6.0-1.50","","","1192","","trustrating_stim/white_00577_940928_fa_edt.bmp","6","","","","","","","","","","",""
"","","","ratingFB","6005fd9c8bbd67931607e518","bdp_trlrn","Sun Mar 12 2023 20:28:29 GMT-0700 (Pacific Daylight Time)","461831","Untrustworthy,Trustworthy","image-keyboard-response","107","77746","0.0-6.0-2.50","","","null","","trustrating_stim/white_00577_940928_fa_edt.bmp","null","","","","","","","","","","",""
"","","","rating","6005fd9c8bbd67931607e518","bdp_trlrn","Sun Mar 12 2023 20:28:29 GMT-0700 (Pacific Daylight Time)","461831","Untrustworthy,Trustworthy","image-keyboard-response","108","78544","0.0-6.0-1.51","","","694","","trustrating_stim/white_mw099.bmp","7","","","","","","","","","","",""
"","","","ratingFB","6005fd9c8bbd67931607e518","bdp_trlrn","Sun Mar 12 2023 20:28:29 GMT-0700 (Pacific Daylight Time)","461831","Untrustworthy,Trustworthy","image-keyboard-response","109","78751","0.0-6.0-2.51","","","null","","trustrating_stim/white_mw099.bmp","null","","","","","","","","","","",""
"","","","rating","6005fd9c8bbd67931607e518","bdp_trlrn","Sun Mar 12 2023 20:28:29 GMT-0700 (Pacific Daylight Time)","461831","Untrustworthy,Trustworthy","image-keyboard-response","110","79660","0.0-6.0-1.52","","","802","","trustrating_stim/white_mw063.bmp","6","","","","","","","","","","",""
"","","","ratingFB","6005fd9c8bbd67931607e518","bdp_trlrn","Sun Mar 12 2023 20:28:29 GMT-0700 (Pacific Daylight Time)","461831","Untrustworthy,Trustworthy","image-keyboard-response","111","79865","0.0-6.0-2.52","","","null","","trustrating_stim/white_mw063.bmp","null","","","","","","","","","","",""
"","","","rating","6005fd9c8bbd67931607e518","bdp_trlrn","Sun Mar 12 2023 20:28:29 GMT-0700 (Pacific Daylight Time)","461831","Untrustworthy,Trustworthy","image-keyboard-response","112","80877","0.0-6.0-1.53","","","903","","trustrating_stim/white_00785_941205_fb_edt.bmp","6","","","","","","","","","","",""
"","","","ratingFB","6005fd9c8bbd67931607e518","bdp_trlrn","Sun Mar 12 2023 20:28:29 GMT-0700 (Pacific Daylight Time)","461831","Untrustworthy,Trustworthy","image-keyboard-response","113","81084","0.0-6.0-2.53","","","null","","trustrating_stim/white_00785_941205_fb_edt.bmp","null","","","","","","","","","","",""
"","","","rating","6005fd9c8bbd67931607e518","bdp_trlrn","Sun Mar 12 2023 20:28:29 GMT-0700 (Pacific Daylight Time)","461831","Untrustworthy,Trustworthy","image-keyboard-response","114","81933","0.0-6.0-1.54","","","740","","trustrating_stim/white_mw097.bmp","5","","","","","","","","","","",""
"","","","ratingFB","6005fd9c8bbd67931607e518","bdp_trlrn","Sun Mar 12 2023 20:28:29 GMT-0700 (Pacific Daylight Time)","461831","Untrustworthy,Trustworthy","image-keyboard-response","115","82135","0.0-6.0-2.54","","","null","","trustrating_stim/white_mw097.bmp","null","","","","","","","","","","",""
"","","","rating","6005fd9c8bbd67931607e518","bdp_trlrn","Sun Mar 12 2023 20:28:29 GMT-0700 (Pacific Daylight Time)","461831","Untrustworthy,Trustworthy","image-keyboard-response","116","83296","0.0-6.0-1.55","","","1057","","trustrating_stim/white_mw071.bmp","5","","","","","","","","","","",""
"","","","ratingFB","6005fd9c8bbd67931607e518","bdp_trlrn","Sun Mar 12 2023 20:28:29 GMT-0700 (Pacific Daylight Time)","461831","Untrustworthy,Trustworthy","image-keyboard-response","117","83500","0.0-6.0-2.55","","","null","","trustrating_stim/white_mw071.bmp","null","","","","","","","","","","",""
"","","","rating","6005fd9c8bbd67931607e518","bdp_trlrn","Sun Mar 12 2023 20:28:29 GMT-0700 (Pacific Daylight Time)","461831","Untrustworthy,Trustworthy","image-keyboard-response","118","84248","0.0-6.0-1.56","","","642","","trustrating_stim/white_00757_941201_fa_edt.bmp","5","","","","","","","","","","",""
"","","","ratingFB","6005fd9c8bbd67931607e518","bdp_trlrn","Sun Mar 12 2023 20:28:29 GMT-0700 (Pacific Daylight Time)","461831","Untrustworthy,Trustworthy","image-keyboard-response","119","84454","0.0-6.0-2.56","","","null","","trustrating_stim/white_00757_941201_fa_edt.bmp","null","","","","","","","","","","",""
"","","","rating","6005fd9c8bbd67931607e518","bdp_trlrn","Sun Mar 12 2023 20:28:29 GMT-0700 (Pacific Daylight Time)","461831","Untrustworthy,Trustworthy","image-keyboard-response","120","85476","0.0-6.0-1.57","","","918","","trustrating_stim/white_00340_940422_fa_edt.bmp","5","","","","","","","","","","",""
"","","","ratingFB","6005fd9c8bbd67931607e518","bdp_trlrn","Sun Mar 12 2023 20:28:29 GMT-0700 (Pacific Daylight Time)","461831","Untrustworthy,Trustworthy","image-keyboard-response","121","85682","0.0-6.0-2.57","","","null","","trustrating_stim/white_00340_940422_fa_edt.bmp","null","","","","","","","","","","",""
"","","","rating","6005fd9c8bbd67931607e518","bdp_trlrn","Sun Mar 12 2023 20:28:29 GMT-0700 (Pacific Daylight Time)","461831","Untrustworthy,Trustworthy","image-keyboard-response","122","86959","0.0-6.0-1.58","","","1172","","trustrating_stim/white_00519_940519_fb_edt.bmp","6","","","","","","","","","","",""
"","","","ratingFB","6005fd9c8bbd67931607e518","bdp_trlrn","Sun Mar 12 2023 20:28:29 GMT-0700 (Pacific Daylight Time)","461831","Untrustworthy,Trustworthy","image-keyboard-response","123","87162","0.0-6.0-2.58","","","null","","trustrating_stim/white_00519_940519_fb_edt.bmp","null","","","","","","","","","","",""
"","","","rating","6005fd9c8bbd67931607e518","bdp_trlrn","Sun Mar 12 2023 20:28:29 GMT-0700 (Pacific Daylight Time)","461831","Untrustworthy,Trustworthy","image-keyboard-response","124","87995","0.0-6.0-1.59","","","726","","trustrating_stim/white_00129_931230_fb_edt.bmp","7","","","","","","","","","","",""
"","","","ratingFB","6005fd9c8bbd67931607e518","bdp_trlrn","Sun Mar 12 2023 20:28:29 GMT-0700 (Pacific Daylight Time)","461831","Untrustworthy,Trustworthy","image-keyboard-response","125","88201","0.0-6.0-2.59","","","null","","trustrating_stim/white_00129_931230_fb_edt.bmp","null","","","","","","","","","","",""
"","","","","6005fd9c8bbd67931607e518","bdp_trlrn","Sun Mar 12 2023 20:28:29 GMT-0700 (Pacific Daylight Time)","461831","Untrustworthy,Trustworthy","instructions","126","89215","0.0-7.0","","[{""page_index"":0,""viewing_time"":907}]","907","","","","","","","","","","","","","",""
"","","","","6005fd9c8bbd67931607e518","bdp_trlrn","Sun Mar 12 2023 20:28:29 GMT-0700 (Pacific Daylight Time)","461831","Untrustworthy,Trustworthy","instructions","127","134080","0.0-8.0","","[{""page_index"":0,""viewing_time"":8545},{""page_index"":1,""viewing_time"":10700},{""page_index"":2,""viewing_time"":2977},{""page_index"":3,""viewing_time"":6065},{""page_index"":4,""viewing_time"":1446},{""page_index"":5,""viewing_time"":8744},{""page_index"":6,""viewing_time"":3210},{""page_index"":7,""viewing_time"":3072}]","44760","","","","","","","","","","","","","",""
"","","","","6005fd9c8bbd67931607e518","bdp_trlrn","Sun Mar 12 2023 20:28:29 GMT-0700 (Pacific Daylight Time)","461831","Untrustworthy,Trustworthy","html-keyboard-response","128","136190","0.0-9.0","","","2109","","<div class='header' style='text-align:left; position: absolute; top: 5%; left: 5%;'><small>Task 3 of 5</small></div><div class='instruxDiv'><p><strong>1) What is the minimum number of points you can choose to send to your partner?</strong></p><p>a) 0</p><p>b) 1</p><p>c) 5</p>","C","","","","","","","","","","",""
"","","","","6005fd9c8bbd67931607e518","bdp_trlrn","Sun Mar 12 2023 20:28:29 GMT-0700 (Pacific Daylight Time)","461831","Untrustworthy,Trustworthy","html-keyboard-response","129","139024","0.0-10.0","","","2730","","<div class='header' style='text-align:left; position: absolute; top: 5%; left: 5%;'><small>Task 3 of 5</small></div><div class='instruxDiv'><p><strong>1) What is the minimum number of points you can choose to send to your partner?</strong></p><p>a) 1</p><p>b) 1</p><p style='color:#FF0000'>c) 5</p><h3 style='color:#FF0000'>Incorrect!</h3><h3 class='center-content'>The correct response is b).</h3><h3 class='center-content'>The minimum number of points you can choose to send to your partner is 1 point.</h3><p><em>Press SPACEBAR to continue</em></p></div>"," ","","","","","","","","","","",""
"","","","","6005fd9c8bbd67931607e518","bdp_trlrn","Sun Mar 12 2023 20:28:29 GMT-0700 (Pacific Daylight Time)","461831","Untrustworthy,Trustworthy","html-keyboard-response","130","144277","0.0-11.0","","","5148","","<div class='header' style='text-align:left; position: absolute; top: 5%; left: 5%;'><small>Task 3 of 5</small></div><div class='instruxDiv'><p><strong>2) What is the maximum number of points you can choose to send to your partner?</strong></p><p>a) 8</p><p>b) 5</p><p>c) 3</p>","B","","","","","","","","","","",""
"","","","","6005fd9c8bbd67931607e518","bdp_trlrn","Sun Mar 12 2023 20:28:29 GMT-0700 (Pacific Daylight Time)","461831","Untrustworthy,Trustworthy","html-keyboard-response","131","145066","0.0-12.0","","","683","","<div class='header' style='text-align:left; position: absolute; top: 5%; left: 5%;'><small>Task 3 of 5</small></div><div class='instruxDiv'><p><strong>2) What is the maximum number of points you can choose to send to your partner?</strong></p><p>a) 8</p><p style='color:#00FF00'>b) 5</p><p>c) 3</p><h3 style='color:#00FF00'>Correct!</h3><h3 class='center-content'>The correct response is b).</h3><h3 class='center-content'>The maximum number of points you can choose to send to your partner is 5 points.</h3><p><em>Press SPACEBAR to continue</em></p></div>"," ","","","","","","","","","","",""
"","","","","6005fd9c8bbd67931607e518","bdp_trlrn","Sun Mar 12 2023 20:28:29 GMT-0700 (Pacific Daylight Time)","461831","Untrustworthy,Trustworthy","html-keyboard-response","132","151468","0.0-13.0","","","6297","","<div class='header' style='text-align:left; position: absolute; top: 5%; left: 5%;'><small>Task 3 of 5</small></div><div class='instruxDiv'><p><strong>3) What happens to the amount of points you send to your partner?</strong></p><p>a) Nothing</p><p>b) It doubles</p><p>c) It quadruples</p>","A","","","","","","","","","","",""
"","","","","6005fd9c8bbd67931607e518","bdp_trlrn","Sun Mar 12 2023 20:28:29 GMT-0700 (Pacific Daylight Time)","461831","Untrustworthy,Trustworthy","html-keyboard-response","133","154649","0.0-14.0","","","3075","","<div class='header' style='text-align:left; position: absolute; top: 5%; left: 5%;'><small>Task 3 of 5</small></div><div class='instruxDiv'><p><strong>3) What happens to the amount of points you send to your partner?</strong></p><p style='color:#FF0000'>a) Nothing</p><p>b) It doubles</p><p>c) It quadruples</p><h3 style='color:#FF0000'>Incorrect!</h3><h3 class='center-content'>The correct response is c).</h3><h3 class='center-content'>The amount of points you send to your partner quadruples.</h3><p><em>Press SPACEBAR to continue</em></p></div>"," ","","","","","","","","","","",""
"","","","","6005fd9c8bbd67931607e518","bdp_trlrn","Sun Mar 12 2023 20:28:29 GMT-0700 (Pacific Daylight Time)","461831","Untrustworthy,Trustworthy","html-keyboard-response","134","165349","0.0-15.0","","","10593","","<div class='header' style='text-align:left; position: absolute; top: 5%; left: 5%;'><small>Task 3 of 5</small></div><div class='instruxDiv'><p><strong>4) If you decided to share 4 out of 5 points with your partner, and they decided to share half of the amount they received with you, how many points would you receive back from them on this round?</strong></p><p>a) 16</p><p>b) 0</p><p>c) 8</p>","A","","","","","","","","","","",""
"","","","","6005fd9c8bbd67931607e518","bdp_trlrn","Sun Mar 12 2023 20:28:29 GMT-0700 (Pacific Daylight Time)","461831","Untrustworthy,Trustworthy","html-keyboard-response","135","168151","0.0-16.0","","","2698","","<div class='header' style='text-align:left; position: absolute; top: 5%; left: 5%;'><small>Task 3 of 5</small></div><div class='instruxDiv'><p><strong>4) If you decided to share 4 out of 5 points with your partner, and they decided to share half of the amount they received with you, how many points would you receive back from them on this round?</strong></p><p style='color:#FF0000'>a) 16</p><p>b) 0</p><p>c) 8</p><h3 style='color:#FF0000'>Incorrect!</h3><h3 class='center-content'>The correct response is c).</h3><h3 class='center-content'>If you shared 4 out of 5 points with your partner and they decided to share half of the amount they received with you, you would receive 8 points back (i.e. (4 x 4)/2 = 8).</h3><p><em>Press SPACEBAR to continue</em></p></div>"," ","","","","","","","","","","",""
"","","","","6005fd9c8bbd67931607e518","bdp_trlrn","Sun Mar 12 2023 20:28:29 GMT-0700 (Pacific Daylight Time)","461831","Untrustworthy,Trustworthy","html-keyboard-response","136","173262","0.0-17.0","","","null","","<div class='header' style='text-align:left; position: absolute; top: 5%; left: 5%;'><small>Task 3 of 5</small></div><div class='instruxDiv'><p>Thank you for completing the quiz<p>These are the actual partners you will be interacting with in the next block:<p><div class='tc' align='center'><img class='introPic' src='trustrating_stim/white_00659_941121_fa_edt.bmp'><br><strong>Jordan</strong></div><div class='bl' align='center'><img class='introPic' src='trustrating_stim/white_mw066.bmp'><br><strong>Brian</strong></div><div class='br' align='center'><img class='introPic' src='trustrating_stim/white_mw049.bmp'><br><strong>Lucas</strong></div></div><p>Across <strong>66 rounds</strong> you will interact with each partner <strong>22 times</strong> (in random order).<p style='align:center; color:white'><font <em>Press SPACEBAR to continue</em></p>","null","","","","","","","","","","",""
"","","","","6005fd9c8bbd67931607e518","bdp_trlrn","Sun Mar 12 2023 20:28:29 GMT-0700 (Pacific Daylight Time)","461831","Untrustworthy,Trustworthy","instructions","137","175985","0.0-18.0","","[{""page_index"":0,""viewing_time"":1218},{""page_index"":1,""viewing_time"":1503}]","2722","","","","","","","","","","","","","",""
"","","","decision","6005fd9c8bbd67931607e518","bdp_trlrn","Sun Mar 12 2023 20:28:29 GMT-0700 (Pacific Daylight Time)","461831","Untrustworthy,Trustworthy","html-keyboard-response","138","179258","0.0-19.0-1.0","","","3169","","<div class='trialDiv'><img src='trustrating_stim/white_mw066.bmp'><br><font class='baseline'><strong>Brian</strong><p>Choose number of points to send.</font><div class='respPicDiv'><img src='img/responseButtonOffersNo0L.png' class='respPic'></div></div>","4","1","Brian","7","Kept","0.2,0.65","10","0.2","trustrating_stim/white_mw066.bmp","6.5","5","1"
"","","","decisionFB","6005fd9c8bbd67931607e518","bdp_trlrn","Sun Mar 12 2023 20:28:29 GMT-0700 (Pacific Daylight Time)","461831","Untrustworthy,Trustworthy","html-keyboard-response","139","179514","0.0-19.0-2.0","","","null","","<div class='trialDiv'><img src='trustrating_stim/white_mw066.bmp'><br><font class='baseline'><strong>Brian</strong><p>Choose number of points to send.</font><div class='respPicDiv'><img src='img/responseButtonOffersNo0L4.png' class='respPic'></div></div>","null","1","Brian","7","Kept","0.2,0.65","10","0.2","trustrating_stim/white_mw066.bmp","6.5","1","1"
"","","","feedback","6005fd9c8bbd67931607e518","bdp_trlrn","Sun Mar 12 2023 20:28:29 GMT-0700 (Pacific Daylight Time)","461831","Untrustworthy,Trustworthy","html-keyboard-response","140","180516","0.0-19.0-3.0","","","null","","<div class='trialDiv'><img src='trustrating_stim/white_mw066.bmp'><br><font class='baseline'><strong>Brian</strong><p>Received: <strong>16</strong></font> &nbsp; &nbsp; &nbsp; &nbsp; &nbsp; &nbsp;<font class='negOutcome'>Shared back: <strong>0</strong></font></font><div class='respPicDiv'><img src='img/responseButtonOffersNo0_wht.png' class='respPic'></div></div>","null","1","Brian","7","Kept","0.2,0.65","10","0.2","trustrating_stim/white_mw066.bmp","6.5","1","1"
"","","","decision","6005fd9c8bbd67931607e518","bdp_trlrn","Sun Mar 12 2023 20:28:29 GMT-0700 (Pacific Daylight Time)","461831","Untrustworthy,Trustworthy","html-keyboard-response","141","182449","0.0-19.0-1.1","","","1932","","<div class='trialDiv'><img src='trustrating_stim/white_00659_941121_fa_edt.bmp'><br><font class='baseline'><strong>Jordan</strong><p>Choose number of points to send.</font><div class='respPicDiv'><img src='img/responseButtonOffersNo0L.png' class='respPic'></div></div>","3","1","Jordan","2","Kept","0.35,0.65","10","0.35","trustrating_stim/white_00659_941121_fa_edt.bmp","5","6","2"
"","","","decisionFB","6005fd9c8bbd67931607e518","bdp_trlrn","Sun Mar 12 2023 20:28:29 GMT-0700 (Pacific Daylight Time)","461831","Untrustworthy,Trustworthy","html-keyboard-response","142","182708","0.0-19.0-2.1","","","null","","<div class='trialDiv'><img src='trustrating_stim/white_00659_941121_fa_edt.bmp'><br><font class='baseline'><strong>Jordan</strong><p>Choose number of points to send.</font><div class='respPicDiv'><img src='img/responseButtonOffersNo0L3.png' class='respPic'></div></div>","null","1","Jordan","2","Kept","0.35,0.65","10","0.35","trustrating_stim/white_00659_941121_fa_edt.bmp","5","3","2"
"","","","feedback","6005fd9c8bbd67931607e518","bdp_trlrn","Sun Mar 12 2023 20:28:29 GMT-0700 (Pacific Daylight Time)","461831","Untrustworthy,Trustworthy","html-keyboard-response","143","183710","0.0-19.0-3.1","","","null","","<div class='trialDiv'><img src='trustrating_stim/white_00659_941121_fa_edt.bmp'><br><font class='baseline'><strong>Jordan</strong><p>Received: <strong>12</strong></font> &nbsp; &nbsp; &nbsp; &nbsp; &nbsp; &nbsp;<font class='negOutcome'>Shared back: <strong>0</strong></font></font><div class='respPicDiv'><img src='img/responseButtonOffersNo0_wht.png' class='respPic'></div></div>","null","1","Jordan","2","Kept","0.35,0.65","10","0.35","trustrating_stim/white_00659_941121_fa_edt.bmp","5","3","2"
"","","","decision","6005fd9c8bbd67931607e518","bdp_trlrn","Sun Mar 12 2023 20:28:29 GMT-0700 (Pacific Daylight Time)","461831","Untrustworthy,Trustworthy","html-keyboard-response","144","184752","0.0-19.0-1.2","","","1041","","<div class='trialDiv'><img src='trustrating_stim/white_mw049.bmp'><br><font class='baseline'><strong>Lucas</strong><p>Choose number of points to send.</font><div class='respPicDiv'><img src='img/responseButtonOffersNo0L.png' class='respPic'></div></div>","4","1","Lucas","9","Shared","0.8,0.35","9","0.8","trustrating_stim/white_mw049.bmp","8","8","3"
"","","","decisionFB","6005fd9c8bbd67931607e518","bdp_trlrn","Sun Mar 12 2023 20:28:29 GMT-0700 (Pacific Daylight Time)","461831","Untrustworthy,Trustworthy","html-keyboard-response","145","185007","0.0-19.0-2.2","","","null","","<div class='trialDiv'><img src='trustrating_stim/white_mw049.bmp'><br><font class='baseline'><strong>Lucas</strong><p>Choose number of points to send.</font><div class='respPicDiv'><img src='img/responseButtonOffersNo0L4.png' class='respPic'></div></div>","null","1","Lucas","9","Shared","0.8,0.35","9","0.8","trustrating_stim/white_mw049.bmp","8","4","3"
"","","","feedback","6005fd9c8bbd67931607e518","bdp_trlrn","Sun Mar 12 2023 20:28:29 GMT-0700 (Pacific Daylight Time)","461831","Untrustworthy,Trustworthy","html-keyboard-response","146","186011","0.0-19.0-3.2","","","null","","<div class='trialDiv'><img src='trustrating_stim/white_mw049.bmp'><br><font class='baseline'><strong>Lucas</strong><p>Received: <strong>16</strong></font> &nbsp; &nbsp; &nbsp; &nbsp; &nbsp; &nbsp;<font class='posOutcome'>Shared back: <strong>8</strong></font></font><div class='respPicDiv'><img src='img/responseButtonOffersNo0_wht.png' class='respPic'></div></div>","null","1","Lucas","9","Shared","0.8,0.35","9","0.8","trustrating_stim/white_mw049.bmp","8","12","3"
"","","","decision","6005fd9c8bbd67931607e518","bdp_trlrn","Sun Mar 12 2023 20:28:29 GMT-0700 (Pacific Daylight Time)","461831","Untrustworthy,Trustworthy","html-keyboard-response","147","187337","0.0-19.0-1.3","","","1324","","<div class='trialDiv'><img src='trustrating_stim/white_00659_941121_fa_edt.bmp'><br><font class='baseline'><strong>Jordan</strong><p>Choose number of points to send.</font><div class='respPicDiv'><img src='img/responseButtonOffersNo0L.png' class='respPic'></div></div>","3","2","Jordan","2","Kept","0.35,0.65","10","0.35","trustrating_stim/white_00659_941121_fa_edt.bmp","5","17","4"
"","","","decisionFB","6005fd9c8bbd67931607e518","bdp_trlrn","Sun Mar 12 2023 20:28:29 GMT-0700 (Pacific Daylight Time)","461831","Untrustworthy,Trustworthy","html-keyboard-response","148","187592","0.0-19.0-2.3","","","null","","<div class='trialDiv'><img src='trustrating_stim/white_00659_941121_fa_edt.bmp'><br><font class='baseline'><strong>Jordan</strong><p>Choose number of points to send.</font><div class='respPicDiv'><img src='img/responseButtonOffersNo0L3.png' class='respPic'></div></div>","null","2","Jordan","2","Kept","0.35,0.65","10","0.35","trustrating_stim/white_00659_941121_fa_edt.bmp","5","14","4"
"","","","feedback","6005fd9c8bbd67931607e518","bdp_trlrn","Sun Mar 12 2023 20:28:29 GMT-0700 (Pacific Daylight Time)","461831","Untrustworthy,Trustworthy","html-keyboard-response","149","188598","0.0-19.0-3.3","","","null","","<div class='trialDiv'><img src='trustrating_stim/white_00659_941121_fa_edt.bmp'><br><font class='baseline'><strong>Jordan</strong><p>Received: <strong>12</strong></font> &nbsp; &nbsp; &nbsp; &nbsp; &nbsp; &nbsp;<font class='negOutcome'>Shared back: <strong>0</strong></font></font><div class='respPicDiv'><img src='img/responseButtonOffersNo0_wht.png' class='respPic'></div></div>","null","2","Jordan","2","Kept","0.35,0.65","10","0.35","trustrating_stim/white_00659_941121_fa_edt.bmp","5","14","4"
"","","","decision","6005fd9c8bbd67931607e518","bdp_trlrn","Sun Mar 12 2023 20:28:29 GMT-0700 (Pacific Daylight Time)","461831","Untrustworthy,Trustworthy","html-keyboard-response","150","189341","0.0-19.0-1.4","","","741","","<div class='trialDiv'><img src='trustrating_stim/white_mw066.bmp'><br><font class='baseline'><strong>Brian</strong><p>Choose number of points to send.</font><div class='respPicDiv'><img src='img/responseButtonOffersNo0L.png' class='respPic'></div></div>","4","2","Brian","7","Kept","0.2,0.65","10","0.2","trustrating_stim/white_mw066.bmp","6.5","19","5"
"","","","decisionFB","6005fd9c8bbd67931607e518","bdp_trlrn","Sun Mar 12 2023 20:28:29 GMT-0700 (Pacific Daylight Time)","461831","Untrustworthy,Trustworthy","html-keyboard-response","151","189597","0.0-19.0-2.4","","","null","","<div class='trialDiv'><img src='trustrating_stim/white_mw066.bmp'><br><font class='baseline'><strong>Brian</strong><p>Choose number of points to send.</font><div class='respPicDiv'><img src='img/responseButtonOffersNo0L4.png' class='respPic'></div></div>","null","2","Brian","7","Kept","0.2,0.65","10","0.2","trustrating_stim/white_mw066.bmp","6.5","15","5"
"","","","feedback","6005fd9c8bbd67931607e518","bdp_trlrn","Sun Mar 12 2023 20:28:29 GMT-0700 (Pacific Daylight Time)","461831","Untrustworthy,Trustworthy","html-keyboard-response","152","190601","0.0-19.0-3.4","","","null","","<div class='trialDiv'><img src='trustrating_stim/white_mw066.bmp'><br><font class='baseline'><strong>Brian</strong><p>Received: <strong>16</strong></font> &nbsp; &nbsp; &nbsp; &nbsp; &nbsp; &nbsp;<font class='negOutcome'>Shared back: <strong>0</strong></font></font><div class='respPicDiv'><img src='img/responseButtonOffersNo0_wht.png' class='respPic'></div></div>","null","2","Brian","7","Kept","0.2,0.65","10","0.2","trustrating_stim/white_mw066.bmp","6.5","15","5"
"","","","decision","6005fd9c8bbd67931607e518","bdp_trlrn","Sun Mar 12 2023 20:28:29 GMT-0700 (Pacific Daylight Time)","461831","Untrustworthy,Trustworthy","html-keyboard-response","153","192201","0.0-19.0-1.5","","","1600","","<div class='trialDiv'><img src='trustrating_stim/white_mw049.bmp'><br><font class='baseline'><strong>Lucas</strong><p>Choose number of points to send.</font><div class='respPicDiv'><img src='img/responseButtonOffersNo0L.png' class='respPic'></div></div>","5","2","Lucas","9","Kept","0.8,0.35","9","0.8","trustrating_stim/white_mw049.bmp","8","20","6"
"","","","decisionFB","6005fd9c8bbd67931607e518","bdp_trlrn","Sun Mar 12 2023 20:28:29 GMT-0700 (Pacific Daylight Time)","461831","Untrustworthy,Trustworthy","html-keyboard-response","154","192456","0.0-19.0-2.5","","","null","","<div class='trialDiv'><img src='trustrating_stim/white_mw049.bmp'><br><font class='baseline'><strong>Lucas</strong><p>Choose number of points to send.</font><div class='respPicDiv'><img src='img/responseButtonOffersNo0L5.png' class='respPic'></div></div>","null","2","Lucas","9","Kept","0.8,0.35","9","0.8","trustrating_stim/white_mw049.bmp","8","15","6"
"","","","feedback","6005fd9c8bbd67931607e518","bdp_trlrn","Sun Mar 12 2023 20:28:29 GMT-0700 (Pacific Daylight Time)","461831","Untrustworthy,Trustworthy","html-keyboard-response","155","193462","0.0-19.0-3.5","","","null","","<div class='trialDiv'><img src='trustrating_stim/white_mw049.bmp'><br><font class='baseline'><strong>Lucas</strong><p>Received: <strong>20</strong></font> &nbsp; &nbsp; &nbsp; &nbsp; &nbsp; &nbsp;<font class='negOutcome'>Shared back: <strong>0</strong></font></font><div class='respPicDiv'><img src='img/responseButtonOffersNo0_wht.png' class='respPic'></div></div>","null","2","Lucas","9","Kept","0.8,0.35","9","0.8","trustrating_stim/white_mw049.bmp","8","15","6"
"","","","decision","6005fd9c8bbd67931607e518","bdp_trlrn","Sun Mar 12 2023 20:28:29 GMT-0700 (Pacific Daylight Time)","461831","Untrustworthy,Trustworthy","html-keyboard-response","156","195490","0.0-19.0-1.6","","","2027","","<div class='trialDiv'><img src='trustrating_stim/white_mw066.bmp'><br><font class='baseline'><strong>Brian</strong><p>Choose number of points to send.</font><div class='respPicDiv'><img src='img/responseButtonOffersNo0L.png' class='respPic'></div></div>","1","3","Brian","7","Kept","0.2,0.65","10","0.2","trustrating_stim/white_mw066.bmp","6.5","20","7"
"","","","decisionFB","6005fd9c8bbd67931607e518","bdp_trlrn","Sun Mar 12 2023 20:28:29 GMT-0700 (Pacific Daylight Time)","461831","Untrustworthy,Trustworthy","html-keyboard-response","157","195747","0.0-19.0-2.6","","","null","","<div class='trialDiv'><img src='trustrating_stim/white_mw066.bmp'><br><font class='baseline'><strong>Brian</strong><p>Choose number of points to send.</font><div class='respPicDiv'><img src='img/responseButtonOffersNo0L1.png' class='respPic'></div></div>","null","3","Brian","7","Kept","0.2,0.65","10","0.2","trustrating_stim/white_mw066.bmp","6.5","19","7"
"","","","feedback","6005fd9c8bbd67931607e518","bdp_trlrn","Sun Mar 12 2023 20:28:29 GMT-0700 (Pacific Daylight Time)","461831","Untrustworthy,Trustworthy","html-keyboard-response","158","196749","0.0-19.0-3.6","","","null","","<div class='trialDiv'><img src='trustrating_stim/white_mw066.bmp'><br><font class='baseline'><strong>Brian</strong><p>Received: <strong>4</strong></font> &nbsp; &nbsp; &nbsp; &nbsp; &nbsp; &nbsp;<font class='negOutcome'>Shared back: <strong>0</strong></font></font><div class='respPicDiv'><img src='img/responseButtonOffersNo0_wht.png' class='respPic'></div></div>","null","3","Brian","7","Kept","0.2,0.65","10","0.2","trustrating_stim/white_mw066.bmp","6.5","19","7"
"","","","decision","6005fd9c8bbd67931607e518","bdp_trlrn","Sun Mar 12 2023 20:28:29 GMT-0700 (Pacific Daylight Time)","461831","Untrustworthy,Trustworthy","html-keyboard-response","159","198201","0.0-19.0-1.7","","","1450","","<div class='trialDiv'><img src='trustrating_stim/white_mw049.bmp'><br><font class='baseline'><strong>Lucas</strong><p>Choose number of points to send.</font><div class='respPicDiv'><img src='img/responseButtonOffersNo0L.png' class='respPic'></div></div>","4","3","Lucas","9","Shared","0.8,0.35","9","0.8","trustrating_stim/white_mw049.bmp","8","24","8"
"","","","decisionFB","6005fd9c8bbd67931607e518","bdp_trlrn","Sun Mar 12 2023 20:28:29 GMT-0700 (Pacific Daylight Time)","461831","Untrustworthy,Trustworthy","html-keyboard-response","160","198458","0.0-19.0-2.7","","","null","","<div class='trialDiv'><img src='trustrating_stim/white_mw049.bmp'><br><font class='baseline'><strong>Lucas</strong><p>Choose number of points to send.</font><div class='respPicDiv'><img src='img/responseButtonOffersNo0L4.png' class='respPic'></div></div>","null","3","Lucas","9","Shared","0.8,0.35","9","0.8","trustrating_stim/white_mw049.bmp","8","20","8"
"","","","feedback","6005fd9c8bbd67931607e518","bdp_trlrn","Sun Mar 12 2023 20:28:29 GMT-0700 (Pacific Daylight Time)","461831","Untrustworthy,Trustworthy","html-keyboard-response","161","199463","0.0-19.0-3.7","","","null","","<div class='trialDiv'><img src='trustrating_stim/white_mw049.bmp'><br><font class='baseline'><strong>Lucas</strong><p>Received: <strong>16</strong></font> &nbsp; &nbsp; &nbsp; &nbsp; &nbsp; &nbsp;<font class='posOutcome'>Shared back: <strong>8</strong></font></font><div class='respPicDiv'><img src='img/responseButtonOffersNo0_wht.png' class='respPic'></div></div>","null","3","Lucas","9","Shared","0.8,0.35","9","0.8","trustrating_stim/white_mw049.bmp","8","28","8"
"","","","decision","6005fd9c8bbd67931607e518","bdp_trlrn","Sun Mar 12 2023 20:28:29 GMT-0700 (Pacific Daylight Time)","461831","Untrustworthy,Trustworthy","html-keyboard-response","162","200517","0.0-19.0-1.8","","","1053","","<div class='trialDiv'><img src='trustrating_stim/white_00659_941121_fa_edt.bmp'><br><font class='baseline'><strong>Jordan</strong><p>Choose number of points to send.</font><div class='respPicDiv'><img src='img/responseButtonOffersNo0L.png' class='respPic'></div></div>","1","3","Jordan","2","Shared","0.35,0.65","10","0.35","trustrating_stim/white_00659_941121_fa_edt.bmp","5","33","9"
"","","","decisionFB","6005fd9c8bbd67931607e518","bdp_trlrn","Sun Mar 12 2023 20:28:29 GMT-0700 (Pacific Daylight Time)","461831","Untrustworthy,Trustworthy","html-keyboard-response","163","200773","0.0-19.0-2.8","","","null","","<div class='trialDiv'><img src='trustrating_stim/white_00659_941121_fa_edt.bmp'><br><font class='baseline'><strong>Jordan</strong><p>Choose number of points to send.</font><div class='respPicDiv'><img src='img/responseButtonOffersNo0L1.png' class='respPic'></div></div>","null","3","Jordan","2","Shared","0.35,0.65","10","0.35","trustrating_stim/white_00659_941121_fa_edt.bmp","5","32","9"
"","","","feedback","6005fd9c8bbd67931607e518","bdp_trlrn","Sun Mar 12 2023 20:28:29 GMT-0700 (Pacific Daylight Time)","461831","Untrustworthy,Trustworthy","html-keyboard-response","164","201778","0.0-19.0-3.8","","","null","","<div class='trialDiv'><img src='trustrating_stim/white_00659_941121_fa_edt.bmp'><br><font class='baseline'><strong>Jordan</strong><p>Received: <strong>4</strong></font> &nbsp; &nbsp; &nbsp; &nbsp; &nbsp; &nbsp;<font class='posOutcome'>Shared back: <strong>2</strong></font></font><div class='respPicDiv'><img src='img/responseButtonOffersNo0_wht.png' class='respPic'></div></div>","null","3","Jordan","2","Shared","0.35,0.65","10","0.35","trustrating_stim/white_00659_941121_fa_edt.bmp","5","34","9"
"","","","decision","6005fd9c8bbd67931607e518","bdp_trlrn","Sun Mar 12 2023 20:28:29 GMT-0700 (Pacific Daylight Time)","461831","Untrustworthy,Trustworthy","html-keyboard-response","165","203506","0.0-19.0-1.9","","","1726","","<div class='trialDiv'><img src='trustrating_stim/white_mw049.bmp'><br><font class='baseline'><strong>Lucas</strong><p>Choose number of points to send.</font><div class='respPicDiv'><img src='img/responseButtonOffersNo0L.png' class='respPic'></div></div>","5","4","Lucas","9","Shared","0.8,0.35","9","0.8","trustrating_stim/white_mw049.bmp","8","39","10"
"","","","decisionFB","6005fd9c8bbd67931607e518","bdp_trlrn","Sun Mar 12 2023 20:28:29 GMT-0700 (Pacific Daylight Time)","461831","Untrustworthy,Trustworthy","html-keyboard-response","166","203758","0.0-19.0-2.9","","","null","","<div class='trialDiv'><img src='trustrating_stim/white_mw049.bmp'><br><font class='baseline'><strong>Lucas</strong><p>Choose number of points to send.</font><div class='respPicDiv'><img src='img/responseButtonOffersNo0L5.png' class='respPic'></div></div>","null","4","Lucas","9","Shared","0.8,0.35","9","0.8","trustrating_stim/white_mw049.bmp","8","34","10"
"","","","feedback","6005fd9c8bbd67931607e518","bdp_trlrn","Sun Mar 12 2023 20:28:29 GMT-0700 (Pacific Daylight Time)","461831","Untrustworthy,Trustworthy","html-keyboard-response","167","204763","0.0-19.0-3.9","","","null","","<div class='trialDiv'><img src='trustrating_stim/white_mw049.bmp'><br><font class='baseline'><strong>Lucas</strong><p>Received: <strong>20</strong></font> &nbsp; &nbsp; &nbsp; &nbsp; &nbsp; &nbsp;<font class='posOutcome'>Shared back: <strong>10</strong></font></font><div class='respPicDiv'><img src='img/responseButtonOffersNo0_wht.png' class='respPic'></div></div>","null","4","Lucas","9","Shared","0.8,0.35","9","0.8","trustrating_stim/white_mw049.bmp","8","44","10"
"","","","decision","6005fd9c8bbd67931607e518","bdp_trlrn","Sun Mar 12 2023 20:28:29 GMT-0700 (Pacific Daylight Time)","461831","Untrustworthy,Trustworthy","html-keyboard-response","168","206043","0.0-19.0-1.10","","","1279","","<div class='trialDiv'><img src='trustrating_stim/white_mw066.bmp'><br><font class='baseline'><strong>Brian</strong><p>Choose number of points to send.</font><div class='respPicDiv'><img src='img/responseButtonOffersNo0L.png' class='respPic'></div></div>","3","4","Brian","7","Shared","0.2,0.65","10","0.2","trustrating_stim/white_mw066.bmp","6.5","49","11"
"","","","decisionFB","6005fd9c8bbd67931607e518","bdp_trlrn","Sun Mar 12 2023 20:28:29 GMT-0700 (Pacific Daylight Time)","461831","Untrustworthy,Trustworthy","html-keyboard-response","169","206301","0.0-19.0-2.10","","","null","","<div class='trialDiv'><img src='trustrating_stim/white_mw066.bmp'><br><font class='baseline'><strong>Brian</strong><p>Choose number of points to send.</font><div class='respPicDiv'><img src='img/responseButtonOffersNo0L3.png' class='respPic'></div></div>","null","4","Brian","7","Shared","0.2,0.65","10","0.2","trustrating_stim/white_mw066.bmp","6.5","46","11"
"","","","feedback","6005fd9c8bbd67931607e518","bdp_trlrn","Sun Mar 12 2023 20:28:29 GMT-0700 (Pacific Daylight Time)","461831","Untrustworthy,Trustworthy","html-keyboard-response","170","207303","0.0-19.0-3.10","","","null","","<div class='trialDiv'><img src='trustrating_stim/white_mw066.bmp'><br><font class='baseline'><strong>Brian</strong><p>Received: <strong>12</strong></font> &nbsp; &nbsp; &nbsp; &nbsp; &nbsp; &nbsp;<font class='posOutcome'>Shared back: <strong>6</strong></font></font><div class='respPicDiv'><img src='img/responseButtonOffersNo0_wht.png' class='respPic'></div></div>","null","4","Brian","7","Shared","0.2,0.65","10","0.2","trustrating_stim/white_mw066.bmp","6.5","52","11"
"","","","decision","6005fd9c8bbd67931607e518","bdp_trlrn","Sun Mar 12 2023 20:28:29 GMT-0700 (Pacific Daylight Time)","461831","Untrustworthy,Trustworthy","html-keyboard-response","171","208450","0.0-19.0-1.11","","","1146","","<div class='trialDiv'><img src='trustrating_stim/white_00659_941121_fa_edt.bmp'><br><font class='baseline'><strong>Jordan</strong><p>Choose number of points to send.</font><div class='respPicDiv'><img src='img/responseButtonOffersNo0L.png' class='respPic'></div></div>","1","4","Jordan","2","Shared","0.35,0.65","10","0.35","trustrating_stim/white_00659_941121_fa_edt.bmp","5","57","12"
"","","","decisionFB","6005fd9c8bbd67931607e518","bdp_trlrn","Sun Mar 12 2023 20:28:29 GMT-0700 (Pacific Daylight Time)","461831","Untrustworthy,Trustworthy","html-keyboard-response","172","208707","0.0-19.0-2.11","","","null","","<div class='trialDiv'><img src='trustrating_stim/white_00659_941121_fa_edt.bmp'><br><font class='baseline'><strong>Jordan</strong><p>Choose number of points to send.</font><div class='respPicDiv'><img src='img/responseButtonOffersNo0L1.png' class='respPic'></div></div>","null","4","Jordan","2","Shared","0.35,0.65","10","0.35","trustrating_stim/white_00659_941121_fa_edt.bmp","5","56","12"
"","","","feedback","6005fd9c8bbd67931607e518","bdp_trlrn","Sun Mar 12 2023 20:28:29 GMT-0700 (Pacific Daylight Time)","461831","Untrustworthy,Trustworthy","html-keyboard-response","173","209710","0.0-19.0-3.11","","","null","","<div class='trialDiv'><img src='trustrating_stim/white_00659_941121_fa_edt.bmp'><br><font class='baseline'><strong>Jordan</strong><p>Received: <strong>4</strong></font> &nbsp; &nbsp; &nbsp; &nbsp; &nbsp; &nbsp;<font class='posOutcome'>Shared back: <strong>2</strong></font></font><div class='respPicDiv'><img src='img/responseButtonOffersNo0_wht.png' class='respPic'></div></div>","null","4","Jordan","2","Shared","0.35,0.65","10","0.35","trustrating_stim/white_00659_941121_fa_edt.bmp","5","58","12"
"","","","decision","6005fd9c8bbd67931607e518","bdp_trlrn","Sun Mar 12 2023 20:28:29 GMT-0700 (Pacific Daylight Time)","461831","Untrustworthy,Trustworthy","html-keyboard-response","174","211013","0.0-19.0-1.12","","","1303","","<div class='trialDiv'><img src='trustrating_stim/white_mw049.bmp'><br><font class='baseline'><strong>Lucas</strong><p>Choose number of points to send.</font><div class='respPicDiv'><img src='img/responseButtonOffersNo0L.png' class='respPic'></div></div>","3","5","Lucas","9","Shared","0.8,0.35","9","0.8","trustrating_stim/white_mw049.bmp","8","63","13"
"","","","decisionFB","6005fd9c8bbd67931607e518","bdp_trlrn","Sun Mar 12 2023 20:28:29 GMT-0700 (Pacific Daylight Time)","461831","Untrustworthy,Trustworthy","html-keyboard-response","175","211270","0.0-19.0-2.12","","","null","","<div class='trialDiv'><img src='trustrating_stim/white_mw049.bmp'><br><font class='baseline'><strong>Lucas</strong><p>Choose number of points to send.</font><div class='respPicDiv'><img src='img/responseButtonOffersNo0L3.png' class='respPic'></div></div>","null","5","Lucas","9","Shared","0.8,0.35","9","0.8","trustrating_stim/white_mw049.bmp","8","60","13"
"","","","feedback","6005fd9c8bbd67931607e518","bdp_trlrn","Sun Mar 12 2023 20:28:29 GMT-0700 (Pacific Daylight Time)","461831","Untrustworthy,Trustworthy","html-keyboard-response","176","212275","0.0-19.0-3.12","","","null","","<div class='trialDiv'><img src='trustrating_stim/white_mw049.bmp'><br><font class='baseline'><strong>Lucas</strong><p>Received: <strong>12</strong></font> &nbsp; &nbsp; &nbsp; &nbsp; &nbsp; &nbsp;<font class='posOutcome'>Shared back: <strong>6</strong></font></font><div class='respPicDiv'><img src='img/responseButtonOffersNo0_wht.png' class='respPic'></div></div>","null","5","Lucas","9","Shared","0.8,0.35","9","0.8","trustrating_stim/white_mw049.bmp","8","66","13"
"","","","decision","6005fd9c8bbd67931607e518","bdp_trlrn","Sun Mar 12 2023 20:28:29 GMT-0700 (Pacific Daylight Time)","461831","Untrustworthy,Trustworthy","html-keyboard-response","177","213481","0.0-19.0-1.13","","","1206","","<div class='trialDiv'><img src='trustrating_stim/white_mw066.bmp'><br><font class='baseline'><strong>Brian</strong><p>Choose number of points to send.</font><div class='respPicDiv'><img src='img/responseButtonOffersNo0L.png' class='respPic'></div></div>","3","5","Brian","7","Kept","0.2,0.65","10","0.2","trustrating_stim/white_mw066.bmp","6.5","71","14"
"","","","decisionFB","6005fd9c8bbd67931607e518","bdp_trlrn","Sun Mar 12 2023 20:28:29 GMT-0700 (Pacific Daylight Time)","461831","Untrustworthy,Trustworthy","html-keyboard-response","178","213735","0.0-19.0-2.13","","","null","","<div class='trialDiv'><img src='trustrating_stim/white_mw066.bmp'><br><font class='baseline'><strong>Brian</strong><p>Choose number of points to send.</font><div class='respPicDiv'><img src='img/responseButtonOffersNo0L3.png' class='respPic'></div></div>","null","5","Brian","7","Kept","0.2,0.65","10","0.2","trustrating_stim/white_mw066.bmp","6.5","68","14"
"","","","feedback","6005fd9c8bbd67931607e518","bdp_trlrn","Sun Mar 12 2023 20:28:29 GMT-0700 (Pacific Daylight Time)","461831","Untrustworthy,Trustworthy","html-keyboard-response","179","214738","0.0-19.0-3.13","","","null","","<div class='trialDiv'><img src='trustrating_stim/white_mw066.bmp'><br><font class='baseline'><strong>Brian</strong><p>Received: <strong>12</strong></font> &nbsp; &nbsp; &nbsp; &nbsp; &nbsp; &nbsp;<font class='negOutcome'>Shared back: <strong>0</strong></font></font><div class='respPicDiv'><img src='img/responseButtonOffersNo0_wht.png' class='respPic'></div></div>","null","5","Brian","7","Kept","0.2,0.65","10","0.2","trustrating_stim/white_mw066.bmp","6.5","68","14"
"","","","decision","6005fd9c8bbd67931607e518","bdp_trlrn","Sun Mar 12 2023 20:28:29 GMT-0700 (Pacific Daylight Time)","461831","Untrustworthy,Trustworthy","html-keyboard-response","180","215816","0.0-19.0-1.14","","","1076","","<div class='trialDiv'><img src='trustrating_stim/white_00659_941121_fa_edt.bmp'><br><font class='baseline'><strong>Jordan</strong><p>Choose number of points to send.</font><div class='respPicDiv'><img src='img/responseButtonOffersNo0L.png' class='respPic'></div></div>","1","5","Jordan","2","Shared","0.35,0.65","10","0.35","trustrating_stim/white_00659_941121_fa_edt.bmp","5","73","15"
"","","","decisionFB","6005fd9c8bbd67931607e518","bdp_trlrn","Sun Mar 12 2023 20:28:29 GMT-0700 (Pacific Daylight Time)","461831","Untrustworthy,Trustworthy","html-keyboard-response","181","216072","0.0-19.0-2.14","","","null","","<div class='trialDiv'><img src='trustrating_stim/white_00659_941121_fa_edt.bmp'><br><font class='baseline'><strong>Jordan</strong><p>Choose number of points to send.</font><div class='respPicDiv'><img src='img/responseButtonOffersNo0L1.png' class='respPic'></div></div>","null","5","Jordan","2","Shared","0.35,0.65","10","0.35","trustrating_stim/white_00659_941121_fa_edt.bmp","5","72","15"
"","","","feedback","6005fd9c8bbd67931607e518","bdp_trlrn","Sun Mar 12 2023 20:28:29 GMT-0700 (Pacific Daylight Time)","461831","Untrustworthy,Trustworthy","html-keyboard-response","182","217075","0.0-19.0-3.14","","","null","","<div class='trialDiv'><img src='trustrating_stim/white_00659_941121_fa_edt.bmp'><br><font class='baseline'><strong>Jordan</strong><p>Received: <strong>4</strong></font> &nbsp; &nbsp; &nbsp; &nbsp; &nbsp; &nbsp;<font class='posOutcome'>Shared back: <strong>2</strong></font></font><div class='respPicDiv'><img src='img/responseButtonOffersNo0_wht.png' class='respPic'></div></div>","null","5","Jordan","2","Shared","0.35,0.65","10","0.35","trustrating_stim/white_00659_941121_fa_edt.bmp","5","74","15"
"","","","decision","6005fd9c8bbd67931607e518","bdp_trlrn","Sun Mar 12 2023 20:28:29 GMT-0700 (Pacific Daylight Time)","461831","Untrustworthy,Trustworthy","html-keyboard-response","183","218483","0.0-19.0-1.15","","","1405","","<div class='trialDiv'><img src='trustrating_stim/white_mw049.bmp'><br><font class='baseline'><strong>Lucas</strong><p>Choose number of points to send.</font><div class='respPicDiv'><img src='img/responseButtonOffersNo0L.png' class='respPic'></div></div>","4","6","Lucas","9","Shared","0.8,0.35","9","0.8","trustrating_stim/white_mw049.bmp","8","79","16"
"","","","decisionFB","6005fd9c8bbd67931607e518","bdp_trlrn","Sun Mar 12 2023 20:28:29 GMT-0700 (Pacific Daylight Time)","461831","Untrustworthy,Trustworthy","html-keyboard-response","184","218739","0.0-19.0-2.15","","","null","","<div class='trialDiv'><img src='trustrating_stim/white_mw049.bmp'><br><font class='baseline'><strong>Lucas</strong><p>Choose number of points to send.</font><div class='respPicDiv'><img src='img/responseButtonOffersNo0L4.png' class='respPic'></div></div>","null","6","Lucas","9","Shared","0.8,0.35","9","0.8","trustrating_stim/white_mw049.bmp","8","75","16"
"","","","feedback","6005fd9c8bbd67931607e518","bdp_trlrn","Sun Mar 12 2023 20:28:29 GMT-0700 (Pacific Daylight Time)","461831","Untrustworthy,Trustworthy","html-keyboard-response","185","219741","0.0-19.0-3.15","","","null","","<div class='trialDiv'><img src='trustrating_stim/white_mw049.bmp'><br><font class='baseline'><strong>Lucas</strong><p>Received: <strong>16</strong></font> &nbsp; &nbsp; &nbsp; &nbsp; &nbsp; &nbsp;<font class='posOutcome'>Shared back: <strong>8</strong></font></font><div class='respPicDiv'><img src='img/responseButtonOffersNo0_wht.png' class='respPic'></div></div>","null","6","Lucas","9","Shared","0.8,0.35","9","0.8","trustrating_stim/white_mw049.bmp","8","83","16"
"","","","decision","6005fd9c8bbd67931607e518","bdp_trlrn","Sun Mar 12 2023 20:28:29 GMT-0700 (Pacific Daylight Time)","461831","Untrustworthy,Trustworthy","html-keyboard-response","186","221220","0.0-19.0-1.16","","","1478","","<div class='trialDiv'><img src='trustrating_stim/white_00659_941121_fa_edt.bmp'><br><font class='baseline'><strong>Jordan</strong><p>Choose number of points to send.</font><div class='respPicDiv'><img src='img/responseButtonOffersNo0L.png' class='respPic'></div></div>","1","6","Jordan","2","Shared","0.35,0.65","10","0.35","trustrating_stim/white_00659_941121_fa_edt.bmp","5","88","17"
"","","","decisionFB","6005fd9c8bbd67931607e518","bdp_trlrn","Sun Mar 12 2023 20:28:29 GMT-0700 (Pacific Daylight Time)","461831","Untrustworthy,Trustworthy","html-keyboard-response","187","221477","0.0-19.0-2.16","","","null","","<div class='trialDiv'><img src='trustrating_stim/white_00659_941121_fa_edt.bmp'><br><font class='baseline'><strong>Jordan</strong><p>Choose number of points to send.</font><div class='respPicDiv'><img src='img/responseButtonOffersNo0L1.png' class='respPic'></div></div>","null","6","Jordan","2","Shared","0.35,0.65","10","0.35","trustrating_stim/white_00659_941121_fa_edt.bmp","5","87","17"
"","","","feedback","6005fd9c8bbd67931607e518","bdp_trlrn","Sun Mar 12 2023 20:28:29 GMT-0700 (Pacific Daylight Time)","461831","Untrustworthy,Trustworthy","html-keyboard-response","188","222483","0.0-19.0-3.16","","","null","","<div class='trialDiv'><img src='trustrating_stim/white_00659_941121_fa_edt.bmp'><br><font class='baseline'><strong>Jordan</strong><p>Received: <strong>4</strong></font> &nbsp; &nbsp; &nbsp; &nbsp; &nbsp; &nbsp;<font class='posOutcome'>Shared back: <strong>2</strong></font></font><div class='respPicDiv'><img src='img/responseButtonOffersNo0_wht.png' class='respPic'></div></div>","null","6","Jordan","2","Shared","0.35,0.65","10","0.35","trustrating_stim/white_00659_941121_fa_edt.bmp","5","89","17"
"","","","decision","6005fd9c8bbd67931607e518","bdp_trlrn","Sun Mar 12 2023 20:28:29 GMT-0700 (Pacific Daylight Time)","461831","Untrustworthy,Trustworthy","html-keyboard-response","189","224098","0.0-19.0-1.17","","","1614","","<div class='trialDiv'><img src='trustrating_stim/white_mw066.bmp'><br><font class='baseline'><strong>Brian</strong><p>Choose number of points to send.</font><div class='respPicDiv'><img src='img/responseButtonOffersNo0L.png' class='respPic'></div></div>","5","6","Brian","7","Kept","0.2,0.65","10","0.2","trustrating_stim/white_mw066.bmp","6.5","94","18"
"","","","decisionFB","6005fd9c8bbd67931607e518","bdp_trlrn","Sun Mar 12 2023 20:28:29 GMT-0700 (Pacific Daylight Time)","461831","Untrustworthy,Trustworthy","html-keyboard-response","190","224355","0.0-19.0-2.17","","","null","","<div class='trialDiv'><img src='trustrating_stim/white_mw066.bmp'><br><font class='baseline'><strong>Brian</strong><p>Choose number of points to send.</font><div class='respPicDiv'><img src='img/responseButtonOffersNo0L5.png' class='respPic'></div></div>","null","6","Brian","7","Kept","0.2,0.65","10","0.2","trustrating_stim/white_mw066.bmp","6.5","89","18"
"","","","feedback","6005fd9c8bbd67931607e518","bdp_trlrn","Sun Mar 12 2023 20:28:29 GMT-0700 (Pacific Daylight Time)","461831","Untrustworthy,Trustworthy","html-keyboard-response","191","225356","0.0-19.0-3.17","","","null","","<div class='trialDiv'><img src='trustrating_stim/white_mw066.bmp'><br><font class='baseline'><strong>Brian</strong><p>Received: <strong>20</strong></font> &nbsp; &nbsp; &nbsp; &nbsp; &nbsp; &nbsp;<font class='negOutcome'>Shared back: <strong>0</strong></font></font><div class='respPicDiv'><img src='img/responseButtonOffersNo0_wht.png' class='respPic'></div></div>","null","6","Brian","7","Kept","0.2,0.65","10","0.2","trustrating_stim/white_mw066.bmp","6.5","89","18"
"","","","decision","6005fd9c8bbd67931607e518","bdp_trlrn","Sun Mar 12 2023 20:28:29 GMT-0700 (Pacific Daylight Time)","461831","Untrustworthy,Trustworthy","html-keyboard-response","192","226992","0.0-19.0-1.18","","","1635","","<div class='trialDiv'><img src='trustrating_stim/white_00659_941121_fa_edt.bmp'><br><font class='baseline'><strong>Jordan</strong><p>Choose number of points to send.</font><div class='respPicDiv'><img src='img/responseButtonOffersNo0L.png' class='respPic'></div></div>","1","7","Jordan","2","Kept","0.35,0.65","10","0.35","trustrating_stim/white_00659_941121_fa_edt.bmp","5","94","19"
"","","","decisionFB","6005fd9c8bbd67931607e518","bdp_trlrn","Sun Mar 12 2023 20:28:29 GMT-0700 (Pacific Daylight Time)","461831","Untrustworthy,Trustworthy","html-keyboard-response","193","227248","0.0-19.0-2.18","","","null","","<div class='trialDiv'><img src='trustrating_stim/white_00659_941121_fa_edt.bmp'><br><font class='baseline'><strong>Jordan</strong><p>Choose number of points to send.</font><div class='respPicDiv'><img src='img/responseButtonOffersNo0L1.png' class='respPic'></div></div>","null","7","Jordan","2","Kept","0.35,0.65","10","0.35","trustrating_stim/white_00659_941121_fa_edt.bmp","5","93","19"
"","","","feedback","6005fd9c8bbd67931607e518","bdp_trlrn","Sun Mar 12 2023 20:28:29 GMT-0700 (Pacific Daylight Time)","461831","Untrustworthy,Trustworthy","html-keyboard-response","194","228252","0.0-19.0-3.18","","","null","","<div class='trialDiv'><img src='trustrating_stim/white_00659_941121_fa_edt.bmp'><br><font class='baseline'><strong>Jordan</strong><p>Received: <strong>4</strong></font> &nbsp; &nbsp; &nbsp; &nbsp; &nbsp; &nbsp;<font class='negOutcome'>Shared back: <strong>0</strong></font></font><div class='respPicDiv'><img src='img/responseButtonOffersNo0_wht.png' class='respPic'></div></div>","null","7","Jordan","2","Kept","0.35,0.65","10","0.35","trustrating_stim/white_00659_941121_fa_edt.bmp","5","93","19"
"","","","decision","6005fd9c8bbd67931607e518","bdp_trlrn","Sun Mar 12 2023 20:28:29 GMT-0700 (Pacific Daylight Time)","461831","Untrustworthy,Trustworthy","html-keyboard-response","195","229630","0.0-19.0-1.19","","","1377","","<div class='trialDiv'><img src='trustrating_stim/white_mw066.bmp'><br><font class='baseline'><strong>Brian</strong><p>Choose number of points to send.</font><div class='respPicDiv'><img src='img/responseButtonOffersNo0L.png' class='respPic'></div></div>","4","7","Brian","7","Kept","0.2,0.65","10","0.2","trustrating_stim/white_mw066.bmp","6.5","98","20"
"","","","decisionFB","6005fd9c8bbd67931607e518","bdp_trlrn","Sun Mar 12 2023 20:28:29 GMT-0700 (Pacific Daylight Time)","461831","Untrustworthy,Trustworthy","html-keyboard-response","196","229885","0.0-19.0-2.19","","","null","","<div class='trialDiv'><img src='trustrating_stim/white_mw066.bmp'><br><font class='baseline'><strong>Brian</strong><p>Choose number of points to send.</font><div class='respPicDiv'><img src='img/responseButtonOffersNo0L4.png' class='respPic'></div></div>","null","7","Brian","7","Kept","0.2,0.65","10","0.2","trustrating_stim/white_mw066.bmp","6.5","94","20"
"","","","feedback","6005fd9c8bbd67931607e518","bdp_trlrn","Sun Mar 12 2023 20:28:29 GMT-0700 (Pacific Daylight Time)","461831","Untrustworthy,Trustworthy","html-keyboard-response","197","230891","0.0-19.0-3.19","","","null","","<div class='trialDiv'><img src='trustrating_stim/white_mw066.bmp'><br><font class='baseline'><strong>Brian</strong><p>Received: <strong>16</strong></font> &nbsp; &nbsp; &nbsp; &nbsp; &nbsp; &nbsp;<font class='negOutcome'>Shared back: <strong>0</strong></font></font><div class='respPicDiv'><img src='img/responseButtonOffersNo0_wht.png' class='respPic'></div></div>","null","7","Brian","7","Kept","0.2,0.65","10","0.2","trustrating_stim/white_mw066.bmp","6.5","94","20"
"","","","decision","6005fd9c8bbd67931607e518","bdp_trlrn","Sun Mar 12 2023 20:28:29 GMT-0700 (Pacific Daylight Time)","461831","Untrustworthy,Trustworthy","html-keyboard-response","198","231923","0.0-19.0-1.20","","","1030","","<div class='trialDiv'><img src='trustrating_stim/white_mw049.bmp'><br><font class='baseline'><strong>Lucas</strong><p>Choose number of points to send.</font><div class='respPicDiv'><img src='img/responseButtonOffersNo0L.png' class='respPic'></div></div>","5","7","Lucas","9","Shared","0.8,0.35","9","0.8","trustrating_stim/white_mw049.bmp","8","99","21"
"","","","decisionFB","6005fd9c8bbd67931607e518","bdp_trlrn","Sun Mar 12 2023 20:28:29 GMT-0700 (Pacific Daylight Time)","461831","Untrustworthy,Trustworthy","html-keyboard-response","199","232176","0.0-19.0-2.20","","","null","","<div class='trialDiv'><img src='trustrating_stim/white_mw049.bmp'><br><font class='baseline'><strong>Lucas</strong><p>Choose number of points to send.</font><div class='respPicDiv'><img src='img/responseButtonOffersNo0L5.png' class='respPic'></div></div>","null","7","Lucas","9","Shared","0.8,0.35","9","0.8","trustrating_stim/white_mw049.bmp","8","94","21"
"","","","feedback","6005fd9c8bbd67931607e518","bdp_trlrn","Sun Mar 12 2023 20:28:29 GMT-0700 (Pacific Daylight Time)","461831","Untrustworthy,Trustworthy","html-keyboard-response","200","233182","0.0-19.0-3.20","","","null","","<div class='trialDiv'><img src='trustrating_stim/white_mw049.bmp'><br><font class='baseline'><strong>Lucas</strong><p>Received: <strong>20</strong></font> &nbsp; &nbsp; &nbsp; &nbsp; &nbsp; &nbsp;<font class='posOutcome'>Shared back: <strong>10</strong></font></font><div class='respPicDiv'><img src='img/responseButtonOffersNo0_wht.png' class='respPic'></div></div>","null","7","Lucas","9","Shared","0.8,0.35","9","0.8","trustrating_stim/white_mw049.bmp","8","104","21"
"","","","decision","6005fd9c8bbd67931607e518","bdp_trlrn","Sun Mar 12 2023 20:28:29 GMT-0700 (Pacific Daylight Time)","461831","Untrustworthy,Trustworthy","html-keyboard-response","201","234310","0.0-19.0-1.21","","","1127","","<div class='trialDiv'><img src='trustrating_stim/white_00659_941121_fa_edt.bmp'><br><font class='baseline'><strong>Jordan</strong><p>Choose number of points to send.</font><div class='respPicDiv'><img src='img/responseButtonOffersNo0L.png' class='respPic'></div></div>","1","8","Jordan","2","Shared","0.35,0.65","10","0.35","trustrating_stim/white_00659_941121_fa_edt.bmp","5","109","22"
"","","","decisionFB","6005fd9c8bbd67931607e518","bdp_trlrn","Sun Mar 12 2023 20:28:29 GMT-0700 (Pacific Daylight Time)","461831","Untrustworthy,Trustworthy","html-keyboard-response","202","234563","0.0-19.0-2.21","","","null","","<div class='trialDiv'><img src='trustrating_stim/white_00659_941121_fa_edt.bmp'><br><font class='baseline'><strong>Jordan</strong><p>Choose number of points to send.</font><div class='respPicDiv'><img src='img/responseButtonOffersNo0L1.png' class='respPic'></div></div>","null","8","Jordan","2","Shared","0.35,0.65","10","0.35","trustrating_stim/white_00659_941121_fa_edt.bmp","5","108","22"
"","","","feedback","6005fd9c8bbd67931607e518","bdp_trlrn","Sun Mar 12 2023 20:28:29 GMT-0700 (Pacific Daylight Time)","461831","Untrustworthy,Trustworthy","html-keyboard-response","203","235568","0.0-19.0-3.21","","","null","","<div class='trialDiv'><img src='trustrating_stim/white_00659_941121_fa_edt.bmp'><br><font class='baseline'><strong>Jordan</strong><p>Received: <strong>4</strong></font> &nbsp; &nbsp; &nbsp; &nbsp; &nbsp; &nbsp;<font class='posOutcome'>Shared back: <strong>2</strong></font></font><div class='respPicDiv'><img src='img/responseButtonOffersNo0_wht.png' class='respPic'></div></div>","null","8","Jordan","2","Shared","0.35,0.65","10","0.35","trustrating_stim/white_00659_941121_fa_edt.bmp","5","110","22"
"","","","decision","6005fd9c8bbd67931607e518","bdp_trlrn","Sun Mar 12 2023 20:28:29 GMT-0700 (Pacific Daylight Time)","461831","Untrustworthy,Trustworthy","html-keyboard-response","204","236875","0.0-19.0-1.22","","","1305","","<div class='trialDiv'><img src='trustrating_stim/white_mw049.bmp'><br><font class='baseline'><strong>Lucas</strong><p>Choose number of points to send.</font><div class='respPicDiv'><img src='img/responseButtonOffersNo0L.png' class='respPic'></div></div>","5","8","Lucas","9","Shared","0.8,0.35","9","0.8","trustrating_stim/white_mw049.bmp","8","115","23"
"","","","decisionFB","6005fd9c8bbd67931607e518","bdp_trlrn","Sun Mar 12 2023 20:28:29 GMT-0700 (Pacific Daylight Time)","461831","Untrustworthy,Trustworthy","html-keyboard-response","205","237128","0.0-19.0-2.22","","","null","","<div class='trialDiv'><img src='trustrating_stim/white_mw049.bmp'><br><font class='baseline'><strong>Lucas</strong><p>Choose number of points to send.</font><div class='respPicDiv'><img src='img/responseButtonOffersNo0L5.png' class='respPic'></div></div>","null","8","Lucas","9","Shared","0.8,0.35","9","0.8","trustrating_stim/white_mw049.bmp","8","110","23"
"","","","feedback","6005fd9c8bbd67931607e518","bdp_trlrn","Sun Mar 12 2023 20:28:29 GMT-0700 (Pacific Daylight Time)","461831","Untrustworthy,Trustworthy","html-keyboard-response","206","238130","0.0-19.0-3.22","","","null","","<div class='trialDiv'><img src='trustrating_stim/white_mw049.bmp'><br><font class='baseline'><strong>Lucas</strong><p>Received: <strong>20</strong></font> &nbsp; &nbsp; &nbsp; &nbsp; &nbsp; &nbsp;<font class='posOutcome'>Shared back: <strong>10</strong></font></font><div class='respPicDiv'><img src='img/responseButtonOffersNo0_wht.png' class='respPic'></div></div>","null","8","Lucas","9","Shared","0.8,0.35","9","0.8","trustrating_stim/white_mw049.bmp","8","120","23"
"","","","decision","6005fd9c8bbd67931607e518","bdp_trlrn","Sun Mar 12 2023 20:28:29 GMT-0700 (Pacific Daylight Time)","461831","Untrustworthy,Trustworthy","html-keyboard-response","207","238871","0.0-19.0-1.23","","","739","","<div class='trialDiv'><img src='trustrating_stim/white_mw066.bmp'><br><font class='baseline'><strong>Brian</strong><p>Choose number of points to send.</font><div class='respPicDiv'><img src='img/responseButtonOffersNo0L.png' class='respPic'></div></div>","5","8","Brian","7","Shared","0.2,0.65","10","0.2","trustrating_stim/white_mw066.bmp","6.5","125","24"
"","","","decisionFB","6005fd9c8bbd67931607e518","bdp_trlrn","Sun Mar 12 2023 20:28:29 GMT-0700 (Pacific Daylight Time)","461831","Untrustworthy,Trustworthy","html-keyboard-response","208","239123","0.0-19.0-2.23","","","null","","<div class='trialDiv'><img src='trustrating_stim/white_mw066.bmp'><br><font class='baseline'><strong>Brian</strong><p>Choose number of points to send.</font><div class='respPicDiv'><img src='img/responseButtonOffersNo0L5.png' class='respPic'></div></div>","null","8","Brian","7","Shared","0.2,0.65","10","0.2","trustrating_stim/white_mw066.bmp","6.5","120","24"
"","","","feedback","6005fd9c8bbd67931607e518","bdp_trlrn","Sun Mar 12 2023 20:28:29 GMT-0700 (Pacific Daylight Time)","461831","Untrustworthy,Trustworthy","html-keyboard-response","209","240125","0.0-19.0-3.23","","","null","","<div class='trialDiv'><img src='trustrating_stim/white_mw066.bmp'><br><font class='baseline'><strong>Brian</strong><p>Received: <strong>20</strong></font> &nbsp; &nbsp; &nbsp; &nbsp; &nbsp; &nbsp;<font class='posOutcome'>Shared back: <strong>10</strong></font></font><div class='respPicDiv'><img src='img/responseButtonOffersNo0_wht.png' class='respPic'></div></div>","null","8","Brian","7","Shared","0.2,0.65","10","0.2","trustrating_stim/white_mw066.bmp","6.5","130","24"
"","","","decision","6005fd9c8bbd67931607e518","bdp_trlrn","Sun Mar 12 2023 20:28:29 GMT-0700 (Pacific Daylight Time)","461831","Untrustworthy,Trustworthy","html-keyboard-response","210","240731","0.0-19.0-1.24","","","605","","<div class='trialDiv'><img src='trustrating_stim/white_00659_941121_fa_edt.bmp'><br><font class='baseline'><strong>Jordan</strong><p>Choose number of points to send.</font><div class='respPicDiv'><img src='img/responseButtonOffersNo0L.png' class='respPic'></div></div>","1","9","Jordan","2","Kept","0.35,0.65","10","0.35","trustrating_stim/white_00659_941121_fa_edt.bmp","5","135","25"
"","","","decisionFB","6005fd9c8bbd67931607e518","bdp_trlrn","Sun Mar 12 2023 20:28:29 GMT-0700 (Pacific Daylight Time)","461831","Untrustworthy,Trustworthy","html-keyboard-response","211","240987","0.0-19.0-2.24","","","null","","<div class='trialDiv'><img src='trustrating_stim/white_00659_941121_fa_edt.bmp'><br><font class='baseline'><strong>Jordan</strong><p>Choose number of points to send.</font><div class='respPicDiv'><img src='img/responseButtonOffersNo0L1.png' class='respPic'></div></div>","null","9","Jordan","2","Kept","0.35,0.65","10","0.35","trustrating_stim/white_00659_941121_fa_edt.bmp","5","134","25"
"","","","feedback","6005fd9c8bbd67931607e518","bdp_trlrn","Sun Mar 12 2023 20:28:29 GMT-0700 (Pacific Daylight Time)","461831","Untrustworthy,Trustworthy","html-keyboard-response","212","241990","0.0-19.0-3.24","","","null","","<div class='trialDiv'><img src='trustrating_stim/white_00659_941121_fa_edt.bmp'><br><font class='baseline'><strong>Jordan</strong><p>Received: <strong>4</strong></font> &nbsp; &nbsp; &nbsp; &nbsp; &nbsp; &nbsp;<font class='negOutcome'>Shared back: <strong>0</strong></font></font><div class='respPicDiv'><img src='img/responseButtonOffersNo0_wht.png' class='respPic'></div></div>","null","9","Jordan","2","Kept","0.35,0.65","10","0.35","trustrating_stim/white_00659_941121_fa_edt.bmp","5","134","25"
"","","","decision","6005fd9c8bbd67931607e518","bdp_trlrn","Sun Mar 12 2023 20:28:29 GMT-0700 (Pacific Daylight Time)","461831","Untrustworthy,Trustworthy","html-keyboard-response","213","243884","0.0-19.0-1.25","","","1893","","<div class='trialDiv'><img src='trustrating_stim/white_mw049.bmp'><br><font class='baseline'><strong>Lucas</strong><p>Choose number of points to send.</font><div class='respPicDiv'><img src='img/responseButtonOffersNo0L.png' class='respPic'></div></div>","3","9","Lucas","9","Shared","0.8,0.35","9","0.8","trustrating_stim/white_mw049.bmp","8","139","26"
"","","","decisionFB","6005fd9c8bbd67931607e518","bdp_trlrn","Sun Mar 12 2023 20:28:29 GMT-0700 (Pacific Daylight Time)","461831","Untrustworthy,Trustworthy","html-keyboard-response","214","244141","0.0-19.0-2.25","","","null","","<div class='trialDiv'><img src='trustrating_stim/white_mw049.bmp'><br><font class='baseline'><strong>Lucas</strong><p>Choose number of points to send.</font><div class='respPicDiv'><img src='img/responseButtonOffersNo0L3.png' class='respPic'></div></div>","null","9","Lucas","9","Shared","0.8,0.35","9","0.8","trustrating_stim/white_mw049.bmp","8","136","26"
"","","","feedback","6005fd9c8bbd67931607e518","bdp_trlrn","Sun Mar 12 2023 20:28:29 GMT-0700 (Pacific Daylight Time)","461831","Untrustworthy,Trustworthy","html-keyboard-response","215","245144","0.0-19.0-3.25","","","null","","<div class='trialDiv'><img src='trustrating_stim/white_mw049.bmp'><br><font class='baseline'><strong>Lucas</strong><p>Received: <strong>12</strong></font> &nbsp; &nbsp; &nbsp; &nbsp; &nbsp; &nbsp;<font class='posOutcome'>Shared back: <strong>6</strong></font></font><div class='respPicDiv'><img src='img/responseButtonOffersNo0_wht.png' class='respPic'></div></div>","null","9","Lucas","9","Shared","0.8,0.35","9","0.8","trustrating_stim/white_mw049.bmp","8","142","26"
"","","","decision","6005fd9c8bbd67931607e518","bdp_trlrn","Sun Mar 12 2023 20:28:29 GMT-0700 (Pacific Daylight Time)","461831","Untrustworthy,Trustworthy","html-keyboard-response","216","246031","0.0-19.0-1.26","","","886","","<div class='trialDiv'><img src='trustrating_stim/white_mw066.bmp'><br><font class='baseline'><strong>Brian</strong><p>Choose number of points to send.</font><div class='respPicDiv'><img src='img/responseButtonOffersNo0L.png' class='respPic'></div></div>","5","9","Brian","7","Kept","0.2,0.65","10","0.2","trustrating_stim/white_mw066.bmp","6.5","147","27"
"","","","decisionFB","6005fd9c8bbd67931607e518","bdp_trlrn","Sun Mar 12 2023 20:28:29 GMT-0700 (Pacific Daylight Time)","461831","Untrustworthy,Trustworthy","html-keyboard-response","217","246287","0.0-19.0-2.26","","","null","","<div class='trialDiv'><img src='trustrating_stim/white_mw066.bmp'><br><font class='baseline'><strong>Brian</strong><p>Choose number of points to send.</font><div class='respPicDiv'><img src='img/responseButtonOffersNo0L5.png' class='respPic'></div></div>","null","9","Brian","7","Kept","0.2,0.65","10","0.2","trustrating_stim/white_mw066.bmp","6.5","142","27"
"","","","feedback","6005fd9c8bbd67931607e518","bdp_trlrn","Sun Mar 12 2023 20:28:29 GMT-0700 (Pacific Daylight Time)","461831","Untrustworthy,Trustworthy","html-keyboard-response","218","247293","0.0-19.0-3.26","","","null","","<div class='trialDiv'><img src='trustrating_stim/white_mw066.bmp'><br><font class='baseline'><strong>Brian</strong><p>Received: <strong>20</strong></font> &nbsp; &nbsp; &nbsp; &nbsp; &nbsp; &nbsp;<font class='negOutcome'>Shared back: <strong>0</strong></font></font><div class='respPicDiv'><img src='img/responseButtonOffersNo0_wht.png' class='respPic'></div></div>","null","9","Brian","7","Kept","0.2,0.65","10","0.2","trustrating_stim/white_mw066.bmp","6.5","142","27"
"","","","decision","6005fd9c8bbd67931607e518","bdp_trlrn","Sun Mar 12 2023 20:28:29 GMT-0700 (Pacific Daylight Time)","461831","Untrustworthy,Trustworthy","html-keyboard-response","219","247958","0.0-19.0-1.27","","","664","","<div class='trialDiv'><img src='trustrating_stim/white_mw049.bmp'><br><font class='baseline'><strong>Lucas</strong><p>Choose number of points to send.</font><div class='respPicDiv'><img src='img/responseButtonOffersNo0L.png' class='respPic'></div></div>","1","10","Lucas","9","Kept","0.8,0.35","9","0.8","trustrating_stim/white_mw049.bmp","8","147","28"
