"trial_type","trial_index","time_elapsed","internal_node_id","subject_id","task","startTime","totalTime","labels","view_history","rt","event","trial","time","trialtype","success","stimulus","key_press","numBlurs","aground","name","faceID","outcome","agenttype","agentswpt","agentcurrpshare","face","avgRating","point_total","round"
"pavlovia","0","4","0.0-0.0","63d82d20ed2b67b4f77f1fc7","bdp_trlrn","Wed Mar 15 2023 12:19:07 GMT-0700 (Pacific Daylight Time)","580461","Untrustworthy,Trustworthy","","","","","","","","","","","","","","","","","","","","",""
"instructions","1","2550","0.0-1.0","63d82d20ed2b67b4f77f1fc7","bdp_trlrn","Wed Mar 15 2023 12:19:07 GMT-0700 (Pacific Daylight Time)","580461","Untrustworthy,Trustworthy","[{""page_index"":0,""viewing_time"":2545}]","2545","","","","","","","","","","","","","","","","","","",""
"","","","","63d82d20ed2b67b4f77f1fc7","bdp_trlrn","Wed Mar 15 2023 12:19:07 GMT-0700 (Pacific Daylight Time)","580461","Untrustworthy,Trustworthy","","","fullscreenenter","2","5929","fullscreenenter","","","","","","","","","","","","","","",""
"","","","","63d82d20ed2b67b4f77f1fc7","bdp_trlrn","Wed Mar 15 2023 12:19:07 GMT-0700 (Pacific Daylight Time)","580461","Untrustworthy,Trustworthy","","","fullscreenexit","2","6651","fullscreenexit","","","","","","","","","","","","","","",""
"fullscreen","2","6931","0.0-2.0","63d82d20ed2b67b4f77f1fc7","bdp_trlrn","Wed Mar 15 2023 12:19:07 GMT-0700 (Pacific Daylight Time)","580461","Untrustworthy,Trustworthy","","","","","","","true","","","","","","","","","","","","","",""
"image-keyboard-response","3","12383","0.0-3.0-0.0","63d82d20ed2b67b4f77f1fc7","bdp_trlrn","Wed Mar 15 2023 12:19:07 GMT-0700 (Pacific Daylight Time)","580461","Untrustworthy,Trustworthy","","5451","","","","fullscreenfail","","","32","","","","","","","","","","","",""
"instructions","4","16894","0.0-4.0","63d82d20ed2b67b4f77f1fc7","bdp_trlrn","Wed Mar 15 2023 12:19:07 GMT-0700 (Pacific Daylight Time)","580461","Untrustworthy,Trustworthy","[{""page_index"":0,""viewing_time"":3255},{""page_index"":1,""viewing_time"":1001}]","4257","","","","","","","","","","","","","","","","","","",""
"instructions","5","17974","0.0-5.0","63d82d20ed2b67b4f77f1fc7","bdp_trlrn","Wed Mar 15 2023 12:19:07 GMT-0700 (Pacific Daylight Time)","580461","Untrustworthy,Trustworthy","[{""page_index"":0,""viewing_time"":1080}]","1080","","","","","","","","","","","","","","","","","","",""
"image-keyboard-response","6","20201","0.0-6.0-1.0","63d82d20ed2b67b4f77f1fc7","bdp_trlrn","Wed Mar 15 2023 12:19:07 GMT-0700 (Pacific Daylight Time)","580461","Untrustworthy,Trustworthy","","2122","","","","rating","","trustrating_stim/white_00757_941201_fa_edt.bmp","2","","","","","","","","","","","",""
"image-keyboard-response","7","20416","0.0-6.0-2.0","63d82d20ed2b67b4f77f1fc7","bdp_trlrn","Wed Mar 15 2023 12:19:07 GMT-0700 (Pacific Daylight Time)","580461","Untrustworthy,Trustworthy","","null","","","","ratingFB","","trustrating_stim/white_00757_941201_fa_edt.bmp","null","","","","","","","","","","","",""
"image-keyboard-response","8","21484","0.0-6.0-1.1","63d82d20ed2b67b4f77f1fc7","bdp_trlrn","Wed Mar 15 2023 12:19:07 GMT-0700 (Pacific Daylight Time)","580461","Untrustworthy,Trustworthy","","959","","","","rating","","trustrating_stim/white_mw063.bmp","2","","","","","","","","","","","",""
"image-keyboard-response","9","21692","0.0-6.0-2.1","63d82d20ed2b67b4f77f1fc7","bdp_trlrn","Wed Mar 15 2023 12:19:07 GMT-0700 (Pacific Daylight Time)","580461","Untrustworthy,Trustworthy","","null","","","","ratingFB","","trustrating_stim/white_mw063.bmp","null","","","","","","","","","","","",""
"image-keyboard-response","10","22339","0.0-6.0-1.2","63d82d20ed2b67b4f77f1fc7","bdp_trlrn","Wed Mar 15 2023 12:19:07 GMT-0700 (Pacific Daylight Time)","580461","Untrustworthy,Trustworthy","","540","","","","rating","","trustrating_stim/white_00129_931230_fb_edt.bmp","2","","","","","","","","","","","",""
"image-keyboard-response","11","22547","0.0-6.0-2.2","63d82d20ed2b67b4f77f1fc7","bdp_trlrn","Wed Mar 15 2023 12:19:07 GMT-0700 (Pacific Daylight Time)","580461","Untrustworthy,Trustworthy","","null","","","","ratingFB","","trustrating_stim/white_00129_931230_fb_edt.bmp","null","","","","","","","","","","","",""
"image-keyboard-response","12","23127","0.0-6.0-1.3","63d82d20ed2b67b4f77f1fc7","bdp_trlrn","Wed Mar 15 2023 12:19:07 GMT-0700 (Pacific Daylight Time)","580461","Untrustworthy,Trustworthy","","476","","","","rating","","trustrating_stim/white_mw089.bmp","2","","","","","","","","","","","",""
"image-keyboard-response","13","23333","0.0-6.0-2.3","63d82d20ed2b67b4f77f1fc7","bdp_trlrn","Wed Mar 15 2023 12:19:07 GMT-0700 (Pacific Daylight Time)","580461","Untrustworthy,Trustworthy","","null","","","","ratingFB","","trustrating_stim/white_mw089.bmp","null","","","","","","","","","","","",""
"image-keyboard-response","14","23846","0.0-6.0-1.4","63d82d20ed2b67b4f77f1fc7","bdp_trlrn","Wed Mar 15 2023 12:19:07 GMT-0700 (Pacific Daylight Time)","580461","Untrustworthy,Trustworthy","","411","","","","rating","","trustrating_stim/white_mw097.bmp","2","","","","","","","","","","","",""
"image-keyboard-response","15","24051","0.0-6.0-2.4","63d82d20ed2b67b4f77f1fc7","bdp_trlrn","Wed Mar 15 2023 12:19:07 GMT-0700 (Pacific Daylight Time)","580461","Untrustworthy,Trustworthy","","null","","","","ratingFB","","trustrating_stim/white_mw097.bmp","null","","","","","","","","","","","",""
"image-keyboard-response","16","24634","0.0-6.0-1.5","63d82d20ed2b67b4f77f1fc7","bdp_trlrn","Wed Mar 15 2023 12:19:07 GMT-0700 (Pacific Daylight Time)","580461","Untrustworthy,Trustworthy","","477","","","","rating","","trustrating_stim/white_mw053.bmp","2","","","","","","","","","","","",""
"image-keyboard-response","17","24843","0.0-6.0-2.5","63d82d20ed2b67b4f77f1fc7","bdp_trlrn","Wed Mar 15 2023 12:19:07 GMT-0700 (Pacific Daylight Time)","580461","Untrustworthy,Trustworthy","","null","","","","ratingFB","","trustrating_stim/white_mw053.bmp","null","","","","","","","","","","","",""
"image-keyboard-response","18","26715","0.0-6.0-1.6","63d82d20ed2b67b4f77f1fc7","bdp_trlrn","Wed Mar 15 2023 12:19:07 GMT-0700 (Pacific Daylight Time)","580461","Untrustworthy,Trustworthy","","1767","","","","rating","","trustrating_stim/white_00299_940422_fa_edt.bmp","3","","","","","","","","","","","",""
"image-keyboard-response","19","26923","0.0-6.0-2.6","63d82d20ed2b67b4f77f1fc7","bdp_trlrn","Wed Mar 15 2023 12:19:07 GMT-0700 (Pacific Daylight Time)","580461","Untrustworthy,Trustworthy","","null","","","","ratingFB","","trustrating_stim/white_00299_940422_fa_edt.bmp","null","","","","","","","","","","","",""
"image-keyboard-response","20","27761","0.0-6.0-1.7","63d82d20ed2b67b4f77f1fc7","bdp_trlrn","Wed Mar 15 2023 12:19:07 GMT-0700 (Pacific Daylight Time)","580461","Untrustworthy,Trustworthy","","733","","","","rating","","trustrating_stim/white_mw099.bmp","2","","","","","","","","","","","",""
"image-keyboard-response","21","27963","0.0-6.0-2.7","63d82d20ed2b67b4f77f1fc7","bdp_trlrn","Wed Mar 15 2023 12:19:07 GMT-0700 (Pacific Daylight Time)","580461","Untrustworthy,Trustworthy","","null","","","","ratingFB","","trustrating_stim/white_mw099.bmp","null","","","","","","","","","","","",""
"image-keyboard-response","22","28785","0.0-6.0-1.8","63d82d20ed2b67b4f77f1fc7","bdp_trlrn","Wed Mar 15 2023 12:19:07 GMT-0700 (Pacific Daylight Time)","580461","Untrustworthy,Trustworthy","","717","","","","rating","","trustrating_stim/white_00223_940128_fb_edt.bmp","2","","","","","","","","","","","",""
"image-keyboard-response","23","28990","0.0-6.0-2.8","63d82d20ed2b67b4f77f1fc7","bdp_trlrn","Wed Mar 15 2023 12:19:07 GMT-0700 (Pacific Daylight Time)","580461","Untrustworthy,Trustworthy","","null","","","","ratingFB","","trustrating_stim/white_00223_940128_fb_edt.bmp","null","","","","","","","","","","","",""
"image-keyboard-response","24","29831","0.0-6.0-1.9","63d82d20ed2b67b4f77f1fc7","bdp_trlrn","Wed Mar 15 2023 12:19:07 GMT-0700 (Pacific Daylight Time)","580461","Untrustworthy,Trustworthy","","730","","","","rating","","trustrating_stim/white_mw060.bmp","2","","","","","","","","","","","",""
"image-keyboard-response","25","30035","0.0-6.0-2.9","63d82d20ed2b67b4f77f1fc7","bdp_trlrn","Wed Mar 15 2023 12:19:07 GMT-0700 (Pacific Daylight Time)","580461","Untrustworthy,Trustworthy","","null","","","","ratingFB","","trustrating_stim/white_mw060.bmp","null","","","","","","","","","","","",""
"image-keyboard-response","26","31013","0.0-6.0-1.10","63d82d20ed2b67b4f77f1fc7","bdp_trlrn","Wed Mar 15 2023 12:19:07 GMT-0700 (Pacific Daylight Time)","580461","Untrustworthy,Trustworthy","","873","","","","rating","","trustrating_stim/white_mw084.bmp","3","","","","","","","","","","","",""
"image-keyboard-response","27","31220","0.0-6.0-2.10","63d82d20ed2b67b4f77f1fc7","bdp_trlrn","Wed Mar 15 2023 12:19:07 GMT-0700 (Pacific Daylight Time)","580461","Untrustworthy,Trustworthy","","null","","","","ratingFB","","trustrating_stim/white_mw084.bmp","null","","","","","","","","","","","",""
"image-keyboard-response","28","32027","0.0-6.0-1.11","63d82d20ed2b67b4f77f1fc7","bdp_trlrn","Wed Mar 15 2023 12:19:07 GMT-0700 (Pacific Daylight Time)","580461","Untrustworthy,Trustworthy","","701","","","","rating","","trustrating_stim/white_00602_940928_fb_edt.bmp","2","","","","","","","","","","","",""
"image-keyboard-response","29","32236","0.0-6.0-2.11","63d82d20ed2b67b4f77f1fc7","bdp_trlrn","Wed Mar 15 2023 12:19:07 GMT-0700 (Pacific Daylight Time)","580461","Untrustworthy,Trustworthy","","null","","","","ratingFB","","trustrating_stim/white_00602_940928_fb_edt.bmp","null","","","","","","","","","","","",""
"image-keyboard-response","30","32835","0.0-6.0-1.12","63d82d20ed2b67b4f77f1fc7","bdp_trlrn","Wed Mar 15 2023 12:19:07 GMT-0700 (Pacific Daylight Time)","580461","Untrustworthy,Trustworthy","","494","","","","rating","","trustrating_stim/white_00340_940422_fa_edt.bmp","2","","","","","","","","","","","",""
"image-keyboard-response","31","33046","0.0-6.0-2.12","63d82d20ed2b67b4f77f1fc7","bdp_trlrn","Wed Mar 15 2023 12:19:07 GMT-0700 (Pacific Daylight Time)","580461","Untrustworthy,Trustworthy","","null","","","","ratingFB","","trustrating_stim/white_00340_940422_fa_edt.bmp","null","","","","","","","","","","","",""
"image-keyboard-response","32","33769","0.0-6.0-1.13","63d82d20ed2b67b4f77f1fc7","bdp_trlrn","Wed Mar 15 2023 12:19:07 GMT-0700 (Pacific Daylight Time)","580461","Untrustworthy,Trustworthy","","619","","","","rating","","trustrating_stim/white_00807_941205_fb_edt.bmp","2","","","","","","","","","","","",""
"image-keyboard-response","33","33971","0.0-6.0-2.13","63d82d20ed2b67b4f77f1fc7","bdp_trlrn","Wed Mar 15 2023 12:19:07 GMT-0700 (Pacific Daylight Time)","580461","Untrustworthy,Trustworthy","","null","","","","ratingFB","","trustrating_stim/white_00807_941205_fb_edt.bmp","null","","","","","","","","","","","",""
"image-keyboard-response","34","35074","0.0-6.0-1.14","63d82d20ed2b67b4f77f1fc7","bdp_trlrn","Wed Mar 15 2023 12:19:07 GMT-0700 (Pacific Daylight Time)","580461","Untrustworthy,Trustworthy","","998","","","","rating","","trustrating_stim/white_mw033.bmp","3","","","","","","","","","","","",""
"image-keyboard-response","35","35283","0.0-6.0-2.14","63d82d20ed2b67b4f77f1fc7","bdp_trlrn","Wed Mar 15 2023 12:19:07 GMT-0700 (Pacific Daylight Time)","580461","Untrustworthy,Trustworthy","","null","","","","ratingFB","","trustrating_stim/white_mw033.bmp","null","","","","","","","","","","","",""
"image-keyboard-response","36","35974","0.0-6.0-1.15","63d82d20ed2b67b4f77f1fc7","bdp_trlrn","Wed Mar 15 2023 12:19:07 GMT-0700 (Pacific Daylight Time)","580461","Untrustworthy,Trustworthy","","586","","","","rating","","trustrating_stim/white_mw056.bmp","2","","","","","","","","","","","",""
"image-keyboard-response","37","36183","0.0-6.0-2.15","63d82d20ed2b67b4f77f1fc7","bdp_trlrn","Wed Mar 15 2023 12:19:07 GMT-0700 (Pacific Daylight Time)","580461","Untrustworthy,Trustworthy","","null","","","","ratingFB","","trustrating_stim/white_mw056.bmp","null","","","","","","","","","","","",""
"image-keyboard-response","38","37110","0.0-6.0-1.16","63d82d20ed2b67b4f77f1fc7","bdp_trlrn","Wed Mar 15 2023 12:19:07 GMT-0700 (Pacific Daylight Time)","580461","Untrustworthy,Trustworthy","","815","","","","rating","","trustrating_stim/white_00898_960530_fa_edt.bmp","4","","","","","","","","","","","",""
"image-keyboard-response","39","37317","0.0-6.0-2.16","63d82d20ed2b67b4f77f1fc7","bdp_trlrn","Wed Mar 15 2023 12:19:07 GMT-0700 (Pacific Daylight Time)","580461","Untrustworthy,Trustworthy","","null","","","","ratingFB","","trustrating_stim/white_00898_960530_fa_edt.bmp","null","","","","","","","","","","","",""
"image-keyboard-response","40","38078","0.0-6.0-1.17","63d82d20ed2b67b4f77f1fc7","bdp_trlrn","Wed Mar 15 2023 12:19:07 GMT-0700 (Pacific Daylight Time)","580461","Untrustworthy,Trustworthy","","659","","","","rating","","trustrating_stim/white_mw046.bmp","2","","","","","","","","","","","",""
"image-keyboard-response","41","38284","0.0-6.0-2.17","63d82d20ed2b67b4f77f1fc7","bdp_trlrn","Wed Mar 15 2023 12:19:07 GMT-0700 (Pacific Daylight Time)","580461","Untrustworthy,Trustworthy","","null","","","","ratingFB","","trustrating_stim/white_mw046.bmp","null","","","","","","","","","","","",""
"image-keyboard-response","42","39011","0.0-6.0-1.18","63d82d20ed2b67b4f77f1fc7","bdp_trlrn","Wed Mar 15 2023 12:19:07 GMT-0700 (Pacific Daylight Time)","580461","Untrustworthy,Trustworthy","","622","","","","rating","","trustrating_stim/white_mw066.bmp","2","","","","","","","","","","","",""
"image-keyboard-response","43","39219","0.0-6.0-2.18","63d82d20ed2b67b4f77f1fc7","bdp_trlrn","Wed Mar 15 2023 12:19:07 GMT-0700 (Pacific Daylight Time)","580461","Untrustworthy,Trustworthy","","null","","","","ratingFB","","trustrating_stim/white_mw066.bmp","null","","","","","","","","","","","",""
"image-keyboard-response","44","39800","0.0-6.0-1.19","63d82d20ed2b67b4f77f1fc7","bdp_trlrn","Wed Mar 15 2023 12:19:07 GMT-0700 (Pacific Daylight Time)","580461","Untrustworthy,Trustworthy","","477","","","","rating","","trustrating_stim/white_00109_931230_fa_edt.bmp","5","","","","","","","","","","","",""
"image-keyboard-response","45","40004","0.0-6.0-2.19","63d82d20ed2b67b4f77f1fc7","bdp_trlrn","Wed Mar 15 2023 12:19:07 GMT-0700 (Pacific Daylight Time)","580461","Untrustworthy,Trustworthy","","null","","","","ratingFB","","trustrating_stim/white_00109_931230_fa_edt.bmp","null","","","","","","","","","","","",""
"image-keyboard-response","46","40890","0.0-6.0-1.20","63d82d20ed2b67b4f77f1fc7","bdp_trlrn","Wed Mar 15 2023 12:19:07 GMT-0700 (Pacific Daylight Time)","580461","Untrustworthy,Trustworthy","","781","","","","rating","","trustrating_stim/white_mw049.bmp","5","","","","","","","","","","","",""
"image-keyboard-response","47","41099","0.0-6.0-2.20","63d82d20ed2b67b4f77f1fc7","bdp_trlrn","Wed Mar 15 2023 12:19:07 GMT-0700 (Pacific Daylight Time)","580461","Untrustworthy,Trustworthy","","null","","","","ratingFB","","trustrating_stim/white_mw049.bmp","null","","","","","","","","","","","",""
"image-keyboard-response","48","41824","0.0-6.0-1.21","63d82d20ed2b67b4f77f1fc7","bdp_trlrn","Wed Mar 15 2023 12:19:07 GMT-0700 (Pacific Daylight Time)","580461","Untrustworthy,Trustworthy","","620","","","","rating","","trustrating_stim/white_00761_941201_fb_edt.bmp","5","","","","","","","","","","","",""
"image-keyboard-response","49","42029","0.0-6.0-2.21","63d82d20ed2b67b4f77f1fc7","bdp_trlrn","Wed Mar 15 2023 12:19:07 GMT-0700 (Pacific Daylight Time)","580461","Untrustworthy,Trustworthy","","null","","","","ratingFB","","trustrating_stim/white_00761_941201_fb_edt.bmp","null","","","","","","","","","","","",""
"image-keyboard-response","50","42848","0.0-6.0-1.22","63d82d20ed2b67b4f77f1fc7","bdp_trlrn","Wed Mar 15 2023 12:19:07 GMT-0700 (Pacific Daylight Time)","580461","Untrustworthy,Trustworthy","","715","","","","rating","","trustrating_stim/white_00577_940928_fa_edt.bmp","2","","","","","","","","","","","",""
"image-keyboard-response","51","43055","0.0-6.0-2.22","63d82d20ed2b67b4f77f1fc7","bdp_trlrn","Wed Mar 15 2023 12:19:07 GMT-0700 (Pacific Daylight Time)","580461","Untrustworthy,Trustworthy","","null","","","","ratingFB","","trustrating_stim/white_00577_940928_fa_edt.bmp","null","","","","","","","","","","","",""
"image-keyboard-response","52","43951","0.0-6.0-1.23","63d82d20ed2b67b4f77f1fc7","bdp_trlrn","Wed Mar 15 2023 12:19:07 GMT-0700 (Pacific Daylight Time)","580461","Untrustworthy,Trustworthy","","785","","","","rating","","trustrating_stim/white_00519_940519_fb_edt.bmp","2","","","","","","","","","","","",""
"image-keyboard-response","53","44159","0.0-6.0-2.23","63d82d20ed2b67b4f77f1fc7","bdp_trlrn","Wed Mar 15 2023 12:19:07 GMT-0700 (Pacific Daylight Time)","580461","Untrustworthy,Trustworthy","","null","","","","ratingFB","","trustrating_stim/white_00519_940519_fb_edt.bmp","null","","","","","","","","","","","",""
"image-keyboard-response","54","44873","0.0-6.0-1.24","63d82d20ed2b67b4f77f1fc7","bdp_trlrn","Wed Mar 15 2023 12:19:07 GMT-0700 (Pacific Daylight Time)","580461","Untrustworthy,Trustworthy","","604","","","","rating","","trustrating_stim/white_00659_941121_fa_edt.bmp","2","","","","","","","","","","","",""
"image-keyboard-response","55","45076","0.0-6.0-2.24","63d82d20ed2b67b4f77f1fc7","bdp_trlrn","Wed Mar 15 2023 12:19:07 GMT-0700 (Pacific Daylight Time)","580461","Untrustworthy,Trustworthy","","null","","","","ratingFB","","trustrating_stim/white_00659_941121_fa_edt.bmp","null","","","","","","","","","","","",""
"image-keyboard-response","56","45717","0.0-6.0-1.25","63d82d20ed2b67b4f77f1fc7","bdp_trlrn","Wed Mar 15 2023 12:19:07 GMT-0700 (Pacific Daylight Time)","580461","Untrustworthy,Trustworthy","","536","","","","rating","","trustrating_stim/white_mw035.bmp","2","","","","","","","","","","","",""
"image-keyboard-response","57","45925","0.0-6.0-2.25","63d82d20ed2b67b4f77f1fc7","bdp_trlrn","Wed Mar 15 2023 12:19:07 GMT-0700 (Pacific Daylight Time)","580461","Untrustworthy,Trustworthy","","null","","","","ratingFB","","trustrating_stim/white_mw035.bmp","null","","","","","","","","","","","",""
"image-keyboard-response","58","46549","0.0-6.0-1.26","63d82d20ed2b67b4f77f1fc7","bdp_trlrn","Wed Mar 15 2023 12:19:07 GMT-0700 (Pacific Daylight Time)","580461","Untrustworthy,Trustworthy","","521","","","","rating","","trustrating_stim/white_00785_941205_fb_edt.bmp","2","","","","","","","","","","","",""
"image-keyboard-response","59","46758","0.0-6.0-2.26","63d82d20ed2b67b4f77f1fc7","bdp_trlrn","Wed Mar 15 2023 12:19:07 GMT-0700 (Pacific Daylight Time)","580461","Untrustworthy,Trustworthy","","null","","","","ratingFB","","trustrating_stim/white_00785_941205_fb_edt.bmp","null","","","","","","","","","","","",""
"image-keyboard-response","60","47382","0.0-6.0-1.27","63d82d20ed2b67b4f77f1fc7","bdp_trlrn","Wed Mar 15 2023 12:19:07 GMT-0700 (Pacific Daylight Time)","580461","Untrustworthy,Trustworthy","","512","","","","rating","","trustrating_stim/white_mw048.bmp","2","","","","","","","","","","","",""
"image-keyboard-response","61","47590","0.0-6.0-2.27","63d82d20ed2b67b4f77f1fc7","bdp_trlrn","Wed Mar 15 2023 12:19:07 GMT-0700 (Pacific Daylight Time)","580461","Untrustworthy,Trustworthy","","null","","","","ratingFB","","trustrating_stim/white_mw048.bmp","null","","","","","","","","","","","",""
"image-keyboard-response","62","48349","0.0-6.0-1.28","63d82d20ed2b67b4f77f1fc7","bdp_trlrn","Wed Mar 15 2023 12:19:07 GMT-0700 (Pacific Daylight Time)","580461","Untrustworthy,Trustworthy","","649","","","","rating","","trustrating_stim/white_mw071.bmp","2","","","","","","","","","","","",""
"image-keyboard-response","63","48559","0.0-6.0-2.28","63d82d20ed2b67b4f77f1fc7","bdp_trlrn","Wed Mar 15 2023 12:19:07 GMT-0700 (Pacific Daylight Time)","580461","Untrustworthy,Trustworthy","","null","","","","ratingFB","","trustrating_stim/white_mw071.bmp","null","","","","","","","","","","","",""
"image-keyboard-response","64","49229","0.0-6.0-1.29","63d82d20ed2b67b4f77f1fc7","bdp_trlrn","Wed Mar 15 2023 12:19:07 GMT-0700 (Pacific Daylight Time)","580461","Untrustworthy,Trustworthy","","559","","","","rating","","trustrating_stim/white_00120_931230_fa_edt.bmp","2","","","","","","","","","","","",""
"image-keyboard-response","65","49436","0.0-6.0-2.29","63d82d20ed2b67b4f77f1fc7","bdp_trlrn","Wed Mar 15 2023 12:19:07 GMT-0700 (Pacific Daylight Time)","580461","Untrustworthy,Trustworthy","","null","","","","ratingFB","","trustrating_stim/white_00120_931230_fa_edt.bmp","null","","","","","","","","","","","",""
"image-keyboard-response","66","49879","0.0-6.0-1.30","63d82d20ed2b67b4f77f1fc7","bdp_trlrn","Wed Mar 15 2023 12:19:07 GMT-0700 (Pacific Daylight Time)","580461","Untrustworthy,Trustworthy","","339","","","","rating","","trustrating_stim/white_00659_941121_fa_edt.bmp","2","","","","","","","","","","","",""
"image-keyboard-response","67","50085","0.0-6.0-2.30","63d82d20ed2b67b4f77f1fc7","bdp_trlrn","Wed Mar 15 2023 12:19:07 GMT-0700 (Pacific Daylight Time)","580461","Untrustworthy,Trustworthy","","null","","","","ratingFB","","trustrating_stim/white_00659_941121_fa_edt.bmp","null","","","","","","","","","","","",""
"image-keyboard-response","68","50273","0.0-6.0-1.31","63d82d20ed2b67b4f77f1fc7","bdp_trlrn","Wed Mar 15 2023 12:19:07 GMT-0700 (Pacific Daylight Time)","580461","Untrustworthy,Trustworthy","","77","","","","rating","","trustrating_stim/white_mw046.bmp","2","","","","","","","","","","","",""
"image-keyboard-response","69","50474","0.0-6.0-2.31","63d82d20ed2b67b4f77f1fc7","bdp_trlrn","Wed Mar 15 2023 12:19:07 GMT-0700 (Pacific Daylight Time)","580461","Untrustworthy,Trustworthy","","null","","","","ratingFB","","trustrating_stim/white_mw046.bmp","null","","","","","","","","","","","",""
"image-keyboard-response","70","50644","0.0-6.0-1.32","63d82d20ed2b67b4f77f1fc7","bdp_trlrn","Wed Mar 15 2023 12:19:07 GMT-0700 (Pacific Daylight Time)","580461","Untrustworthy,Trustworthy","","63","","","","rating","","trustrating_stim/white_mw060.bmp","2","","","","","","","","","","","",""
"image-keyboard-response","71","50852","0.0-6.0-2.32","63d82d20ed2b67b4f77f1fc7","bdp_trlrn","Wed Mar 15 2023 12:19:07 GMT-0700 (Pacific Daylight Time)","580461","Untrustworthy,Trustworthy","","null","","","","ratingFB","","trustrating_stim/white_mw060.bmp","null","","","","","","","","","","","",""
"image-keyboard-response","72","51050","0.0-6.0-1.33","63d82d20ed2b67b4f77f1fc7","bdp_trlrn","Wed Mar 15 2023 12:19:07 GMT-0700 (Pacific Daylight Time)","580461","Untrustworthy,Trustworthy","","94","","","","rating","","trustrating_stim/white_00602_940928_fb_edt.bmp","2","","","","","","","","","","","",""
"image-keyboard-response","73","51258","0.0-6.0-2.33","63d82d20ed2b67b4f77f1fc7","bdp_trlrn","Wed Mar 15 2023 12:19:07 GMT-0700 (Pacific Daylight Time)","580461","Untrustworthy,Trustworthy","","null","","","","ratingFB","","trustrating_stim/white_00602_940928_fb_edt.bmp","null","","","","","","","","","","","",""
"image-keyboard-response","74","51499","0.0-6.0-1.34","63d82d20ed2b67b4f77f1fc7","bdp_trlrn","Wed Mar 15 2023 12:19:07 GMT-0700 (Pacific Daylight Time)","580461","Untrustworthy,Trustworthy","","136","","","","rating","","trustrating_stim/white_mw089.bmp","2","","","","","","","","","","","",""
"image-keyboard-response","75","51708","0.0-6.0-2.34","63d82d20ed2b67b4f77f1fc7","bdp_trlrn","Wed Mar 15 2023 12:19:07 GMT-0700 (Pacific Daylight Time)","580461","Untrustworthy,Trustworthy","","null","","","","ratingFB","","trustrating_stim/white_mw089.bmp","null","","","","","","","","","","","",""
"image-keyboard-response","76","52231","0.0-6.0-1.35","63d82d20ed2b67b4f77f1fc7","bdp_trlrn","Wed Mar 15 2023 12:19:07 GMT-0700 (Pacific Daylight Time)","580461","Untrustworthy,Trustworthy","","418","","","","rating","","trustrating_stim/white_mw035.bmp","4","","","","","","","","","","","",""
"image-keyboard-response","77","52436","0.0-6.0-2.35","63d82d20ed2b67b4f77f1fc7","bdp_trlrn","Wed Mar 15 2023 12:19:07 GMT-0700 (Pacific Daylight Time)","580461","Untrustworthy,Trustworthy","","null","","","","ratingFB","","trustrating_stim/white_mw035.bmp","null","","","","","","","","","","","",""
"image-keyboard-response","78","52894","0.0-6.0-1.36","63d82d20ed2b67b4f77f1fc7","bdp_trlrn","Wed Mar 15 2023 12:19:07 GMT-0700 (Pacific Daylight Time)","580461","Untrustworthy,Trustworthy","","352","","","","rating","","trustrating_stim/white_mw097.bmp","4","","","","","","","","","","","",""
"image-keyboard-response","79","53098","0.0-6.0-2.36","63d82d20ed2b67b4f77f1fc7","bdp_trlrn","Wed Mar 15 2023 12:19:07 GMT-0700 (Pacific Daylight Time)","580461","Untrustworthy,Trustworthy","","null","","","","ratingFB","","trustrating_stim/white_mw097.bmp","null","","","","","","","","","","","",""
"image-keyboard-response","80","53536","0.0-6.0-1.37","63d82d20ed2b67b4f77f1fc7","bdp_trlrn","Wed Mar 15 2023 12:19:07 GMT-0700 (Pacific Daylight Time)","580461","Untrustworthy,Trustworthy","","332","","","","rating","","trustrating_stim/white_00757_941201_fa_edt.bmp","2","","","","","","","","","","","",""
"image-keyboard-response","81","53742","0.0-6.0-2.37","63d82d20ed2b67b4f77f1fc7","bdp_trlrn","Wed Mar 15 2023 12:19:07 GMT-0700 (Pacific Daylight Time)","580461","Untrustworthy,Trustworthy","","null","","","","ratingFB","","trustrating_stim/white_00757_941201_fa_edt.bmp","null","","","","","","","","","","","",""
"image-keyboard-response","82","53952","0.0-6.0-1.38","63d82d20ed2b67b4f77f1fc7","bdp_trlrn","Wed Mar 15 2023 12:19:07 GMT-0700 (Pacific Daylight Time)","580461","Untrustworthy,Trustworthy","","99","","","","rating","","trustrating_stim/white_00129_931230_fb_edt.bmp","2","","","","","","","","","","","",""
"image-keyboard-response","83","54155","0.0-6.0-2.38","63d82d20ed2b67b4f77f1fc7","bdp_trlrn","Wed Mar 15 2023 12:19:07 GMT-0700 (Pacific Daylight Time)","580461","Untrustworthy,Trustworthy","","null","","","","ratingFB","","trustrating_stim/white_00129_931230_fb_edt.bmp","null","","","","","","","","","","","",""
"image-keyboard-response","84","54460","0.0-6.0-1.39","63d82d20ed2b67b4f77f1fc7","bdp_trlrn","Wed Mar 15 2023 12:19:07 GMT-0700 (Pacific Daylight Time)","580461","Untrustworthy,Trustworthy","","201","","","","rating","","trustrating_stim/white_mw048.bmp","2","","","","","","","","","","","",""
"image-keyboard-response","85","54667","0.0-6.0-2.39","63d82d20ed2b67b4f77f1fc7","bdp_trlrn","Wed Mar 15 2023 12:19:07 GMT-0700 (Pacific Daylight Time)","580461","Untrustworthy,Trustworthy","","null","","","","ratingFB","","trustrating_stim/white_mw048.bmp","null","","","","","","","","","","","",""
"image-keyboard-response","86","54807","0.0-6.0-1.40","63d82d20ed2b67b4f77f1fc7","bdp_trlrn","Wed Mar 15 2023 12:19:07 GMT-0700 (Pacific Daylight Time)","580461","Untrustworthy,Trustworthy","","32","","","","rating","","trustrating_stim/white_mw066.bmp","2","","","","","","","","","","","",""
"image-keyboard-response","87","55009","0.0-6.0-2.40","63d82d20ed2b67b4f77f1fc7","bdp_trlrn","Wed Mar 15 2023 12:19:07 GMT-0700 (Pacific Daylight Time)","580461","Untrustworthy,Trustworthy","","null","","","","ratingFB","","trustrating_stim/white_mw066.bmp","null","","","","","","","","","","","",""
"image-keyboard-response","88","55280","0.0-6.0-1.41","63d82d20ed2b67b4f77f1fc7","bdp_trlrn","Wed Mar 15 2023 12:19:07 GMT-0700 (Pacific Daylight Time)","580461","Untrustworthy,Trustworthy","","161","","","","rating","","trustrating_stim/white_mw056.bmp","2","","","","","","","","","","","",""
"image-keyboard-response","89","55486","0.0-6.0-2.41","63d82d20ed2b67b4f77f1fc7","bdp_trlrn","Wed Mar 15 2023 12:19:07 GMT-0700 (Pacific Daylight Time)","580461","Untrustworthy,Trustworthy","","null","","","","ratingFB","","trustrating_stim/white_mw056.bmp","null","","","","","","","","","","","",""
"image-keyboard-response","90","55628","0.0-6.0-1.42","63d82d20ed2b67b4f77f1fc7","bdp_trlrn","Wed Mar 15 2023 12:19:07 GMT-0700 (Pacific Daylight Time)","580461","Untrustworthy,Trustworthy","","33","","","","rating","","trustrating_stim/white_mw033.bmp","2","","","","","","","","","","","",""
"image-keyboard-response","91","55838","0.0-6.0-2.42","63d82d20ed2b67b4f77f1fc7","bdp_trlrn","Wed Mar 15 2023 12:19:07 GMT-0700 (Pacific Daylight Time)","580461","Untrustworthy,Trustworthy","","null","","","","ratingFB","","trustrating_stim/white_mw033.bmp","null","","","","","","","","","","","",""
"image-keyboard-response","92","55967","0.0-6.0-1.43","63d82d20ed2b67b4f77f1fc7","bdp_trlrn","Wed Mar 15 2023 12:19:07 GMT-0700 (Pacific Daylight Time)","580461","Untrustworthy,Trustworthy","","18","","","","rating","","trustrating_stim/white_00577_940928_fa_edt.bmp","2","","","","","","","","","","","",""
"image-keyboard-response","93","56174","0.0-6.0-2.43","63d82d20ed2b67b4f77f1fc7","bdp_trlrn","Wed Mar 15 2023 12:19:07 GMT-0700 (Pacific Daylight Time)","580461","Untrustworthy,Trustworthy","","null","","","","ratingFB","","trustrating_stim/white_00577_940928_fa_edt.bmp","null","","","","","","","","","","","",""
"image-keyboard-response","94","56483","0.0-6.0-1.44","63d82d20ed2b67b4f77f1fc7","bdp_trlrn","Wed Mar 15 2023 12:19:07 GMT-0700 (Pacific Daylight Time)","580461","Untrustworthy,Trustworthy","","198","","","","rating","","trustrating_stim/white_mw084.bmp","2","","","","","","","","","","","",""
"image-keyboard-response","95","56692","0.0-6.0-2.44","63d82d20ed2b67b4f77f1fc7","bdp_trlrn","Wed Mar 15 2023 12:19:07 GMT-0700 (Pacific Daylight Time)","580461","Untrustworthy,Trustworthy","","null","","","","ratingFB","","trustrating_stim/white_mw084.bmp","null","","","","","","","","","","","",""
"image-keyboard-response","96","56854","0.0-6.0-1.45","63d82d20ed2b67b4f77f1fc7","bdp_trlrn","Wed Mar 15 2023 12:19:07 GMT-0700 (Pacific Daylight Time)","580461","Untrustworthy,Trustworthy","","58","","","","rating","","trustrating_stim/white_mw053.bmp","2","","","","","","","","","","","",""
"image-keyboard-response","97","57062","0.0-6.0-2.45","63d82d20ed2b67b4f77f1fc7","bdp_trlrn","Wed Mar 15 2023 12:19:07 GMT-0700 (Pacific Daylight Time)","580461","Untrustworthy,Trustworthy","","null","","","","ratingFB","","trustrating_stim/white_mw053.bmp","null","","","","","","","","","","","",""
"image-keyboard-response","98","57214","0.0-6.0-1.46","63d82d20ed2b67b4f77f1fc7","bdp_trlrn","Wed Mar 15 2023 12:19:07 GMT-0700 (Pacific Daylight Time)","580461","Untrustworthy,Trustworthy","","41","","","","rating","","trustrating_stim/white_00898_960530_fa_edt.bmp","2","","","","","","","","","","","",""
"image-keyboard-response","99","57418","0.0-6.0-2.46","63d82d20ed2b67b4f77f1fc7","bdp_trlrn","Wed Mar 15 2023 12:19:07 GMT-0700 (Pacific Daylight Time)","580461","Untrustworthy,Trustworthy","","null","","","","ratingFB","","trustrating_stim/white_00898_960530_fa_edt.bmp","null","","","","","","","","","","","",""
"image-keyboard-response","100","57664","0.0-6.0-1.47","63d82d20ed2b67b4f77f1fc7","bdp_trlrn","Wed Mar 15 2023 12:19:07 GMT-0700 (Pacific Daylight Time)","580461","Untrustworthy,Trustworthy","","137","","","","rating","","trustrating_stim/white_00109_931230_fa_edt.bmp","2","","","","","","","","","","","",""
"image-keyboard-response","101","57870","0.0-6.0-2.47","63d82d20ed2b67b4f77f1fc7","bdp_trlrn","Wed Mar 15 2023 12:19:07 GMT-0700 (Pacific Daylight Time)","580461","Untrustworthy,Trustworthy","","null","","","","ratingFB","","trustrating_stim/white_00109_931230_fa_edt.bmp","null","","","","","","","","","","","",""
"image-keyboard-response","102","57991","0.0-6.0-1.48","63d82d20ed2b67b4f77f1fc7","bdp_trlrn","Wed Mar 15 2023 12:19:07 GMT-0700 (Pacific Daylight Time)","580461","Untrustworthy,Trustworthy","","7","","","","rating","","trustrating_stim/white_mw099.bmp","2","","","","","","","","","","","",""
"image-keyboard-response","103","58194","0.0-6.0-2.48","63d82d20ed2b67b4f77f1fc7","bdp_trlrn","Wed Mar 15 2023 12:19:07 GMT-0700 (Pacific Daylight Time)","580461","Untrustworthy,Trustworthy","","null","","","","ratingFB","","trustrating_stim/white_mw099.bmp","null","","","","","","","","","","","",""
"image-keyboard-response","104","58306","0.0-6.0-1.49","63d82d20ed2b67b4f77f1fc7","bdp_trlrn","Wed Mar 15 2023 12:19:07 GMT-0700 (Pacific Daylight Time)","580461","Untrustworthy,Trustworthy","","5","","","","rating","","trustrating_stim/white_mw063.bmp","2","","","","","","","","","","","",""
"image-keyboard-response","105","58517","0.0-6.0-2.49","63d82d20ed2b67b4f77f1fc7","bdp_trlrn","Wed Mar 15 2023 12:19:07 GMT-0700 (Pacific Daylight Time)","580461","Untrustworthy,Trustworthy","","null","","","","ratingFB","","trustrating_stim/white_mw063.bmp","null","","","","","","","","","","","",""
"image-keyboard-response","106","58656","0.0-6.0-1.50","63d82d20ed2b67b4f77f1fc7","bdp_trlrn","Wed Mar 15 2023 12:19:07 GMT-0700 (Pacific Daylight Time)","580461","Untrustworthy,Trustworthy","","34","","","","rating","","trustrating_stim/white_00761_941201_fb_edt.bmp","2","","","","","","","","","","","",""
"image-keyboard-response","107","58862","0.0-6.0-2.50","63d82d20ed2b67b4f77f1fc7","bdp_trlrn","Wed Mar 15 2023 12:19:07 GMT-0700 (Pacific Daylight Time)","580461","Untrustworthy,Trustworthy","","null","","","","ratingFB","","trustrating_stim/white_00761_941201_fb_edt.bmp","null","","","","","","","","","","","",""
"image-keyboard-response","108","59116","0.0-6.0-1.51","63d82d20ed2b67b4f77f1fc7","bdp_trlrn","Wed Mar 15 2023 12:19:07 GMT-0700 (Pacific Daylight Time)","580461","Untrustworthy,Trustworthy","","143","","","","rating","","trustrating_stim/white_00299_940422_fa_edt.bmp","2","","","","","","","","","","","",""
"image-keyboard-response","109","59322","0.0-6.0-2.51","63d82d20ed2b67b4f77f1fc7","bdp_trlrn","Wed Mar 15 2023 12:19:07 GMT-0700 (Pacific Daylight Time)","580461","Untrustworthy,Trustworthy","","null","","","","ratingFB","","trustrating_stim/white_00299_940422_fa_edt.bmp","null","","","","","","","","","","","",""
"image-keyboard-response","110","59611","0.0-6.0-1.52","63d82d20ed2b67b4f77f1fc7","bdp_trlrn","Wed Mar 15 2023 12:19:07 GMT-0700 (Pacific Daylight Time)","580461","Untrustworthy,Trustworthy","","183","","","","rating","","trustrating_stim/white_00223_940128_fb_edt.bmp","2","","","","","","","","","","","",""
"image-keyboard-response","111","59821","0.0-6.0-2.52","63d82d20ed2b67b4f77f1fc7","bdp_trlrn","Wed Mar 15 2023 12:19:07 GMT-0700 (Pacific Daylight Time)","580461","Untrustworthy,Trustworthy","","null","","","","ratingFB","","trustrating_stim/white_00223_940128_fb_edt.bmp","null","","","","","","","","","","","",""
"image-keyboard-response","112","59937","0.0-6.0-1.53","63d82d20ed2b67b4f77f1fc7","bdp_trlrn","Wed Mar 15 2023 12:19:07 GMT-0700 (Pacific Daylight Time)","580461","Untrustworthy,Trustworthy","","11","","","","rating","","trustrating_stim/white_00807_941205_fb_edt.bmp","2","","","","","","","","","","","",""
"image-keyboard-response","113","60142","0.0-6.0-2.53","63d82d20ed2b67b4f77f1fc7","bdp_trlrn","Wed Mar 15 2023 12:19:07 GMT-0700 (Pacific Daylight Time)","580461","Untrustworthy,Trustworthy","","null","","","","ratingFB","","trustrating_stim/white_00807_941205_fb_edt.bmp","null","","","","","","","","","","","",""
"image-keyboard-response","114","60252","0.0-6.0-1.54","63d82d20ed2b67b4f77f1fc7","bdp_trlrn","Wed Mar 15 2023 12:19:07 GMT-0700 (Pacific Daylight Time)","580461","Untrustworthy,Trustworthy","","0","","","","rating","","trustrating_stim/white_00519_940519_fb_edt.bmp","2","","","","","","","","","","","",""
"image-keyboard-response","115","60455","0.0-6.0-2.54","63d82d20ed2b67b4f77f1fc7","bdp_trlrn","Wed Mar 15 2023 12:19:07 GMT-0700 (Pacific Daylight Time)","580461","Untrustworthy,Trustworthy","","null","","","","ratingFB","","trustrating_stim/white_00519_940519_fb_edt.bmp","null","","","","","","","","","","","",""
"image-keyboard-response","116","60634","0.0-6.0-1.55","63d82d20ed2b67b4f77f1fc7","bdp_trlrn","Wed Mar 15 2023 12:19:07 GMT-0700 (Pacific Daylight Time)","580461","Untrustworthy,Trustworthy","","68","","","","rating","","trustrating_stim/white_00340_940422_fa_edt.bmp","2","","","","","","","","","","","",""
"image-keyboard-response","117","60842","0.0-6.0-2.55","63d82d20ed2b67b4f77f1fc7","bdp_trlrn","Wed Mar 15 2023 12:19:07 GMT-0700 (Pacific Daylight Time)","580461","Untrustworthy,Trustworthy","","null","","","","ratingFB","","trustrating_stim/white_00340_940422_fa_edt.bmp","null","","","","","","","","","","","",""
"image-keyboard-response","118","60972","0.0-6.0-1.56","63d82d20ed2b67b4f77f1fc7","bdp_trlrn","Wed Mar 15 2023 12:19:07 GMT-0700 (Pacific Daylight Time)","580461","Untrustworthy,Trustworthy","","21","","","","rating","","trustrating_stim/white_mw049.bmp","2","","","","","","","","","","","",""
"image-keyboard-response","119","61178","0.0-6.0-2.56","63d82d20ed2b67b4f77f1fc7","bdp_trlrn","Wed Mar 15 2023 12:19:07 GMT-0700 (Pacific Daylight Time)","580461","Untrustworthy,Trustworthy","","null","","","","ratingFB","","trustrating_stim/white_mw049.bmp","null","","","","","","","","","","","",""
"image-keyboard-response","120","61366","0.0-6.0-1.57","63d82d20ed2b67b4f77f1fc7","bdp_trlrn","Wed Mar 15 2023 12:19:07 GMT-0700 (Pacific Daylight Time)","580461","Untrustworthy,Trustworthy","","82","","","","rating","","trustrating_stim/white_00120_931230_fa_edt.bmp","2","","","","","","","","","","","",""
"image-keyboard-response","121","61574","0.0-6.0-2.57","63d82d20ed2b67b4f77f1fc7","bdp_trlrn","Wed Mar 15 2023 12:19:07 GMT-0700 (Pacific Daylight Time)","580461","Untrustworthy,Trustworthy","","null","","","","ratingFB","","trustrating_stim/white_00120_931230_fa_edt.bmp","null","","","","","","","","","","","",""
"image-keyboard-response","122","61783","0.0-6.0-1.58","63d82d20ed2b67b4f77f1fc7","bdp_trlrn","Wed Mar 15 2023 12:19:07 GMT-0700 (Pacific Daylight Time)","580461","Untrustworthy,Trustworthy","","99","","","","rating","","trustrating_stim/white_mw071.bmp","2","","","","","","","","","","","",""
"image-keyboard-response","123","61985","0.0-6.0-2.58","63d82d20ed2b67b4f77f1fc7","bdp_trlrn","Wed Mar 15 2023 12:19:07 GMT-0700 (Pacific Daylight Time)","580461","Untrustworthy,Trustworthy","","null","","","","ratingFB","","trustrating_stim/white_mw071.bmp","null","","","","","","","","","","","",""
"image-keyboard-response","124","62131","0.0-6.0-1.59","63d82d20ed2b67b4f77f1fc7","bdp_trlrn","Wed Mar 15 2023 12:19:07 GMT-0700 (Pacific Daylight Time)","580461","Untrustworthy,Trustworthy","","40","","","","rating","","trustrating_stim/white_00785_941205_fb_edt.bmp","2","","","","","","","","","","","",""
"image-keyboard-response","125","62334","0.0-6.0-2.59","63d82d20ed2b67b4f77f1fc7","bdp_trlrn","Wed Mar 15 2023 12:19:07 GMT-0700 (Pacific Daylight Time)","580461","Untrustworthy,Trustworthy","","null","","","","ratingFB","","trustrating_stim/white_00785_941205_fb_edt.bmp","null","","","","","","","","","","","",""
"","","","","63d82d20ed2b67b4f77f1fc7","bdp_trlrn","Wed Mar 15 2023 12:19:07 GMT-0700 (Pacific Daylight Time)","580461","Untrustworthy,Trustworthy","","","blur","126","85772","blurevent","","","","1","","","","","","","","","","",""
"","","","","63d82d20ed2b67b4f77f1fc7","bdp_trlrn","Wed Mar 15 2023 12:19:07 GMT-0700 (Pacific Daylight Time)","580461","Untrustworthy,Trustworthy","","","focus","126","109613","focusevent","","","","","","","","","","","","","","",""
"instructions","126","111204","0.0-7.0","63d82d20ed2b67b4f77f1fc7","bdp_trlrn","Wed Mar 15 2023 12:19:07 GMT-0700 (Pacific Daylight Time)","580461","Untrustworthy,Trustworthy","[{""page_index"":0,""viewing_time"":48760}]","48760","","","","","","","","","","","","","","","","","","",""
"instructions","127","116965","0.0-8.0","63d82d20ed2b67b4f77f1fc7","bdp_trlrn","Wed Mar 15 2023 12:19:07 GMT-0700 (Pacific Daylight Time)","580461","Untrustworthy,Trustworthy","[{""page_index"":0,""viewing_time"":1120},{""page_index"":1,""viewing_time"":1158},{""page_index"":2,""viewing_time"":529},{""page_index"":3,""viewing_time"":890},{""page_index"":4,""viewing_time"":1045},{""page_index"":5,""viewing_time"":450},{""page_index"":6,""viewing_time"":281},{""page_index"":7,""viewing_time"":180}]","5654","","","","","","","","","","","","","","","","","","",""
"html-keyboard-response","128","121634","0.0-9.0","63d82d20ed2b67b4f77f1fc7","bdp_trlrn","Wed Mar 15 2023 12:19:07 GMT-0700 (Pacific Daylight Time)","580461","Untrustworthy,Trustworthy","","4668","","","","","","<div class='header' style='text-align:left; position: absolute; top: 5%; left: 5%;'><small>Task 3 of 5</small></div><div class='instruxDiv'><p><strong>1) What is the minimum number of points you can choose to send to your partner?</strong></p><p>a) 0</p><p>b) 1</p><p>c) 5</p>","C","","","","","","","","","","","",""
"html-keyboard-response","129","123748","0.0-10.0","63d82d20ed2b67b4f77f1fc7","bdp_trlrn","Wed Mar 15 2023 12:19:07 GMT-0700 (Pacific Daylight Time)","580461","Untrustworthy,Trustworthy","","2012","","","","","","<div class='header' style='text-align:left; position: absolute; top: 5%; left: 5%;'><small>Task 3 of 5</small></div><div class='instruxDiv'><p><strong>1) What is the minimum number of points you can choose to send to your partner?</strong></p><p>a) 1</p><p>b) 1</p><p style='color:#FF0000'>c) 5</p><h3 style='color:#FF0000'>Incorrect!</h3><h3 class='center-content'>The correct response is b).</h3><h3 class='center-content'>The minimum number of points you can choose to send to your partner is 1 point.</h3><p><em>Press SPACEBAR to continue</em></p></div>"," ","","","","","","","","","","","",""
"html-keyboard-response","130","130049","0.0-11.0","63d82d20ed2b67b4f77f1fc7","bdp_trlrn","Wed Mar 15 2023 12:19:07 GMT-0700 (Pacific Daylight Time)","580461","Untrustworthy,Trustworthy","","6194","","","","","","<div class='header' style='text-align:left; position: absolute; top: 5%; left: 5%;'><small>Task 3 of 5</small></div><div class='instruxDiv'><p><strong>2) What is the maximum number of points you can choose to send to your partner?</strong></p><p>a) 8</p><p>b) 5</p><p>c) 3</p>","B","","","","","","","","","","","",""
"html-keyboard-response","131","131185","0.0-12.0","63d82d20ed2b67b4f77f1fc7","bdp_trlrn","Wed Mar 15 2023 12:19:07 GMT-0700 (Pacific Daylight Time)","580461","Untrustworthy,Trustworthy","","1030","","","","","","<div class='header' style='text-align:left; position: absolute; top: 5%; left: 5%;'><small>Task 3 of 5</small></div><div class='instruxDiv'><p><strong>2) What is the maximum number of points you can choose to send to your partner?</strong></p><p>a) 8</p><p style='color:#00FF00'>b) 5</p><p>c) 3</p><h3 style='color:#00FF00'>Correct!</h3><h3 class='center-content'>The correct response is b).</h3><h3 class='center-content'>The maximum number of points you can choose to send to your partner is 5 points.</h3><p><em>Press SPACEBAR to continue</em></p></div>"," ","","","","","","","","","","","",""
"html-keyboard-response","132","135224","0.0-13.0","63d82d20ed2b67b4f77f1fc7","bdp_trlrn","Wed Mar 15 2023 12:19:07 GMT-0700 (Pacific Daylight Time)","580461","Untrustworthy,Trustworthy","","3932","","","","","","<div class='header' style='text-align:left; position: absolute; top: 5%; left: 5%;'><small>Task 3 of 5</small></div><div class='instruxDiv'><p><strong>3) What happens to the amount of points you send to your partner?</strong></p><p>a) Nothing</p><p>b) It doubles</p><p>c) It quadruples</p>","B","","","","","","","","","","","",""
"html-keyboard-response","133","137374","0.0-14.0","63d82d20ed2b67b4f77f1fc7","bdp_trlrn","Wed Mar 15 2023 12:19:07 GMT-0700 (Pacific Daylight Time)","580461","Untrustworthy,Trustworthy","","2043","","","","","","<div class='header' style='text-align:left; position: absolute; top: 5%; left: 5%;'><small>Task 3 of 5</small></div><div class='instruxDiv'><p><strong>3) What happens to the amount of points you send to your partner?</strong></p><p>a) Nothing</p><p style='color:#FF0000'>b) It doubles</p><p>c) It quadruples</p><h3 style='color:#FF0000'>Incorrect!</h3><h3 class='center-content'>The correct response is c).</h3><h3 class='center-content'>The amount of points you send to your partner quadruples.</h3><p><em>Press SPACEBAR to continue</em></p></div>"," ","","","","","","","","","","","",""
"html-keyboard-response","134","161460","0.0-15.0","63d82d20ed2b67b4f77f1fc7","bdp_trlrn","Wed Mar 15 2023 12:19:07 GMT-0700 (Pacific Daylight Time)","580461","Untrustworthy,Trustworthy","","23975","","","","","","<div class='header' style='text-align:left; position: absolute; top: 5%; left: 5%;'><small>Task 3 of 5</small></div><div class='instruxDiv'><p><strong>4) If you decided to share 4 out of 5 points with your partner, and they decided to share half of the amount they received with you, how many points would you receive back from them on this round?</strong></p><p>a) 16</p><p>b) 0</p><p>c) 8</p>","C","","","","","","","","","","","",""
"html-keyboard-response","135","162517","0.0-16.0","63d82d20ed2b67b4f77f1fc7","bdp_trlrn","Wed Mar 15 2023 12:19:07 GMT-0700 (Pacific Daylight Time)","580461","Untrustworthy,Trustworthy","","952","","","","","","<div class='header' style='text-align:left; position: absolute; top: 5%; left: 5%;'><small>Task 3 of 5</small></div><div class='instruxDiv'><p><strong>4) If you decided to share 4 out of 5 points with your partner, and they decided to share half of the amount they received with you, how many points would you receive back from them on this round?</strong></p><p>a) 16</p><p>b) 0</p><p style='color:#00FF00'>c) 8</p><h3 style='color:#00FF00'>Correct!</h3><h3 class='center-content'>The correct response is c).</h3><h3 class='center-content'>If you shared 4 out of 5 points with your partner and they decided to share half of the amount they received with you, you would receive 8 points back (i.e. (4 x 4)/2 = 8).</h3><p><em>Press SPACEBAR to continue</em></p></div>"," ","","","","","","","","","","","",""
"html-keyboard-response","136","167631","0.0-17.0","63d82d20ed2b67b4f77f1fc7","bdp_trlrn","Wed Mar 15 2023 12:19:07 GMT-0700 (Pacific Daylight Time)","580461","Untrustworthy,Trustworthy","","null","","","","","","<div class='header' style='text-align:left; position: absolute; top: 5%; left: 5%;'><small>Task 3 of 5</small></div><div class='instruxDiv'><p>Thank you for completing the quiz<p>These are the actual partners you will be interacting with in the next block:<p><div class='tc' align='center'><img class='introPic' src='trustrating_stim/white_mw053.bmp'><br><strong>Jonathan</strong></div><div class='bl' align='center'><img class='introPic' src='trustrating_stim/white_mw048.bmp'><br><strong>Anthony</strong></div><div class='br' align='center'><img class='introPic' src='trustrating_stim/white_00761_941201_fb_edt.bmp'><br><strong>Gavin</strong></div></div><p>Across <strong>66 rounds</strong> you will interact with each partner <strong>22 times</strong> (in random order).<p style='align:center; color:white'><font <em>Press SPACEBAR to continue</em></p>","null","","","","","","","","","","","",""
"instructions","137","175376","0.0-18.0","63d82d20ed2b67b4f77f1fc7","bdp_trlrn","Wed Mar 15 2023 12:19:07 GMT-0700 (Pacific Daylight Time)","580461","Untrustworthy,Trustworthy","[{""page_index"":0,""viewing_time"":848},{""page_index"":1,""viewing_time"":6897}]","7745","","","","","","","","","","","","","","","","","","",""
"html-keyboard-response","138","177502","0.0-19.0-1.0","63d82d20ed2b67b4f77f1fc7","bdp_trlrn","Wed Mar 15 2023 12:19:07 GMT-0700 (Pacific Daylight Time)","580461","Untrustworthy,Trustworthy","","2017","","","","decision","","<div class='trialDiv'><img src='trustrating_stim/white_mw048.bmp'><br><font class='baseline'><strong>Anthony</strong><p>Choose number of points to send.</font><div class='respPicDiv'><img src='img/responseButtonOffersNo0L.png' class='respPic'></div></div>","5","","1","Anthony","7","Shared","0.65,0.2","9","0.65","trustrating_stim/white_mw048.bmp","2","5","1"
"html-keyboard-response","139","177754","0.0-19.0-2.0","63d82d20ed2b67b4f77f1fc7","bdp_trlrn","Wed Mar 15 2023 12:19:07 GMT-0700 (Pacific Daylight Time)","580461","Untrustworthy,Trustworthy","","null","","","","decisionFB","","<div class='trialDiv'><img src='trustrating_stim/white_mw048.bmp'><br><font class='baseline'><strong>Anthony</strong><p>Choose number of points to send.</font><div class='respPicDiv'><img src='img/responseButtonOffersNo0L5.png' class='respPic'></div></div>","null","","1","Anthony","7","Shared","0.65,0.2","9","0.65","trustrating_stim/white_mw048.bmp","2","0","1"
"html-keyboard-response","140","178764","0.0-19.0-3.0","63d82d20ed2b67b4f77f1fc7","bdp_trlrn","Wed Mar 15 2023 12:19:07 GMT-0700 (Pacific Daylight Time)","580461","Untrustworthy,Trustworthy","","null","","","","feedback","","<div class='trialDiv'><img src='trustrating_stim/white_mw048.bmp'><br><font class='baseline'><strong>Anthony</strong><p>Received: <strong>20</strong></font> &nbsp; &nbsp; &nbsp; &nbsp; &nbsp; &nbsp;<font class='posOutcome'>Shared back: <strong>10</strong></font></font><div class='respPicDiv'><img src='img/responseButtonOffersNo0_wht.png' class='respPic'></div></div>","null","","1","Anthony","7","Shared","0.65,0.2","9","0.65","trustrating_stim/white_mw048.bmp","2","10","1"
"html-keyboard-response","141","180990","0.0-19.0-1.1","63d82d20ed2b67b4f77f1fc7","bdp_trlrn","Wed Mar 15 2023 12:19:07 GMT-0700 (Pacific Daylight Time)","580461","Untrustworthy,Trustworthy","","2225","","","","decision","","<div class='trialDiv'><img src='trustrating_stim/white_00761_941201_fb_edt.bmp'><br><font class='baseline'><strong>Gavin</strong><p>Choose number of points to send.</font><div class='respPicDiv'><img src='img/responseButtonOffersNo0L.png' class='respPic'></div></div>","1","","1","Gavin","9","Shared","0.8,0.2","10","0.8","trustrating_stim/white_00761_941201_fb_edt.bmp","3.5","15","2"
"html-keyboard-response","142","181243","0.0-19.0-2.1","63d82d20ed2b67b4f77f1fc7","bdp_trlrn","Wed Mar 15 2023 12:19:07 GMT-0700 (Pacific Daylight Time)","580461","Untrustworthy,Trustworthy","","null","","","","decisionFB","","<div class='trialDiv'><img src='trustrating_stim/white_00761_941201_fb_edt.bmp'><br><font class='baseline'><strong>Gavin</strong><p>Choose number of points to send.</font><div class='respPicDiv'><img src='img/responseButtonOffersNo0L1.png' class='respPic'></div></div>","null","","1","Gavin","9","Shared","0.8,0.2","10","0.8","trustrating_stim/white_00761_941201_fb_edt.bmp","3.5","14","2"
"html-keyboard-response","143","182253","0.0-19.0-3.1","63d82d20ed2b67b4f77f1fc7","bdp_trlrn","Wed Mar 15 2023 12:19:07 GMT-0700 (Pacific Daylight Time)","580461","Untrustworthy,Trustworthy","","null","","","","feedback","","<div class='trialDiv'><img src='trustrating_stim/white_00761_941201_fb_edt.bmp'><br><font class='baseline'><strong>Gavin</strong><p>Received: <strong>4</strong></font> &nbsp; &nbsp; &nbsp; &nbsp; &nbsp; &nbsp;<font class='posOutcome'>Shared back: <strong>2</strong></font></font><div class='respPicDiv'><img src='img/responseButtonOffersNo0_wht.png' class='respPic'></div></div>","null","","1","Gavin","9","Shared","0.8,0.2","10","0.8","trustrating_stim/white_00761_941201_fb_edt.bmp","3.5","16","2"
"html-keyboard-response","144","182587","0.0-19.0-1.2","63d82d20ed2b67b4f77f1fc7","bdp_trlrn","Wed Mar 15 2023 12:19:07 GMT-0700 (Pacific Daylight Time)","580461","Untrustworthy,Trustworthy","","334","","","","decision","","<div class='trialDiv'><img src='trustrating_stim/white_mw053.bmp'><br><font class='baseline'><strong>Jonathan</strong><p>Choose number of points to send.</font><div class='respPicDiv'><img src='img/responseButtonOffersNo0L.png' class='respPic'></div></div>","2","","1","Jonathan","3","Kept","0.2,0.65","8","0.2","trustrating_stim/white_mw053.bmp","2","21","3"
"html-keyboard-response","145","182845","0.0-19.0-2.2","63d82d20ed2b67b4f77f1fc7","bdp_trlrn","Wed Mar 15 2023 12:19:07 GMT-0700 (Pacific Daylight Time)","580461","Untrustworthy,Trustworthy","","null","","","","decisionFB","","<div class='trialDiv'><img src='trustrating_stim/white_mw053.bmp'><br><font class='baseline'><strong>Jonathan</strong><p>Choose number of points to send.</font><div class='respPicDiv'><img src='img/responseButtonOffersNo0L2.png' class='respPic'></div></div>","null","","1","Jonathan","3","Kept","0.2,0.65","8","0.2","trustrating_stim/white_mw053.bmp","2","19","3"
"html-keyboard-response","146","183852","0.0-19.0-3.2","63d82d20ed2b67b4f77f1fc7","bdp_trlrn","Wed Mar 15 2023 12:19:07 GMT-0700 (Pacific Daylight Time)","580461","Untrustworthy,Trustworthy","","null","","","","feedback","","<div class='trialDiv'><img src='trustrating_stim/white_mw053.bmp'><br><font class='baseline'><strong>Jonathan</strong><p>Received: <strong>8</strong></font> &nbsp; &nbsp; &nbsp; &nbsp; &nbsp; &nbsp;<font class='negOutcome'>Shared back: <strong>0</strong></font></font><div class='respPicDiv'><img src='img/responseButtonOffersNo0_wht.png' class='respPic'></div></div>","null","","1","Jonathan","3","Kept","0.2,0.65","8","0.2","trustrating_stim/white_mw053.bmp","2","19","3"
"html-keyboard-response","147","185051","0.0-19.0-1.3","63d82d20ed2b67b4f77f1fc7","bdp_trlrn","Wed Mar 15 2023 12:19:07 GMT-0700 (Pacific Daylight Time)","580461","Untrustworthy,Trustworthy","","1199","","","","decision","","<div class='trialDiv'><img src='trustrating_stim/white_00761_941201_fb_edt.bmp'><br><font class='baseline'><strong>Gavin</strong><p>Choose number of points to send.</font><div class='respPicDiv'><img src='img/responseButtonOffersNo0L.png' class='respPic'></div></div>","5","","2","Gavin","9","Kept","0.8,0.2","10","0.8","trustrating_stim/white_00761_941201_fb_edt.bmp","3.5","24","4"
"html-keyboard-response","148","185306","0.0-19.0-2.3","63d82d20ed2b67b4f77f1fc7","bdp_trlrn","Wed Mar 15 2023 12:19:07 GMT-0700 (Pacific Daylight Time)","580461","Untrustworthy,Trustworthy","","null","","","","decisionFB","","<div class='trialDiv'><img src='trustrating_stim/white_00761_941201_fb_edt.bmp'><br><font class='baseline'><strong>Gavin</strong><p>Choose number of points to send.</font><div class='respPicDiv'><img src='img/responseButtonOffersNo0L5.png' class='respPic'></div></div>","null","","2","Gavin","9","Kept","0.8,0.2","10","0.8","trustrating_stim/white_00761_941201_fb_edt.bmp","3.5","19","4"
"html-keyboard-response","149","186316","0.0-19.0-3.3","63d82d20ed2b67b4f77f1fc7","bdp_trlrn","Wed Mar 15 2023 12:19:07 GMT-0700 (Pacific Daylight Time)","580461","Untrustworthy,Trustworthy","","null","","","","feedback","","<div class='trialDiv'><img src='trustrating_stim/white_00761_941201_fb_edt.bmp'><br><font class='baseline'><strong>Gavin</strong><p>Received: <strong>20</strong></font> &nbsp; &nbsp; &nbsp; &nbsp; &nbsp; &nbsp;<font class='negOutcome'>Shared back: <strong>0</strong></font></font><div class='respPicDiv'><img src='img/responseButtonOffersNo0_wht.png' class='respPic'></div></div>","null","","2","Gavin","9","Kept","0.8,0.2","10","0.8","trustrating_stim/white_00761_941201_fb_edt.bmp","3.5","19","4"
"html-keyboard-response","150","186457","0.0-19.0-1.4","63d82d20ed2b67b4f77f1fc7","bdp_trlrn","Wed Mar 15 2023 12:19:07 GMT-0700 (Pacific Daylight Time)","580461","Untrustworthy,Trustworthy","","140","","","","decision","","<div class='trialDiv'><img src='trustrating_stim/white_mw048.bmp'><br><font class='baseline'><strong>Anthony</strong><p>Choose number of points to send.</font><div class='respPicDiv'><img src='img/responseButtonOffersNo0L.png' class='respPic'></div></div>","5","","2","Anthony","7","Shared","0.65,0.2","9","0.65","trustrating_stim/white_mw048.bmp","2","24","5"
"html-keyboard-response","151","186718","0.0-19.0-2.4","63d82d20ed2b67b4f77f1fc7","bdp_trlrn","Wed Mar 15 2023 12:19:07 GMT-0700 (Pacific Daylight Time)","580461","Untrustworthy,Trustworthy","","null","","","","decisionFB","","<div class='trialDiv'><img src='trustrating_stim/white_mw048.bmp'><br><font class='baseline'><strong>Anthony</strong><p>Choose number of points to send.</font><div class='respPicDiv'><img src='img/responseButtonOffersNo0L5.png' class='respPic'></div></div>","null","","2","Anthony","7","Shared","0.65,0.2","9","0.65","trustrating_stim/white_mw048.bmp","2","19","5"
"html-keyboard-response","152","187722","0.0-19.0-3.4","63d82d20ed2b67b4f77f1fc7","bdp_trlrn","Wed Mar 15 2023 12:19:07 GMT-0700 (Pacific Daylight Time)","580461","Untrustworthy,Trustworthy","","null","","","","feedback","","<div class='trialDiv'><img src='trustrating_stim/white_mw048.bmp'><br><font class='baseline'><strong>Anthony</strong><p>Received: <strong>20</strong></font> &nbsp; &nbsp; &nbsp; &nbsp; &nbsp; &nbsp;<font class='posOutcome'>Shared back: <strong>10</strong></font></font><div class='respPicDiv'><img src='img/responseButtonOffersNo0_wht.png' class='respPic'></div></div>","null","","2","Anthony","7","Shared","0.65,0.2","9","0.65","trustrating_stim/white_mw048.bmp","2","29","5"
"html-keyboard-response","153","188797","0.0-19.0-1.5","63d82d20ed2b67b4f77f1fc7","bdp_trlrn","Wed Mar 15 2023 12:19:07 GMT-0700 (Pacific Daylight Time)","580461","Untrustworthy,Trustworthy","","1075","","","","decision","","<div class='trialDiv'><img src='trustrating_stim/white_mw053.bmp'><br><font class='baseline'><strong>Jonathan</strong><p>Choose number of points to send.</font><div class='respPicDiv'><img src='img/responseButtonOffersNo0L.png' class='respPic'></div></div>","1","","2","Jonathan","3","Kept","0.2,0.65","8","0.2","trustrating_stim/white_mw053.bmp","2","34","6"
"html-keyboard-response","154","189050","0.0-19.0-2.5","63d82d20ed2b67b4f77f1fc7","bdp_trlrn","Wed Mar 15 2023 12:19:07 GMT-0700 (Pacific Daylight Time)","580461","Untrustworthy,Trustworthy","","null","","","","decisionFB","","<div class='trialDiv'><img src='trustrating_stim/white_mw053.bmp'><br><font class='baseline'><strong>Jonathan</strong><p>Choose number of points to send.</font><div class='respPicDiv'><img src='img/responseButtonOffersNo0L1.png' class='respPic'></div></div>","null","","2","Jonathan","3","Kept","0.2,0.65","8","0.2","trustrating_stim/white_mw053.bmp","2","33","6"
"html-keyboard-response","155","190061","0.0-19.0-3.5","63d82d20ed2b67b4f77f1fc7","bdp_trlrn","Wed Mar 15 2023 12:19:07 GMT-0700 (Pacific Daylight Time)","580461","Untrustworthy,Trustworthy","","null","","","","feedback","","<div class='trialDiv'><img src='trustrating_stim/white_mw053.bmp'><br><font class='baseline'><strong>Jonathan</strong><p>Received: <strong>4</strong></font> &nbsp; &nbsp; &nbsp; &nbsp; &nbsp; &nbsp;<font class='negOutcome'>Shared back: <strong>0</strong></font></font><div class='respPicDiv'><img src='img/responseButtonOffersNo0_wht.png' class='respPic'></div></div>","null","","2","Jonathan","3","Kept","0.2,0.65","8","0.2","trustrating_stim/white_mw053.bmp","2","33","6"
"html-keyboard-response","156","190654","0.0-19.0-1.6","63d82d20ed2b67b4f77f1fc7","bdp_trlrn","Wed Mar 15 2023 12:19:07 GMT-0700 (Pacific Daylight Time)","580461","Untrustworthy,Trustworthy","","592","","","","decision","","<div class='trialDiv'><img src='trustrating_stim/white_00761_941201_fb_edt.bmp'><br><font class='baseline'><strong>Gavin</strong><p>Choose number of points to send.</font><div class='respPicDiv'><img src='img/responseButtonOffersNo0L.png' class='respPic'></div></div>","5","","3","Gavin","9","Shared","0.8,0.2","10","0.8","trustrating_stim/white_00761_941201_fb_edt.bmp","3.5","38","7"
"html-keyboard-response","157","190908","0.0-19.0-2.6","63d82d20ed2b67b4f77f1fc7","bdp_trlrn","Wed Mar 15 2023 12:19:07 GMT-0700 (Pacific Daylight Time)","580461","Untrustworthy,Trustworthy","","null","","","","decisionFB","","<div class='trialDiv'><img src='trustrating_stim/white_00761_941201_fb_edt.bmp'><br><font class='baseline'><strong>Gavin</strong><p>Choose number of points to send.</font><div class='respPicDiv'><img src='img/responseButtonOffersNo0L5.png' class='respPic'></div></div>","null","","3","Gavin","9","Shared","0.8,0.2","10","0.8","trustrating_stim/white_00761_941201_fb_edt.bmp","3.5","33","7"
"html-keyboard-response","158","191918","0.0-19.0-3.6","63d82d20ed2b67b4f77f1fc7","bdp_trlrn","Wed Mar 15 2023 12:19:07 GMT-0700 (Pacific Daylight Time)","580461","Untrustworthy,Trustworthy","","null","","","","feedback","","<div class='trialDiv'><img src='trustrating_stim/white_00761_941201_fb_edt.bmp'><br><font class='baseline'><strong>Gavin</strong><p>Received: <strong>20</strong></font> &nbsp; &nbsp; &nbsp; &nbsp; &nbsp; &nbsp;<font class='posOutcome'>Shared back: <strong>10</strong></font></font><div class='respPicDiv'><img src='img/responseButtonOffersNo0_wht.png' class='respPic'></div></div>","null","","3","Gavin","9","Shared","0.8,0.2","10","0.8","trustrating_stim/white_00761_941201_fb_edt.bmp","3.5","43","7"
"html-keyboard-response","159","192161","0.0-19.0-1.7","63d82d20ed2b67b4f77f1fc7","bdp_trlrn","Wed Mar 15 2023 12:19:07 GMT-0700 (Pacific Daylight Time)","580461","Untrustworthy,Trustworthy","","242","","","","decision","","<div class='trialDiv'><img src='trustrating_stim/white_mw048.bmp'><br><font class='baseline'><strong>Anthony</strong><p>Choose number of points to send.</font><div class='respPicDiv'><img src='img/responseButtonOffersNo0L.png' class='respPic'></div></div>","1","","3","Anthony","7","Kept","0.65,0.2","9","0.65","trustrating_stim/white_mw048.bmp","2","48","8"
"html-keyboard-response","160","192418","0.0-19.0-2.7","63d82d20ed2b67b4f77f1fc7","bdp_trlrn","Wed Mar 15 2023 12:19:07 GMT-0700 (Pacific Daylight Time)","580461","Untrustworthy,Trustworthy","","null","","","","decisionFB","","<div class='trialDiv'><img src='trustrating_stim/white_mw048.bmp'><br><font class='baseline'><strong>Anthony</strong><p>Choose number of points to send.</font><div class='respPicDiv'><img src='img/responseButtonOffersNo0L1.png' class='respPic'></div></div>","null","","3","Anthony","7","Kept","0.65,0.2","9","0.65","trustrating_stim/white_mw048.bmp","2","47","8"
"html-keyboard-response","161","193428","0.0-19.0-3.7","63d82d20ed2b67b4f77f1fc7","bdp_trlrn","Wed Mar 15 2023 12:19:07 GMT-0700 (Pacific Daylight Time)","580461","Untrustworthy,Trustworthy","","null","","","","feedback","","<div class='trialDiv'><img src='trustrating_stim/white_mw048.bmp'><br><font class='baseline'><strong>Anthony</strong><p>Received: <strong>4</strong></font> &nbsp; &nbsp; &nbsp; &nbsp; &nbsp; &nbsp;<font class='negOutcome'>Shared back: <strong>0</strong></font></font><div class='respPicDiv'><img src='img/responseButtonOffersNo0_wht.png' class='respPic'></div></div>","null","","3","Anthony","7","Kept","0.65,0.2","9","0.65","trustrating_stim/white_mw048.bmp","2","47","8"
"html-keyboard-response","162","193860","0.0-19.0-1.8","63d82d20ed2b67b4f77f1fc7","bdp_trlrn","Wed Mar 15 2023 12:19:07 GMT-0700 (Pacific Daylight Time)","580461","Untrustworthy,Trustworthy","","432","","","","decision","","<div class='trialDiv'><img src='trustrating_stim/white_mw053.bmp'><br><font class='baseline'><strong>Jonathan</strong><p>Choose number of points to send.</font><div class='respPicDiv'><img src='img/responseButtonOffersNo0L.png' class='respPic'></div></div>","1","","3","Jonathan","3","Kept","0.2,0.65","8","0.2","trustrating_stim/white_mw053.bmp","2","52","9"
"html-keyboard-response","163","194118","0.0-19.0-2.8","63d82d20ed2b67b4f77f1fc7","bdp_trlrn","Wed Mar 15 2023 12:19:07 GMT-0700 (Pacific Daylight Time)","580461","Untrustworthy,Trustworthy","","null","","","","decisionFB","","<div class='trialDiv'><img src='trustrating_stim/white_mw053.bmp'><br><font class='baseline'><strong>Jonathan</strong><p>Choose number of points to send.</font><div class='respPicDiv'><img src='img/responseButtonOffersNo0L1.png' class='respPic'></div></div>","null","","3","Jonathan","3","Kept","0.2,0.65","8","0.2","trustrating_stim/white_mw053.bmp","2","51","9"
"html-keyboard-response","164","195123","0.0-19.0-3.8","63d82d20ed2b67b4f77f1fc7","bdp_trlrn","Wed Mar 15 2023 12:19:07 GMT-0700 (Pacific Daylight Time)","580461","Untrustworthy,Trustworthy","","null","","","","feedback","","<div class='trialDiv'><img src='trustrating_stim/white_mw053.bmp'><br><font class='baseline'><strong>Jonathan</strong><p>Received: <strong>4</strong></font> &nbsp; &nbsp; &nbsp; &nbsp; &nbsp; &nbsp;<font class='negOutcome'>Shared back: <strong>0</strong></font></font><div class='respPicDiv'><img src='img/responseButtonOffersNo0_wht.png' class='respPic'></div></div>","null","","3","Jonathan","3","Kept","0.2,0.65","8","0.2","trustrating_stim/white_mw053.bmp","2","51","9"
"html-keyboard-response","165","195716","0.0-19.0-1.9","63d82d20ed2b67b4f77f1fc7","bdp_trlrn","Wed Mar 15 2023 12:19:07 GMT-0700 (Pacific Daylight Time)","580461","Untrustworthy,Trustworthy","","593","","","","decision","","<div class='trialDiv'><img src='trustrating_stim/white_00761_941201_fb_edt.bmp'><br><font class='baseline'><strong>Gavin</strong><p>Choose number of points to send.</font><div class='respPicDiv'><img src='img/responseButtonOffersNo0L.png' class='respPic'></div></div>","5","","4","Gavin","9","Shared","0.8,0.2","10","0.8","trustrating_stim/white_00761_941201_fb_edt.bmp","3.5","56","10"
"html-keyboard-response","166","195973","0.0-19.0-2.9","63d82d20ed2b67b4f77f1fc7","bdp_trlrn","Wed Mar 15 2023 12:19:07 GMT-0700 (Pacific Daylight Time)","580461","Untrustworthy,Trustworthy","","null","","","","decisionFB","","<div class='trialDiv'><img src='trustrating_stim/white_00761_941201_fb_edt.bmp'><br><font class='baseline'><strong>Gavin</strong><p>Choose number of points to send.</font><div class='respPicDiv'><img src='img/responseButtonOffersNo0L5.png' class='respPic'></div></div>","null","","4","Gavin","9","Shared","0.8,0.2","10","0.8","trustrating_stim/white_00761_941201_fb_edt.bmp","3.5","51","10"
"html-keyboard-response","167","196980","0.0-19.0-3.9","63d82d20ed2b67b4f77f1fc7","bdp_trlrn","Wed Mar 15 2023 12:19:07 GMT-0700 (Pacific Daylight Time)","580461","Untrustworthy,Trustworthy","","null","","","","feedback","","<div class='trialDiv'><img src='trustrating_stim/white_00761_941201_fb_edt.bmp'><br><font class='baseline'><strong>Gavin</strong><p>Received: <strong>20</strong></font> &nbsp; &nbsp; &nbsp; &nbsp; &nbsp; &nbsp;<font class='posOutcome'>Shared back: <strong>10</strong></font></font><div class='respPicDiv'><img src='img/responseButtonOffersNo0_wht.png' class='respPic'></div></div>","null","","4","Gavin","9","Shared","0.8,0.2","10","0.8","trustrating_stim/white_00761_941201_fb_edt.bmp","3.5","61","10"
"html-keyboard-response","168","197292","0.0-19.0-1.10","63d82d20ed2b67b4f77f1fc7","bdp_trlrn","Wed Mar 15 2023 12:19:07 GMT-0700 (Pacific Daylight Time)","580461","Untrustworthy,Trustworthy","","311","","","","decision","","<div class='trialDiv'><img src='trustrating_stim/white_mw048.bmp'><br><font class='baseline'><strong>Anthony</strong><p>Choose number of points to send.</font><div class='respPicDiv'><img src='img/responseButtonOffersNo0L.png' class='respPic'></div></div>","1","","4","Anthony","7","Kept","0.65,0.2","9","0.65","trustrating_stim/white_mw048.bmp","2","66","11"
"html-keyboard-response","169","197549","0.0-19.0-2.10","63d82d20ed2b67b4f77f1fc7","bdp_trlrn","Wed Mar 15 2023 12:19:07 GMT-0700 (Pacific Daylight Time)","580461","Untrustworthy,Trustworthy","","null","","","","decisionFB","","<div class='trialDiv'><img src='trustrating_stim/white_mw048.bmp'><br><font class='baseline'><strong>Anthony</strong><p>Choose number of points to send.</font><div class='respPicDiv'><img src='img/responseButtonOffersNo0L1.png' class='respPic'></div></div>","null","","4","Anthony","7","Kept","0.65,0.2","9","0.65","trustrating_stim/white_mw048.bmp","2","65","11"
"html-keyboard-response","170","198557","0.0-19.0-3.10","63d82d20ed2b67b4f77f1fc7","bdp_trlrn","Wed Mar 15 2023 12:19:07 GMT-0700 (Pacific Daylight Time)","580461","Untrustworthy,Trustworthy","","null","","","","feedback","","<div class='trialDiv'><img src='trustrating_stim/white_mw048.bmp'><br><font class='baseline'><strong>Anthony</strong><p>Received: <strong>4</strong></font> &nbsp; &nbsp; &nbsp; &nbsp; &nbsp; &nbsp;<font class='negOutcome'>Shared back: <strong>0</strong></font></font><div class='respPicDiv'><img src='img/responseButtonOffersNo0_wht.png' class='respPic'></div></div>","null","","4","Anthony","7","Kept","0.65,0.2","9","0.65","trustrating_stim/white_mw048.bmp","2","65","11"
"html-keyboard-response","171","198844","0.0-19.0-1.11","63d82d20ed2b67b4f77f1fc7","bdp_trlrn","Wed Mar 15 2023 12:19:07 GMT-0700 (Pacific Daylight Time)","580461","Untrustworthy,Trustworthy","","287","","","","decision","","<div class='trialDiv'><img src='trustrating_stim/white_mw053.bmp'><br><font class='baseline'><strong>Jonathan</strong><p>Choose number of points to send.</font><div class='respPicDiv'><img src='img/responseButtonOffersNo0L.png' class='respPic'></div></div>","1","","4","Jonathan","3","Kept","0.2,0.65","8","0.2","trustrating_stim/white_mw053.bmp","2","70","12"
"html-keyboard-response","172","199100","0.0-19.0-2.11","63d82d20ed2b67b4f77f1fc7","bdp_trlrn","Wed Mar 15 2023 12:19:07 GMT-0700 (Pacific Daylight Time)","580461","Untrustworthy,Trustworthy","","null","","","","decisionFB","","<div class='trialDiv'><img src='trustrating_stim/white_mw053.bmp'><br><font class='baseline'><strong>Jonathan</strong><p>Choose number of points to send.</font><div class='respPicDiv'><img src='img/responseButtonOffersNo0L1.png' class='respPic'></div></div>","null","","4","Jonathan","3","Kept","0.2,0.65","8","0.2","trustrating_stim/white_mw053.bmp","2","69","12"
"html-keyboard-response","173","200109","0.0-19.0-3.11","63d82d20ed2b67b4f77f1fc7","bdp_trlrn","Wed Mar 15 2023 12:19:07 GMT-0700 (Pacific Daylight Time)","580461","Untrustworthy,Trustworthy","","null","","","","feedback","","<div class='trialDiv'><img src='trustrating_stim/white_mw053.bmp'><br><font class='baseline'><strong>Jonathan</strong><p>Received: <strong>4</strong></font> &nbsp; &nbsp; &nbsp; &nbsp; &nbsp; &nbsp;<font class='negOutcome'>Shared back: <strong>0</strong></font></font><div class='respPicDiv'><img src='img/responseButtonOffersNo0_wht.png' class='respPic'></div></div>","null","","4","Jonathan","3","Kept","0.2,0.65","8","0.2","trustrating_stim/white_mw053.bmp","2","69","12"
"html-keyboard-response","174","200475","0.0-19.0-1.12","63d82d20ed2b67b4f77f1fc7","bdp_trlrn","Wed Mar 15 2023 12:19:07 GMT-0700 (Pacific Daylight Time)","580461","Untrustworthy,Trustworthy","","366","","","","decision","","<div class='trialDiv'><img src='trustrating_stim/white_mw048.bmp'><br><font class='baseline'><strong>Anthony</strong><p>Choose number of points to send.</font><div class='respPicDiv'><img src='img/responseButtonOffersNo0L.png' class='respPic'></div></div>","5","","5","Anthony","7","Kept","0.65,0.2","9","0.65","trustrating_stim/white_mw048.bmp","2","74","13"
"html-keyboard-response","175","200730","0.0-19.0-2.12","63d82d20ed2b67b4f77f1fc7","bdp_trlrn","Wed Mar 15 2023 12:19:07 GMT-0700 (Pacific Daylight Time)","580461","Untrustworthy,Trustworthy","","null","","","","decisionFB","","<div class='trialDiv'><img src='trustrating_stim/white_mw048.bmp'><br><font class='baseline'><strong>Anthony</strong><p>Choose number of points to send.</font><div class='respPicDiv'><img src='img/responseButtonOffersNo0L5.png' class='respPic'></div></div>","null","","5","Anthony","7","Kept","0.65,0.2","9","0.65","trustrating_stim/white_mw048.bmp","2","69","13"
"html-keyboard-response","176","201740","0.0-19.0-3.12","63d82d20ed2b67b4f77f1fc7","bdp_trlrn","Wed Mar 15 2023 12:19:07 GMT-0700 (Pacific Daylight Time)","580461","Untrustworthy,Trustworthy","","null","","","","feedback","","<div class='trialDiv'><img src='trustrating_stim/white_mw048.bmp'><br><font class='baseline'><strong>Anthony</strong><p>Received: <strong>20</strong></font> &nbsp; &nbsp; &nbsp; &nbsp; &nbsp; &nbsp;<font class='negOutcome'>Shared back: <strong>0</strong></font></font><div class='respPicDiv'><img src='img/responseButtonOffersNo0_wht.png' class='respPic'></div></div>","null","","5","Anthony","7","Kept","0.65,0.2","9","0.65","trustrating_stim/white_mw048.bmp","2","69","13"
"html-keyboard-response","177","201825","0.0-19.0-1.13","63d82d20ed2b67b4f77f1fc7","bdp_trlrn","Wed Mar 15 2023 12:19:07 GMT-0700 (Pacific Daylight Time)","580461","Untrustworthy,Trustworthy","","84","","","","decision","","<div class='trialDiv'><img src='trustrating_stim/white_00761_941201_fb_edt.bmp'><br><font class='baseline'><strong>Gavin</strong><p>Choose number of points to send.</font><div class='respPicDiv'><img src='img/responseButtonOffersNo0L.png' class='respPic'></div></div>","5","","5","Gavin","9","Shared","0.8,0.2","10","0.8","trustrating_stim/white_00761_941201_fb_edt.bmp","3.5","74","14"
"html-keyboard-response","178","202083","0.0-19.0-2.13","63d82d20ed2b67b4f77f1fc7","bdp_trlrn","Wed Mar 15 2023 12:19:07 GMT-0700 (Pacific Daylight Time)","580461","Untrustworthy,Trustworthy","","null","","","","decisionFB","","<div class='trialDiv'><img src='trustrating_stim/white_00761_941201_fb_edt.bmp'><br><font class='baseline'><strong>Gavin</strong><p>Choose number of points to send.</font><div class='respPicDiv'><img src='img/responseButtonOffersNo0L5.png' class='respPic'></div></div>","null","","5","Gavin","9","Shared","0.8,0.2","10","0.8","trustrating_stim/white_00761_941201_fb_edt.bmp","3.5","69","14"
"html-keyboard-response","179","203092","0.0-19.0-3.13","63d82d20ed2b67b4f77f1fc7","bdp_trlrn","Wed Mar 15 2023 12:19:07 GMT-0700 (Pacific Daylight Time)","580461","Untrustworthy,Trustworthy","","null","","","","feedback","","<div class='trialDiv'><img src='trustrating_stim/white_00761_941201_fb_edt.bmp'><br><font class='baseline'><strong>Gavin</strong><p>Received: <strong>20</strong></font> &nbsp; &nbsp; &nbsp; &nbsp; &nbsp; &nbsp;<font class='posOutcome'>Shared back: <strong>10</strong></font></font><div class='respPicDiv'><img src='img/responseButtonOffersNo0_wht.png' class='respPic'></div></div>","null","","5","Gavin","9","Shared","0.8,0.2","10","0.8","trustrating_stim/white_00761_941201_fb_edt.bmp","3.5","79","14"
"html-keyboard-response","180","203739","0.0-19.0-1.14","63d82d20ed2b67b4f77f1fc7","bdp_trlrn","Wed Mar 15 2023 12:19:07 GMT-0700 (Pacific Daylight Time)","580461","Untrustworthy,Trustworthy","","646","","","","decision","","<div class='trialDiv'><img src='trustrating_stim/white_mw053.bmp'><br><font class='baseline'><strong>Jonathan</strong><p>Choose number of points to send.</font><div class='respPicDiv'><img src='img/responseButtonOffersNo0L.png' class='respPic'></div></div>","1","","5","Jonathan","3","Kept","0.2,0.65","8","0.2","trustrating_stim/white_mw053.bmp","2","84","15"
"html-keyboard-response","181","203995","0.0-19.0-2.14","63d82d20ed2b67b4f77f1fc7","bdp_trlrn","Wed Mar 15 2023 12:19:07 GMT-0700 (Pacific Daylight Time)","580461","Untrustworthy,Trustworthy","","null","","","","decisionFB","","<div class='trialDiv'><img src='trustrating_stim/white_mw053.bmp'><br><font class='baseline'><strong>Jonathan</strong><p>Choose number of points to send.</font><div class='respPicDiv'><img src='img/responseButtonOffersNo0L1.png' class='respPic'></div></div>","null","","5","Jonathan","3","Kept","0.2,0.65","8","0.2","trustrating_stim/white_mw053.bmp","2","83","15"
"html-keyboard-response","182","205002","0.0-19.0-3.14","63d82d20ed2b67b4f77f1fc7","bdp_trlrn","Wed Mar 15 2023 12:19:07 GMT-0700 (Pacific Daylight Time)","580461","Untrustworthy,Trustworthy","","null","","","","feedback","","<div class='trialDiv'><img src='trustrating_stim/white_mw053.bmp'><br><font class='baseline'><strong>Jonathan</strong><p>Received: <strong>4</strong></font> &nbsp; &nbsp; &nbsp; &nbsp; &nbsp; &nbsp;<font class='negOutcome'>Shared back: <strong>0</strong></font></font><div class='respPicDiv'><img src='img/responseButtonOffersNo0_wht.png' class='respPic'></div></div>","null","","5","Jonathan","3","Kept","0.2,0.65","8","0.2","trustrating_stim/white_mw053.bmp","2","83","15"
"","","","","63d82d20ed2b67b4f77f1fc7","bdp_trlrn","Wed Mar 15 2023 12:19:07 GMT-0700 (Pacific Daylight Time)","580461","Untrustworthy,Trustworthy","","","blur","183","209427","blurevent","","","","1","","","","","","","","","","",""
"","","","","63d82d20ed2b67b4f77f1fc7","bdp_trlrn","Wed Mar 15 2023 12:19:07 GMT-0700 (Pacific Daylight Time)","580461","Untrustworthy,Trustworthy","","","focus","183","261078","focusevent","","","","","","","","","","","","","","",""
"html-keyboard-response","183","263522","0.0-19.0-1.15","63d82d20ed2b67b4f77f1fc7","bdp_trlrn","Wed Mar 15 2023 12:19:07 GMT-0700 (Pacific Daylight Time)","580461","Untrustworthy,Trustworthy","","58519","blur","183","209427","decision","","<div class='trialDiv'><img src='trustrating_stim/white_00761_941201_fb_edt.bmp'><br><font class='baseline'><strong>Gavin</strong><p>Choose number of points to send.</font><div class='respPicDiv'><img src='img/responseButtonOffersNo0L.png' class='respPic'></div></div>","5","1","6","Gavin","9","Shared","0.8,0.2","10","0.8","trustrating_stim/white_00761_941201_fb_edt.bmp","3.5","88","16"
"html-keyboard-response","184","263781","0.0-19.0-2.15","63d82d20ed2b67b4f77f1fc7","bdp_trlrn","Wed Mar 15 2023 12:19:07 GMT-0700 (Pacific Daylight Time)","580461","Untrustworthy,Trustworthy","","null","","","","decisionFB","","<div class='trialDiv'><img src='trustrating_stim/white_00761_941201_fb_edt.bmp'><br><font class='baseline'><strong>Gavin</strong><p>Choose number of points to send.</font><div class='respPicDiv'><img src='img/responseButtonOffersNo0L5.png' class='respPic'></div></div>","null","","6","Gavin","9","Shared","0.8,0.2","10","0.8","trustrating_stim/white_00761_941201_fb_edt.bmp","3.5","83","16"
"html-keyboard-response","185","264789","0.0-19.0-3.15","63d82d20ed2b67b4f77f1fc7","bdp_trlrn","Wed Mar 15 2023 12:19:07 GMT-0700 (Pacific Daylight Time)","580461","Untrustworthy,Trustworthy","","null","","","","feedback","","<div class='trialDiv'><img src='trustrating_stim/white_00761_941201_fb_edt.bmp'><br><font class='baseline'><strong>Gavin</strong><p>Received: <strong>20</strong></font> &nbsp; &nbsp; &nbsp; &nbsp; &nbsp; &nbsp;<font class='posOutcome'>Shared back: <strong>10</strong></font></font><div class='respPicDiv'><img src='img/responseButtonOffersNo0_wht.png' class='respPic'></div></div>","null","","6","Gavin","9","Shared","0.8,0.2","10","0.8","trustrating_stim/white_00761_941201_fb_edt.bmp","3.5","93","16"
"image-keyboard-response","186","275514","0.0-19.0-0.16-0.16","63d82d20ed2b67b4f77f1fc7","bdp_trlrn","Wed Mar 15 2023 12:19:07 GMT-0700 (Pacific Daylight Time)","580461","Untrustworthy,Trustworthy","","10724","","","","blurwarn","","","49","1","","","","","","","","","","",""
"html-keyboard-response","187","277280","0.0-19.0-1.16","63d82d20ed2b67b4f77f1fc7","bdp_trlrn","Wed Mar 15 2023 12:19:07 GMT-0700 (Pacific Daylight Time)","580461","Untrustworthy,Trustworthy","","1509","","","","decision","","<div class='trialDiv'><img src='trustrating_stim/white_mw048.bmp'><br><font class='baseline'><strong>Anthony</strong><p>Choose number of points to send.</font><div class='respPicDiv'><img src='img/responseButtonOffersNo0L.png' class='respPic'></div></div>","5","","6","Anthony","7","Shared","0.65,0.2","9","0.65","trustrating_stim/white_mw048.bmp","2","98","17"
"html-keyboard-response","188","277539","0.0-19.0-2.16","63d82d20ed2b67b4f77f1fc7","bdp_trlrn","Wed Mar 15 2023 12:19:07 GMT-0700 (Pacific Daylight Time)","580461","Untrustworthy,Trustworthy","","null","","","","decisionFB","","<div class='trialDiv'><img src='trustrating_stim/white_mw048.bmp'><br><font class='baseline'><strong>Anthony</strong><p>Choose number of points to send.</font><div class='respPicDiv'><img src='img/responseButtonOffersNo0L5.png' class='respPic'></div></div>","null","","6","Anthony","7","Shared","0.65,0.2","9","0.65","trustrating_stim/white_mw048.bmp","2","93","17"
"html-keyboard-response","189","278546","0.0-19.0-3.16","63d82d20ed2b67b4f77f1fc7","bdp_trlrn","Wed Mar 15 2023 12:19:07 GMT-0700 (Pacific Daylight Time)","580461","Untrustworthy,Trustworthy","","null","","","","feedback","","<div class='trialDiv'><img src='trustrating_stim/white_mw048.bmp'><br><font class='baseline'><strong>Anthony</strong><p>Received: <strong>20</strong></font> &nbsp; &nbsp; &nbsp; &nbsp; &nbsp; &nbsp;<font class='posOutcome'>Shared back: <strong>10</strong></font></font><div class='respPicDiv'><img src='img/responseButtonOffersNo0_wht.png' class='respPic'></div></div>","null","","6","Anthony","7","Shared","0.65,0.2","9","0.65","trustrating_stim/white_mw048.bmp","2","103","17"
"html-keyboard-response","190","278822","0.0-19.0-1.17","63d82d20ed2b67b4f77f1fc7","bdp_trlrn","Wed Mar 15 2023 12:19:07 GMT-0700 (Pacific Daylight Time)","580461","Untrustworthy,Trustworthy","","275","","","","decision","","<div class='trialDiv'><img src='trustrating_stim/white_mw053.bmp'><br><font class='baseline'><strong>Jonathan</strong><p>Choose number of points to send.</font><div class='respPicDiv'><img src='img/responseButtonOffersNo0L.png' class='respPic'></div></div>","1","","6","Jonathan","3","Kept","0.2,0.65","8","0.2","trustrating_stim/white_mw053.bmp","2","108","18"
"html-keyboard-response","191","279074","0.0-19.0-2.17","63d82d20ed2b67b4f77f1fc7","bdp_trlrn","Wed Mar 15 2023 12:19:07 GMT-0700 (Pacific Daylight Time)","580461","Untrustworthy,Trustworthy","","null","","","","decisionFB","","<div class='trialDiv'><img src='trustrating_stim/white_mw053.bmp'><br><font class='baseline'><strong>Jonathan</strong><p>Choose number of points to send.</font><div class='respPicDiv'><img src='img/responseButtonOffersNo0L1.png' class='respPic'></div></div>","null","","6","Jonathan","3","Kept","0.2,0.65","8","0.2","trustrating_stim/white_mw053.bmp","2","107","18"
"html-keyboard-response","192","280084","0.0-19.0-3.17","63d82d20ed2b67b4f77f1fc7","bdp_trlrn","Wed Mar 15 2023 12:19:07 GMT-0700 (Pacific Daylight Time)","580461","Untrustworthy,Trustworthy","","null","","","","feedback","","<div class='trialDiv'><img src='trustrating_stim/white_mw053.bmp'><br><font class='baseline'><strong>Jonathan</strong><p>Received: <strong>4</strong></font> &nbsp; &nbsp; &nbsp; &nbsp; &nbsp; &nbsp;<font class='negOutcome'>Shared back: <strong>0</strong></font></font><div class='respPicDiv'><img src='img/responseButtonOffersNo0_wht.png' class='respPic'></div></div>","null","","6","Jonathan","3","Kept","0.2,0.65","8","0.2","trustrating_stim/white_mw053.bmp","2","107","18"
"html-keyboard-response","193","280183","0.0-19.0-1.18","63d82d20ed2b67b4f77f1fc7","bdp_trlrn","Wed Mar 15 2023 12:19:07 GMT-0700 (Pacific Daylight Time)","580461","Untrustworthy,Trustworthy","","98","","","","decision","","<div class='trialDiv'><img src='trustrating_stim/white_mw048.bmp'><br><font class='baseline'><strong>Anthony</strong><p>Choose number of points to send.</font><div class='respPicDiv'><img src='img/responseButtonOffersNo0L.png' class='respPic'></div></div>","1","","7","Anthony","7","Shared","0.65,0.2","9","0.65","trustrating_stim/white_mw048.bmp","2","112","19"
"html-keyboard-response","194","280436","0.0-19.0-2.18","63d82d20ed2b67b4f77f1fc7","bdp_trlrn","Wed Mar 15 2023 12:19:07 GMT-0700 (Pacific Daylight Time)","580461","Untrustworthy,Trustworthy","","null","","","","decisionFB","","<div class='trialDiv'><img src='trustrating_stim/white_mw048.bmp'><br><font class='baseline'><strong>Anthony</strong><p>Choose number of points to send.</font><div class='respPicDiv'><img src='img/responseButtonOffersNo0L1.png' class='respPic'></div></div>","null","","7","Anthony","7","Shared","0.65,0.2","9","0.65","trustrating_stim/white_mw048.bmp","2","111","19"
"html-keyboard-response","195","281442","0.0-19.0-3.18","63d82d20ed2b67b4f77f1fc7","bdp_trlrn","Wed Mar 15 2023 12:19:07 GMT-0700 (Pacific Daylight Time)","580461","Untrustworthy,Trustworthy","","null","","","","feedback","","<div class='trialDiv'><img src='trustrating_stim/white_mw048.bmp'><br><font class='baseline'><strong>Anthony</strong><p>Received: <strong>4</strong></font> &nbsp; &nbsp; &nbsp; &nbsp; &nbsp; &nbsp;<font class='posOutcome'>Shared back: <strong>2</strong></font></font><div class='respPicDiv'><img src='img/responseButtonOffersNo0_wht.png' class='respPic'></div></div>","null","","7","Anthony","7","Shared","0.65,0.2","9","0.65","trustrating_stim/white_mw048.bmp","2","113","19"
"html-keyboard-response","196","281657","0.0-19.0-1.19","63d82d20ed2b67b4f77f1fc7","bdp_trlrn","Wed Mar 15 2023 12:19:07 GMT-0700 (Pacific Daylight Time)","580461","Untrustworthy,Trustworthy","","214","","","","decision","","<div class='trialDiv'><img src='trustrating_stim/white_mw053.bmp'><br><font class='baseline'><strong>Jonathan</strong><p>Choose number of points to send.</font><div class='respPicDiv'><img src='img/responseButtonOffersNo0L.png' class='respPic'></div></div>","1","","7","Jonathan","3","Kept","0.2,0.65","8","0.2","trustrating_stim/white_mw053.bmp","2","118","20"
"html-keyboard-response","197","281914","0.0-19.0-2.19","63d82d20ed2b67b4f77f1fc7","bdp_trlrn","Wed Mar 15 2023 12:19:07 GMT-0700 (Pacific Daylight Time)","580461","Untrustworthy,Trustworthy","","null","","","","decisionFB","","<div class='trialDiv'><img src='trustrating_stim/white_mw053.bmp'><br><font class='baseline'><strong>Jonathan</strong><p>Choose number of points to send.</font><div class='respPicDiv'><img src='img/responseButtonOffersNo0L1.png' class='respPic'></div></div>","null","","7","Jonathan","3","Kept","0.2,0.65","8","0.2","trustrating_stim/white_mw053.bmp","2","117","20"
"html-keyboard-response","198","282923","0.0-19.0-3.19","63d82d20ed2b67b4f77f1fc7","bdp_trlrn","Wed Mar 15 2023 12:19:07 GMT-0700 (Pacific Daylight Time)","580461","Untrustworthy,Trustworthy","","null","","","","feedback","","<div class='trialDiv'><img src='trustrating_stim/white_mw053.bmp'><br><font class='baseline'><strong>Jonathan</strong><p>Received: <strong>4</strong></font> &nbsp; &nbsp; &nbsp; &nbsp; &nbsp; &nbsp;<font class='negOutcome'>Shared back: <strong>0</strong></font></font><div class='respPicDiv'><img src='img/responseButtonOffersNo0_wht.png' class='respPic'></div></div>","null","","7","Jonathan","3","Kept","0.2,0.65","8","0.2","trustrating_stim/white_mw053.bmp","2","117","20"
"html-keyboard-response","199","283076","0.0-19.0-1.20","63d82d20ed2b67b4f77f1fc7","bdp_trlrn","Wed Mar 15 2023 12:19:07 GMT-0700 (Pacific Daylight Time)","580461","Untrustworthy,Trustworthy","","153","","","","decision","","<div class='trialDiv'><img src='trustrating_stim/white_00761_941201_fb_edt.bmp'><br><font class='baseline'><strong>Gavin</strong><p>Choose number of points to send.</font><div class='respPicDiv'><img src='img/responseButtonOffersNo0L.png' class='respPic'></div></div>","1","","7","Gavin","9","Shared","0.8,0.2","10","0.8","trustrating_stim/white_00761_941201_fb_edt.bmp","3.5","122","21"
"html-keyboard-response","200","283329","0.0-19.0-2.20","63d82d20ed2b67b4f77f1fc7","bdp_trlrn","Wed Mar 15 2023 12:19:07 GMT-0700 (Pacific Daylight Time)","580461","Untrustworthy,Trustworthy","","null","","","","decisionFB","","<div class='trialDiv'><img src='trustrating_stim/white_00761_941201_fb_edt.bmp'><br><font class='baseline'><strong>Gavin</strong><p>Choose number of points to send.</font><div class='respPicDiv'><img src='img/responseButtonOffersNo0L1.png' class='respPic'></div></div>","null","","7","Gavin","9","Shared","0.8,0.2","10","0.8","trustrating_stim/white_00761_941201_fb_edt.bmp","3.5","121","21"
"html-keyboard-response","201","284340","0.0-19.0-3.20","63d82d20ed2b67b4f77f1fc7","bdp_trlrn","Wed Mar 15 2023 12:19:07 GMT-0700 (Pacific Daylight Time)","580461","Untrustworthy,Trustworthy","","null","","","","feedback","","<div class='trialDiv'><img src='trustrating_stim/white_00761_941201_fb_edt.bmp'><br><font class='baseline'><strong>Gavin</strong><p>Received: <strong>4</strong></font> &nbsp; &nbsp; &nbsp; &nbsp; &nbsp; &nbsp;<font class='posOutcome'>Shared back: <strong>2</strong></font></font><div class='respPicDiv'><img src='img/responseButtonOffersNo0_wht.png' class='respPic'></div></div>","null","","7","Gavin","9","Shared","0.8,0.2","10","0.8","trustrating_stim/white_00761_941201_fb_edt.bmp","3.5","123","21"
"html-keyboard-response","202","284391","0.0-19.0-1.21","63d82d20ed2b67b4f77f1fc7","bdp_trlrn","Wed Mar 15 2023 12:19:07 GMT-0700 (Pacific Daylight Time)","580461","Untrustworthy,Trustworthy","","49","","","","decision","","<div class='trialDiv'><img src='trustrating_stim/white_mw053.bmp'><br><font class='baseline'><strong>Jonathan</strong><p>Choose number of points to send.</font><div class='respPicDiv'><img src='img/responseButtonOffersNo0L.png' class='respPic'></div></div>","1","","8","Jonathan","3","Shared","0.2,0.65","8","0.2","trustrating_stim/white_mw053.bmp","2","128","22"
"html-keyboard-response","203","284652","0.0-19.0-2.21","63d82d20ed2b67b4f77f1fc7","bdp_trlrn","Wed Mar 15 2023 12:19:07 GMT-0700 (Pacific Daylight Time)","580461","Untrustworthy,Trustworthy","","null","","","","decisionFB","","<div class='trialDiv'><img src='trustrating_stim/white_mw053.bmp'><br><font class='baseline'><strong>Jonathan</strong><p>Choose number of points to send.</font><div class='respPicDiv'><img src='img/responseButtonOffersNo0L1.png' class='respPic'></div></div>","null","","8","Jonathan","3","Shared","0.2,0.65","8","0.2","trustrating_stim/white_mw053.bmp","2","127","22"
"html-keyboard-response","204","285660","0.0-19.0-3.21","63d82d20ed2b67b4f77f1fc7","bdp_trlrn","Wed Mar 15 2023 12:19:07 GMT-0700 (Pacific Daylight Time)","580461","Untrustworthy,Trustworthy","","null","","","","feedback","","<div class='trialDiv'><img src='trustrating_stim/white_mw053.bmp'><br><font class='baseline'><strong>Jonathan</strong><p>Received: <strong>4</strong></font> &nbsp; &nbsp; &nbsp; &nbsp; &nbsp; &nbsp;<font class='posOutcome'>Shared back: <strong>2</strong></font></font><div class='respPicDiv'><img src='img/responseButtonOffersNo0_wht.png' class='respPic'></div></div>","null","","8","Jonathan","3","Shared","0.2,0.65","8","0.2","trustrating_stim/white_mw053.bmp","2","129","22"
"html-keyboard-response","205","285854","0.0-19.0-1.22","63d82d20ed2b67b4f77f1fc7","bdp_trlrn","Wed Mar 15 2023 12:19:07 GMT-0700 (Pacific Daylight Time)","580461","Untrustworthy,Trustworthy","","193","","","","decision","","<div class='trialDiv'><img src='trustrating_stim/white_00761_941201_fb_edt.bmp'><br><font class='baseline'><strong>Gavin</strong><p>Choose number of points to send.</font><div class='respPicDiv'><img src='img/responseButtonOffersNo0L.png' class='respPic'></div></div>","1","","8","Gavin","9","Shared","0.8,0.2","10","0.8","trustrating_stim/white_00761_941201_fb_edt.bmp","3.5","134","23"
"html-keyboard-response","206","286110","0.0-19.0-2.22","63d82d20ed2b67b4f77f1fc7","bdp_trlrn","Wed Mar 15 2023 12:19:07 GMT-0700 (Pacific Daylight Time)","580461","Untrustworthy,Trustworthy","","null","","","","decisionFB","","<div class='trialDiv'><img src='trustrating_stim/white_00761_941201_fb_edt.bmp'><br><font class='baseline'><strong>Gavin</strong><p>Choose number of points to send.</font><div class='respPicDiv'><img src='img/responseButtonOffersNo0L1.png' class='respPic'></div></div>","null","","8","Gavin","9","Shared","0.8,0.2","10","0.8","trustrating_stim/white_00761_941201_fb_edt.bmp","3.5","133","23"
"html-keyboard-response","207","287114","0.0-19.0-3.22","63d82d20ed2b67b4f77f1fc7","bdp_trlrn","Wed Mar 15 2023 12:19:07 GMT-0700 (Pacific Daylight Time)","580461","Untrustworthy,Trustworthy","","null","","","","feedback","","<div class='trialDiv'><img src='trustrating_stim/white_00761_941201_fb_edt.bmp'><br><font class='baseline'><strong>Gavin</strong><p>Received: <strong>4</strong></font> &nbsp; &nbsp; &nbsp; &nbsp; &nbsp; &nbsp;<font class='posOutcome'>Shared back: <strong>2</strong></font></font><div class='respPicDiv'><img src='img/responseButtonOffersNo0_wht.png' class='respPic'></div></div>","null","","8","Gavin","9","Shared","0.8,0.2","10","0.8","trustrating_stim/white_00761_941201_fb_edt.bmp","3.5","135","23"
"html-keyboard-response","208","287406","0.0-19.0-1.23","63d82d20ed2b67b4f77f1fc7","bdp_trlrn","Wed Mar 15 2023 12:19:07 GMT-0700 (Pacific Daylight Time)","580461","Untrustworthy,Trustworthy","","292","","","","decision","","<div class='trialDiv'><img src='trustrating_stim/white_mw048.bmp'><br><font class='baseline'><strong>Anthony</strong><p>Choose number of points to send.</font><div class='respPicDiv'><img src='img/responseButtonOffersNo0L.png' class='respPic'></div></div>","1","","8","Anthony","7","Kept","0.65,0.2","9","0.65","trustrating_stim/white_mw048.bmp","2","140","24"
"html-keyboard-response","209","287661","0.0-19.0-2.23","63d82d20ed2b67b4f77f1fc7","bdp_trlrn","Wed Mar 15 2023 12:19:07 GMT-0700 (Pacific Daylight Time)","580461","Untrustworthy,Trustworthy","","null","","","","decisionFB","","<div class='trialDiv'><img src='trustrating_stim/white_mw048.bmp'><br><font class='baseline'><strong>Anthony</strong><p>Choose number of points to send.</font><div class='respPicDiv'><img src='img/responseButtonOffersNo0L1.png' class='respPic'></div></div>","null","","8","Anthony","7","Kept","0.65,0.2","9","0.65","trustrating_stim/white_mw048.bmp","2","139","24"
"html-keyboard-response","210","288669","0.0-19.0-3.23","63d82d20ed2b67b4f77f1fc7","bdp_trlrn","Wed Mar 15 2023 12:19:07 GMT-0700 (Pacific Daylight Time)","580461","Untrustworthy,Trustworthy","","null","","","","feedback","","<div class='trialDiv'><img src='trustrating_stim/white_mw048.bmp'><br><font class='baseline'><strong>Anthony</strong><p>Received: <strong>4</strong></font> &nbsp; &nbsp; &nbsp; &nbsp; &nbsp; &nbsp;<font class='negOutcome'>Shared back: <strong>0</strong></font></font><div class='respPicDiv'><img src='img/responseButtonOffersNo0_wht.png' class='respPic'></div></div>","null","","8","Anthony","7","Kept","0.65,0.2","9","0.65","trustrating_stim/white_mw048.bmp","2","139","24"
"html-keyboard-response","211","288700","0.0-19.0-1.24","63d82d20ed2b67b4f77f1fc7","bdp_trlrn","Wed Mar 15 2023 12:19:07 GMT-0700 (Pacific Daylight Time)","580461","Untrustworthy,Trustworthy","","29","","","","decision","","<div class='trialDiv'><img src='trustrating_stim/white_mw053.bmp'><br><font class='baseline'><strong>Jonathan</strong><p>Choose number of points to send.</font><div class='respPicDiv'><img src='img/responseButtonOffersNo0L.png' class='respPic'></div></div>","1","","9","Jonathan","3","Kept","0.2,0.65","8","0.2","trustrating_stim/white_mw053.bmp","2","144","25"
"html-keyboard-response","212","288954","0.0-19.0-2.24","63d82d20ed2b67b4f77f1fc7","bdp_trlrn","Wed Mar 15 2023 12:19:07 GMT-0700 (Pacific Daylight Time)","580461","Untrustworthy,Trustworthy","","null","","","","decisionFB","","<div class='trialDiv'><img src='trustrating_stim/white_mw053.bmp'><br><font class='baseline'><strong>Jonathan</strong><p>Choose number of points to send.</font><div class='respPicDiv'><img src='img/responseButtonOffersNo0L1.png' class='respPic'></div></div>","null","","9","Jonathan","3","Kept","0.2,0.65","8","0.2","trustrating_stim/white_mw053.bmp","2","143","25"
"html-keyboard-response","213","289964","0.0-19.0-3.24","63d82d20ed2b67b4f77f1fc7","bdp_trlrn","Wed Mar 15 2023 12:19:07 GMT-0700 (Pacific Daylight Time)","580461","Untrustworthy,Trustworthy","","null","","","","feedback","","<div class='trialDiv'><img src='trustrating_stim/white_mw053.bmp'><br><font class='baseline'><strong>Jonathan</strong><p>Received: <strong>4</strong></font> &nbsp; &nbsp; &nbsp; &nbsp; &nbsp; &nbsp;<font class='negOutcome'>Shared back: <strong>0</strong></font></font><div class='respPicDiv'><img src='img/responseButtonOffersNo0_wht.png' class='respPic'></div></div>","null","","9","Jonathan","3","Kept","0.2,0.65","8","0.2","trustrating_stim/white_mw053.bmp","2","143","25"
"html-keyboard-response","214","290297","0.0-19.0-1.25","63d82d20ed2b67b4f77f1fc7","bdp_trlrn","Wed Mar 15 2023 12:19:07 GMT-0700 (Pacific Daylight Time)","580461","Untrustworthy,Trustworthy","","332","","","","decision","","<div class='trialDiv'><img src='trustrating_stim/white_00761_941201_fb_edt.bmp'><br><font class='baseline'><strong>Gavin</strong><p>Choose number of points to send.</font><div class='respPicDiv'><img src='img/responseButtonOffersNo0L.png' class='respPic'></div></div>","1","","9","Gavin","9","Shared","0.8,0.2","10","0.8","trustrating_stim/white_00761_941201_fb_edt.bmp","3.5","148","26"
"html-keyboard-response","215","290556","0.0-19.0-2.25","63d82d20ed2b67b4f77f1fc7","bdp_trlrn","Wed Mar 15 2023 12:19:07 GMT-0700 (Pacific Daylight Time)","580461","Untrustworthy,Trustworthy","","null","","","","decisionFB","","<div class='trialDiv'><img src='trustrating_stim/white_00761_941201_fb_edt.bmp'><br><font class='baseline'><strong>Gavin</strong><p>Choose number of points to send.</font><div class='respPicDiv'><img src='img/responseButtonOffersNo0L1.png' class='respPic'></div></div>","null","","9","Gavin","9","Shared","0.8,0.2","10","0.8","trustrating_stim/white_00761_941201_fb_edt.bmp","3.5","147","26"
"html-keyboard-response","216","291564","0.0-19.0-3.25","63d82d20ed2b67b4f77f1fc7","bdp_trlrn","Wed Mar 15 2023 12:19:07 GMT-0700 (Pacific Daylight Time)","580461","Untrustworthy,Trustworthy","","null","","","","feedback","","<div class='trialDiv'><img src='trustrating_stim/white_00761_941201_fb_edt.bmp'><br><font class='baseline'><strong>Gavin</strong><p>Received: <strong>4</strong></font> &nbsp; &nbsp; &nbsp; &nbsp; &nbsp; &nbsp;<font class='posOutcome'>Shared back: <strong>2</strong></font></font><div class='respPicDiv'><img src='img/responseButtonOffersNo0_wht.png' class='respPic'></div></div>","null","","9","Gavin","9","Shared","0.8,0.2","10","0.8","trustrating_stim/white_00761_941201_fb_edt.bmp","3.5","149","26"
"html-keyboard-response","217","292053","0.0-19.0-1.26","63d82d20ed2b67b4f77f1fc7","bdp_trlrn","Wed Mar 15 2023 12:19:07 GMT-0700 (Pacific Daylight Time)","580461","Untrustworthy,Trustworthy","","487","","","","decision","","<div class='trialDiv'><img src='trustrating_stim/white_mw048.bmp'><br><font class='baseline'><strong>Anthony</strong><p>Choose number of points to send.</font><div class='respPicDiv'><img src='img/responseButtonOffersNo0L.png' class='respPic'></div></div>","1","","9","Anthony","7","Shared","0.65,0.2","9","0.65","trustrating_stim/white_mw048.bmp","2","154","27"
"html-keyboard-response","218","292309","0.0-19.0-2.26","63d82d20ed2b67b4f77f1fc7","bdp_trlrn","Wed Mar 15 2023 12:19:07 GMT-0700 (Pacific Daylight Time)","580461","Untrustworthy,Trustworthy","","null","","","","decisionFB","","<div class='trialDiv'><img src='trustrating_stim/white_mw048.bmp'><br><font class='baseline'><strong>Anthony</strong><p>Choose number of points to send.</font><div class='respPicDiv'><img src='img/responseButtonOffersNo0L1.png' class='respPic'></div></div>","null","","9","Anthony","7","Shared","0.65,0.2","9","0.65","trustrating_stim/white_mw048.bmp","2","153","27"
"html-keyboard-response","219","293313","0.0-19.0-3.26","63d82d20ed2b67b4f77f1fc7","bdp_trlrn","Wed Mar 15 2023 12:19:07 GMT-0700 (Pacific Daylight Time)","580461","Untrustworthy,Trustworthy","","null","","","","feedback","","<div class='trialDiv'><img src='trustrating_stim/white_mw048.bmp'><br><font class='baseline'><strong>Anthony</strong><p>Received: <strong>4</strong></font> &nbsp; &nbsp; &nbsp; &nbsp; &nbsp; &nbsp;<font class='posOutcome'>Shared back: <strong>2</strong></font></font><div class='respPicDiv'><img src='img/responseButtonOffersNo0_wht.png' class='respPic'></div></div>","null","","9","Anthony","7","Shared","0.65,0.2","9","0.65","trustrating_stim/white_mw048.bmp","2","155","27"
