"event","trial","time","trialtype","subject_id","task","startTime","totalTime","labels","trial_type","trial_index","time_elapsed","internal_node_id","view_history","rt","success","numBlurs","stimulus","key_press","aground","name","faceID","outcome","agenttype","agentswpt","agentcurrpshare","face","avgRating","point_total","round"
"focus","0","0","focusevent","6362c4beb39ee39d15890c5c","bdp_trlrn","Mon Mar 13 2023 23:49:07 GMT-0400 (Eastern Daylight Time)","865929","Trustworthy,Untrustworthy","","","","","","","","","","","","","","","","","","","","",""
"focus","0","0","focusevent","6362c4beb39ee39d15890c5c","bdp_trlrn","Mon Mar 13 2023 23:49:07 GMT-0400 (Eastern Daylight Time)","865929","Trustworthy,Untrustworthy","","","","","","","","","","","","","","","","","","","","",""
"","","","","6362c4beb39ee39d15890c5c","bdp_trlrn","Mon Mar 13 2023 23:49:07 GMT-0400 (Eastern Daylight Time)","865929","Trustworthy,Untrustworthy","pavlovia","0","2","0.0-0.0","","","","","","","","","","","","","","","","",""
"","","","","6362c4beb39ee39d15890c5c","bdp_trlrn","Mon Mar 13 2023 23:49:07 GMT-0400 (Eastern Daylight Time)","865929","Trustworthy,Untrustworthy","instructions","1","12004","0.0-1.0","[{""page_index"":0,""viewing_time"":12002}]","12002","","","","","","","","","","","","","","",""
"fullscreenenter","2","14247","fullscreenenter","6362c4beb39ee39d15890c5c","bdp_trlrn","Mon Mar 13 2023 23:49:07 GMT-0400 (Eastern Daylight Time)","865929","Trustworthy,Untrustworthy","","","","","","","","","","","","","","","","","","","","",""
"","","","","6362c4beb39ee39d15890c5c","bdp_trlrn","Mon Mar 13 2023 23:49:07 GMT-0400 (Eastern Daylight Time)","865929","Trustworthy,Untrustworthy","fullscreen","2","15237","0.0-2.0","","","true","","","","","","","","","","","","","",""
"fullscreenexit","3","16196","fullscreenexit","6362c4beb39ee39d15890c5c","bdp_trlrn","Mon Mar 13 2023 23:49:07 GMT-0400 (Eastern Daylight Time)","865929","Trustworthy,Untrustworthy","","","","","","","","","","","","","","","","","","","","",""
"blur","3","19547","blurevent","6362c4beb39ee39d15890c5c","bdp_trlrn","Mon Mar 13 2023 23:49:07 GMT-0400 (Eastern Daylight Time)","865929","Trustworthy,Untrustworthy","","","","","","","","1","","","","","","","","","","","","",""
"focus","3","28808","focusevent","6362c4beb39ee39d15890c5c","bdp_trlrn","Mon Mar 13 2023 23:49:07 GMT-0400 (Eastern Daylight Time)","865929","Trustworthy,Untrustworthy","","","","","","","","","","","","","","","","","","","","",""
"","","","","6362c4beb39ee39d15890c5c","bdp_trlrn","Mon Mar 13 2023 23:49:07 GMT-0400 (Eastern Daylight Time)","865929","Trustworthy,Untrustworthy","instructions","3","53684","0.0-4.0","[{""page_index"":0,""viewing_time"":24317},{""page_index"":1,""viewing_time"":14129}]","38446","","","","","","","","","","","","","","",""
"","","","","6362c4beb39ee39d15890c5c","bdp_trlrn","Mon Mar 13 2023 23:49:07 GMT-0400 (Eastern Daylight Time)","865929","Trustworthy,Untrustworthy","instructions","4","55108","0.0-5.0","[{""page_index"":0,""viewing_time"":1424}]","1424","","","","","","","","","","","","","","",""
"","","","rating","6362c4beb39ee39d15890c5c","bdp_trlrn","Mon Mar 13 2023 23:49:07 GMT-0400 (Eastern Daylight Time)","865929","Trustworthy,Untrustworthy","image-keyboard-response","5","57580","0.0-6.0-1.0","","2370","","","trustrating_stim/white_00120_931230_fa_edt.bmp","8","","","","","","","","","","",""
"","","","ratingFB","6362c4beb39ee39d15890c5c","bdp_trlrn","Mon Mar 13 2023 23:49:07 GMT-0400 (Eastern Daylight Time)","865929","Trustworthy,Untrustworthy","image-keyboard-response","6","57795","0.0-6.0-2.0","","null","","","trustrating_stim/white_00120_931230_fa_edt.bmp","null","","","","","","","","","","",""
"","","","rating","6362c4beb39ee39d15890c5c","bdp_trlrn","Mon Mar 13 2023 23:49:07 GMT-0400 (Eastern Daylight Time)","865929","Trustworthy,Untrustworthy","image-keyboard-response","7","59250","0.0-6.0-1.1","","1354","","","trustrating_stim/white_00519_940519_fb_edt.bmp","8","","","","","","","","","","",""
"","","","ratingFB","6362c4beb39ee39d15890c5c","bdp_trlrn","Mon Mar 13 2023 23:49:07 GMT-0400 (Eastern Daylight Time)","865929","Trustworthy,Untrustworthy","image-keyboard-response","8","59463","0.0-6.0-2.1","","null","","","trustrating_stim/white_00519_940519_fb_edt.bmp","null","","","","","","","","","","",""
"","","","rating","6362c4beb39ee39d15890c5c","bdp_trlrn","Mon Mar 13 2023 23:49:07 GMT-0400 (Eastern Daylight Time)","865929","Trustworthy,Untrustworthy","image-keyboard-response","9","60516","0.0-6.0-1.2","","950","","","trustrating_stim/white_00109_931230_fa_edt.bmp","8","","","","","","","","","","",""
"","","","ratingFB","6362c4beb39ee39d15890c5c","bdp_trlrn","Mon Mar 13 2023 23:49:07 GMT-0400 (Eastern Daylight Time)","865929","Trustworthy,Untrustworthy","image-keyboard-response","10","60727","0.0-6.0-2.2","","null","","","trustrating_stim/white_00109_931230_fa_edt.bmp","null","","","","","","","","","","",""
"","","","rating","6362c4beb39ee39d15890c5c","bdp_trlrn","Mon Mar 13 2023 23:49:07 GMT-0400 (Eastern Daylight Time)","865929","Trustworthy,Untrustworthy","image-keyboard-response","11","63300","0.0-6.0-1.3","","2472","","","trustrating_stim/white_mw071.bmp","2","","","","","","","","","","",""
"","","","ratingFB","6362c4beb39ee39d15890c5c","bdp_trlrn","Mon Mar 13 2023 23:49:07 GMT-0400 (Eastern Daylight Time)","865929","Trustworthy,Untrustworthy","image-keyboard-response","12","63508","0.0-6.0-2.3","","null","","","trustrating_stim/white_mw071.bmp","null","","","","","","","","","","",""
"","","","rating","6362c4beb39ee39d15890c5c","bdp_trlrn","Mon Mar 13 2023 23:49:07 GMT-0400 (Eastern Daylight Time)","865929","Trustworthy,Untrustworthy","image-keyboard-response","13","72685","0.0-6.0-1.4","","9067","","","trustrating_stim/white_mw097.bmp","2","","","","","","","","","","",""
"","","","ratingFB","6362c4beb39ee39d15890c5c","bdp_trlrn","Mon Mar 13 2023 23:49:07 GMT-0400 (Eastern Daylight Time)","865929","Trustworthy,Untrustworthy","image-keyboard-response","14","72889","0.0-6.0-2.4","","null","","","trustrating_stim/white_mw097.bmp","null","","","","","","","","","","",""
"","","","rating","6362c4beb39ee39d15890c5c","bdp_trlrn","Mon Mar 13 2023 23:49:07 GMT-0400 (Eastern Daylight Time)","865929","Trustworthy,Untrustworthy","image-keyboard-response","15","74573","0.0-6.0-1.5","","1583","","","trustrating_stim/white_mw053.bmp","7","","","","","","","","","","",""
"","","","ratingFB","6362c4beb39ee39d15890c5c","bdp_trlrn","Mon Mar 13 2023 23:49:07 GMT-0400 (Eastern Daylight Time)","865929","Trustworthy,Untrustworthy","image-keyboard-response","16","74776","0.0-6.0-2.5","","null","","","trustrating_stim/white_mw053.bmp","null","","","","","","","","","","",""
"","","","rating","6362c4beb39ee39d15890c5c","bdp_trlrn","Mon Mar 13 2023 23:49:07 GMT-0400 (Eastern Daylight Time)","865929","Trustworthy,Untrustworthy","image-keyboard-response","17","77462","0.0-6.0-1.6","","2577","","","trustrating_stim/white_00659_941121_fa_edt.bmp","2","","","","","","","","","","",""
"","","","ratingFB","6362c4beb39ee39d15890c5c","bdp_trlrn","Mon Mar 13 2023 23:49:07 GMT-0400 (Eastern Daylight Time)","865929","Trustworthy,Untrustworthy","image-keyboard-response","18","77666","0.0-6.0-2.6","","null","","","trustrating_stim/white_00659_941121_fa_edt.bmp","null","","","","","","","","","","",""
"","","","rating","6362c4beb39ee39d15890c5c","bdp_trlrn","Mon Mar 13 2023 23:49:07 GMT-0400 (Eastern Daylight Time)","865929","Trustworthy,Untrustworthy","image-keyboard-response","19","79381","0.0-6.0-1.7","","1603","","","trustrating_stim/white_mw066.bmp","7","","","","","","","","","","",""
"","","","ratingFB","6362c4beb39ee39d15890c5c","bdp_trlrn","Mon Mar 13 2023 23:49:07 GMT-0400 (Eastern Daylight Time)","865929","Trustworthy,Untrustworthy","image-keyboard-response","20","79586","0.0-6.0-2.7","","null","","","trustrating_stim/white_mw066.bmp","null","","","","","","","","","","",""
"","","","rating","6362c4beb39ee39d15890c5c","bdp_trlrn","Mon Mar 13 2023 23:49:07 GMT-0400 (Eastern Daylight Time)","865929","Trustworthy,Untrustworthy","image-keyboard-response","21","80803","0.0-6.0-1.8","","1105","","","trustrating_stim/white_00129_931230_fb_edt.bmp","7","","","","","","","","","","",""
"","","","ratingFB","6362c4beb39ee39d15890c5c","bdp_trlrn","Mon Mar 13 2023 23:49:07 GMT-0400 (Eastern Daylight Time)","865929","Trustworthy,Untrustworthy","image-keyboard-response","22","81018","0.0-6.0-2.8","","null","","","trustrating_stim/white_00129_931230_fb_edt.bmp","null","","","","","","","","","","",""
"","","","rating","6362c4beb39ee39d15890c5c","bdp_trlrn","Mon Mar 13 2023 23:49:07 GMT-0400 (Eastern Daylight Time)","865929","Trustworthy,Untrustworthy","image-keyboard-response","23","82669","0.0-6.0-1.9","","1549","","","trustrating_stim/white_00577_940928_fa_edt.bmp","1","","","","","","","","","","",""
"","","","ratingFB","6362c4beb39ee39d15890c5c","bdp_trlrn","Mon Mar 13 2023 23:49:07 GMT-0400 (Eastern Daylight Time)","865929","Trustworthy,Untrustworthy","image-keyboard-response","24","82878","0.0-6.0-2.9","","null","","","trustrating_stim/white_00577_940928_fa_edt.bmp","null","","","","","","","","","","",""
"","","","rating","6362c4beb39ee39d15890c5c","bdp_trlrn","Mon Mar 13 2023 23:49:07 GMT-0400 (Eastern Daylight Time)","865929","Trustworthy,Untrustworthy","image-keyboard-response","25","85068","0.0-6.0-1.10","","2081","","","trustrating_stim/white_00807_941205_fb_edt.bmp","7","","","","","","","","","","",""
"","","","ratingFB","6362c4beb39ee39d15890c5c","bdp_trlrn","Mon Mar 13 2023 23:49:07 GMT-0400 (Eastern Daylight Time)","865929","Trustworthy,Untrustworthy","image-keyboard-response","26","85279","0.0-6.0-2.10","","null","","","trustrating_stim/white_00807_941205_fb_edt.bmp","null","","","","","","","","","","",""
"","","","rating","6362c4beb39ee39d15890c5c","bdp_trlrn","Mon Mar 13 2023 23:49:07 GMT-0400 (Eastern Daylight Time)","865929","Trustworthy,Untrustworthy","image-keyboard-response","27","86652","0.0-6.0-1.11","","1261","","","trustrating_stim/white_mw033.bmp","7","","","","","","","","","","",""
"","","","ratingFB","6362c4beb39ee39d15890c5c","bdp_trlrn","Mon Mar 13 2023 23:49:07 GMT-0400 (Eastern Daylight Time)","865929","Trustworthy,Untrustworthy","image-keyboard-response","28","86865","0.0-6.0-2.11","","null","","","trustrating_stim/white_mw033.bmp","null","","","","","","","","","","",""
"","","","rating","6362c4beb39ee39d15890c5c","bdp_trlrn","Mon Mar 13 2023 23:49:07 GMT-0400 (Eastern Daylight Time)","865929","Trustworthy,Untrustworthy","image-keyboard-response","29","88564","0.0-6.0-1.12","","1591","","","trustrating_stim/white_mw089.bmp","7","","","","","","","","","","",""
"","","","ratingFB","6362c4beb39ee39d15890c5c","bdp_trlrn","Mon Mar 13 2023 23:49:07 GMT-0400 (Eastern Daylight Time)","865929","Trustworthy,Untrustworthy","image-keyboard-response","30","88765","0.0-6.0-2.12","","null","","","trustrating_stim/white_mw089.bmp","null","","","","","","","","","","",""
"","","","rating","6362c4beb39ee39d15890c5c","bdp_trlrn","Mon Mar 13 2023 23:49:07 GMT-0400 (Eastern Daylight Time)","865929","Trustworthy,Untrustworthy","image-keyboard-response","31","90549","0.0-6.0-1.13","","1674","","","trustrating_stim/white_mw099.bmp","3","","","","","","","","","","",""
"","","","ratingFB","6362c4beb39ee39d15890c5c","bdp_trlrn","Mon Mar 13 2023 23:49:07 GMT-0400 (Eastern Daylight Time)","865929","Trustworthy,Untrustworthy","image-keyboard-response","32","90754","0.0-6.0-2.13","","null","","","trustrating_stim/white_mw099.bmp","null","","","","","","","","","","",""
"","","","rating","6362c4beb39ee39d15890c5c","bdp_trlrn","Mon Mar 13 2023 23:49:07 GMT-0400 (Eastern Daylight Time)","865929","Trustworthy,Untrustworthy","image-keyboard-response","33","92869","0.0-6.0-1.14","","2003","","","trustrating_stim/white_mw060.bmp","1","","","","","","","","","","",""
"","","","ratingFB","6362c4beb39ee39d15890c5c","bdp_trlrn","Mon Mar 13 2023 23:49:07 GMT-0400 (Eastern Daylight Time)","865929","Trustworthy,Untrustworthy","image-keyboard-response","34","93074","0.0-6.0-2.14","","null","","","trustrating_stim/white_mw060.bmp","null","","","","","","","","","","",""
"","","","rating","6362c4beb39ee39d15890c5c","bdp_trlrn","Mon Mar 13 2023 23:49:07 GMT-0400 (Eastern Daylight Time)","865929","Trustworthy,Untrustworthy","image-keyboard-response","35","94710","0.0-6.0-1.15","","1534","","","trustrating_stim/white_00602_940928_fb_edt.bmp","8","","","","","","","","","","",""
"","","","ratingFB","6362c4beb39ee39d15890c5c","bdp_trlrn","Mon Mar 13 2023 23:49:07 GMT-0400 (Eastern Daylight Time)","865929","Trustworthy,Untrustworthy","image-keyboard-response","36","94925","0.0-6.0-2.15","","null","","","trustrating_stim/white_00602_940928_fb_edt.bmp","null","","","","","","","","","","",""
"","","","rating","6362c4beb39ee39d15890c5c","bdp_trlrn","Mon Mar 13 2023 23:49:07 GMT-0400 (Eastern Daylight Time)","865929","Trustworthy,Untrustworthy","image-keyboard-response","37","97877","0.0-6.0-1.16","","2850","","","trustrating_stim/white_mw084.bmp","4","","","","","","","","","","",""
"","","","ratingFB","6362c4beb39ee39d15890c5c","bdp_trlrn","Mon Mar 13 2023 23:49:07 GMT-0400 (Eastern Daylight Time)","865929","Trustworthy,Untrustworthy","image-keyboard-response","38","98086","0.0-6.0-2.16","","null","","","trustrating_stim/white_mw084.bmp","null","","","","","","","","","","",""
"","","","rating","6362c4beb39ee39d15890c5c","bdp_trlrn","Mon Mar 13 2023 23:49:07 GMT-0400 (Eastern Daylight Time)","865929","Trustworthy,Untrustworthy","image-keyboard-response","39","99861","0.0-6.0-1.17","","1665","","","trustrating_stim/white_mw056.bmp","4","","","","","","","","","","",""
"","","","ratingFB","6362c4beb39ee39d15890c5c","bdp_trlrn","Mon Mar 13 2023 23:49:07 GMT-0400 (Eastern Daylight Time)","865929","Trustworthy,Untrustworthy","image-keyboard-response","40","100068","0.0-6.0-2.17","","null","","","trustrating_stim/white_mw056.bmp","null","","","","","","","","","","",""
"","","","rating","6362c4beb39ee39d15890c5c","bdp_trlrn","Mon Mar 13 2023 23:49:07 GMT-0400 (Eastern Daylight Time)","865929","Trustworthy,Untrustworthy","image-keyboard-response","41","101861","0.0-6.0-1.18","","1683","","","trustrating_stim/white_00785_941205_fb_edt.bmp","5","","","","","","","","","","",""
"","","","ratingFB","6362c4beb39ee39d15890c5c","bdp_trlrn","Mon Mar 13 2023 23:49:07 GMT-0400 (Eastern Daylight Time)","865929","Trustworthy,Untrustworthy","image-keyboard-response","42","102068","0.0-6.0-2.18","","null","","","trustrating_stim/white_00785_941205_fb_edt.bmp","null","","","","","","","","","","",""
"","","","rating","6362c4beb39ee39d15890c5c","bdp_trlrn","Mon Mar 13 2023 23:49:07 GMT-0400 (Eastern Daylight Time)","865929","Trustworthy,Untrustworthy","image-keyboard-response","43","104429","0.0-6.0-1.19","","2252","","","trustrating_stim/white_00223_940128_fb_edt.bmp","6","","","","","","","","","","",""
"","","","ratingFB","6362c4beb39ee39d15890c5c","bdp_trlrn","Mon Mar 13 2023 23:49:07 GMT-0400 (Eastern Daylight Time)","865929","Trustworthy,Untrustworthy","image-keyboard-response","44","104631","0.0-6.0-2.19","","null","","","trustrating_stim/white_00223_940128_fb_edt.bmp","null","","","","","","","","","","",""
"","","","rating","6362c4beb39ee39d15890c5c","bdp_trlrn","Mon Mar 13 2023 23:49:07 GMT-0400 (Eastern Daylight Time)","865929","Trustworthy,Untrustworthy","image-keyboard-response","45","110741","0.0-6.0-1.20","","6007","","","trustrating_stim/white_00299_940422_fa_edt.bmp","7","","","","","","","","","","",""
"","","","ratingFB","6362c4beb39ee39d15890c5c","bdp_trlrn","Mon Mar 13 2023 23:49:07 GMT-0400 (Eastern Daylight Time)","865929","Trustworthy,Untrustworthy","image-keyboard-response","46","110953","0.0-6.0-2.20","","null","","","trustrating_stim/white_00299_940422_fa_edt.bmp","null","","","","","","","","","","",""
"","","","rating","6362c4beb39ee39d15890c5c","bdp_trlrn","Mon Mar 13 2023 23:49:07 GMT-0400 (Eastern Daylight Time)","865929","Trustworthy,Untrustworthy","image-keyboard-response","47","112749","0.0-6.0-1.21","","1695","","","trustrating_stim/white_00898_960530_fa_edt.bmp","7","","","","","","","","","","",""
"","","","ratingFB","6362c4beb39ee39d15890c5c","bdp_trlrn","Mon Mar 13 2023 23:49:07 GMT-0400 (Eastern Daylight Time)","865929","Trustworthy,Untrustworthy","image-keyboard-response","48","112953","0.0-6.0-2.21","","null","","","trustrating_stim/white_00898_960530_fa_edt.bmp","null","","","","","","","","","","",""
"","","","rating","6362c4beb39ee39d15890c5c","bdp_trlrn","Mon Mar 13 2023 23:49:07 GMT-0400 (Eastern Daylight Time)","865929","Trustworthy,Untrustworthy","image-keyboard-response","49","115325","0.0-6.0-1.22","","2262","","","trustrating_stim/white_mw049.bmp","8","","","","","","","","","","",""
"","","","ratingFB","6362c4beb39ee39d15890c5c","bdp_trlrn","Mon Mar 13 2023 23:49:07 GMT-0400 (Eastern Daylight Time)","865929","Trustworthy,Untrustworthy","image-keyboard-response","50","115534","0.0-6.0-2.22","","null","","","trustrating_stim/white_mw049.bmp","null","","","","","","","","","","",""
"","","","rating","6362c4beb39ee39d15890c5c","bdp_trlrn","Mon Mar 13 2023 23:49:07 GMT-0400 (Eastern Daylight Time)","865929","Trustworthy,Untrustworthy","image-keyboard-response","51","133205","0.0-6.0-1.23","","17559","","","trustrating_stim/white_mw063.bmp","7","","","","","","","","","","",""
"","","","ratingFB","6362c4beb39ee39d15890c5c","bdp_trlrn","Mon Mar 13 2023 23:49:07 GMT-0400 (Eastern Daylight Time)","865929","Trustworthy,Untrustworthy","image-keyboard-response","52","133414","0.0-6.0-2.23","","null","","","trustrating_stim/white_mw063.bmp","null","","","","","","","","","","",""
"","","","rating","6362c4beb39ee39d15890c5c","bdp_trlrn","Mon Mar 13 2023 23:49:07 GMT-0400 (Eastern Daylight Time)","865929","Trustworthy,Untrustworthy","image-keyboard-response","53","135565","0.0-6.0-1.24","","2037","","","trustrating_stim/white_00757_941201_fa_edt.bmp","7","","","","","","","","","","",""
"","","","ratingFB","6362c4beb39ee39d15890c5c","bdp_trlrn","Mon Mar 13 2023 23:49:07 GMT-0400 (Eastern Daylight Time)","865929","Trustworthy,Untrustworthy","image-keyboard-response","54","135774","0.0-6.0-2.24","","null","","","trustrating_stim/white_00757_941201_fa_edt.bmp","null","","","","","","","","","","",""
"","","","rating","6362c4beb39ee39d15890c5c","bdp_trlrn","Mon Mar 13 2023 23:49:07 GMT-0400 (Eastern Daylight Time)","865929","Trustworthy,Untrustworthy","image-keyboard-response","55","137389","0.0-6.0-1.25","","1506","","","trustrating_stim/white_00340_940422_fa_edt.bmp","7","","","","","","","","","","",""
"","","","ratingFB","6362c4beb39ee39d15890c5c","bdp_trlrn","Mon Mar 13 2023 23:49:07 GMT-0400 (Eastern Daylight Time)","865929","Trustworthy,Untrustworthy","image-keyboard-response","56","137602","0.0-6.0-2.25","","null","","","trustrating_stim/white_00340_940422_fa_edt.bmp","null","","","","","","","","","","",""
"","","","rating","6362c4beb39ee39d15890c5c","bdp_trlrn","Mon Mar 13 2023 23:49:07 GMT-0400 (Eastern Daylight Time)","865929","Trustworthy,Untrustworthy","image-keyboard-response","57","138926","0.0-6.0-1.26","","1210","","","trustrating_stim/white_mw046.bmp","7","","","","","","","","","","",""
"","","","ratingFB","6362c4beb39ee39d15890c5c","bdp_trlrn","Mon Mar 13 2023 23:49:07 GMT-0400 (Eastern Daylight Time)","865929","Trustworthy,Untrustworthy","image-keyboard-response","58","139136","0.0-6.0-2.26","","null","","","trustrating_stim/white_mw046.bmp","null","","","","","","","","","","",""
"","","","rating","6362c4beb39ee39d15890c5c","bdp_trlrn","Mon Mar 13 2023 23:49:07 GMT-0400 (Eastern Daylight Time)","865929","Trustworthy,Untrustworthy","image-keyboard-response","59","140166","0.0-6.0-1.27","","920","","","trustrating_stim/white_mw035.bmp","7","","","","","","","","","","",""
"","","","ratingFB","6362c4beb39ee39d15890c5c","bdp_trlrn","Mon Mar 13 2023 23:49:07 GMT-0400 (Eastern Daylight Time)","865929","Trustworthy,Untrustworthy","image-keyboard-response","60","140382","0.0-6.0-2.27","","null","","","trustrating_stim/white_mw035.bmp","null","","","","","","","","","","",""
"","","","rating","6362c4beb39ee39d15890c5c","bdp_trlrn","Mon Mar 13 2023 23:49:07 GMT-0400 (Eastern Daylight Time)","865929","Trustworthy,Untrustworthy","image-keyboard-response","61","142366","0.0-6.0-1.28","","1875","","","trustrating_stim/white_mw048.bmp","7","","","","","","","","","","",""
"","","","ratingFB","6362c4beb39ee39d15890c5c","bdp_trlrn","Mon Mar 13 2023 23:49:07 GMT-0400 (Eastern Daylight Time)","865929","Trustworthy,Untrustworthy","image-keyboard-response","62","142577","0.0-6.0-2.28","","null","","","trustrating_stim/white_mw048.bmp","null","","","","","","","","","","",""
"","","","rating","6362c4beb39ee39d15890c5c","bdp_trlrn","Mon Mar 13 2023 23:49:07 GMT-0400 (Eastern Daylight Time)","865929","Trustworthy,Untrustworthy","image-keyboard-response","63","144695","0.0-6.0-1.29","","2006","","","trustrating_stim/white_00761_941201_fb_edt.bmp","3","","","","","","","","","","",""
"","","","ratingFB","6362c4beb39ee39d15890c5c","bdp_trlrn","Mon Mar 13 2023 23:49:07 GMT-0400 (Eastern Daylight Time)","865929","Trustworthy,Untrustworthy","image-keyboard-response","64","144907","0.0-6.0-2.29","","null","","","trustrating_stim/white_00761_941201_fb_edt.bmp","null","","","","","","","","","","",""
"","","","rating","6362c4beb39ee39d15890c5c","bdp_trlrn","Mon Mar 13 2023 23:49:07 GMT-0400 (Eastern Daylight Time)","865929","Trustworthy,Untrustworthy","image-keyboard-response","65","146094","0.0-6.0-1.30","","1077","","","trustrating_stim/white_00602_940928_fb_edt.bmp","3","","","","","","","","","","",""
"","","","ratingFB","6362c4beb39ee39d15890c5c","bdp_trlrn","Mon Mar 13 2023 23:49:07 GMT-0400 (Eastern Daylight Time)","865929","Trustworthy,Untrustworthy","image-keyboard-response","66","146305","0.0-6.0-2.30","","null","","","trustrating_stim/white_00602_940928_fb_edt.bmp","null","","","","","","","","","","",""
"","","","rating","6362c4beb39ee39d15890c5c","bdp_trlrn","Mon Mar 13 2023 23:49:07 GMT-0400 (Eastern Daylight Time)","865929","Trustworthy,Untrustworthy","image-keyboard-response","67","147277","0.0-6.0-1.31","","862","","","trustrating_stim/white_00109_931230_fa_edt.bmp","3","","","","","","","","","","",""
"","","","ratingFB","6362c4beb39ee39d15890c5c","bdp_trlrn","Mon Mar 13 2023 23:49:07 GMT-0400 (Eastern Daylight Time)","865929","Trustworthy,Untrustworthy","image-keyboard-response","68","147488","0.0-6.0-2.31","","null","","","trustrating_stim/white_00109_931230_fa_edt.bmp","null","","","","","","","","","","",""
"","","","rating","6362c4beb39ee39d15890c5c","bdp_trlrn","Mon Mar 13 2023 23:49:07 GMT-0400 (Eastern Daylight Time)","865929","Trustworthy,Untrustworthy","image-keyboard-response","69","149965","0.0-6.0-1.32","","2366","","","trustrating_stim/white_mw099.bmp","3","","","","","","","","","","",""
"","","","ratingFB","6362c4beb39ee39d15890c5c","bdp_trlrn","Mon Mar 13 2023 23:49:07 GMT-0400 (Eastern Daylight Time)","865929","Trustworthy,Untrustworthy","image-keyboard-response","70","150172","0.0-6.0-2.32","","null","","","trustrating_stim/white_mw099.bmp","null","","","","","","","","","","",""
"","","","rating","6362c4beb39ee39d15890c5c","bdp_trlrn","Mon Mar 13 2023 23:49:07 GMT-0400 (Eastern Daylight Time)","865929","Trustworthy,Untrustworthy","image-keyboard-response","71","151365","0.0-6.0-1.33","","1081","","","trustrating_stim/white_mw089.bmp","3","","","","","","","","","","",""
"","","","ratingFB","6362c4beb39ee39d15890c5c","bdp_trlrn","Mon Mar 13 2023 23:49:07 GMT-0400 (Eastern Daylight Time)","865929","Trustworthy,Untrustworthy","image-keyboard-response","72","151569","0.0-6.0-2.33","","null","","","trustrating_stim/white_mw089.bmp","null","","","","","","","","","","",""
"","","","rating","6362c4beb39ee39d15890c5c","bdp_trlrn","Mon Mar 13 2023 23:49:07 GMT-0400 (Eastern Daylight Time)","865929","Trustworthy,Untrustworthy","image-keyboard-response","73","154310","0.0-6.0-1.34","","2630","","","trustrating_stim/white_mw033.bmp","7","","","","","","","","","","",""
"","","","ratingFB","6362c4beb39ee39d15890c5c","bdp_trlrn","Mon Mar 13 2023 23:49:07 GMT-0400 (Eastern Daylight Time)","865929","Trustworthy,Untrustworthy","image-keyboard-response","74","154517","0.0-6.0-2.34","","null","","","trustrating_stim/white_mw033.bmp","null","","","","","","","","","","",""
"","","","rating","6362c4beb39ee39d15890c5c","bdp_trlrn","Mon Mar 13 2023 23:49:07 GMT-0400 (Eastern Daylight Time)","865929","Trustworthy,Untrustworthy","image-keyboard-response","75","164535","0.0-6.0-1.35","","9905","","","trustrating_stim/white_00785_941205_fb_edt.bmp","7","","","","","","","","","","",""
"","","","ratingFB","6362c4beb39ee39d15890c5c","bdp_trlrn","Mon Mar 13 2023 23:49:07 GMT-0400 (Eastern Daylight Time)","865929","Trustworthy,Untrustworthy","image-keyboard-response","76","164745","0.0-6.0-2.35","","null","","","trustrating_stim/white_00785_941205_fb_edt.bmp","null","","","","","","","","","","",""
"","","","rating","6362c4beb39ee39d15890c5c","bdp_trlrn","Mon Mar 13 2023 23:49:07 GMT-0400 (Eastern Daylight Time)","865929","Trustworthy,Untrustworthy","image-keyboard-response","77","167111","0.0-6.0-1.36","","2254","","","trustrating_stim/white_00519_940519_fb_edt.bmp","1","","","","","","","","","","",""
"","","","ratingFB","6362c4beb39ee39d15890c5c","bdp_trlrn","Mon Mar 13 2023 23:49:07 GMT-0400 (Eastern Daylight Time)","865929","Trustworthy,Untrustworthy","image-keyboard-response","78","167318","0.0-6.0-2.36","","null","","","trustrating_stim/white_00519_940519_fb_edt.bmp","null","","","","","","","","","","",""
"","","","rating","6362c4beb39ee39d15890c5c","bdp_trlrn","Mon Mar 13 2023 23:49:07 GMT-0400 (Eastern Daylight Time)","865929","Trustworthy,Untrustworthy","image-keyboard-response","79","169117","0.0-6.0-1.37","","1690","","","trustrating_stim/white_mw046.bmp","7","","","","","","","","","","",""
"","","","ratingFB","6362c4beb39ee39d15890c5c","bdp_trlrn","Mon Mar 13 2023 23:49:07 GMT-0400 (Eastern Daylight Time)","865929","Trustworthy,Untrustworthy","image-keyboard-response","80","169325","0.0-6.0-2.37","","null","","","trustrating_stim/white_mw046.bmp","null","","","","","","","","","","",""
"","","","rating","6362c4beb39ee39d15890c5c","bdp_trlrn","Mon Mar 13 2023 23:49:07 GMT-0400 (Eastern Daylight Time)","865929","Trustworthy,Untrustworthy","image-keyboard-response","81","170965","0.0-6.0-1.38","","1529","","","trustrating_stim/white_00299_940422_fa_edt.bmp","3","","","","","","","","","","",""
"","","","ratingFB","6362c4beb39ee39d15890c5c","bdp_trlrn","Mon Mar 13 2023 23:49:07 GMT-0400 (Eastern Daylight Time)","865929","Trustworthy,Untrustworthy","image-keyboard-response","82","171171","0.0-6.0-2.38","","null","","","trustrating_stim/white_00299_940422_fa_edt.bmp","null","","","","","","","","","","",""
"","","","rating","6362c4beb39ee39d15890c5c","bdp_trlrn","Mon Mar 13 2023 23:49:07 GMT-0400 (Eastern Daylight Time)","865929","Trustworthy,Untrustworthy","image-keyboard-response","83","172598","0.0-6.0-1.39","","1319","","","trustrating_stim/white_00761_941201_fb_edt.bmp","1","","","","","","","","","","",""
"","","","ratingFB","6362c4beb39ee39d15890c5c","bdp_trlrn","Mon Mar 13 2023 23:49:07 GMT-0400 (Eastern Daylight Time)","865929","Trustworthy,Untrustworthy","image-keyboard-response","84","172813","0.0-6.0-2.39","","null","","","trustrating_stim/white_00761_941201_fb_edt.bmp","null","","","","","","","","","","",""
"","","","rating","6362c4beb39ee39d15890c5c","bdp_trlrn","Mon Mar 13 2023 23:49:07 GMT-0400 (Eastern Daylight Time)","865929","Trustworthy,Untrustworthy","image-keyboard-response","85","174181","0.0-6.0-1.40","","1257","","","trustrating_stim/white_mw035.bmp","2","","","","","","","","","","",""
"","","","ratingFB","6362c4beb39ee39d15890c5c","bdp_trlrn","Mon Mar 13 2023 23:49:07 GMT-0400 (Eastern Daylight Time)","865929","Trustworthy,Untrustworthy","image-keyboard-response","86","174394","0.0-6.0-2.40","","null","","","trustrating_stim/white_mw035.bmp","null","","","","","","","","","","",""
"","","","rating","6362c4beb39ee39d15890c5c","bdp_trlrn","Mon Mar 13 2023 23:49:07 GMT-0400 (Eastern Daylight Time)","865929","Trustworthy,Untrustworthy","image-keyboard-response","87","176806","0.0-6.0-1.41","","2303","","","trustrating_stim/white_mw060.bmp","7","","","","","","","","","","",""
"","","","ratingFB","6362c4beb39ee39d15890c5c","bdp_trlrn","Mon Mar 13 2023 23:49:07 GMT-0400 (Eastern Daylight Time)","865929","Trustworthy,Untrustworthy","image-keyboard-response","88","177013","0.0-6.0-2.41","","null","","","trustrating_stim/white_mw060.bmp","null","","","","","","","","","","",""
"","","","rating","6362c4beb39ee39d15890c5c","bdp_trlrn","Mon Mar 13 2023 23:49:07 GMT-0400 (Eastern Daylight Time)","865929","Trustworthy,Untrustworthy","image-keyboard-response","89","178285","0.0-6.0-1.42","","1161","","","trustrating_stim/white_mw053.bmp","3","","","","","","","","","","",""
"","","","ratingFB","6362c4beb39ee39d15890c5c","bdp_trlrn","Mon Mar 13 2023 23:49:07 GMT-0400 (Eastern Daylight Time)","865929","Trustworthy,Untrustworthy","image-keyboard-response","90","178491","0.0-6.0-2.42","","null","","","trustrating_stim/white_mw053.bmp","null","","","","","","","","","","",""
"","","","rating","6362c4beb39ee39d15890c5c","bdp_trlrn","Mon Mar 13 2023 23:49:07 GMT-0400 (Eastern Daylight Time)","865929","Trustworthy,Untrustworthy","image-keyboard-response","91","180461","0.0-6.0-1.43","","1863","","","trustrating_stim/white_mw097.bmp","8","","","","","","","","","","",""
"","","","ratingFB","6362c4beb39ee39d15890c5c","bdp_trlrn","Mon Mar 13 2023 23:49:07 GMT-0400 (Eastern Daylight Time)","865929","Trustworthy,Untrustworthy","image-keyboard-response","92","180671","0.0-6.0-2.43","","null","","","trustrating_stim/white_mw097.bmp","null","","","","","","","","","","",""
"","","","rating","6362c4beb39ee39d15890c5c","bdp_trlrn","Mon Mar 13 2023 23:49:07 GMT-0400 (Eastern Daylight Time)","865929","Trustworthy,Untrustworthy","image-keyboard-response","93","182726","0.0-6.0-1.44","","1946","","","trustrating_stim/white_00120_931230_fa_edt.bmp","2","","","","","","","","","","",""
"","","","ratingFB","6362c4beb39ee39d15890c5c","bdp_trlrn","Mon Mar 13 2023 23:49:07 GMT-0400 (Eastern Daylight Time)","865929","Trustworthy,Untrustworthy","image-keyboard-response","94","182938","0.0-6.0-2.44","","null","","","trustrating_stim/white_00120_931230_fa_edt.bmp","null","","","","","","","","","","",""
"","","","rating","6362c4beb39ee39d15890c5c","bdp_trlrn","Mon Mar 13 2023 23:49:07 GMT-0400 (Eastern Daylight Time)","865929","Trustworthy,Untrustworthy","image-keyboard-response","95","184524","0.0-6.0-1.45","","1476","","","trustrating_stim/white_mw066.bmp","1","","","","","","","","","","",""
"","","","ratingFB","6362c4beb39ee39d15890c5c","bdp_trlrn","Mon Mar 13 2023 23:49:07 GMT-0400 (Eastern Daylight Time)","865929","Trustworthy,Untrustworthy","image-keyboard-response","96","184735","0.0-6.0-2.45","","null","","","trustrating_stim/white_mw066.bmp","null","","","","","","","","","","",""
"","","","rating","6362c4beb39ee39d15890c5c","bdp_trlrn","Mon Mar 13 2023 23:49:07 GMT-0400 (Eastern Daylight Time)","865929","Trustworthy,Untrustworthy","image-keyboard-response","97","186093","0.0-6.0-1.46","","1246","","","trustrating_stim/white_mw048.bmp","9","","","","","","","","","","",""
"","","","ratingFB","6362c4beb39ee39d15890c5c","bdp_trlrn","Mon Mar 13 2023 23:49:07 GMT-0400 (Eastern Daylight Time)","865929","Trustworthy,Untrustworthy","image-keyboard-response","98","186296","0.0-6.0-2.46","","null","","","trustrating_stim/white_mw048.bmp","null","","","","","","","","","","",""
"","","","rating","6362c4beb39ee39d15890c5c","bdp_trlrn","Mon Mar 13 2023 23:49:07 GMT-0400 (Eastern Daylight Time)","865929","Trustworthy,Untrustworthy","image-keyboard-response","99","187829","0.0-6.0-1.47","","1419","","","trustrating_stim/white_00129_931230_fb_edt.bmp","3","","","","","","","","","","",""
"","","","ratingFB","6362c4beb39ee39d15890c5c","bdp_trlrn","Mon Mar 13 2023 23:49:07 GMT-0400 (Eastern Daylight Time)","865929","Trustworthy,Untrustworthy","image-keyboard-response","100","188036","0.0-6.0-2.47","","null","","","trustrating_stim/white_00129_931230_fb_edt.bmp","null","","","","","","","","","","",""
"","","","rating","6362c4beb39ee39d15890c5c","bdp_trlrn","Mon Mar 13 2023 23:49:07 GMT-0400 (Eastern Daylight Time)","865929","Trustworthy,Untrustworthy","image-keyboard-response","101","193965","0.0-6.0-1.48","","5818","","","trustrating_stim/white_mw071.bmp","3","","","","","","","","","","",""
"","","","ratingFB","6362c4beb39ee39d15890c5c","bdp_trlrn","Mon Mar 13 2023 23:49:07 GMT-0400 (Eastern Daylight Time)","865929","Trustworthy,Untrustworthy","image-keyboard-response","102","194178","0.0-6.0-2.48","","null","","","trustrating_stim/white_mw071.bmp","null","","","","","","","","","","",""
"","","","rating","6362c4beb39ee39d15890c5c","bdp_trlrn","Mon Mar 13 2023 23:49:07 GMT-0400 (Eastern Daylight Time)","865929","Trustworthy,Untrustworthy","image-keyboard-response","103","196069","0.0-6.0-1.49","","1784","","","trustrating_stim/white_00898_960530_fa_edt.bmp","3","","","","","","","","","","",""
"","","","ratingFB","6362c4beb39ee39d15890c5c","bdp_trlrn","Mon Mar 13 2023 23:49:07 GMT-0400 (Eastern Daylight Time)","865929","Trustworthy,Untrustworthy","image-keyboard-response","104","196281","0.0-6.0-2.49","","null","","","trustrating_stim/white_00898_960530_fa_edt.bmp","null","","","","","","","","","","",""
"","","","rating","6362c4beb39ee39d15890c5c","bdp_trlrn","Mon Mar 13 2023 23:49:07 GMT-0400 (Eastern Daylight Time)","865929","Trustworthy,Untrustworthy","image-keyboard-response","105","200101","0.0-6.0-1.50","","3708","","","trustrating_stim/white_00577_940928_fa_edt.bmp","7","","","","","","","","","","",""
"","","","ratingFB","6362c4beb39ee39d15890c5c","bdp_trlrn","Mon Mar 13 2023 23:49:07 GMT-0400 (Eastern Daylight Time)","865929","Trustworthy,Untrustworthy","image-keyboard-response","106","200303","0.0-6.0-2.50","","null","","","trustrating_stim/white_00577_940928_fa_edt.bmp","null","","","","","","","","","","",""
"","","","rating","6362c4beb39ee39d15890c5c","bdp_trlrn","Mon Mar 13 2023 23:49:07 GMT-0400 (Eastern Daylight Time)","865929","Trustworthy,Untrustworthy","image-keyboard-response","107","201766","0.0-6.0-1.51","","1350","","","trustrating_stim/white_mw049.bmp","1","","","","","","","","","","",""
"","","","ratingFB","6362c4beb39ee39d15890c5c","bdp_trlrn","Mon Mar 13 2023 23:49:07 GMT-0400 (Eastern Daylight Time)","865929","Trustworthy,Untrustworthy","image-keyboard-response","108","201972","0.0-6.0-2.51","","null","","","trustrating_stim/white_mw049.bmp","null","","","","","","","","","","",""
"","","","rating","6362c4beb39ee39d15890c5c","bdp_trlrn","Mon Mar 13 2023 23:49:07 GMT-0400 (Eastern Daylight Time)","865929","Trustworthy,Untrustworthy","image-keyboard-response","109","204996","0.0-6.0-1.52","","2913","","","trustrating_stim/white_00223_940128_fb_edt.bmp","8","","","","","","","","","","",""
"","","","ratingFB","6362c4beb39ee39d15890c5c","bdp_trlrn","Mon Mar 13 2023 23:49:07 GMT-0400 (Eastern Daylight Time)","865929","Trustworthy,Untrustworthy","image-keyboard-response","110","205199","0.0-6.0-2.52","","null","","","trustrating_stim/white_00223_940128_fb_edt.bmp","null","","","","","","","","","","",""
"","","","rating","6362c4beb39ee39d15890c5c","bdp_trlrn","Mon Mar 13 2023 23:49:07 GMT-0400 (Eastern Daylight Time)","865929","Trustworthy,Untrustworthy","image-keyboard-response","111","207599","0.0-6.0-1.53","","2290","","","trustrating_stim/white_00340_940422_fa_edt.bmp","3","","","","","","","","","","",""
"","","","ratingFB","6362c4beb39ee39d15890c5c","bdp_trlrn","Mon Mar 13 2023 23:49:07 GMT-0400 (Eastern Daylight Time)","865929","Trustworthy,Untrustworthy","image-keyboard-response","112","207815","0.0-6.0-2.53","","null","","","trustrating_stim/white_00340_940422_fa_edt.bmp","null","","","","","","","","","","",""
"","","","rating","6362c4beb39ee39d15890c5c","bdp_trlrn","Mon Mar 13 2023 23:49:07 GMT-0400 (Eastern Daylight Time)","865929","Trustworthy,Untrustworthy","image-keyboard-response","113","209325","0.0-6.0-1.54","","1401","","","trustrating_stim/white_00807_941205_fb_edt.bmp","1","","","","","","","","","","",""
"","","","ratingFB","6362c4beb39ee39d15890c5c","bdp_trlrn","Mon Mar 13 2023 23:49:07 GMT-0400 (Eastern Daylight Time)","865929","Trustworthy,Untrustworthy","image-keyboard-response","114","209528","0.0-6.0-2.54","","null","","","trustrating_stim/white_00807_941205_fb_edt.bmp","null","","","","","","","","","","",""
"","","","rating","6362c4beb39ee39d15890c5c","bdp_trlrn","Mon Mar 13 2023 23:49:07 GMT-0400 (Eastern Daylight Time)","865929","Trustworthy,Untrustworthy","image-keyboard-response","115","210983","0.0-6.0-1.55","","1345","","","trustrating_stim/white_mw056.bmp","7","","","","","","","","","","",""
"","","","ratingFB","6362c4beb39ee39d15890c5c","bdp_trlrn","Mon Mar 13 2023 23:49:07 GMT-0400 (Eastern Daylight Time)","865929","Trustworthy,Untrustworthy","image-keyboard-response","116","211189","0.0-6.0-2.55","","null","","","trustrating_stim/white_mw056.bmp","null","","","","","","","","","","",""
"","","","rating","6362c4beb39ee39d15890c5c","bdp_trlrn","Mon Mar 13 2023 23:49:07 GMT-0400 (Eastern Daylight Time)","865929","Trustworthy,Untrustworthy","image-keyboard-response","117","213406","0.0-6.0-1.56","","2114","","","trustrating_stim/white_mw084.bmp","7","","","","","","","","","","",""
"","","","ratingFB","6362c4beb39ee39d15890c5c","bdp_trlrn","Mon Mar 13 2023 23:49:07 GMT-0400 (Eastern Daylight Time)","865929","Trustworthy,Untrustworthy","image-keyboard-response","118","213612","0.0-6.0-2.56","","null","","","trustrating_stim/white_mw084.bmp","null","","","","","","","","","","",""
"","","","rating","6362c4beb39ee39d15890c5c","bdp_trlrn","Mon Mar 13 2023 23:49:07 GMT-0400 (Eastern Daylight Time)","865929","Trustworthy,Untrustworthy","image-keyboard-response","119","216192","0.0-6.0-1.57","","2472","","","trustrating_stim/white_00757_941201_fa_edt.bmp","7","","","","","","","","","","",""
"","","","ratingFB","6362c4beb39ee39d15890c5c","bdp_trlrn","Mon Mar 13 2023 23:49:07 GMT-0400 (Eastern Daylight Time)","865929","Trustworthy,Untrustworthy","image-keyboard-response","120","216396","0.0-6.0-2.57","","null","","","trustrating_stim/white_00757_941201_fa_edt.bmp","null","","","","","","","","","","",""
"","","","rating","6362c4beb39ee39d15890c5c","bdp_trlrn","Mon Mar 13 2023 23:49:07 GMT-0400 (Eastern Daylight Time)","865929","Trustworthy,Untrustworthy","image-keyboard-response","121","218414","0.0-6.0-1.58","","1907","","","trustrating_stim/white_00659_941121_fa_edt.bmp","7","","","","","","","","","","",""
"","","","ratingFB","6362c4beb39ee39d15890c5c","bdp_trlrn","Mon Mar 13 2023 23:49:07 GMT-0400 (Eastern Daylight Time)","865929","Trustworthy,Untrustworthy","image-keyboard-response","122","218629","0.0-6.0-2.58","","null","","","trustrating_stim/white_00659_941121_fa_edt.bmp","null","","","","","","","","","","",""
"","","","rating","6362c4beb39ee39d15890c5c","bdp_trlrn","Mon Mar 13 2023 23:49:07 GMT-0400 (Eastern Daylight Time)","865929","Trustworthy,Untrustworthy","image-keyboard-response","123","219629","0.0-6.0-1.59","","889","","","trustrating_stim/white_mw063.bmp","7","","","","","","","","","","",""
"","","","ratingFB","6362c4beb39ee39d15890c5c","bdp_trlrn","Mon Mar 13 2023 23:49:07 GMT-0400 (Eastern Daylight Time)","865929","Trustworthy,Untrustworthy","image-keyboard-response","124","219830","0.0-6.0-2.59","","null","","","trustrating_stim/white_mw063.bmp","null","","","","","","","","","","",""
"","","","","6362c4beb39ee39d15890c5c","bdp_trlrn","Mon Mar 13 2023 23:49:07 GMT-0400 (Eastern Daylight Time)","865929","Trustworthy,Untrustworthy","instructions","125","221910","0.0-7.0","[{""page_index"":0,""viewing_time"":1971}]","1971","","","","","","","","","","","","","","",""
"blur","126","366777","blurevent","6362c4beb39ee39d15890c5c","bdp_trlrn","Mon Mar 13 2023 23:49:07 GMT-0400 (Eastern Daylight Time)","865929","Trustworthy,Untrustworthy","","","","","","","","1","","","","","","","","","","","","",""
"focus","126","391731","focusevent","6362c4beb39ee39d15890c5c","bdp_trlrn","Mon Mar 13 2023 23:49:07 GMT-0400 (Eastern Daylight Time)","865929","Trustworthy,Untrustworthy","","","","","","","","","","","","","","","","","","","","",""
"","","","","6362c4beb39ee39d15890c5c","bdp_trlrn","Mon Mar 13 2023 23:49:07 GMT-0400 (Eastern Daylight Time)","865929","Trustworthy,Untrustworthy","instructions","126","396704","0.0-8.0","[{""page_index"":0,""viewing_time"":28280},{""page_index"":1,""viewing_time"":18507},{""page_index"":2,""viewing_time"":10440},{""page_index"":3,""viewing_time"":10647},{""page_index"":4,""viewing_time"":20080},{""page_index"":5,""viewing_time"":25576},{""page_index"":6,""viewing_time"":57223},{""page_index"":7,""viewing_time"":3938}]","174691","","","","","","","","","","","","","","",""
"blur","127","406892","blurevent","6362c4beb39ee39d15890c5c","bdp_trlrn","Mon Mar 13 2023 23:49:07 GMT-0400 (Eastern Daylight Time)","865929","Trustworthy,Untrustworthy","","","","","","","","2","","","","","","","","","","","","",""
"focus","127","411294","focusevent","6362c4beb39ee39d15890c5c","bdp_trlrn","Mon Mar 13 2023 23:49:07 GMT-0400 (Eastern Daylight Time)","865929","Trustworthy,Untrustworthy","","","","","","","","","","","","","","","","","","","","",""
"","","","","6362c4beb39ee39d15890c5c","bdp_trlrn","Mon Mar 13 2023 23:49:07 GMT-0400 (Eastern Daylight Time)","865929","Trustworthy,Untrustworthy","html-keyboard-response","127","414080","0.0-9.0","","17376","","","<div class='header' style='text-align:left; position: absolute; top: 5%; left: 5%;'><small>Task 2 of 5</small></div><div class='instruxDiv'><p><strong>1) What is the minimum number of points you can choose to send to your partner?</strong></p><p>a) 0</p><p>b) 1</p><p>c) 5</p>","B","","","","","","","","","","",""
"","","","","6362c4beb39ee39d15890c5c","bdp_trlrn","Mon Mar 13 2023 23:49:07 GMT-0400 (Eastern Daylight Time)","865929","Trustworthy,Untrustworthy","html-keyboard-response","128","417328","0.0-10.0","","3146","","","<div class='header' style='text-align:left; position: absolute; top: 5%; left: 5%;'><small>Task 2 of 5</small></div><div class='instruxDiv'><p><strong>1) What is the minimum number of points you can choose to send to your partner?</strong></p><p>a) 0</p><p style='color:#00FF00'>b) 1</p><p>c) 5</p><h3 style='color:#00FF00'>Correct!</h3><h3 class='center-content'>The correct response is b).</h3><h3 class='center-content'>The minimum number of points you can choose to send to your partner is 1 point.</h3><p><em>Press SPACEBAR to continue</em></p></div>"," ","","","","","","","","","","",""
"","","","","6362c4beb39ee39d15890c5c","bdp_trlrn","Mon Mar 13 2023 23:49:07 GMT-0400 (Eastern Daylight Time)","865929","Trustworthy,Untrustworthy","html-keyboard-response","129","421000","0.0-11.0","","3556","","","<div class='header' style='text-align:left; position: absolute; top: 5%; left: 5%;'><small>Task 2 of 5</small></div><div class='instruxDiv'><p><strong>2) What is the maximum number of points you can choose to send to your partner?</strong></p><p>a) 8</p><p>b) 5</p><p>c) 3</p>","B","","","","","","","","","","",""
"","","","","6362c4beb39ee39d15890c5c","bdp_trlrn","Mon Mar 13 2023 23:49:07 GMT-0400 (Eastern Daylight Time)","865929","Trustworthy,Untrustworthy","html-keyboard-response","130","422335","0.0-12.0","","1234","","","<div class='header' style='text-align:left; position: absolute; top: 5%; left: 5%;'><small>Task 2 of 5</small></div><div class='instruxDiv'><p><strong>2) What is the maximum number of points you can choose to send to your partner?</strong></p><p>a) 8</p><p style='color:#00FF00'>b) 5</p><p>c) 3</p><h3 style='color:#00FF00'>Correct!</h3><h3 class='center-content'>The correct response is b).</h3><h3 class='center-content'>The maximum number of points you can choose to send to your partner is 5 points.</h3><p><em>Press SPACEBAR to continue</em></p></div>"," ","","","","","","","","","","",""
"","","","","6362c4beb39ee39d15890c5c","bdp_trlrn","Mon Mar 13 2023 23:49:07 GMT-0400 (Eastern Daylight Time)","865929","Trustworthy,Untrustworthy","html-keyboard-response","131","427673","0.0-13.0","","5220","","","<div class='header' style='text-align:left; position: absolute; top: 5%; left: 5%;'><small>Task 2 of 5</small></div><div class='instruxDiv'><p><strong>3) What happens to the amount of points you send to your partner?</strong></p><p>a) Nothing</p><p>b) It doubles</p><p>c) It quadruples</p>","C","","","","","","","","","","",""
"","","","","6362c4beb39ee39d15890c5c","bdp_trlrn","Mon Mar 13 2023 23:49:07 GMT-0400 (Eastern Daylight Time)","865929","Trustworthy,Untrustworthy","html-keyboard-response","132","428718","0.0-14.0","","945","","","<div class='header' style='text-align:left; position: absolute; top: 5%; left: 5%;'><small>Task 2 of 5</small></div><div class='instruxDiv'><p><strong>3) What happens to the amount of points you send to your partner?</strong></p><p>a) Nothing</p><p>b) It doubles</p><p style='color:#00FF00'>c) It quadruples</p><h3 style='color:#00FF00'>Correct!</h3><h3 class='center-content'>The correct response is c).</h3><h3 class='center-content'>The amount of points you send to your partner quadruples.</h3><p><em>Press SPACEBAR to continue</em></p></div>"," ","","","","","","","","","","",""
"","","","","6362c4beb39ee39d15890c5c","bdp_trlrn","Mon Mar 13 2023 23:49:07 GMT-0400 (Eastern Daylight Time)","865929","Trustworthy,Untrustworthy","html-keyboard-response","133","450151","0.0-15.0","","21322","","","<div class='header' style='text-align:left; position: absolute; top: 5%; left: 5%;'><small>Task 2 of 5</small></div><div class='instruxDiv'><p><strong>4) If you decided to share 4 out of 5 points with your partner, and they decided to share half of the amount they received with you, how many points would you receive back from them on this round?</strong></p><p>a) 16</p><p>b) 0</p><p>c) 8</p>","C","","","","","","","","","","",""
"","","","","6362c4beb39ee39d15890c5c","bdp_trlrn","Mon Mar 13 2023 23:49:07 GMT-0400 (Eastern Daylight Time)","865929","Trustworthy,Untrustworthy","html-keyboard-response","134","451592","0.0-16.0","","1339","","","<div class='header' style='text-align:left; position: absolute; top: 5%; left: 5%;'><small>Task 2 of 5</small></div><div class='instruxDiv'><p><strong>4) If you decided to share 4 out of 5 points with your partner, and they decided to share half of the amount they received with you, how many points would you receive back from them on this round?</strong></p><p>a) 16</p><p>b) 0</p><p style='color:#00FF00'>c) 8</p><h3 style='color:#00FF00'>Correct!</h3><h3 class='center-content'>The correct response is c).</h3><h3 class='center-content'>If you shared 4 out of 5 points with your partner and they decided to share half of the amount they received with you, you would receive 8 points back (i.e. (4 x 4)/2 = 8).</h3><p><em>Press SPACEBAR to continue</em></p></div>"," ","","","","","","","","","","",""
"","","","","6362c4beb39ee39d15890c5c","bdp_trlrn","Mon Mar 13 2023 23:49:07 GMT-0400 (Eastern Daylight Time)","865929","Trustworthy,Untrustworthy","html-keyboard-response","135","456704","0.0-17.0","","null","","","<div class='header' style='text-align:left; position: absolute; top: 5%; left: 5%;'><small>Task 2 of 5</small></div><div class='instruxDiv'><p>Thank you for completing the quiz<p>These are the actual partners you will be interacting with in the next block:<p><div class='tc' align='center'><img class='introPic' src='trustrating_stim/white_mw099.bmp'><br><strong>Jason</strong></div><div class='bl' align='center'><img class='introPic' src='trustrating_stim/white_mw053.bmp'><br><strong>Aaron</strong></div><div class='br' align='center'><img class='introPic' src='trustrating_stim/white_mw033.bmp'><br><strong>Devin</strong></div></div><p>Across <strong>66 rounds</strong> you will interact with each partner <strong>22 times</strong> (in random order).<p style='align:center; color:white'><font <em>Press SPACEBAR to continue</em></p>","null","","","","","","","","","","",""
"blur","136","475223","blurevent","6362c4beb39ee39d15890c5c","bdp_trlrn","Mon Mar 13 2023 23:49:07 GMT-0400 (Eastern Daylight Time)","865929","Trustworthy,Untrustworthy","","","","","","","","3","","","","","","","","","","","","",""
"focus","136","491006","focusevent","6362c4beb39ee39d15890c5c","bdp_trlrn","Mon Mar 13 2023 23:49:07 GMT-0400 (Eastern Daylight Time)","865929","Trustworthy,Untrustworthy","","","","","","","","","","","","","","","","","","","","",""
"blur","136","491008","blurevent","6362c4beb39ee39d15890c5c","bdp_trlrn","Mon Mar 13 2023 23:49:07 GMT-0400 (Eastern Daylight Time)","865929","Trustworthy,Untrustworthy","","","","","","","","","","","","","","","","","","","","",""
"focus","136","496653","focusevent","6362c4beb39ee39d15890c5c","bdp_trlrn","Mon Mar 13 2023 23:49:07 GMT-0400 (Eastern Daylight Time)","865929","Trustworthy,Untrustworthy","","","","","","","","","","","","","","","","","","","","",""
"blur","136","517667","blurevent","6362c4beb39ee39d15890c5c","bdp_trlrn","Mon Mar 13 2023 23:49:07 GMT-0400 (Eastern Daylight Time)","865929","Trustworthy,Untrustworthy","","","","","","","","","","","","","","","","","","","","",""
"focus","136","528609","focusevent","6362c4beb39ee39d15890c5c","bdp_trlrn","Mon Mar 13 2023 23:49:07 GMT-0400 (Eastern Daylight Time)","865929","Trustworthy,Untrustworthy","","","","","","","","","","","","","","","","","","","","",""
"","","","","6362c4beb39ee39d15890c5c","bdp_trlrn","Mon Mar 13 2023 23:49:07 GMT-0400 (Eastern Daylight Time)","865929","Trustworthy,Untrustworthy","instructions","136","533945","0.0-18.0","[{""page_index"":0,""viewing_time"":73016},{""page_index"":1,""viewing_time"":4225}]","77241","","","","","","","","","","","","","","",""
"","","","decision","6362c4beb39ee39d15890c5c","bdp_trlrn","Mon Mar 13 2023 23:49:07 GMT-0400 (Eastern Daylight Time)","865929","Trustworthy,Untrustworthy","html-keyboard-response","137","538984","0.0-19.0-1.0","","4936","","","<div class='trialDiv'><img src='trustrating_stim/white_mw053.bmp'><br><font class='baseline'><strong>Aaron</strong><p>Choose number of points to send.</font><div class='respPicDiv'><img src='img/responseButtonOffersNo0L.png' class='respPic'></div></div>","4","1","Aaron","6","Kept","0.2,0.8","14","0.2","trustrating_stim/white_mw053.bmp","5","5","1"
"","","","decisionFB","6362c4beb39ee39d15890c5c","bdp_trlrn","Mon Mar 13 2023 23:49:07 GMT-0400 (Eastern Daylight Time)","865929","Trustworthy,Untrustworthy","html-keyboard-response","138","539242","0.0-19.0-2.0","","null","","","<div class='trialDiv'><img src='trustrating_stim/white_mw053.bmp'><br><font class='baseline'><strong>Aaron</strong><p>Choose number of points to send.</font><div class='respPicDiv'><img src='img/responseButtonOffersNo0L4.png' class='respPic'></div></div>","null","1","Aaron","6","Kept","0.2,0.8","14","0.2","trustrating_stim/white_mw053.bmp","5","1","1"
"","","","feedback","6362c4beb39ee39d15890c5c","bdp_trlrn","Mon Mar 13 2023 23:49:07 GMT-0400 (Eastern Daylight Time)","865929","Trustworthy,Untrustworthy","html-keyboard-response","139","540246","0.0-19.0-3.0","","null","","","<div class='trialDiv'><img src='trustrating_stim/white_mw053.bmp'><br><font class='baseline'><strong>Aaron</strong><p>Received: <strong>16</strong></font> &nbsp; &nbsp; &nbsp; &nbsp; &nbsp; &nbsp;<font class='negOutcome'>Shared back: <strong>0</strong></font></font><div class='respPicDiv'><img src='img/responseButtonOffersNo0_wht.png' class='respPic'></div></div>","null","1","Aaron","6","Kept","0.2,0.8","14","0.2","trustrating_stim/white_mw053.bmp","5","1","1"
"","","","decision","6362c4beb39ee39d15890c5c","bdp_trlrn","Mon Mar 13 2023 23:49:07 GMT-0400 (Eastern Daylight Time)","865929","Trustworthy,Untrustworthy","html-keyboard-response","140","544569","0.0-19.0-1.1","","4323","","","<div class='trialDiv'><img src='trustrating_stim/white_mw033.bmp'><br><font class='baseline'><strong>Devin</strong><p>Choose number of points to send.</font><div class='respPicDiv'><img src='img/responseButtonOffersNo0L.png' class='respPic'></div></div>","3","1","Devin","10","Shared","0.65,0.2","13","0.65","trustrating_stim/white_mw033.bmp","7","6","2"
"","","","decisionFB","6362c4beb39ee39d15890c5c","bdp_trlrn","Mon Mar 13 2023 23:49:07 GMT-0400 (Eastern Daylight Time)","865929","Trustworthy,Untrustworthy","html-keyboard-response","141","544825","0.0-19.0-2.1","","null","","","<div class='trialDiv'><img src='trustrating_stim/white_mw033.bmp'><br><font class='baseline'><strong>Devin</strong><p>Choose number of points to send.</font><div class='respPicDiv'><img src='img/responseButtonOffersNo0L3.png' class='respPic'></div></div>","null","1","Devin","10","Shared","0.65,0.2","13","0.65","trustrating_stim/white_mw033.bmp","7","3","2"
"","","","feedback","6362c4beb39ee39d15890c5c","bdp_trlrn","Mon Mar 13 2023 23:49:07 GMT-0400 (Eastern Daylight Time)","865929","Trustworthy,Untrustworthy","html-keyboard-response","142","545832","0.0-19.0-3.1","","null","","","<div class='trialDiv'><img src='trustrating_stim/white_mw033.bmp'><br><font class='baseline'><strong>Devin</strong><p>Received: <strong>12</strong></font> &nbsp; &nbsp; &nbsp; &nbsp; &nbsp; &nbsp;<font class='posOutcome'>Shared back: <strong>6</strong></font></font><div class='respPicDiv'><img src='img/responseButtonOffersNo0_wht.png' class='respPic'></div></div>","null","1","Devin","10","Shared","0.65,0.2","13","0.65","trustrating_stim/white_mw033.bmp","7","9","2"
"","","","decision","6362c4beb39ee39d15890c5c","bdp_trlrn","Mon Mar 13 2023 23:49:07 GMT-0400 (Eastern Daylight Time)","865929","Trustworthy,Untrustworthy","html-keyboard-response","143","548529","0.0-19.0-1.2","","2696","","","<div class='trialDiv'><img src='trustrating_stim/white_mw099.bmp'><br><font class='baseline'><strong>Jason</strong><p>Choose number of points to send.</font><div class='respPicDiv'><img src='img/responseButtonOffersNo0L.png' class='respPic'></div></div>","3","1","Jason","2","Kept","0.35,0.8","8","0.35","trustrating_stim/white_mw099.bmp","3","14","3"
"","","","decisionFB","6362c4beb39ee39d15890c5c","bdp_trlrn","Mon Mar 13 2023 23:49:07 GMT-0400 (Eastern Daylight Time)","865929","Trustworthy,Untrustworthy","html-keyboard-response","144","548783","0.0-19.0-2.2","","null","","","<div class='trialDiv'><img src='trustrating_stim/white_mw099.bmp'><br><font class='baseline'><strong>Jason</strong><p>Choose number of points to send.</font><div class='respPicDiv'><img src='img/responseButtonOffersNo0L3.png' class='respPic'></div></div>","null","1","Jason","2","Kept","0.35,0.8","8","0.35","trustrating_stim/white_mw099.bmp","3","11","3"
"","","","feedback","6362c4beb39ee39d15890c5c","bdp_trlrn","Mon Mar 13 2023 23:49:07 GMT-0400 (Eastern Daylight Time)","865929","Trustworthy,Untrustworthy","html-keyboard-response","145","549794","0.0-19.0-3.2","","null","","","<div class='trialDiv'><img src='trustrating_stim/white_mw099.bmp'><br><font class='baseline'><strong>Jason</strong><p>Received: <strong>12</strong></font> &nbsp; &nbsp; &nbsp; &nbsp; &nbsp; &nbsp;<font class='negOutcome'>Shared back: <strong>0</strong></font></font><div class='respPicDiv'><img src='img/responseButtonOffersNo0_wht.png' class='respPic'></div></div>","null","1","Jason","2","Kept","0.35,0.8","8","0.35","trustrating_stim/white_mw099.bmp","3","11","3"
"","","","decision","6362c4beb39ee39d15890c5c","bdp_trlrn","Mon Mar 13 2023 23:49:07 GMT-0400 (Eastern Daylight Time)","865929","Trustworthy,Untrustworthy","html-keyboard-response","146","553465","0.0-19.0-1.3","","3671","","","<div class='trialDiv'><img src='trustrating_stim/white_mw053.bmp'><br><font class='baseline'><strong>Aaron</strong><p>Choose number of points to send.</font><div class='respPicDiv'><img src='img/responseButtonOffersNo0L.png' class='respPic'></div></div>","4","2","Aaron","6","Kept","0.2,0.8","14","0.2","trustrating_stim/white_mw053.bmp","5","16","4"
"","","","decisionFB","6362c4beb39ee39d15890c5c","bdp_trlrn","Mon Mar 13 2023 23:49:07 GMT-0400 (Eastern Daylight Time)","865929","Trustworthy,Untrustworthy","html-keyboard-response","147","553723","0.0-19.0-2.3","","null","","","<div class='trialDiv'><img src='trustrating_stim/white_mw053.bmp'><br><font class='baseline'><strong>Aaron</strong><p>Choose number of points to send.</font><div class='respPicDiv'><img src='img/responseButtonOffersNo0L4.png' class='respPic'></div></div>","null","2","Aaron","6","Kept","0.2,0.8","14","0.2","trustrating_stim/white_mw053.bmp","5","12","4"
"","","","feedback","6362c4beb39ee39d15890c5c","bdp_trlrn","Mon Mar 13 2023 23:49:07 GMT-0400 (Eastern Daylight Time)","865929","Trustworthy,Untrustworthy","html-keyboard-response","148","554735","0.0-19.0-3.3","","null","","","<div class='trialDiv'><img src='trustrating_stim/white_mw053.bmp'><br><font class='baseline'><strong>Aaron</strong><p>Received: <strong>16</strong></font> &nbsp; &nbsp; &nbsp; &nbsp; &nbsp; &nbsp;<font class='negOutcome'>Shared back: <strong>0</strong></font></font><div class='respPicDiv'><img src='img/responseButtonOffersNo0_wht.png' class='respPic'></div></div>","null","2","Aaron","6","Kept","0.2,0.8","14","0.2","trustrating_stim/white_mw053.bmp","5","12","4"
"","","","decision","6362c4beb39ee39d15890c5c","bdp_trlrn","Mon Mar 13 2023 23:49:07 GMT-0400 (Eastern Daylight Time)","865929","Trustworthy,Untrustworthy","html-keyboard-response","149","557017","0.0-19.0-1.4","","2281","","","<div class='trialDiv'><img src='trustrating_stim/white_mw033.bmp'><br><font class='baseline'><strong>Devin</strong><p>Choose number of points to send.</font><div class='respPicDiv'><img src='img/responseButtonOffersNo0L.png' class='respPic'></div></div>","3","2","Devin","10","Shared","0.65,0.2","13","0.65","trustrating_stim/white_mw033.bmp","7","17","5"
"","","","decisionFB","6362c4beb39ee39d15890c5c","bdp_trlrn","Mon Mar 13 2023 23:49:07 GMT-0400 (Eastern Daylight Time)","865929","Trustworthy,Untrustworthy","html-keyboard-response","150","557273","0.0-19.0-2.4","","null","","","<div class='trialDiv'><img src='trustrating_stim/white_mw033.bmp'><br><font class='baseline'><strong>Devin</strong><p>Choose number of points to send.</font><div class='respPicDiv'><img src='img/responseButtonOffersNo0L3.png' class='respPic'></div></div>","null","2","Devin","10","Shared","0.65,0.2","13","0.65","trustrating_stim/white_mw033.bmp","7","14","5"
"","","","feedback","6362c4beb39ee39d15890c5c","bdp_trlrn","Mon Mar 13 2023 23:49:07 GMT-0400 (Eastern Daylight Time)","865929","Trustworthy,Untrustworthy","html-keyboard-response","151","558275","0.0-19.0-3.4","","null","","","<div class='trialDiv'><img src='trustrating_stim/white_mw033.bmp'><br><font class='baseline'><strong>Devin</strong><p>Received: <strong>12</strong></font> &nbsp; &nbsp; &nbsp; &nbsp; &nbsp; &nbsp;<font class='posOutcome'>Shared back: <strong>6</strong></font></font><div class='respPicDiv'><img src='img/responseButtonOffersNo0_wht.png' class='respPic'></div></div>","null","2","Devin","10","Shared","0.65,0.2","13","0.65","trustrating_stim/white_mw033.bmp","7","20","5"
"","","","decision","6362c4beb39ee39d15890c5c","bdp_trlrn","Mon Mar 13 2023 23:49:07 GMT-0400 (Eastern Daylight Time)","865929","Trustworthy,Untrustworthy","html-keyboard-response","152","560705","0.0-19.0-1.5","","2429","","","<div class='trialDiv'><img src='trustrating_stim/white_mw099.bmp'><br><font class='baseline'><strong>Jason</strong><p>Choose number of points to send.</font><div class='respPicDiv'><img src='img/responseButtonOffersNo0L.png' class='respPic'></div></div>","3","2","Jason","2","Kept","0.35,0.8","8","0.35","trustrating_stim/white_mw099.bmp","3","25","6"
"","","","decisionFB","6362c4beb39ee39d15890c5c","bdp_trlrn","Mon Mar 13 2023 23:49:07 GMT-0400 (Eastern Daylight Time)","865929","Trustworthy,Untrustworthy","html-keyboard-response","153","560968","0.0-19.0-2.5","","null","","","<div class='trialDiv'><img src='trustrating_stim/white_mw099.bmp'><br><font class='baseline'><strong>Jason</strong><p>Choose number of points to send.</font><div class='respPicDiv'><img src='img/responseButtonOffersNo0L3.png' class='respPic'></div></div>","null","2","Jason","2","Kept","0.35,0.8","8","0.35","trustrating_stim/white_mw099.bmp","3","22","6"
"","","","feedback","6362c4beb39ee39d15890c5c","bdp_trlrn","Mon Mar 13 2023 23:49:07 GMT-0400 (Eastern Daylight Time)","865929","Trustworthy,Untrustworthy","html-keyboard-response","154","561971","0.0-19.0-3.5","","null","","","<div class='trialDiv'><img src='trustrating_stim/white_mw099.bmp'><br><font class='baseline'><strong>Jason</strong><p>Received: <strong>12</strong></font> &nbsp; &nbsp; &nbsp; &nbsp; &nbsp; &nbsp;<font class='negOutcome'>Shared back: <strong>0</strong></font></font><div class='respPicDiv'><img src='img/responseButtonOffersNo0_wht.png' class='respPic'></div></div>","null","2","Jason","2","Kept","0.35,0.8","8","0.35","trustrating_stim/white_mw099.bmp","3","22","6"
"","","","decision","6362c4beb39ee39d15890c5c","bdp_trlrn","Mon Mar 13 2023 23:49:07 GMT-0400 (Eastern Daylight Time)","865929","Trustworthy,Untrustworthy","html-keyboard-response","155","562586","0.0-19.0-1.6","","615","","","<div class='trialDiv'><img src='trustrating_stim/white_mw053.bmp'><br><font class='baseline'><strong>Aaron</strong><p>Choose number of points to send.</font><div class='respPicDiv'><img src='img/responseButtonOffersNo0L.png' class='respPic'></div></div>","3","3","Aaron","6","Kept","0.2,0.8","14","0.2","trustrating_stim/white_mw053.bmp","5","27","7"
"","","","decisionFB","6362c4beb39ee39d15890c5c","bdp_trlrn","Mon Mar 13 2023 23:49:07 GMT-0400 (Eastern Daylight Time)","865929","Trustworthy,Untrustworthy","html-keyboard-response","156","562853","0.0-19.0-2.6","","null","","","<div class='trialDiv'><img src='trustrating_stim/white_mw053.bmp'><br><font class='baseline'><strong>Aaron</strong><p>Choose number of points to send.</font><div class='respPicDiv'><img src='img/responseButtonOffersNo0L3.png' class='respPic'></div></div>","null","3","Aaron","6","Kept","0.2,0.8","14","0.2","trustrating_stim/white_mw053.bmp","5","24","7"
"","","","feedback","6362c4beb39ee39d15890c5c","bdp_trlrn","Mon Mar 13 2023 23:49:07 GMT-0400 (Eastern Daylight Time)","865929","Trustworthy,Untrustworthy","html-keyboard-response","157","563857","0.0-19.0-3.6","","null","","","<div class='trialDiv'><img src='trustrating_stim/white_mw053.bmp'><br><font class='baseline'><strong>Aaron</strong><p>Received: <strong>12</strong></font> &nbsp; &nbsp; &nbsp; &nbsp; &nbsp; &nbsp;<font class='negOutcome'>Shared back: <strong>0</strong></font></font><div class='respPicDiv'><img src='img/responseButtonOffersNo0_wht.png' class='respPic'></div></div>","null","3","Aaron","6","Kept","0.2,0.8","14","0.2","trustrating_stim/white_mw053.bmp","5","24","7"
"","","","decision","6362c4beb39ee39d15890c5c","bdp_trlrn","Mon Mar 13 2023 23:49:07 GMT-0400 (Eastern Daylight Time)","865929","Trustworthy,Untrustworthy","html-keyboard-response","158","564225","0.0-19.0-1.7","","368","","","<div class='trialDiv'><img src='trustrating_stim/white_mw099.bmp'><br><font class='baseline'><strong>Jason</strong><p>Choose number of points to send.</font><div class='respPicDiv'><img src='img/responseButtonOffersNo0L.png' class='respPic'></div></div>","3","3","Jason","2","Kept","0.35,0.8","8","0.35","trustrating_stim/white_mw099.bmp","3","29","8"
"","","","decisionFB","6362c4beb39ee39d15890c5c","bdp_trlrn","Mon Mar 13 2023 23:49:07 GMT-0400 (Eastern Daylight Time)","865929","Trustworthy,Untrustworthy","html-keyboard-response","159","564486","0.0-19.0-2.7","","null","","","<div class='trialDiv'><img src='trustrating_stim/white_mw099.bmp'><br><font class='baseline'><strong>Jason</strong><p>Choose number of points to send.</font><div class='respPicDiv'><img src='img/responseButtonOffersNo0L3.png' class='respPic'></div></div>","null","3","Jason","2","Kept","0.35,0.8","8","0.35","trustrating_stim/white_mw099.bmp","3","26","8"
"","","","feedback","6362c4beb39ee39d15890c5c","bdp_trlrn","Mon Mar 13 2023 23:49:07 GMT-0400 (Eastern Daylight Time)","865929","Trustworthy,Untrustworthy","html-keyboard-response","160","565493","0.0-19.0-3.7","","null","","","<div class='trialDiv'><img src='trustrating_stim/white_mw099.bmp'><br><font class='baseline'><strong>Jason</strong><p>Received: <strong>12</strong></font> &nbsp; &nbsp; &nbsp; &nbsp; &nbsp; &nbsp;<font class='negOutcome'>Shared back: <strong>0</strong></font></font><div class='respPicDiv'><img src='img/responseButtonOffersNo0_wht.png' class='respPic'></div></div>","null","3","Jason","2","Kept","0.35,0.8","8","0.35","trustrating_stim/white_mw099.bmp","3","26","8"
"","","","decision","6362c4beb39ee39d15890c5c","bdp_trlrn","Mon Mar 13 2023 23:49:07 GMT-0400 (Eastern Daylight Time)","865929","Trustworthy,Untrustworthy","html-keyboard-response","161","566600","0.0-19.0-1.8","","1107","","","<div class='trialDiv'><img src='trustrating_stim/white_mw033.bmp'><br><font class='baseline'><strong>Devin</strong><p>Choose number of points to send.</font><div class='respPicDiv'><img src='img/responseButtonOffersNo0L.png' class='respPic'></div></div>","3","3","Devin","10","Shared","0.65,0.2","13","0.65","trustrating_stim/white_mw033.bmp","7","31","9"
"","","","decisionFB","6362c4beb39ee39d15890c5c","bdp_trlrn","Mon Mar 13 2023 23:49:07 GMT-0400 (Eastern Daylight Time)","865929","Trustworthy,Untrustworthy","html-keyboard-response","162","566852","0.0-19.0-2.8","","null","","","<div class='trialDiv'><img src='trustrating_stim/white_mw033.bmp'><br><font class='baseline'><strong>Devin</strong><p>Choose number of points to send.</font><div class='respPicDiv'><img src='img/responseButtonOffersNo0L3.png' class='respPic'></div></div>","null","3","Devin","10","Shared","0.65,0.2","13","0.65","trustrating_stim/white_mw033.bmp","7","28","9"
"","","","feedback","6362c4beb39ee39d15890c5c","bdp_trlrn","Mon Mar 13 2023 23:49:07 GMT-0400 (Eastern Daylight Time)","865929","Trustworthy,Untrustworthy","html-keyboard-response","163","567859","0.0-19.0-3.8","","null","","","<div class='trialDiv'><img src='trustrating_stim/white_mw033.bmp'><br><font class='baseline'><strong>Devin</strong><p>Received: <strong>12</strong></font> &nbsp; &nbsp; &nbsp; &nbsp; &nbsp; &nbsp;<font class='posOutcome'>Shared back: <strong>6</strong></font></font><div class='respPicDiv'><img src='img/responseButtonOffersNo0_wht.png' class='respPic'></div></div>","null","3","Devin","10","Shared","0.65,0.2","13","0.65","trustrating_stim/white_mw033.bmp","7","34","9"
"","","","decision","6362c4beb39ee39d15890c5c","bdp_trlrn","Mon Mar 13 2023 23:49:07 GMT-0400 (Eastern Daylight Time)","865929","Trustworthy,Untrustworthy","html-keyboard-response","164","569753","0.0-19.0-1.9","","1893","","","<div class='trialDiv'><img src='trustrating_stim/white_mw053.bmp'><br><font class='baseline'><strong>Aaron</strong><p>Choose number of points to send.</font><div class='respPicDiv'><img src='img/responseButtonOffersNo0L.png' class='respPic'></div></div>","4","4","Aaron","6","Shared","0.2,0.8","14","0.2","trustrating_stim/white_mw053.bmp","5","39","10"
"","","","decisionFB","6362c4beb39ee39d15890c5c","bdp_trlrn","Mon Mar 13 2023 23:49:07 GMT-0400 (Eastern Daylight Time)","865929","Trustworthy,Untrustworthy","html-keyboard-response","165","570006","0.0-19.0-2.9","","null","","","<div class='trialDiv'><img src='trustrating_stim/white_mw053.bmp'><br><font class='baseline'><strong>Aaron</strong><p>Choose number of points to send.</font><div class='respPicDiv'><img src='img/responseButtonOffersNo0L4.png' class='respPic'></div></div>","null","4","Aaron","6","Shared","0.2,0.8","14","0.2","trustrating_stim/white_mw053.bmp","5","35","10"
"","","","feedback","6362c4beb39ee39d15890c5c","bdp_trlrn","Mon Mar 13 2023 23:49:07 GMT-0400 (Eastern Daylight Time)","865929","Trustworthy,Untrustworthy","html-keyboard-response","166","571020","0.0-19.0-3.9","","null","","","<div class='trialDiv'><img src='trustrating_stim/white_mw053.bmp'><br><font class='baseline'><strong>Aaron</strong><p>Received: <strong>16</strong></font> &nbsp; &nbsp; &nbsp; &nbsp; &nbsp; &nbsp;<font class='posOutcome'>Shared back: <strong>8</strong></font></font><div class='respPicDiv'><img src='img/responseButtonOffersNo0_wht.png' class='respPic'></div></div>","null","4","Aaron","6","Shared","0.2,0.8","14","0.2","trustrating_stim/white_mw053.bmp","5","43","10"
"","","","decision","6362c4beb39ee39d15890c5c","bdp_trlrn","Mon Mar 13 2023 23:49:07 GMT-0400 (Eastern Daylight Time)","865929","Trustworthy,Untrustworthy","html-keyboard-response","167","572760","0.0-19.0-1.10","","1740","","","<div class='trialDiv'><img src='trustrating_stim/white_mw099.bmp'><br><font class='baseline'><strong>Jason</strong><p>Choose number of points to send.</font><div class='respPicDiv'><img src='img/responseButtonOffersNo0L.png' class='respPic'></div></div>","3","4","Jason","2","Kept","0.35,0.8","8","0.35","trustrating_stim/white_mw099.bmp","3","48","11"
"","","","decisionFB","6362c4beb39ee39d15890c5c","bdp_trlrn","Mon Mar 13 2023 23:49:07 GMT-0400 (Eastern Daylight Time)","865929","Trustworthy,Untrustworthy","html-keyboard-response","168","573024","0.0-19.0-2.10","","null","","","<div class='trialDiv'><img src='trustrating_stim/white_mw099.bmp'><br><font class='baseline'><strong>Jason</strong><p>Choose number of points to send.</font><div class='respPicDiv'><img src='img/responseButtonOffersNo0L3.png' class='respPic'></div></div>","null","4","Jason","2","Kept","0.35,0.8","8","0.35","trustrating_stim/white_mw099.bmp","3","45","11"
"","","","feedback","6362c4beb39ee39d15890c5c","bdp_trlrn","Mon Mar 13 2023 23:49:07 GMT-0400 (Eastern Daylight Time)","865929","Trustworthy,Untrustworthy","html-keyboard-response","169","574039","0.0-19.0-3.10","","null","","","<div class='trialDiv'><img src='trustrating_stim/white_mw099.bmp'><br><font class='baseline'><strong>Jason</strong><p>Received: <strong>12</strong></font> &nbsp; &nbsp; &nbsp; &nbsp; &nbsp; &nbsp;<font class='negOutcome'>Shared back: <strong>0</strong></font></font><div class='respPicDiv'><img src='img/responseButtonOffersNo0_wht.png' class='respPic'></div></div>","null","4","Jason","2","Kept","0.35,0.8","8","0.35","trustrating_stim/white_mw099.bmp","3","45","11"
"","","","decision","6362c4beb39ee39d15890c5c","bdp_trlrn","Mon Mar 13 2023 23:49:07 GMT-0400 (Eastern Daylight Time)","865929","Trustworthy,Untrustworthy","html-keyboard-response","170","574368","0.0-19.0-1.11","","329","","","<div class='trialDiv'><img src='trustrating_stim/white_mw033.bmp'><br><font class='baseline'><strong>Devin</strong><p>Choose number of points to send.</font><div class='respPicDiv'><img src='img/responseButtonOffersNo0L.png' class='respPic'></div></div>","4","4","Devin","10","Kept","0.65,0.2","13","0.65","trustrating_stim/white_mw033.bmp","7","50","12"
"","","","decisionFB","6362c4beb39ee39d15890c5c","bdp_trlrn","Mon Mar 13 2023 23:49:07 GMT-0400 (Eastern Daylight Time)","865929","Trustworthy,Untrustworthy","html-keyboard-response","171","574633","0.0-19.0-2.11","","null","","","<div class='trialDiv'><img src='trustrating_stim/white_mw033.bmp'><br><font class='baseline'><strong>Devin</strong><p>Choose number of points to send.</font><div class='respPicDiv'><img src='img/responseButtonOffersNo0L4.png' class='respPic'></div></div>","null","4","Devin","10","Kept","0.65,0.2","13","0.65","trustrating_stim/white_mw033.bmp","7","46","12"
"","","","feedback","6362c4beb39ee39d15890c5c","bdp_trlrn","Mon Mar 13 2023 23:49:07 GMT-0400 (Eastern Daylight Time)","865929","Trustworthy,Untrustworthy","html-keyboard-response","172","575649","0.0-19.0-3.11","","null","","","<div class='trialDiv'><img src='trustrating_stim/white_mw033.bmp'><br><font class='baseline'><strong>Devin</strong><p>Received: <strong>16</strong></font> &nbsp; &nbsp; &nbsp; &nbsp; &nbsp; &nbsp;<font class='negOutcome'>Shared back: <strong>0</strong></font></font><div class='respPicDiv'><img src='img/responseButtonOffersNo0_wht.png' class='respPic'></div></div>","null","4","Devin","10","Kept","0.65,0.2","13","0.65","trustrating_stim/white_mw033.bmp","7","46","12"
"","","","decision","6362c4beb39ee39d15890c5c","bdp_trlrn","Mon Mar 13 2023 23:49:07 GMT-0400 (Eastern Daylight Time)","865929","Trustworthy,Untrustworthy","html-keyboard-response","173","576873","0.0-19.0-1.12","","1222","","","<div class='trialDiv'><img src='trustrating_stim/white_mw053.bmp'><br><font class='baseline'><strong>Aaron</strong><p>Choose number of points to send.</font><div class='respPicDiv'><img src='img/responseButtonOffersNo0L.png' class='respPic'></div></div>","5","5","Aaron","6","Kept","0.2,0.8","14","0.2","trustrating_stim/white_mw053.bmp","5","51","13"
"","","","decisionFB","6362c4beb39ee39d15890c5c","bdp_trlrn","Mon Mar 13 2023 23:49:07 GMT-0400 (Eastern Daylight Time)","865929","Trustworthy,Untrustworthy","html-keyboard-response","174","577134","0.0-19.0-2.12","","null","","","<div class='trialDiv'><img src='trustrating_stim/white_mw053.bmp'><br><font class='baseline'><strong>Aaron</strong><p>Choose number of points to send.</font><div class='respPicDiv'><img src='img/responseButtonOffersNo0L5.png' class='respPic'></div></div>","null","5","Aaron","6","Kept","0.2,0.8","14","0.2","trustrating_stim/white_mw053.bmp","5","46","13"
"","","","feedback","6362c4beb39ee39d15890c5c","bdp_trlrn","Mon Mar 13 2023 23:49:07 GMT-0400 (Eastern Daylight Time)","865929","Trustworthy,Untrustworthy","html-keyboard-response","175","578146","0.0-19.0-3.12","","null","","","<div class='trialDiv'><img src='trustrating_stim/white_mw053.bmp'><br><font class='baseline'><strong>Aaron</strong><p>Received: <strong>20</strong></font> &nbsp; &nbsp; &nbsp; &nbsp; &nbsp; &nbsp;<font class='negOutcome'>Shared back: <strong>0</strong></font></font><div class='respPicDiv'><img src='img/responseButtonOffersNo0_wht.png' class='respPic'></div></div>","null","5","Aaron","6","Kept","0.2,0.8","14","0.2","trustrating_stim/white_mw053.bmp","5","46","13"
"","","","decision","6362c4beb39ee39d15890c5c","bdp_trlrn","Mon Mar 13 2023 23:49:07 GMT-0400 (Eastern Daylight Time)","865929","Trustworthy,Untrustworthy","html-keyboard-response","176","578738","0.0-19.0-1.13","","591","","","<div class='trialDiv'><img src='trustrating_stim/white_mw033.bmp'><br><font class='baseline'><strong>Devin</strong><p>Choose number of points to send.</font><div class='respPicDiv'><img src='img/responseButtonOffersNo0L.png' class='respPic'></div></div>","5","5","Devin","10","Shared","0.65,0.2","13","0.65","trustrating_stim/white_mw033.bmp","7","51","14"
"","","","decisionFB","6362c4beb39ee39d15890c5c","bdp_trlrn","Mon Mar 13 2023 23:49:07 GMT-0400 (Eastern Daylight Time)","865929","Trustworthy,Untrustworthy","html-keyboard-response","177","579001","0.0-19.0-2.13","","null","","","<div class='trialDiv'><img src='trustrating_stim/white_mw033.bmp'><br><font class='baseline'><strong>Devin</strong><p>Choose number of points to send.</font><div class='respPicDiv'><img src='img/responseButtonOffersNo0L5.png' class='respPic'></div></div>","null","5","Devin","10","Shared","0.65,0.2","13","0.65","trustrating_stim/white_mw033.bmp","7","46","14"
"","","","feedback","6362c4beb39ee39d15890c5c","bdp_trlrn","Mon Mar 13 2023 23:49:07 GMT-0400 (Eastern Daylight Time)","865929","Trustworthy,Untrustworthy","html-keyboard-response","178","580007","0.0-19.0-3.13","","null","","","<div class='trialDiv'><img src='trustrating_stim/white_mw033.bmp'><br><font class='baseline'><strong>Devin</strong><p>Received: <strong>20</strong></font> &nbsp; &nbsp; &nbsp; &nbsp; &nbsp; &nbsp;<font class='posOutcome'>Shared back: <strong>10</strong></font></font><div class='respPicDiv'><img src='img/responseButtonOffersNo0_wht.png' class='respPic'></div></div>","null","5","Devin","10","Shared","0.65,0.2","13","0.65","trustrating_stim/white_mw033.bmp","7","56","14"
"","","","decision","6362c4beb39ee39d15890c5c","bdp_trlrn","Mon Mar 13 2023 23:49:07 GMT-0400 (Eastern Daylight Time)","865929","Trustworthy,Untrustworthy","html-keyboard-response","179","582049","0.0-19.0-1.14","","2041","","","<div class='trialDiv'><img src='trustrating_stim/white_mw099.bmp'><br><font class='baseline'><strong>Jason</strong><p>Choose number of points to send.</font><div class='respPicDiv'><img src='img/responseButtonOffersNo0L.png' class='respPic'></div></div>","3","5","Jason","2","Kept","0.35,0.8","8","0.35","trustrating_stim/white_mw099.bmp","3","61","15"
"","","","decisionFB","6362c4beb39ee39d15890c5c","bdp_trlrn","Mon Mar 13 2023 23:49:07 GMT-0400 (Eastern Daylight Time)","865929","Trustworthy,Untrustworthy","html-keyboard-response","180","582305","0.0-19.0-2.14","","null","","","<div class='trialDiv'><img src='trustrating_stim/white_mw099.bmp'><br><font class='baseline'><strong>Jason</strong><p>Choose number of points to send.</font><div class='respPicDiv'><img src='img/responseButtonOffersNo0L3.png' class='respPic'></div></div>","null","5","Jason","2","Kept","0.35,0.8","8","0.35","trustrating_stim/white_mw099.bmp","3","58","15"
"","","","feedback","6362c4beb39ee39d15890c5c","bdp_trlrn","Mon Mar 13 2023 23:49:07 GMT-0400 (Eastern Daylight Time)","865929","Trustworthy,Untrustworthy","html-keyboard-response","181","583309","0.0-19.0-3.14","","null","","","<div class='trialDiv'><img src='trustrating_stim/white_mw099.bmp'><br><font class='baseline'><strong>Jason</strong><p>Received: <strong>12</strong></font> &nbsp; &nbsp; &nbsp; &nbsp; &nbsp; &nbsp;<font class='negOutcome'>Shared back: <strong>0</strong></font></font><div class='respPicDiv'><img src='img/responseButtonOffersNo0_wht.png' class='respPic'></div></div>","null","5","Jason","2","Kept","0.35,0.8","8","0.35","trustrating_stim/white_mw099.bmp","3","58","15"
"","","","decision","6362c4beb39ee39d15890c5c","bdp_trlrn","Mon Mar 13 2023 23:49:07 GMT-0400 (Eastern Daylight Time)","865929","Trustworthy,Untrustworthy","html-keyboard-response","182","584273","0.0-19.0-1.15","","964","","","<div class='trialDiv'><img src='trustrating_stim/white_mw053.bmp'><br><font class='baseline'><strong>Aaron</strong><p>Choose number of points to send.</font><div class='respPicDiv'><img src='img/responseButtonOffersNo0L.png' class='respPic'></div></div>","4","6","Aaron","6","Kept","0.2,0.8","14","0.2","trustrating_stim/white_mw053.bmp","5","63","16"
"","","","decisionFB","6362c4beb39ee39d15890c5c","bdp_trlrn","Mon Mar 13 2023 23:49:07 GMT-0400 (Eastern Daylight Time)","865929","Trustworthy,Untrustworthy","html-keyboard-response","183","584535","0.0-19.0-2.15","","null","","","<div class='trialDiv'><img src='trustrating_stim/white_mw053.bmp'><br><font class='baseline'><strong>Aaron</strong><p>Choose number of points to send.</font><div class='respPicDiv'><img src='img/responseButtonOffersNo0L4.png' class='respPic'></div></div>","null","6","Aaron","6","Kept","0.2,0.8","14","0.2","trustrating_stim/white_mw053.bmp","5","59","16"
"","","","feedback","6362c4beb39ee39d15890c5c","bdp_trlrn","Mon Mar 13 2023 23:49:07 GMT-0400 (Eastern Daylight Time)","865929","Trustworthy,Untrustworthy","html-keyboard-response","184","585547","0.0-19.0-3.15","","null","","","<div class='trialDiv'><img src='trustrating_stim/white_mw053.bmp'><br><font class='baseline'><strong>Aaron</strong><p>Received: <strong>16</strong></font> &nbsp; &nbsp; &nbsp; &nbsp; &nbsp; &nbsp;<font class='negOutcome'>Shared back: <strong>0</strong></font></font><div class='respPicDiv'><img src='img/responseButtonOffersNo0_wht.png' class='respPic'></div></div>","null","6","Aaron","6","Kept","0.2,0.8","14","0.2","trustrating_stim/white_mw053.bmp","5","59","16"
"","","","decision","6362c4beb39ee39d15890c5c","bdp_trlrn","Mon Mar 13 2023 23:49:07 GMT-0400 (Eastern Daylight Time)","865929","Trustworthy,Untrustworthy","html-keyboard-response","185","586873","0.0-19.0-1.16","","1326","","","<div class='trialDiv'><img src='trustrating_stim/white_mw099.bmp'><br><font class='baseline'><strong>Jason</strong><p>Choose number of points to send.</font><div class='respPicDiv'><img src='img/responseButtonOffersNo0L.png' class='respPic'></div></div>","5","6","Jason","2","Shared","0.35,0.8","8","0.35","trustrating_stim/white_mw099.bmp","3","64","17"
"","","","decisionFB","6362c4beb39ee39d15890c5c","bdp_trlrn","Mon Mar 13 2023 23:49:07 GMT-0400 (Eastern Daylight Time)","865929","Trustworthy,Untrustworthy","html-keyboard-response","186","587128","0.0-19.0-2.16","","null","","","<div class='trialDiv'><img src='trustrating_stim/white_mw099.bmp'><br><font class='baseline'><strong>Jason</strong><p>Choose number of points to send.</font><div class='respPicDiv'><img src='img/responseButtonOffersNo0L5.png' class='respPic'></div></div>","null","6","Jason","2","Shared","0.35,0.8","8","0.35","trustrating_stim/white_mw099.bmp","3","59","17"
"","","","feedback","6362c4beb39ee39d15890c5c","bdp_trlrn","Mon Mar 13 2023 23:49:07 GMT-0400 (Eastern Daylight Time)","865929","Trustworthy,Untrustworthy","html-keyboard-response","187","588134","0.0-19.0-3.16","","null","","","<div class='trialDiv'><img src='trustrating_stim/white_mw099.bmp'><br><font class='baseline'><strong>Jason</strong><p>Received: <strong>20</strong></font> &nbsp; &nbsp; &nbsp; &nbsp; &nbsp; &nbsp;<font class='posOutcome'>Shared back: <strong>10</strong></font></font><div class='respPicDiv'><img src='img/responseButtonOffersNo0_wht.png' class='respPic'></div></div>","null","6","Jason","2","Shared","0.35,0.8","8","0.35","trustrating_stim/white_mw099.bmp","3","69","17"
"","","","decision","6362c4beb39ee39d15890c5c","bdp_trlrn","Mon Mar 13 2023 23:49:07 GMT-0400 (Eastern Daylight Time)","865929","Trustworthy,Untrustworthy","html-keyboard-response","188","589801","0.0-19.0-1.17","","1667","","","<div class='trialDiv'><img src='trustrating_stim/white_mw033.bmp'><br><font class='baseline'><strong>Devin</strong><p>Choose number of points to send.</font><div class='respPicDiv'><img src='img/responseButtonOffersNo0L.png' class='respPic'></div></div>","3","6","Devin","10","Shared","0.65,0.2","13","0.65","trustrating_stim/white_mw033.bmp","7","74","18"
"","","","decisionFB","6362c4beb39ee39d15890c5c","bdp_trlrn","Mon Mar 13 2023 23:49:07 GMT-0400 (Eastern Daylight Time)","865929","Trustworthy,Untrustworthy","html-keyboard-response","189","590057","0.0-19.0-2.17","","null","","","<div class='trialDiv'><img src='trustrating_stim/white_mw033.bmp'><br><font class='baseline'><strong>Devin</strong><p>Choose number of points to send.</font><div class='respPicDiv'><img src='img/responseButtonOffersNo0L3.png' class='respPic'></div></div>","null","6","Devin","10","Shared","0.65,0.2","13","0.65","trustrating_stim/white_mw033.bmp","7","71","18"
"","","","feedback","6362c4beb39ee39d15890c5c","bdp_trlrn","Mon Mar 13 2023 23:49:07 GMT-0400 (Eastern Daylight Time)","865929","Trustworthy,Untrustworthy","html-keyboard-response","190","591060","0.0-19.0-3.17","","null","","","<div class='trialDiv'><img src='trustrating_stim/white_mw033.bmp'><br><font class='baseline'><strong>Devin</strong><p>Received: <strong>12</strong></font> &nbsp; &nbsp; &nbsp; &nbsp; &nbsp; &nbsp;<font class='posOutcome'>Shared back: <strong>6</strong></font></font><div class='respPicDiv'><img src='img/responseButtonOffersNo0_wht.png' class='respPic'></div></div>","null","6","Devin","10","Shared","0.65,0.2","13","0.65","trustrating_stim/white_mw033.bmp","7","77","18"
"","","","decision","6362c4beb39ee39d15890c5c","bdp_trlrn","Mon Mar 13 2023 23:49:07 GMT-0400 (Eastern Daylight Time)","865929","Trustworthy,Untrustworthy","html-keyboard-response","191","591513","0.0-19.0-1.18","","452","","","<div class='trialDiv'><img src='trustrating_stim/white_mw099.bmp'><br><font class='baseline'><strong>Jason</strong><p>Choose number of points to send.</font><div class='respPicDiv'><img src='img/responseButtonOffersNo0L.png' class='respPic'></div></div>","3","7","Jason","2","Kept","0.35,0.8","8","0.35","trustrating_stim/white_mw099.bmp","3","82","19"
"","","","decisionFB","6362c4beb39ee39d15890c5c","bdp_trlrn","Mon Mar 13 2023 23:49:07 GMT-0400 (Eastern Daylight Time)","865929","Trustworthy,Untrustworthy","html-keyboard-response","192","591773","0.0-19.0-2.18","","null","","","<div class='trialDiv'><img src='trustrating_stim/white_mw099.bmp'><br><font class='baseline'><strong>Jason</strong><p>Choose number of points to send.</font><div class='respPicDiv'><img src='img/responseButtonOffersNo0L3.png' class='respPic'></div></div>","null","7","Jason","2","Kept","0.35,0.8","8","0.35","trustrating_stim/white_mw099.bmp","3","79","19"
"","","","feedback","6362c4beb39ee39d15890c5c","bdp_trlrn","Mon Mar 13 2023 23:49:07 GMT-0400 (Eastern Daylight Time)","865929","Trustworthy,Untrustworthy","html-keyboard-response","193","592781","0.0-19.0-3.18","","null","","","<div class='trialDiv'><img src='trustrating_stim/white_mw099.bmp'><br><font class='baseline'><strong>Jason</strong><p>Received: <strong>12</strong></font> &nbsp; &nbsp; &nbsp; &nbsp; &nbsp; &nbsp;<font class='negOutcome'>Shared back: <strong>0</strong></font></font><div class='respPicDiv'><img src='img/responseButtonOffersNo0_wht.png' class='respPic'></div></div>","null","7","Jason","2","Kept","0.35,0.8","8","0.35","trustrating_stim/white_mw099.bmp","3","79","19"
"","","","decision","6362c4beb39ee39d15890c5c","bdp_trlrn","Mon Mar 13 2023 23:49:07 GMT-0400 (Eastern Daylight Time)","865929","Trustworthy,Untrustworthy","html-keyboard-response","194","593073","0.0-19.0-1.19","","291","","","<div class='trialDiv'><img src='trustrating_stim/white_mw033.bmp'><br><font class='baseline'><strong>Devin</strong><p>Choose number of points to send.</font><div class='respPicDiv'><img src='img/responseButtonOffersNo0L.png' class='respPic'></div></div>","4","7","Devin","10","Shared","0.65,0.2","13","0.65","trustrating_stim/white_mw033.bmp","7","84","20"
"","","","decisionFB","6362c4beb39ee39d15890c5c","bdp_trlrn","Mon Mar 13 2023 23:49:07 GMT-0400 (Eastern Daylight Time)","865929","Trustworthy,Untrustworthy","html-keyboard-response","195","593331","0.0-19.0-2.19","","null","","","<div class='trialDiv'><img src='trustrating_stim/white_mw033.bmp'><br><font class='baseline'><strong>Devin</strong><p>Choose number of points to send.</font><div class='respPicDiv'><img src='img/responseButtonOffersNo0L4.png' class='respPic'></div></div>","null","7","Devin","10","Shared","0.65,0.2","13","0.65","trustrating_stim/white_mw033.bmp","7","80","20"
"","","","feedback","6362c4beb39ee39d15890c5c","bdp_trlrn","Mon Mar 13 2023 23:49:07 GMT-0400 (Eastern Daylight Time)","865929","Trustworthy,Untrustworthy","html-keyboard-response","196","594341","0.0-19.0-3.19","","null","","","<div class='trialDiv'><img src='trustrating_stim/white_mw033.bmp'><br><font class='baseline'><strong>Devin</strong><p>Received: <strong>16</strong></font> &nbsp; &nbsp; &nbsp; &nbsp; &nbsp; &nbsp;<font class='posOutcome'>Shared back: <strong>8</strong></font></font><div class='respPicDiv'><img src='img/responseButtonOffersNo0_wht.png' class='respPic'></div></div>","null","7","Devin","10","Shared","0.65,0.2","13","0.65","trustrating_stim/white_mw033.bmp","7","88","20"
"","","","decision","6362c4beb39ee39d15890c5c","bdp_trlrn","Mon Mar 13 2023 23:49:07 GMT-0400 (Eastern Daylight Time)","865929","Trustworthy,Untrustworthy","html-keyboard-response","197","594745","0.0-19.0-1.20","","404","","","<div class='trialDiv'><img src='trustrating_stim/white_mw053.bmp'><br><font class='baseline'><strong>Aaron</strong><p>Choose number of points to send.</font><div class='respPicDiv'><img src='img/responseButtonOffersNo0L.png' class='respPic'></div></div>","3","7","Aaron","6","Kept","0.2,0.8","14","0.2","trustrating_stim/white_mw053.bmp","5","93","21"
"","","","decisionFB","6362c4beb39ee39d15890c5c","bdp_trlrn","Mon Mar 13 2023 23:49:07 GMT-0400 (Eastern Daylight Time)","865929","Trustworthy,Untrustworthy","html-keyboard-response","198","595003","0.0-19.0-2.20","","null","","","<div class='trialDiv'><img src='trustrating_stim/white_mw053.bmp'><br><font class='baseline'><strong>Aaron</strong><p>Choose number of points to send.</font><div class='respPicDiv'><img src='img/responseButtonOffersNo0L3.png' class='respPic'></div></div>","null","7","Aaron","6","Kept","0.2,0.8","14","0.2","trustrating_stim/white_mw053.bmp","5","90","21"
"","","","feedback","6362c4beb39ee39d15890c5c","bdp_trlrn","Mon Mar 13 2023 23:49:07 GMT-0400 (Eastern Daylight Time)","865929","Trustworthy,Untrustworthy","html-keyboard-response","199","596019","0.0-19.0-3.20","","null","","","<div class='trialDiv'><img src='trustrating_stim/white_mw053.bmp'><br><font class='baseline'><strong>Aaron</strong><p>Received: <strong>12</strong></font> &nbsp; &nbsp; &nbsp; &nbsp; &nbsp; &nbsp;<font class='negOutcome'>Shared back: <strong>0</strong></font></font><div class='respPicDiv'><img src='img/responseButtonOffersNo0_wht.png' class='respPic'></div></div>","null","7","Aaron","6","Kept","0.2,0.8","14","0.2","trustrating_stim/white_mw053.bmp","5","90","21"
"","","","decision","6362c4beb39ee39d15890c5c","bdp_trlrn","Mon Mar 13 2023 23:49:07 GMT-0400 (Eastern Daylight Time)","865929","Trustworthy,Untrustworthy","html-keyboard-response","200","596345","0.0-19.0-1.21","","325","","","<div class='trialDiv'><img src='trustrating_stim/white_mw099.bmp'><br><font class='baseline'><strong>Jason</strong><p>Choose number of points to send.</font><div class='respPicDiv'><img src='img/responseButtonOffersNo0L.png' class='respPic'></div></div>","4","8","Jason","2","Shared","0.35,0.8","8","0.35","trustrating_stim/white_mw099.bmp","3","95","22"
"","","","decisionFB","6362c4beb39ee39d15890c5c","bdp_trlrn","Mon Mar 13 2023 23:49:07 GMT-0400 (Eastern Daylight Time)","865929","Trustworthy,Untrustworthy","html-keyboard-response","201","596597","0.0-19.0-2.21","","null","","","<div class='trialDiv'><img src='trustrating_stim/white_mw099.bmp'><br><font class='baseline'><strong>Jason</strong><p>Choose number of points to send.</font><div class='respPicDiv'><img src='img/responseButtonOffersNo0L4.png' class='respPic'></div></div>","null","8","Jason","2","Shared","0.35,0.8","8","0.35","trustrating_stim/white_mw099.bmp","3","91","22"
"","","","feedback","6362c4beb39ee39d15890c5c","bdp_trlrn","Mon Mar 13 2023 23:49:07 GMT-0400 (Eastern Daylight Time)","865929","Trustworthy,Untrustworthy","html-keyboard-response","202","597599","0.0-19.0-3.21","","null","","","<div class='trialDiv'><img src='trustrating_stim/white_mw099.bmp'><br><font class='baseline'><strong>Jason</strong><p>Received: <strong>16</strong></font> &nbsp; &nbsp; &nbsp; &nbsp; &nbsp; &nbsp;<font class='posOutcome'>Shared back: <strong>8</strong></font></font><div class='respPicDiv'><img src='img/responseButtonOffersNo0_wht.png' class='respPic'></div></div>","null","8","Jason","2","Shared","0.35,0.8","8","0.35","trustrating_stim/white_mw099.bmp","3","99","22"
"","","","decision","6362c4beb39ee39d15890c5c","bdp_trlrn","Mon Mar 13 2023 23:49:07 GMT-0400 (Eastern Daylight Time)","865929","Trustworthy,Untrustworthy","html-keyboard-response","203","597954","0.0-19.0-1.22","","354","","","<div class='trialDiv'><img src='trustrating_stim/white_mw033.bmp'><br><font class='baseline'><strong>Devin</strong><p>Choose number of points to send.</font><div class='respPicDiv'><img src='img/responseButtonOffersNo0L.png' class='respPic'></div></div>","3","8","Devin","10","Shared","0.65,0.2","13","0.65","trustrating_stim/white_mw033.bmp","7","104","23"
"","","","decisionFB","6362c4beb39ee39d15890c5c","bdp_trlrn","Mon Mar 13 2023 23:49:07 GMT-0400 (Eastern Daylight Time)","865929","Trustworthy,Untrustworthy","html-keyboard-response","204","598208","0.0-19.0-2.22","","null","","","<div class='trialDiv'><img src='trustrating_stim/white_mw033.bmp'><br><font class='baseline'><strong>Devin</strong><p>Choose number of points to send.</font><div class='respPicDiv'><img src='img/responseButtonOffersNo0L3.png' class='respPic'></div></div>","null","8","Devin","10","Shared","0.65,0.2","13","0.65","trustrating_stim/white_mw033.bmp","7","101","23"
"","","","feedback","6362c4beb39ee39d15890c5c","bdp_trlrn","Mon Mar 13 2023 23:49:07 GMT-0400 (Eastern Daylight Time)","865929","Trustworthy,Untrustworthy","html-keyboard-response","205","599214","0.0-19.0-3.22","","null","","","<div class='trialDiv'><img src='trustrating_stim/white_mw033.bmp'><br><font class='baseline'><strong>Devin</strong><p>Received: <strong>12</strong></font> &nbsp; &nbsp; &nbsp; &nbsp; &nbsp; &nbsp;<font class='posOutcome'>Shared back: <strong>6</strong></font></font><div class='respPicDiv'><img src='img/responseButtonOffersNo0_wht.png' class='respPic'></div></div>","null","8","Devin","10","Shared","0.65,0.2","13","0.65","trustrating_stim/white_mw033.bmp","7","107","23"
"","","","decision","6362c4beb39ee39d15890c5c","bdp_trlrn","Mon Mar 13 2023 23:49:07 GMT-0400 (Eastern Daylight Time)","865929","Trustworthy,Untrustworthy","html-keyboard-response","206","599915","0.0-19.0-1.23","","700","","","<div class='trialDiv'><img src='trustrating_stim/white_mw053.bmp'><br><font class='baseline'><strong>Aaron</strong><p>Choose number of points to send.</font><div class='respPicDiv'><img src='img/responseButtonOffersNo0L.png' class='respPic'></div></div>","3","8","Aaron","6","Kept","0.2,0.8","14","0.2","trustrating_stim/white_mw053.bmp","5","112","24"
"","","","decisionFB","6362c4beb39ee39d15890c5c","bdp_trlrn","Mon Mar 13 2023 23:49:07 GMT-0400 (Eastern Daylight Time)","865929","Trustworthy,Untrustworthy","html-keyboard-response","207","600180","0.0-19.0-2.23","","null","","","<div class='trialDiv'><img src='trustrating_stim/white_mw053.bmp'><br><font class='baseline'><strong>Aaron</strong><p>Choose number of points to send.</font><div class='respPicDiv'><img src='img/responseButtonOffersNo0L3.png' class='respPic'></div></div>","null","8","Aaron","6","Kept","0.2,0.8","14","0.2","trustrating_stim/white_mw053.bmp","5","109","24"
"","","","feedback","6362c4beb39ee39d15890c5c","bdp_trlrn","Mon Mar 13 2023 23:49:07 GMT-0400 (Eastern Daylight Time)","865929","Trustworthy,Untrustworthy","html-keyboard-response","208","601186","0.0-19.0-3.23","","null","","","<div class='trialDiv'><img src='trustrating_stim/white_mw053.bmp'><br><font class='baseline'><strong>Aaron</strong><p>Received: <strong>12</strong></font> &nbsp; &nbsp; &nbsp; &nbsp; &nbsp; &nbsp;<font class='negOutcome'>Shared back: <strong>0</strong></font></font><div class='respPicDiv'><img src='img/responseButtonOffersNo0_wht.png' class='respPic'></div></div>","null","8","Aaron","6","Kept","0.2,0.8","14","0.2","trustrating_stim/white_mw053.bmp","5","109","24"
"","","","decision","6362c4beb39ee39d15890c5c","bdp_trlrn","Mon Mar 13 2023 23:49:07 GMT-0400 (Eastern Daylight Time)","865929","Trustworthy,Untrustworthy","html-keyboard-response","209","602546","0.0-19.0-1.24","","1359","","","<div class='trialDiv'><img src='trustrating_stim/white_mw099.bmp'><br><font class='baseline'><strong>Jason</strong><p>Choose number of points to send.</font><div class='respPicDiv'><img src='img/responseButtonOffersNo0L.png' class='respPic'></div></div>","4","9","Jason","2","Shared","0.35,0.8","8","0.35","trustrating_stim/white_mw099.bmp","3","114","25"
"","","","decisionFB","6362c4beb39ee39d15890c5c","bdp_trlrn","Mon Mar 13 2023 23:49:07 GMT-0400 (Eastern Daylight Time)","865929","Trustworthy,Untrustworthy","html-keyboard-response","210","602804","0.0-19.0-2.24","","null","","","<div class='trialDiv'><img src='trustrating_stim/white_mw099.bmp'><br><font class='baseline'><strong>Jason</strong><p>Choose number of points to send.</font><div class='respPicDiv'><img src='img/responseButtonOffersNo0L4.png' class='respPic'></div></div>","null","9","Jason","2","Shared","0.35,0.8","8","0.35","trustrating_stim/white_mw099.bmp","3","110","25"
"","","","feedback","6362c4beb39ee39d15890c5c","bdp_trlrn","Mon Mar 13 2023 23:49:07 GMT-0400 (Eastern Daylight Time)","865929","Trustworthy,Untrustworthy","html-keyboard-response","211","603821","0.0-19.0-3.24","","null","","","<div class='trialDiv'><img src='trustrating_stim/white_mw099.bmp'><br><font class='baseline'><strong>Jason</strong><p>Received: <strong>16</strong></font> &nbsp; &nbsp; &nbsp; &nbsp; &nbsp; &nbsp;<font class='posOutcome'>Shared back: <strong>8</strong></font></font><div class='respPicDiv'><img src='img/responseButtonOffersNo0_wht.png' class='respPic'></div></div>","null","9","Jason","2","Shared","0.35,0.8","8","0.35","trustrating_stim/white_mw099.bmp","3","118","25"
"","","","decision","6362c4beb39ee39d15890c5c","bdp_trlrn","Mon Mar 13 2023 23:49:07 GMT-0400 (Eastern Daylight Time)","865929","Trustworthy,Untrustworthy","html-keyboard-response","212","604930","0.0-19.0-1.25","","1108","","","<div class='trialDiv'><img src='trustrating_stim/white_mw033.bmp'><br><font class='baseline'><strong>Devin</strong><p>Choose number of points to send.</font><div class='respPicDiv'><img src='img/responseButtonOffersNo0L.png' class='respPic'></div></div>","3","9","Devin","10","Shared","0.65,0.2","13","0.65","trustrating_stim/white_mw033.bmp","7","123","26"
"","","","decisionFB","6362c4beb39ee39d15890c5c","bdp_trlrn","Mon Mar 13 2023 23:49:07 GMT-0400 (Eastern Daylight Time)","865929","Trustworthy,Untrustworthy","html-keyboard-response","213","605195","0.0-19.0-2.25","","null","","","<div class='trialDiv'><img src='trustrating_stim/white_mw033.bmp'><br><font class='baseline'><strong>Devin</strong><p>Choose number of points to send.</font><div class='respPicDiv'><img src='img/responseButtonOffersNo0L3.png' class='respPic'></div></div>","null","9","Devin","10","Shared","0.65,0.2","13","0.65","trustrating_stim/white_mw033.bmp","7","120","26"
"","","","feedback","6362c4beb39ee39d15890c5c","bdp_trlrn","Mon Mar 13 2023 23:49:07 GMT-0400 (Eastern Daylight Time)","865929","Trustworthy,Untrustworthy","html-keyboard-response","214","606210","0.0-19.0-3.25","","null","","","<div class='trialDiv'><img src='trustrating_stim/white_mw033.bmp'><br><font class='baseline'><strong>Devin</strong><p>Received: <strong>12</strong></font> &nbsp; &nbsp; &nbsp; &nbsp; &nbsp; &nbsp;<font class='posOutcome'>Shared back: <strong>6</strong></font></font><div class='respPicDiv'><img src='img/responseButtonOffersNo0_wht.png' class='respPic'></div></div>","null","9","Devin","10","Shared","0.65,0.2","13","0.65","trustrating_stim/white_mw033.bmp","7","126","26"
"","","","decision","6362c4beb39ee39d15890c5c","bdp_trlrn","Mon Mar 13 2023 23:49:07 GMT-0400 (Eastern Daylight Time)","865929","Trustworthy,Untrustworthy","html-keyboard-response","215","607186","0.0-19.0-1.26","","975","","","<div class='trialDiv'><img src='trustrating_stim/white_mw053.bmp'><br><font class='baseline'><strong>Aaron</strong><p>Choose number of points to send.</font><div class='respPicDiv'><img src='img/responseButtonOffersNo0L.png' class='respPic'></div></div>","3","9","Aaron","6","Kept","0.2,0.8","14","0.2","trustrating_stim/white_mw053.bmp","5","131","27"
"","","","decisionFB","6362c4beb39ee39d15890c5c","bdp_trlrn","Mon Mar 13 2023 23:49:07 GMT-0400 (Eastern Daylight Time)","865929","Trustworthy,Untrustworthy","html-keyboard-response","216","607442","0.0-19.0-2.26","","null","","","<div class='trialDiv'><img src='trustrating_stim/white_mw053.bmp'><br><font class='baseline'><strong>Aaron</strong><p>Choose number of points to send.</font><div class='respPicDiv'><img src='img/responseButtonOffersNo0L3.png' class='respPic'></div></div>","null","9","Aaron","6","Kept","0.2,0.8","14","0.2","trustrating_stim/white_mw053.bmp","5","128","27"
