"event","trial","time","trialtype","subject_id","task","startTime","totalTime","labels","trial_type","trial_index","time_elapsed","internal_node_id","view_history","rt","success","stimulus","key_press","numBlurs","aground","name","faceID","outcome","agenttype","agentswpt","agentcurrpshare","face","avgRating","point_total","round"
"focus","0","0","focusevent","6404fb7b9a7b3cfb4179d185","bdp_trlrn","Tue Mar 14 2023 00:10:11 GMT-0400 (Eastern Daylight Time)","1247726","Trustworthy,Untrustworthy","","","","","","","","","","","","","","","","","","","","",""
"","","","","6404fb7b9a7b3cfb4179d185","bdp_trlrn","Tue Mar 14 2023 00:10:11 GMT-0400 (Eastern Daylight Time)","1247726","Trustworthy,Untrustworthy","pavlovia","0","8","0.0-0.0","","","","","","","","","","","","","","","","",""
"","","","","6404fb7b9a7b3cfb4179d185","bdp_trlrn","Tue Mar 14 2023 00:10:11 GMT-0400 (Eastern Daylight Time)","1247726","Trustworthy,Untrustworthy","instructions","1","6687","0.0-1.0","[{""page_index"":0,""viewing_time"":6677}]","6677","","","","","","","","","","","","","","",""
"fullscreenexit","2","11990","fullscreenexit","6404fb7b9a7b3cfb4179d185","bdp_trlrn","Tue Mar 14 2023 00:10:11 GMT-0400 (Eastern Daylight Time)","1247726","Trustworthy,Untrustworthy","","","","","","","","","","","","","","","","","","","","",""
"","","","","6404fb7b9a7b3cfb4179d185","bdp_trlrn","Tue Mar 14 2023 00:10:11 GMT-0400 (Eastern Daylight Time)","1247726","Trustworthy,Untrustworthy","fullscreen","2","12986","0.0-2.0","","","true","","","","","","","","","","","","","",""
"","","","fullscreenfail","6404fb7b9a7b3cfb4179d185","bdp_trlrn","Tue Mar 14 2023 00:10:11 GMT-0400 (Eastern Daylight Time)","1247726","Trustworthy,Untrustworthy","image-keyboard-response","3","23055","0.0-3.0-0.0","","10067","","","32","","","","","","","","","","","",""
"blur","4","77997","blurevent","6404fb7b9a7b3cfb4179d185","bdp_trlrn","Tue Mar 14 2023 00:10:11 GMT-0400 (Eastern Daylight Time)","1247726","Trustworthy,Untrustworthy","","","","","","","","","","1","","","","","","","","","","",""
"focus","4","78205","focusevent","6404fb7b9a7b3cfb4179d185","bdp_trlrn","Tue Mar 14 2023 00:10:11 GMT-0400 (Eastern Daylight Time)","1247726","Trustworthy,Untrustworthy","","","","","","","","","","","","","","","","","","","","",""
"blur","4","78396","blurevent","6404fb7b9a7b3cfb4179d185","bdp_trlrn","Tue Mar 14 2023 00:10:11 GMT-0400 (Eastern Daylight Time)","1247726","Trustworthy,Untrustworthy","","","","","","","","","","","","","","","","","","","","",""
"focus","4","78568","focusevent","6404fb7b9a7b3cfb4179d185","bdp_trlrn","Tue Mar 14 2023 00:10:11 GMT-0400 (Eastern Daylight Time)","1247726","Trustworthy,Untrustworthy","","","","","","","","","","","","","","","","","","","","",""
"blur","4","78726","blurevent","6404fb7b9a7b3cfb4179d185","bdp_trlrn","Tue Mar 14 2023 00:10:11 GMT-0400 (Eastern Daylight Time)","1247726","Trustworthy,Untrustworthy","","","","","","","","","","","","","","","","","","","","",""
"focus","4","78926","focusevent","6404fb7b9a7b3cfb4179d185","bdp_trlrn","Tue Mar 14 2023 00:10:11 GMT-0400 (Eastern Daylight Time)","1247726","Trustworthy,Untrustworthy","","","","","","","","","","","","","","","","","","","","",""
"blur","4","79123","blurevent","6404fb7b9a7b3cfb4179d185","bdp_trlrn","Tue Mar 14 2023 00:10:11 GMT-0400 (Eastern Daylight Time)","1247726","Trustworthy,Untrustworthy","","","","","","","","","","","","","","","","","","","","",""
"focus","4","79304","focusevent","6404fb7b9a7b3cfb4179d185","bdp_trlrn","Tue Mar 14 2023 00:10:11 GMT-0400 (Eastern Daylight Time)","1247726","Trustworthy,Untrustworthy","","","","","","","","","","","","","","","","","","","","",""
"blur","4","79488","blurevent","6404fb7b9a7b3cfb4179d185","bdp_trlrn","Tue Mar 14 2023 00:10:11 GMT-0400 (Eastern Daylight Time)","1247726","Trustworthy,Untrustworthy","","","","","","","","","","","","","","","","","","","","",""
"focus","4","79671","focusevent","6404fb7b9a7b3cfb4179d185","bdp_trlrn","Tue Mar 14 2023 00:10:11 GMT-0400 (Eastern Daylight Time)","1247726","Trustworthy,Untrustworthy","","","","","","","","","","","","","","","","","","","","",""
"","","","","6404fb7b9a7b3cfb4179d185","bdp_trlrn","Tue Mar 14 2023 00:10:11 GMT-0400 (Eastern Daylight Time)","1247726","Trustworthy,Untrustworthy","instructions","4","116998","0.0-4.0","[{""page_index"":0,""viewing_time"":72306},{""page_index"":1,""viewing_time"":21378}]","93684","","","","","","","","","","","","","","",""
"","","","","6404fb7b9a7b3cfb4179d185","bdp_trlrn","Tue Mar 14 2023 00:10:11 GMT-0400 (Eastern Daylight Time)","1247726","Trustworthy,Untrustworthy","instructions","5","120041","0.0-5.0","[{""page_index"":0,""viewing_time"":3042}]","3042","","","","","","","","","","","","","","",""
"","","","rating","6404fb7b9a7b3cfb4179d185","bdp_trlrn","Tue Mar 14 2023 00:10:11 GMT-0400 (Eastern Daylight Time)","1247726","Trustworthy,Untrustworthy","image-keyboard-response","6","125626","0.0-6.0-1.0","","5476","","trustrating_stim/white_00519_940519_fb_edt.bmp","7","","","","","","","","","","","",""
"","","","ratingFB","6404fb7b9a7b3cfb4179d185","bdp_trlrn","Tue Mar 14 2023 00:10:11 GMT-0400 (Eastern Daylight Time)","1247726","Trustworthy,Untrustworthy","image-keyboard-response","7","125840","0.0-6.0-2.0","","null","","trustrating_stim/white_00519_940519_fb_edt.bmp","null","","","","","","","","","","","",""
"","","","rating","6404fb7b9a7b3cfb4179d185","bdp_trlrn","Tue Mar 14 2023 00:10:11 GMT-0400 (Eastern Daylight Time)","1247726","Trustworthy,Untrustworthy","image-keyboard-response","8","132323","0.0-6.0-1.1","","6372","","trustrating_stim/white_00129_931230_fb_edt.bmp","8","","","","","","","","","","","",""
"","","","ratingFB","6404fb7b9a7b3cfb4179d185","bdp_trlrn","Tue Mar 14 2023 00:10:11 GMT-0400 (Eastern Daylight Time)","1247726","Trustworthy,Untrustworthy","image-keyboard-response","9","132526","0.0-6.0-2.1","","null","","trustrating_stim/white_00129_931230_fb_edt.bmp","null","","","","","","","","","","","",""
"","","","rating","6404fb7b9a7b3cfb4179d185","bdp_trlrn","Tue Mar 14 2023 00:10:11 GMT-0400 (Eastern Daylight Time)","1247726","Trustworthy,Untrustworthy","image-keyboard-response","10","140256","0.0-6.0-1.2","","7621","","trustrating_stim/white_mw056.bmp","6","","","","","","","","","","","",""
"","","","ratingFB","6404fb7b9a7b3cfb4179d185","bdp_trlrn","Tue Mar 14 2023 00:10:11 GMT-0400 (Eastern Daylight Time)","1247726","Trustworthy,Untrustworthy","image-keyboard-response","11","140458","0.0-6.0-2.2","","null","","trustrating_stim/white_mw056.bmp","null","","","","","","","","","","","",""
"","","","rating","6404fb7b9a7b3cfb4179d185","bdp_trlrn","Tue Mar 14 2023 00:10:11 GMT-0400 (Eastern Daylight Time)","1247726","Trustworthy,Untrustworthy","image-keyboard-response","12","145411","0.0-6.0-1.3","","4842","","trustrating_stim/white_mw049.bmp","3","","","","","","","","","","","",""
"","","","ratingFB","6404fb7b9a7b3cfb4179d185","bdp_trlrn","Tue Mar 14 2023 00:10:11 GMT-0400 (Eastern Daylight Time)","1247726","Trustworthy,Untrustworthy","image-keyboard-response","13","145617","0.0-6.0-2.3","","null","","trustrating_stim/white_mw049.bmp","null","","","","","","","","","","","",""
"","","","rating","6404fb7b9a7b3cfb4179d185","bdp_trlrn","Tue Mar 14 2023 00:10:11 GMT-0400 (Eastern Daylight Time)","1247726","Trustworthy,Untrustworthy","image-keyboard-response","14","147954","0.0-6.0-1.4","","2226","","trustrating_stim/white_mw033.bmp","4","","","","","","","","","","","",""
"","","","ratingFB","6404fb7b9a7b3cfb4179d185","bdp_trlrn","Tue Mar 14 2023 00:10:11 GMT-0400 (Eastern Daylight Time)","1247726","Trustworthy,Untrustworthy","image-keyboard-response","15","148160","0.0-6.0-2.4","","null","","trustrating_stim/white_mw033.bmp","null","","","","","","","","","","","",""
"","","","rating","6404fb7b9a7b3cfb4179d185","bdp_trlrn","Tue Mar 14 2023 00:10:11 GMT-0400 (Eastern Daylight Time)","1247726","Trustworthy,Untrustworthy","image-keyboard-response","16","151529","0.0-6.0-1.5","","3254","","trustrating_stim/white_mw048.bmp","8","","","","","","","","","","","",""
"","","","ratingFB","6404fb7b9a7b3cfb4179d185","bdp_trlrn","Tue Mar 14 2023 00:10:11 GMT-0400 (Eastern Daylight Time)","1247726","Trustworthy,Untrustworthy","image-keyboard-response","17","151745","0.0-6.0-2.5","","null","","trustrating_stim/white_mw048.bmp","null","","","","","","","","","","","",""
"","","","rating","6404fb7b9a7b3cfb4179d185","bdp_trlrn","Tue Mar 14 2023 00:10:11 GMT-0400 (Eastern Daylight Time)","1247726","Trustworthy,Untrustworthy","image-keyboard-response","18","155917","0.0-6.0-1.6","","4063","","trustrating_stim/white_00602_940928_fb_edt.bmp","4","","","","","","","","","","","",""
"","","","ratingFB","6404fb7b9a7b3cfb4179d185","bdp_trlrn","Tue Mar 14 2023 00:10:11 GMT-0400 (Eastern Daylight Time)","1247726","Trustworthy,Untrustworthy","image-keyboard-response","19","156120","0.0-6.0-2.6","","null","","trustrating_stim/white_00602_940928_fb_edt.bmp","null","","","","","","","","","","","",""
"","","","rating","6404fb7b9a7b3cfb4179d185","bdp_trlrn","Tue Mar 14 2023 00:10:11 GMT-0400 (Eastern Daylight Time)","1247726","Trustworthy,Untrustworthy","image-keyboard-response","20","161225","0.0-6.0-1.7","","4992","","trustrating_stim/white_00299_940422_fa_edt.bmp","5","","","","","","","","","","","",""
"","","","ratingFB","6404fb7b9a7b3cfb4179d185","bdp_trlrn","Tue Mar 14 2023 00:10:11 GMT-0400 (Eastern Daylight Time)","1247726","Trustworthy,Untrustworthy","image-keyboard-response","21","161427","0.0-6.0-2.7","","null","","trustrating_stim/white_00299_940422_fa_edt.bmp","null","","","","","","","","","","","",""
"","","","rating","6404fb7b9a7b3cfb4179d185","bdp_trlrn","Tue Mar 14 2023 00:10:11 GMT-0400 (Eastern Daylight Time)","1247726","Trustworthy,Untrustworthy","image-keyboard-response","22","164851","0.0-6.0-1.8","","3316","","trustrating_stim/white_00340_940422_fa_edt.bmp","9","","","","","","","","","","","",""
"","","","ratingFB","6404fb7b9a7b3cfb4179d185","bdp_trlrn","Tue Mar 14 2023 00:10:11 GMT-0400 (Eastern Daylight Time)","1247726","Trustworthy,Untrustworthy","image-keyboard-response","23","165064","0.0-6.0-2.8","","null","","trustrating_stim/white_00340_940422_fa_edt.bmp","null","","","","","","","","","","","",""
"","","","rating","6404fb7b9a7b3cfb4179d185","bdp_trlrn","Tue Mar 14 2023 00:10:11 GMT-0400 (Eastern Daylight Time)","1247726","Trustworthy,Untrustworthy","image-keyboard-response","24","171281","0.0-6.0-1.9","","6115","","trustrating_stim/white_00577_940928_fa_edt.bmp","7","","","","","","","","","","","",""
"","","","ratingFB","6404fb7b9a7b3cfb4179d185","bdp_trlrn","Tue Mar 14 2023 00:10:11 GMT-0400 (Eastern Daylight Time)","1247726","Trustworthy,Untrustworthy","image-keyboard-response","25","171492","0.0-6.0-2.9","","null","","trustrating_stim/white_00577_940928_fa_edt.bmp","null","","","","","","","","","","","",""
"","","","rating","6404fb7b9a7b3cfb4179d185","bdp_trlrn","Tue Mar 14 2023 00:10:11 GMT-0400 (Eastern Daylight Time)","1247726","Trustworthy,Untrustworthy","image-keyboard-response","26","174665","0.0-6.0-1.10","","3070","","trustrating_stim/white_mw035.bmp","5","","","","","","","","","","","",""
"","","","ratingFB","6404fb7b9a7b3cfb4179d185","bdp_trlrn","Tue Mar 14 2023 00:10:11 GMT-0400 (Eastern Daylight Time)","1247726","Trustworthy,Untrustworthy","image-keyboard-response","27","174880","0.0-6.0-2.10","","null","","trustrating_stim/white_mw035.bmp","null","","","","","","","","","","","",""
"","","","rating","6404fb7b9a7b3cfb4179d185","bdp_trlrn","Tue Mar 14 2023 00:10:11 GMT-0400 (Eastern Daylight Time)","1247726","Trustworthy,Untrustworthy","image-keyboard-response","28","181422","0.0-6.0-1.11","","6426","","trustrating_stim/white_00785_941205_fb_edt.bmp","4","","","","","","","","","","","",""
"","","","ratingFB","6404fb7b9a7b3cfb4179d185","bdp_trlrn","Tue Mar 14 2023 00:10:11 GMT-0400 (Eastern Daylight Time)","1247726","Trustworthy,Untrustworthy","image-keyboard-response","29","181636","0.0-6.0-2.11","","null","","trustrating_stim/white_00785_941205_fb_edt.bmp","null","","","","","","","","","","","",""
"","","","rating","6404fb7b9a7b3cfb4179d185","bdp_trlrn","Tue Mar 14 2023 00:10:11 GMT-0400 (Eastern Daylight Time)","1247726","Trustworthy,Untrustworthy","image-keyboard-response","30","185176","0.0-6.0-1.12","","3429","","trustrating_stim/white_00757_941201_fa_edt.bmp","7","","","","","","","","","","","",""
"","","","ratingFB","6404fb7b9a7b3cfb4179d185","bdp_trlrn","Tue Mar 14 2023 00:10:11 GMT-0400 (Eastern Daylight Time)","1247726","Trustworthy,Untrustworthy","image-keyboard-response","31","185385","0.0-6.0-2.12","","null","","trustrating_stim/white_00757_941201_fa_edt.bmp","null","","","","","","","","","","","",""
"","","","rating","6404fb7b9a7b3cfb4179d185","bdp_trlrn","Tue Mar 14 2023 00:10:11 GMT-0400 (Eastern Daylight Time)","1247726","Trustworthy,Untrustworthy","image-keyboard-response","32","192802","0.0-6.0-1.13","","7307","","trustrating_stim/white_00807_941205_fb_edt.bmp","4","","","","","","","","","","","",""
"","","","ratingFB","6404fb7b9a7b3cfb4179d185","bdp_trlrn","Tue Mar 14 2023 00:10:11 GMT-0400 (Eastern Daylight Time)","1247726","Trustworthy,Untrustworthy","image-keyboard-response","33","193012","0.0-6.0-2.13","","null","","trustrating_stim/white_00807_941205_fb_edt.bmp","null","","","","","","","","","","","",""
"","","","rating","6404fb7b9a7b3cfb4179d185","bdp_trlrn","Tue Mar 14 2023 00:10:11 GMT-0400 (Eastern Daylight Time)","1247726","Trustworthy,Untrustworthy","image-keyboard-response","34","198756","0.0-6.0-1.14","","5634","","trustrating_stim/white_mw046.bmp","5","","","","","","","","","","","",""
"","","","ratingFB","6404fb7b9a7b3cfb4179d185","bdp_trlrn","Tue Mar 14 2023 00:10:11 GMT-0400 (Eastern Daylight Time)","1247726","Trustworthy,Untrustworthy","image-keyboard-response","35","198967","0.0-6.0-2.14","","null","","trustrating_stim/white_mw046.bmp","null","","","","","","","","","","","",""
"","","","rating","6404fb7b9a7b3cfb4179d185","bdp_trlrn","Tue Mar 14 2023 00:10:11 GMT-0400 (Eastern Daylight Time)","1247726","Trustworthy,Untrustworthy","image-keyboard-response","36","202995","0.0-6.0-1.15","","3917","","trustrating_stim/white_00109_931230_fa_edt.bmp","4","","","","","","","","","","","",""
"","","","ratingFB","6404fb7b9a7b3cfb4179d185","bdp_trlrn","Tue Mar 14 2023 00:10:11 GMT-0400 (Eastern Daylight Time)","1247726","Trustworthy,Untrustworthy","image-keyboard-response","37","203208","0.0-6.0-2.15","","null","","trustrating_stim/white_00109_931230_fa_edt.bmp","null","","","","","","","","","","","",""
"","","","rating","6404fb7b9a7b3cfb4179d185","bdp_trlrn","Tue Mar 14 2023 00:10:11 GMT-0400 (Eastern Daylight Time)","1247726","Trustworthy,Untrustworthy","image-keyboard-response","38","206304","0.0-6.0-1.16","","2987","","trustrating_stim/white_mw060.bmp","7","","","","","","","","","","","",""
"","","","ratingFB","6404fb7b9a7b3cfb4179d185","bdp_trlrn","Tue Mar 14 2023 00:10:11 GMT-0400 (Eastern Daylight Time)","1247726","Trustworthy,Untrustworthy","image-keyboard-response","39","206507","0.0-6.0-2.16","","null","","trustrating_stim/white_mw060.bmp","null","","","","","","","","","","","",""
"","","","rating","6404fb7b9a7b3cfb4179d185","bdp_trlrn","Tue Mar 14 2023 00:10:11 GMT-0400 (Eastern Daylight Time)","1247726","Trustworthy,Untrustworthy","image-keyboard-response","40","209467","0.0-6.0-1.17","","2850","","trustrating_stim/white_mw071.bmp","8","","","","","","","","","","","",""
"","","","ratingFB","6404fb7b9a7b3cfb4179d185","bdp_trlrn","Tue Mar 14 2023 00:10:11 GMT-0400 (Eastern Daylight Time)","1247726","Trustworthy,Untrustworthy","image-keyboard-response","41","209674","0.0-6.0-2.17","","null","","trustrating_stim/white_mw071.bmp","null","","","","","","","","","","","",""
"","","","rating","6404fb7b9a7b3cfb4179d185","bdp_trlrn","Tue Mar 14 2023 00:10:11 GMT-0400 (Eastern Daylight Time)","1247726","Trustworthy,Untrustworthy","image-keyboard-response","42","215520","0.0-6.0-1.18","","5735","","trustrating_stim/white_mw097.bmp","7","","","","","","","","","","","",""
"","","","ratingFB","6404fb7b9a7b3cfb4179d185","bdp_trlrn","Tue Mar 14 2023 00:10:11 GMT-0400 (Eastern Daylight Time)","1247726","Trustworthy,Untrustworthy","image-keyboard-response","43","215721","0.0-6.0-2.18","","null","","trustrating_stim/white_mw097.bmp","null","","","","","","","","","","","",""
"","","","rating","6404fb7b9a7b3cfb4179d185","bdp_trlrn","Tue Mar 14 2023 00:10:11 GMT-0400 (Eastern Daylight Time)","1247726","Trustworthy,Untrustworthy","image-keyboard-response","44","218380","0.0-6.0-1.19","","2547","","trustrating_stim/white_mw089.bmp","6","","","","","","","","","","","",""
"","","","ratingFB","6404fb7b9a7b3cfb4179d185","bdp_trlrn","Tue Mar 14 2023 00:10:11 GMT-0400 (Eastern Daylight Time)","1247726","Trustworthy,Untrustworthy","image-keyboard-response","45","218581","0.0-6.0-2.19","","null","","trustrating_stim/white_mw089.bmp","null","","","","","","","","","","","",""
"","","","rating","6404fb7b9a7b3cfb4179d185","bdp_trlrn","Tue Mar 14 2023 00:10:11 GMT-0400 (Eastern Daylight Time)","1247726","Trustworthy,Untrustworthy","image-keyboard-response","46","224268","0.0-6.0-1.20","","5576","","trustrating_stim/white_mw066.bmp","4","","","","","","","","","","","",""
"","","","ratingFB","6404fb7b9a7b3cfb4179d185","bdp_trlrn","Tue Mar 14 2023 00:10:11 GMT-0400 (Eastern Daylight Time)","1247726","Trustworthy,Untrustworthy","image-keyboard-response","47","224472","0.0-6.0-2.20","","null","","trustrating_stim/white_mw066.bmp","null","","","","","","","","","","","",""
"","","","rating","6404fb7b9a7b3cfb4179d185","bdp_trlrn","Tue Mar 14 2023 00:10:11 GMT-0400 (Eastern Daylight Time)","1247726","Trustworthy,Untrustworthy","image-keyboard-response","48","230091","0.0-6.0-1.21","","5507","","trustrating_stim/white_mw099.bmp","6","","","","","","","","","","","",""
"","","","ratingFB","6404fb7b9a7b3cfb4179d185","bdp_trlrn","Tue Mar 14 2023 00:10:11 GMT-0400 (Eastern Daylight Time)","1247726","Trustworthy,Untrustworthy","image-keyboard-response","49","230293","0.0-6.0-2.21","","null","","trustrating_stim/white_mw099.bmp","null","","","","","","","","","","","",""
"","","","rating","6404fb7b9a7b3cfb4179d185","bdp_trlrn","Tue Mar 14 2023 00:10:11 GMT-0400 (Eastern Daylight Time)","1247726","Trustworthy,Untrustworthy","image-keyboard-response","50","238367","0.0-6.0-1.22","","7964","","trustrating_stim/white_00223_940128_fb_edt.bmp","8","","","","","","","","","","","",""
"","","","ratingFB","6404fb7b9a7b3cfb4179d185","bdp_trlrn","Tue Mar 14 2023 00:10:11 GMT-0400 (Eastern Daylight Time)","1247726","Trustworthy,Untrustworthy","image-keyboard-response","51","238577","0.0-6.0-2.22","","null","","trustrating_stim/white_00223_940128_fb_edt.bmp","null","","","","","","","","","","","",""
"","","","rating","6404fb7b9a7b3cfb4179d185","bdp_trlrn","Tue Mar 14 2023 00:10:11 GMT-0400 (Eastern Daylight Time)","1247726","Trustworthy,Untrustworthy","image-keyboard-response","52","242736","0.0-6.0-1.23","","4042","","trustrating_stim/white_00120_931230_fa_edt.bmp","4","","","","","","","","","","","",""
"","","","ratingFB","6404fb7b9a7b3cfb4179d185","bdp_trlrn","Tue Mar 14 2023 00:10:11 GMT-0400 (Eastern Daylight Time)","1247726","Trustworthy,Untrustworthy","image-keyboard-response","53","242941","0.0-6.0-2.23","","null","","trustrating_stim/white_00120_931230_fa_edt.bmp","null","","","","","","","","","","","",""
"","","","rating","6404fb7b9a7b3cfb4179d185","bdp_trlrn","Tue Mar 14 2023 00:10:11 GMT-0400 (Eastern Daylight Time)","1247726","Trustworthy,Untrustworthy","image-keyboard-response","54","245962","0.0-6.0-1.24","","2915","","trustrating_stim/white_00898_960530_fa_edt.bmp","3","","","","","","","","","","","",""
"","","","ratingFB","6404fb7b9a7b3cfb4179d185","bdp_trlrn","Tue Mar 14 2023 00:10:11 GMT-0400 (Eastern Daylight Time)","1247726","Trustworthy,Untrustworthy","image-keyboard-response","55","246164","0.0-6.0-2.24","","null","","trustrating_stim/white_00898_960530_fa_edt.bmp","null","","","","","","","","","","","",""
"","","","rating","6404fb7b9a7b3cfb4179d185","bdp_trlrn","Tue Mar 14 2023 00:10:11 GMT-0400 (Eastern Daylight Time)","1247726","Trustworthy,Untrustworthy","image-keyboard-response","56","249907","0.0-6.0-1.25","","3628","","trustrating_stim/white_mw053.bmp","3","","","","","","","","","","","",""
"","","","ratingFB","6404fb7b9a7b3cfb4179d185","bdp_trlrn","Tue Mar 14 2023 00:10:11 GMT-0400 (Eastern Daylight Time)","1247726","Trustworthy,Untrustworthy","image-keyboard-response","57","250122","0.0-6.0-2.25","","null","","trustrating_stim/white_mw053.bmp","null","","","","","","","","","","","",""
"","","","rating","6404fb7b9a7b3cfb4179d185","bdp_trlrn","Tue Mar 14 2023 00:10:11 GMT-0400 (Eastern Daylight Time)","1247726","Trustworthy,Untrustworthy","image-keyboard-response","58","254065","0.0-6.0-1.26","","3840","","trustrating_stim/white_mw063.bmp","8","","","","","","","","","","","",""
"","","","ratingFB","6404fb7b9a7b3cfb4179d185","bdp_trlrn","Tue Mar 14 2023 00:10:11 GMT-0400 (Eastern Daylight Time)","1247726","Trustworthy,Untrustworthy","image-keyboard-response","59","254275","0.0-6.0-2.26","","null","","trustrating_stim/white_mw063.bmp","null","","","","","","","","","","","",""
"","","","rating","6404fb7b9a7b3cfb4179d185","bdp_trlrn","Tue Mar 14 2023 00:10:11 GMT-0400 (Eastern Daylight Time)","1247726","Trustworthy,Untrustworthy","image-keyboard-response","60","260002","0.0-6.0-1.27","","5614","","trustrating_stim/white_00761_941201_fb_edt.bmp","5","","","","","","","","","","","",""
"","","","ratingFB","6404fb7b9a7b3cfb4179d185","bdp_trlrn","Tue Mar 14 2023 00:10:11 GMT-0400 (Eastern Daylight Time)","1247726","Trustworthy,Untrustworthy","image-keyboard-response","61","260207","0.0-6.0-2.27","","null","","trustrating_stim/white_00761_941201_fb_edt.bmp","null","","","","","","","","","","","",""
"","","","rating","6404fb7b9a7b3cfb4179d185","bdp_trlrn","Tue Mar 14 2023 00:10:11 GMT-0400 (Eastern Daylight Time)","1247726","Trustworthy,Untrustworthy","image-keyboard-response","62","266762","0.0-6.0-1.28","","6440","","trustrating_stim/white_00659_941121_fa_edt.bmp","8","","","","","","","","","","","",""
"","","","ratingFB","6404fb7b9a7b3cfb4179d185","bdp_trlrn","Tue Mar 14 2023 00:10:11 GMT-0400 (Eastern Daylight Time)","1247726","Trustworthy,Untrustworthy","image-keyboard-response","63","266969","0.0-6.0-2.28","","null","","trustrating_stim/white_00659_941121_fa_edt.bmp","null","","","","","","","","","","","",""
"","","","rating","6404fb7b9a7b3cfb4179d185","bdp_trlrn","Tue Mar 14 2023 00:10:11 GMT-0400 (Eastern Daylight Time)","1247726","Trustworthy,Untrustworthy","image-keyboard-response","64","270043","0.0-6.0-1.29","","2965","","trustrating_stim/white_mw084.bmp","5","","","","","","","","","","","",""
"","","","ratingFB","6404fb7b9a7b3cfb4179d185","bdp_trlrn","Tue Mar 14 2023 00:10:11 GMT-0400 (Eastern Daylight Time)","1247726","Trustworthy,Untrustworthy","image-keyboard-response","65","270253","0.0-6.0-2.29","","null","","trustrating_stim/white_mw084.bmp","null","","","","","","","","","","","",""
"","","","rating","6404fb7b9a7b3cfb4179d185","bdp_trlrn","Tue Mar 14 2023 00:10:11 GMT-0400 (Eastern Daylight Time)","1247726","Trustworthy,Untrustworthy","image-keyboard-response","66","277456","0.0-6.0-1.30","","7102","","trustrating_stim/white_00659_941121_fa_edt.bmp","8","","","","","","","","","","","",""
"","","","ratingFB","6404fb7b9a7b3cfb4179d185","bdp_trlrn","Tue Mar 14 2023 00:10:11 GMT-0400 (Eastern Daylight Time)","1247726","Trustworthy,Untrustworthy","image-keyboard-response","67","277663","0.0-6.0-2.30","","null","","trustrating_stim/white_00659_941121_fa_edt.bmp","null","","","","","","","","","","","",""
"","","","rating","6404fb7b9a7b3cfb4179d185","bdp_trlrn","Tue Mar 14 2023 00:10:11 GMT-0400 (Eastern Daylight Time)","1247726","Trustworthy,Untrustworthy","image-keyboard-response","68","283947","0.0-6.0-1.31","","6170","","trustrating_stim/white_00602_940928_fb_edt.bmp","3","","","","","","","","","","","",""
"","","","ratingFB","6404fb7b9a7b3cfb4179d185","bdp_trlrn","Tue Mar 14 2023 00:10:11 GMT-0400 (Eastern Daylight Time)","1247726","Trustworthy,Untrustworthy","image-keyboard-response","69","284148","0.0-6.0-2.31","","null","","trustrating_stim/white_00602_940928_fb_edt.bmp","null","","","","","","","","","","","",""
"","","","rating","6404fb7b9a7b3cfb4179d185","bdp_trlrn","Tue Mar 14 2023 00:10:11 GMT-0400 (Eastern Daylight Time)","1247726","Trustworthy,Untrustworthy","image-keyboard-response","70","291234","0.0-6.0-1.32","","6971","","trustrating_stim/white_mw071.bmp","6","","","","","","","","","","","",""
"","","","ratingFB","6404fb7b9a7b3cfb4179d185","bdp_trlrn","Tue Mar 14 2023 00:10:11 GMT-0400 (Eastern Daylight Time)","1247726","Trustworthy,Untrustworthy","image-keyboard-response","71","291435","0.0-6.0-2.32","","null","","trustrating_stim/white_mw071.bmp","null","","","","","","","","","","","",""
"","","","rating","6404fb7b9a7b3cfb4179d185","bdp_trlrn","Tue Mar 14 2023 00:10:11 GMT-0400 (Eastern Daylight Time)","1247726","Trustworthy,Untrustworthy","image-keyboard-response","72","296092","0.0-6.0-1.33","","4547","","trustrating_stim/white_00757_941201_fa_edt.bmp","7","","","","","","","","","","","",""
"","","","ratingFB","6404fb7b9a7b3cfb4179d185","bdp_trlrn","Tue Mar 14 2023 00:10:11 GMT-0400 (Eastern Daylight Time)","1247726","Trustworthy,Untrustworthy","image-keyboard-response","73","296299","0.0-6.0-2.33","","null","","trustrating_stim/white_00757_941201_fa_edt.bmp","null","","","","","","","","","","","",""
"","","","rating","6404fb7b9a7b3cfb4179d185","bdp_trlrn","Tue Mar 14 2023 00:10:11 GMT-0400 (Eastern Daylight Time)","1247726","Trustworthy,Untrustworthy","image-keyboard-response","74","302313","0.0-6.0-1.34","","5904","","trustrating_stim/white_00223_940128_fb_edt.bmp","9","","","","","","","","","","","",""
"","","","ratingFB","6404fb7b9a7b3cfb4179d185","bdp_trlrn","Tue Mar 14 2023 00:10:11 GMT-0400 (Eastern Daylight Time)","1247726","Trustworthy,Untrustworthy","image-keyboard-response","75","302521","0.0-6.0-2.34","","null","","trustrating_stim/white_00223_940128_fb_edt.bmp","null","","","","","","","","","","","",""
"","","","rating","6404fb7b9a7b3cfb4179d185","bdp_trlrn","Tue Mar 14 2023 00:10:11 GMT-0400 (Eastern Daylight Time)","1247726","Trustworthy,Untrustworthy","image-keyboard-response","76","305627","0.0-6.0-1.35","","2989","","trustrating_stim/white_mw048.bmp","8","","","","","","","","","","","",""
"","","","ratingFB","6404fb7b9a7b3cfb4179d185","bdp_trlrn","Tue Mar 14 2023 00:10:11 GMT-0400 (Eastern Daylight Time)","1247726","Trustworthy,Untrustworthy","image-keyboard-response","77","305832","0.0-6.0-2.35","","null","","trustrating_stim/white_mw048.bmp","null","","","","","","","","","","","",""
"","","","rating","6404fb7b9a7b3cfb4179d185","bdp_trlrn","Tue Mar 14 2023 00:10:11 GMT-0400 (Eastern Daylight Time)","1247726","Trustworthy,Untrustworthy","image-keyboard-response","78","308846","0.0-6.0-1.36","","2901","","trustrating_stim/white_00129_931230_fb_edt.bmp","7","","","","","","","","","","","",""
"","","","ratingFB","6404fb7b9a7b3cfb4179d185","bdp_trlrn","Tue Mar 14 2023 00:10:11 GMT-0400 (Eastern Daylight Time)","1247726","Trustworthy,Untrustworthy","image-keyboard-response","79","309057","0.0-6.0-2.36","","null","","trustrating_stim/white_00129_931230_fb_edt.bmp","null","","","","","","","","","","","",""
"","","","rating","6404fb7b9a7b3cfb4179d185","bdp_trlrn","Tue Mar 14 2023 00:10:11 GMT-0400 (Eastern Daylight Time)","1247726","Trustworthy,Untrustworthy","image-keyboard-response","80","313341","0.0-6.0-1.37","","4173","","trustrating_stim/white_00807_941205_fb_edt.bmp","4","","","","","","","","","","","",""
"","","","ratingFB","6404fb7b9a7b3cfb4179d185","bdp_trlrn","Tue Mar 14 2023 00:10:11 GMT-0400 (Eastern Daylight Time)","1247726","Trustworthy,Untrustworthy","image-keyboard-response","81","313549","0.0-6.0-2.37","","null","","trustrating_stim/white_00807_941205_fb_edt.bmp","null","","","","","","","","","","","",""
"","","","rating","6404fb7b9a7b3cfb4179d185","bdp_trlrn","Tue Mar 14 2023 00:10:11 GMT-0400 (Eastern Daylight Time)","1247726","Trustworthy,Untrustworthy","image-keyboard-response","82","316599","0.0-6.0-1.38","","2949","","trustrating_stim/white_00577_940928_fa_edt.bmp","7","","","","","","","","","","","",""
"","","","ratingFB","6404fb7b9a7b3cfb4179d185","bdp_trlrn","Tue Mar 14 2023 00:10:11 GMT-0400 (Eastern Daylight Time)","1247726","Trustworthy,Untrustworthy","image-keyboard-response","83","316809","0.0-6.0-2.38","","null","","trustrating_stim/white_00577_940928_fa_edt.bmp","null","","","","","","","","","","","",""
"","","","rating","6404fb7b9a7b3cfb4179d185","bdp_trlrn","Tue Mar 14 2023 00:10:11 GMT-0400 (Eastern Daylight Time)","1247726","Trustworthy,Untrustworthy","image-keyboard-response","84","318884","0.0-6.0-1.39","","1973","","trustrating_stim/white_mw049.bmp","4","","","","","","","","","","","",""
"","","","ratingFB","6404fb7b9a7b3cfb4179d185","bdp_trlrn","Tue Mar 14 2023 00:10:11 GMT-0400 (Eastern Daylight Time)","1247726","Trustworthy,Untrustworthy","image-keyboard-response","85","319092","0.0-6.0-2.39","","null","","trustrating_stim/white_mw049.bmp","null","","","","","","","","","","","",""
"","","","rating","6404fb7b9a7b3cfb4179d185","bdp_trlrn","Tue Mar 14 2023 00:10:11 GMT-0400 (Eastern Daylight Time)","1247726","Trustworthy,Untrustworthy","image-keyboard-response","86","321380","0.0-6.0-1.40","","2184","","trustrating_stim/white_mw066.bmp","3","","","","","","","","","","","",""
"","","","ratingFB","6404fb7b9a7b3cfb4179d185","bdp_trlrn","Tue Mar 14 2023 00:10:11 GMT-0400 (Eastern Daylight Time)","1247726","Trustworthy,Untrustworthy","image-keyboard-response","87","321595","0.0-6.0-2.40","","null","","trustrating_stim/white_mw066.bmp","null","","","","","","","","","","","",""
"","","","rating","6404fb7b9a7b3cfb4179d185","bdp_trlrn","Tue Mar 14 2023 00:10:11 GMT-0400 (Eastern Daylight Time)","1247726","Trustworthy,Untrustworthy","image-keyboard-response","88","323557","0.0-6.0-1.41","","1852","","trustrating_stim/white_mw084.bmp","4","","","","","","","","","","","",""
"","","","ratingFB","6404fb7b9a7b3cfb4179d185","bdp_trlrn","Tue Mar 14 2023 00:10:11 GMT-0400 (Eastern Daylight Time)","1247726","Trustworthy,Untrustworthy","image-keyboard-response","89","323761","0.0-6.0-2.41","","null","","trustrating_stim/white_mw084.bmp","null","","","","","","","","","","","",""
"","","","rating","6404fb7b9a7b3cfb4179d185","bdp_trlrn","Tue Mar 14 2023 00:10:11 GMT-0400 (Eastern Daylight Time)","1247726","Trustworthy,Untrustworthy","image-keyboard-response","90","328694","0.0-6.0-1.42","","4831","","trustrating_stim/white_00340_940422_fa_edt.bmp","9","","","","","","","","","","","",""
"","","","ratingFB","6404fb7b9a7b3cfb4179d185","bdp_trlrn","Tue Mar 14 2023 00:10:11 GMT-0400 (Eastern Daylight Time)","1247726","Trustworthy,Untrustworthy","image-keyboard-response","91","328910","0.0-6.0-2.42","","null","","trustrating_stim/white_00340_940422_fa_edt.bmp","null","","","","","","","","","","","",""
"","","","rating","6404fb7b9a7b3cfb4179d185","bdp_trlrn","Tue Mar 14 2023 00:10:11 GMT-0400 (Eastern Daylight Time)","1247726","Trustworthy,Untrustworthy","image-keyboard-response","92","332308","0.0-6.0-1.43","","3287","","trustrating_stim/white_mw056.bmp","5","","","","","","","","","","","",""
"","","","ratingFB","6404fb7b9a7b3cfb4179d185","bdp_trlrn","Tue Mar 14 2023 00:10:11 GMT-0400 (Eastern Daylight Time)","1247726","Trustworthy,Untrustworthy","image-keyboard-response","93","332521","0.0-6.0-2.43","","null","","trustrating_stim/white_mw056.bmp","null","","","","","","","","","","","",""
"","","","rating","6404fb7b9a7b3cfb4179d185","bdp_trlrn","Tue Mar 14 2023 00:10:11 GMT-0400 (Eastern Daylight Time)","1247726","Trustworthy,Untrustworthy","image-keyboard-response","94","334958","0.0-6.0-1.44","","2334","","trustrating_stim/white_mw060.bmp","6","","","","","","","","","","","",""
"","","","ratingFB","6404fb7b9a7b3cfb4179d185","bdp_trlrn","Tue Mar 14 2023 00:10:11 GMT-0400 (Eastern Daylight Time)","1247726","Trustworthy,Untrustworthy","image-keyboard-response","95","335164","0.0-6.0-2.44","","null","","trustrating_stim/white_mw060.bmp","null","","","","","","","","","","","",""
"","","","rating","6404fb7b9a7b3cfb4179d185","bdp_trlrn","Tue Mar 14 2023 00:10:11 GMT-0400 (Eastern Daylight Time)","1247726","Trustworthy,Untrustworthy","image-keyboard-response","96","337219","0.0-6.0-1.45","","1951","","trustrating_stim/white_00898_960530_fa_edt.bmp","4","","","","","","","","","","","",""
"","","","ratingFB","6404fb7b9a7b3cfb4179d185","bdp_trlrn","Tue Mar 14 2023 00:10:11 GMT-0400 (Eastern Daylight Time)","1247726","Trustworthy,Untrustworthy","image-keyboard-response","97","337428","0.0-6.0-2.45","","null","","trustrating_stim/white_00898_960530_fa_edt.bmp","null","","","","","","","","","","","",""
"","","","rating","6404fb7b9a7b3cfb4179d185","bdp_trlrn","Tue Mar 14 2023 00:10:11 GMT-0400 (Eastern Daylight Time)","1247726","Trustworthy,Untrustworthy","image-keyboard-response","98","340433","0.0-6.0-1.46","","2895","","trustrating_stim/white_mw033.bmp","5","","","","","","","","","","","",""
"","","","ratingFB","6404fb7b9a7b3cfb4179d185","bdp_trlrn","Tue Mar 14 2023 00:10:11 GMT-0400 (Eastern Daylight Time)","1247726","Trustworthy,Untrustworthy","image-keyboard-response","99","340639","0.0-6.0-2.46","","null","","trustrating_stim/white_mw033.bmp","null","","","","","","","","","","","",""
"","","","rating","6404fb7b9a7b3cfb4179d185","bdp_trlrn","Tue Mar 14 2023 00:10:11 GMT-0400 (Eastern Daylight Time)","1247726","Trustworthy,Untrustworthy","image-keyboard-response","100","344936","0.0-6.0-1.47","","4184","","trustrating_stim/white_00761_941201_fb_edt.bmp","4","","","","","","","","","","","",""
"","","","ratingFB","6404fb7b9a7b3cfb4179d185","bdp_trlrn","Tue Mar 14 2023 00:10:11 GMT-0400 (Eastern Daylight Time)","1247726","Trustworthy,Untrustworthy","image-keyboard-response","101","345143","0.0-6.0-2.47","","null","","trustrating_stim/white_00761_941201_fb_edt.bmp","null","","","","","","","","","","","",""
"","","","rating","6404fb7b9a7b3cfb4179d185","bdp_trlrn","Tue Mar 14 2023 00:10:11 GMT-0400 (Eastern Daylight Time)","1247726","Trustworthy,Untrustworthy","image-keyboard-response","102","348172","0.0-6.0-1.48","","2928","","trustrating_stim/white_00109_931230_fa_edt.bmp","3","","","","","","","","","","","",""
"","","","ratingFB","6404fb7b9a7b3cfb4179d185","bdp_trlrn","Tue Mar 14 2023 00:10:11 GMT-0400 (Eastern Daylight Time)","1247726","Trustworthy,Untrustworthy","image-keyboard-response","103","348379","0.0-6.0-2.48","","null","","trustrating_stim/white_00109_931230_fa_edt.bmp","null","","","","","","","","","","","",""
"","","","rating","6404fb7b9a7b3cfb4179d185","bdp_trlrn","Tue Mar 14 2023 00:10:11 GMT-0400 (Eastern Daylight Time)","1247726","Trustworthy,Untrustworthy","image-keyboard-response","104","350321","0.0-6.0-1.49","","1825","","trustrating_stim/white_00299_940422_fa_edt.bmp","4","","","","","","","","","","","",""
"","","","ratingFB","6404fb7b9a7b3cfb4179d185","bdp_trlrn","Tue Mar 14 2023 00:10:11 GMT-0400 (Eastern Daylight Time)","1247726","Trustworthy,Untrustworthy","image-keyboard-response","105","350530","0.0-6.0-2.49","","null","","trustrating_stim/white_00299_940422_fa_edt.bmp","null","","","","","","","","","","","",""
"","","","rating","6404fb7b9a7b3cfb4179d185","bdp_trlrn","Tue Mar 14 2023 00:10:11 GMT-0400 (Eastern Daylight Time)","1247726","Trustworthy,Untrustworthy","image-keyboard-response","106","352716","0.0-6.0-1.50","","2074","","trustrating_stim/white_mw053.bmp","4","","","","","","","","","","","",""
"","","","ratingFB","6404fb7b9a7b3cfb4179d185","bdp_trlrn","Tue Mar 14 2023 00:10:11 GMT-0400 (Eastern Daylight Time)","1247726","Trustworthy,Untrustworthy","image-keyboard-response","107","352932","0.0-6.0-2.50","","null","","trustrating_stim/white_mw053.bmp","null","","","","","","","","","","","",""
"","","","rating","6404fb7b9a7b3cfb4179d185","bdp_trlrn","Tue Mar 14 2023 00:10:11 GMT-0400 (Eastern Daylight Time)","1247726","Trustworthy,Untrustworthy","image-keyboard-response","108","355419","0.0-6.0-1.51","","2377","","trustrating_stim/white_mw089.bmp","6","","","","","","","","","","","",""
"","","","ratingFB","6404fb7b9a7b3cfb4179d185","bdp_trlrn","Tue Mar 14 2023 00:10:11 GMT-0400 (Eastern Daylight Time)","1247726","Trustworthy,Untrustworthy","image-keyboard-response","109","355629","0.0-6.0-2.51","","null","","trustrating_stim/white_mw089.bmp","null","","","","","","","","","","","",""
"","","","rating","6404fb7b9a7b3cfb4179d185","bdp_trlrn","Tue Mar 14 2023 00:10:11 GMT-0400 (Eastern Daylight Time)","1247726","Trustworthy,Untrustworthy","image-keyboard-response","110","359460","0.0-6.0-1.52","","3719","","trustrating_stim/white_00519_940519_fb_edt.bmp","7","","","","","","","","","","","",""
"","","","ratingFB","6404fb7b9a7b3cfb4179d185","bdp_trlrn","Tue Mar 14 2023 00:10:11 GMT-0400 (Eastern Daylight Time)","1247726","Trustworthy,Untrustworthy","image-keyboard-response","111","359660","0.0-6.0-2.52","","null","","trustrating_stim/white_00519_940519_fb_edt.bmp","null","","","","","","","","","","","",""
"","","","rating","6404fb7b9a7b3cfb4179d185","bdp_trlrn","Tue Mar 14 2023 00:10:11 GMT-0400 (Eastern Daylight Time)","1247726","Trustworthy,Untrustworthy","image-keyboard-response","112","361508","0.0-6.0-1.53","","1737","","trustrating_stim/white_mw046.bmp","5","","","","","","","","","","","",""
"","","","ratingFB","6404fb7b9a7b3cfb4179d185","bdp_trlrn","Tue Mar 14 2023 00:10:11 GMT-0400 (Eastern Daylight Time)","1247726","Trustworthy,Untrustworthy","image-keyboard-response","113","361710","0.0-6.0-2.53","","null","","trustrating_stim/white_mw046.bmp","null","","","","","","","","","","","",""
"","","","rating","6404fb7b9a7b3cfb4179d185","bdp_trlrn","Tue Mar 14 2023 00:10:11 GMT-0400 (Eastern Daylight Time)","1247726","Trustworthy,Untrustworthy","image-keyboard-response","114","365919","0.0-6.0-1.54","","4098","","trustrating_stim/white_00120_931230_fa_edt.bmp","4","","","","","","","","","","","",""
"","","","ratingFB","6404fb7b9a7b3cfb4179d185","bdp_trlrn","Tue Mar 14 2023 00:10:11 GMT-0400 (Eastern Daylight Time)","1247726","Trustworthy,Untrustworthy","image-keyboard-response","115","366126","0.0-6.0-2.54","","null","","trustrating_stim/white_00120_931230_fa_edt.bmp","null","","","","","","","","","","","",""
"","","","rating","6404fb7b9a7b3cfb4179d185","bdp_trlrn","Tue Mar 14 2023 00:10:11 GMT-0400 (Eastern Daylight Time)","1247726","Trustworthy,Untrustworthy","image-keyboard-response","116","368288","0.0-6.0-1.55","","2053","","trustrating_stim/white_mw099.bmp","8","","","","","","","","","","","",""
"","","","ratingFB","6404fb7b9a7b3cfb4179d185","bdp_trlrn","Tue Mar 14 2023 00:10:11 GMT-0400 (Eastern Daylight Time)","1247726","Trustworthy,Untrustworthy","image-keyboard-response","117","368488","0.0-6.0-2.55","","null","","trustrating_stim/white_mw099.bmp","null","","","","","","","","","","","",""
"","","","rating","6404fb7b9a7b3cfb4179d185","bdp_trlrn","Tue Mar 14 2023 00:10:11 GMT-0400 (Eastern Daylight Time)","1247726","Trustworthy,Untrustworthy","image-keyboard-response","118","370246","0.0-6.0-1.56","","1641","","trustrating_stim/white_mw097.bmp","8","","","","","","","","","","","",""
"","","","ratingFB","6404fb7b9a7b3cfb4179d185","bdp_trlrn","Tue Mar 14 2023 00:10:11 GMT-0400 (Eastern Daylight Time)","1247726","Trustworthy,Untrustworthy","image-keyboard-response","119","370457","0.0-6.0-2.56","","null","","trustrating_stim/white_mw097.bmp","null","","","","","","","","","","","",""
"","","","rating","6404fb7b9a7b3cfb4179d185","bdp_trlrn","Tue Mar 14 2023 00:10:11 GMT-0400 (Eastern Daylight Time)","1247726","Trustworthy,Untrustworthy","image-keyboard-response","120","372559","0.0-6.0-1.57","","1991","","trustrating_stim/white_mw035.bmp","5","","","","","","","","","","","",""
"","","","ratingFB","6404fb7b9a7b3cfb4179d185","bdp_trlrn","Tue Mar 14 2023 00:10:11 GMT-0400 (Eastern Daylight Time)","1247726","Trustworthy,Untrustworthy","image-keyboard-response","121","372771","0.0-6.0-2.57","","null","","trustrating_stim/white_mw035.bmp","null","","","","","","","","","","","",""
"","","","rating","6404fb7b9a7b3cfb4179d185","bdp_trlrn","Tue Mar 14 2023 00:10:11 GMT-0400 (Eastern Daylight Time)","1247726","Trustworthy,Untrustworthy","image-keyboard-response","122","375246","0.0-6.0-1.58","","2372","","trustrating_stim/white_mw063.bmp","8","","","","","","","","","","","",""
"","","","ratingFB","6404fb7b9a7b3cfb4179d185","bdp_trlrn","Tue Mar 14 2023 00:10:11 GMT-0400 (Eastern Daylight Time)","1247726","Trustworthy,Untrustworthy","image-keyboard-response","123","375448","0.0-6.0-2.58","","null","","trustrating_stim/white_mw063.bmp","null","","","","","","","","","","","",""
"","","","rating","6404fb7b9a7b3cfb4179d185","bdp_trlrn","Tue Mar 14 2023 00:10:11 GMT-0400 (Eastern Daylight Time)","1247726","Trustworthy,Untrustworthy","image-keyboard-response","124","377980","0.0-6.0-1.59","","2427","","trustrating_stim/white_00785_941205_fb_edt.bmp","6","","","","","","","","","","","",""
"","","","ratingFB","6404fb7b9a7b3cfb4179d185","bdp_trlrn","Tue Mar 14 2023 00:10:11 GMT-0400 (Eastern Daylight Time)","1247726","Trustworthy,Untrustworthy","image-keyboard-response","125","378184","0.0-6.0-2.59","","null","","trustrating_stim/white_00785_941205_fb_edt.bmp","null","","","","","","","","","","","",""
"","","","","6404fb7b9a7b3cfb4179d185","bdp_trlrn","Tue Mar 14 2023 00:10:11 GMT-0400 (Eastern Daylight Time)","1247726","Trustworthy,Untrustworthy","instructions","126","381588","0.0-7.0","[{""page_index"":0,""viewing_time"":3293}]","3293","","","","","","","","","","","","","","",""
"","","","","6404fb7b9a7b3cfb4179d185","bdp_trlrn","Tue Mar 14 2023 00:10:11 GMT-0400 (Eastern Daylight Time)","1247726","Trustworthy,Untrustworthy","instructions","127","564269","0.0-8.0","[{""page_index"":0,""viewing_time"":46890},{""page_index"":1,""viewing_time"":26221},{""page_index"":2,""viewing_time"":12041},{""page_index"":3,""viewing_time"":14542},{""page_index"":4,""viewing_time"":35003},{""page_index"":5,""viewing_time"":10423},{""page_index"":6,""viewing_time"":26169},{""page_index"":7,""viewing_time"":11290}]","182579","","","","","","","","","","","","","","",""
"","","","","6404fb7b9a7b3cfb4179d185","bdp_trlrn","Tue Mar 14 2023 00:10:11 GMT-0400 (Eastern Daylight Time)","1247726","Trustworthy,Untrustworthy","html-keyboard-response","128","572555","0.0-9.0","","8285","","<div class='header' style='text-align:left; position: absolute; top: 5%; left: 5%;'><small>Task 2 of 5</small></div><div class='instruxDiv'><p><strong>1) What is the minimum number of points you can choose to send to your partner?</strong></p><p>a) 0</p><p>b) 1</p><p>c) 5</p>","B","","","","","","","","","","","",""
"","","","","6404fb7b9a7b3cfb4179d185","bdp_trlrn","Tue Mar 14 2023 00:10:11 GMT-0400 (Eastern Daylight Time)","1247726","Trustworthy,Untrustworthy","html-keyboard-response","129","576181","0.0-10.0","","3515","","<div class='header' style='text-align:left; position: absolute; top: 5%; left: 5%;'><small>Task 2 of 5</small></div><div class='instruxDiv'><p><strong>1) What is the minimum number of points you can choose to send to your partner?</strong></p><p>a) 0</p><p style='color:#00FF00'>b) 1</p><p>c) 5</p><h3 style='color:#00FF00'>Correct!</h3><h3 class='center-content'>The correct response is b).</h3><h3 class='center-content'>The minimum number of points you can choose to send to your partner is 1 point.</h3><p><em>Press SPACEBAR to continue</em></p></div>"," ","","","","","","","","","","","",""
"","","","","6404fb7b9a7b3cfb4179d185","bdp_trlrn","Tue Mar 14 2023 00:10:11 GMT-0400 (Eastern Daylight Time)","1247726","Trustworthy,Untrustworthy","html-keyboard-response","130","578869","0.0-11.0","","2578","","<div class='header' style='text-align:left; position: absolute; top: 5%; left: 5%;'><small>Task 2 of 5</small></div><div class='instruxDiv'><p><strong>2) What is the maximum number of points you can choose to send to your partner?</strong></p><p>a) 8</p><p>b) 5</p><p>c) 3</p>","B","","","","","","","","","","","",""
"","","","","6404fb7b9a7b3cfb4179d185","bdp_trlrn","Tue Mar 14 2023 00:10:11 GMT-0400 (Eastern Daylight Time)","1247726","Trustworthy,Untrustworthy","html-keyboard-response","131","580245","0.0-12.0","","1265","","<div class='header' style='text-align:left; position: absolute; top: 5%; left: 5%;'><small>Task 2 of 5</small></div><div class='instruxDiv'><p><strong>2) What is the maximum number of points you can choose to send to your partner?</strong></p><p>a) 8</p><p style='color:#00FF00'>b) 5</p><p>c) 3</p><h3 style='color:#00FF00'>Correct!</h3><h3 class='center-content'>The correct response is b).</h3><h3 class='center-content'>The maximum number of points you can choose to send to your partner is 5 points.</h3><p><em>Press SPACEBAR to continue</em></p></div>"," ","","","","","","","","","","","",""
"","","","","6404fb7b9a7b3cfb4179d185","bdp_trlrn","Tue Mar 14 2023 00:10:11 GMT-0400 (Eastern Daylight Time)","1247726","Trustworthy,Untrustworthy","html-keyboard-response","132","583931","0.0-13.0","","3578","","<div class='header' style='text-align:left; position: absolute; top: 5%; left: 5%;'><small>Task 2 of 5</small></div><div class='instruxDiv'><p><strong>3) What happens to the amount of points you send to your partner?</strong></p><p>a) Nothing</p><p>b) It doubles</p><p>c) It quadruples</p>","C","","","","","","","","","","","",""
"","","","","6404fb7b9a7b3cfb4179d185","bdp_trlrn","Tue Mar 14 2023 00:10:11 GMT-0400 (Eastern Daylight Time)","1247726","Trustworthy,Untrustworthy","html-keyboard-response","133","585578","0.0-14.0","","1536","","<div class='header' style='text-align:left; position: absolute; top: 5%; left: 5%;'><small>Task 2 of 5</small></div><div class='instruxDiv'><p><strong>3) What happens to the amount of points you send to your partner?</strong></p><p>a) Nothing</p><p>b) It doubles</p><p style='color:#00FF00'>c) It quadruples</p><h3 style='color:#00FF00'>Correct!</h3><h3 class='center-content'>The correct response is c).</h3><h3 class='center-content'>The amount of points you send to your partner quadruples.</h3><p><em>Press SPACEBAR to continue</em></p></div>"," ","","","","","","","","","","","",""
"","","","","6404fb7b9a7b3cfb4179d185","bdp_trlrn","Tue Mar 14 2023 00:10:11 GMT-0400 (Eastern Daylight Time)","1247726","Trustworthy,Untrustworthy","html-keyboard-response","134","596328","0.0-15.0","","10637","","<div class='header' style='text-align:left; position: absolute; top: 5%; left: 5%;'><small>Task 2 of 5</small></div><div class='instruxDiv'><p><strong>4) If you decided to share 4 out of 5 points with your partner, and they decided to share half of the amount they received with you, how many points would you receive back from them on this round?</strong></p><p>a) 16</p><p>b) 0</p><p>c) 8</p>","C","","","","","","","","","","","",""
"","","","","6404fb7b9a7b3cfb4179d185","bdp_trlrn","Tue Mar 14 2023 00:10:11 GMT-0400 (Eastern Daylight Time)","1247726","Trustworthy,Untrustworthy","html-keyboard-response","135","599345","0.0-16.0","","2914","","<div class='header' style='text-align:left; position: absolute; top: 5%; left: 5%;'><small>Task 2 of 5</small></div><div class='instruxDiv'><p><strong>4) If you decided to share 4 out of 5 points with your partner, and they decided to share half of the amount they received with you, how many points would you receive back from them on this round?</strong></p><p>a) 16</p><p>b) 0</p><p style='color:#00FF00'>c) 8</p><h3 style='color:#00FF00'>Correct!</h3><h3 class='center-content'>The correct response is c).</h3><h3 class='center-content'>If you shared 4 out of 5 points with your partner and they decided to share half of the amount they received with you, you would receive 8 points back (i.e. (4 x 4)/2 = 8).</h3><p><em>Press SPACEBAR to continue</em></p></div>"," ","","","","","","","","","","","",""
"","","","","6404fb7b9a7b3cfb4179d185","bdp_trlrn","Tue Mar 14 2023 00:10:11 GMT-0400 (Eastern Daylight Time)","1247726","Trustworthy,Untrustworthy","html-keyboard-response","136","604450","0.0-17.0","","null","","<div class='header' style='text-align:left; position: absolute; top: 5%; left: 5%;'><small>Task 2 of 5</small></div><div class='instruxDiv'><p>Thank you for completing the quiz<p>These are the actual partners you will be interacting with in the next block:<p><div class='tc' align='center'><img class='introPic' src='trustrating_stim/white_mw049.bmp'><br><strong>Marcus</strong></div><div class='bl' align='center'><img class='introPic' src='trustrating_stim/white_00785_941205_fb_edt.bmp'><br><strong>Chris</strong></div><div class='br' align='center'><img class='introPic' src='trustrating_stim/white_mw048.bmp'><br><strong>James</strong></div></div><p>Across <strong>66 rounds</strong> you will interact with each partner <strong>22 times</strong> (in random order).<p style='align:center; color:white'><font <em>Press SPACEBAR to continue</em></p>","null","","","","","","","","","","","",""
"","","","","6404fb7b9a7b3cfb4179d185","bdp_trlrn","Tue Mar 14 2023 00:10:11 GMT-0400 (Eastern Daylight Time)","1247726","Trustworthy,Untrustworthy","instructions","137","615881","0.0-18.0","[{""page_index"":0,""viewing_time"":6499},{""page_index"":1,""viewing_time"":4931}]","11430","","","","","","","","","","","","","","",""
"","","","decision","6404fb7b9a7b3cfb4179d185","bdp_trlrn","Tue Mar 14 2023 00:10:11 GMT-0400 (Eastern Daylight Time)","1247726","Trustworthy,Untrustworthy","html-keyboard-response","138","620870","0.0-19.0-1.0","","4873","","<div class='trialDiv'><img src='trustrating_stim/white_mw049.bmp'><br><font class='baseline'><strong>Marcus</strong><p>Choose number of points to send.</font><div class='respPicDiv'><img src='img/responseButtonOffersNo0L.png' class='respPic'></div></div>","5","","1","Marcus","0","Shared","0.65,0.35","11","0.65","trustrating_stim/white_mw049.bmp","3.5","5","1"
"","","","decisionFB","6404fb7b9a7b3cfb4179d185","bdp_trlrn","Tue Mar 14 2023 00:10:11 GMT-0400 (Eastern Daylight Time)","1247726","Trustworthy,Untrustworthy","html-keyboard-response","139","621137","0.0-19.0-2.0","","null","","<div class='trialDiv'><img src='trustrating_stim/white_mw049.bmp'><br><font class='baseline'><strong>Marcus</strong><p>Choose number of points to send.</font><div class='respPicDiv'><img src='img/responseButtonOffersNo0L5.png' class='respPic'></div></div>","null","","1","Marcus","0","Shared","0.65,0.35","11","0.65","trustrating_stim/white_mw049.bmp","3.5","0","1"
"","","","feedback","6404fb7b9a7b3cfb4179d185","bdp_trlrn","Tue Mar 14 2023 00:10:11 GMT-0400 (Eastern Daylight Time)","1247726","Trustworthy,Untrustworthy","html-keyboard-response","140","622141","0.0-19.0-3.0","","null","","<div class='trialDiv'><img src='trustrating_stim/white_mw049.bmp'><br><font class='baseline'><strong>Marcus</strong><p>Received: <strong>20</strong></font> &nbsp; &nbsp; &nbsp; &nbsp; &nbsp; &nbsp;<font class='posOutcome'>Shared back: <strong>10</strong></font></font><div class='respPicDiv'><img src='img/responseButtonOffersNo0_wht.png' class='respPic'></div></div>","null","","1","Marcus","0","Shared","0.65,0.35","11","0.65","trustrating_stim/white_mw049.bmp","3.5","10","1"
"","","","decision","6404fb7b9a7b3cfb4179d185","bdp_trlrn","Tue Mar 14 2023 00:10:11 GMT-0400 (Eastern Daylight Time)","1247726","Trustworthy,Untrustworthy","html-keyboard-response","141","635070","0.0-19.0-1.1","","12928","","<div class='trialDiv'><img src='trustrating_stim/white_00785_941205_fb_edt.bmp'><br><font class='baseline'><strong>Chris</strong><p>Choose number of points to send.</font><div class='respPicDiv'><img src='img/responseButtonOffersNo0L.png' class='respPic'></div></div>","5","","1","Chris","4","Shared","0.8,0.35","13","0.8","trustrating_stim/white_00785_941205_fb_edt.bmp","5","15","2"
"","","","decisionFB","6404fb7b9a7b3cfb4179d185","bdp_trlrn","Tue Mar 14 2023 00:10:11 GMT-0400 (Eastern Daylight Time)","1247726","Trustworthy,Untrustworthy","html-keyboard-response","142","635326","0.0-19.0-2.1","","null","","<div class='trialDiv'><img src='trustrating_stim/white_00785_941205_fb_edt.bmp'><br><font class='baseline'><strong>Chris</strong><p>Choose number of points to send.</font><div class='respPicDiv'><img src='img/responseButtonOffersNo0L5.png' class='respPic'></div></div>","null","","1","Chris","4","Shared","0.8,0.35","13","0.8","trustrating_stim/white_00785_941205_fb_edt.bmp","5","10","2"
"","","","feedback","6404fb7b9a7b3cfb4179d185","bdp_trlrn","Tue Mar 14 2023 00:10:11 GMT-0400 (Eastern Daylight Time)","1247726","Trustworthy,Untrustworthy","html-keyboard-response","143","636330","0.0-19.0-3.1","","null","","<div class='trialDiv'><img src='trustrating_stim/white_00785_941205_fb_edt.bmp'><br><font class='baseline'><strong>Chris</strong><p>Received: <strong>20</strong></font> &nbsp; &nbsp; &nbsp; &nbsp; &nbsp; &nbsp;<font class='posOutcome'>Shared back: <strong>10</strong></font></font><div class='respPicDiv'><img src='img/responseButtonOffersNo0_wht.png' class='respPic'></div></div>","null","","1","Chris","4","Shared","0.8,0.35","13","0.8","trustrating_stim/white_00785_941205_fb_edt.bmp","5","20","2"
"","","","decision","6404fb7b9a7b3cfb4179d185","bdp_trlrn","Tue Mar 14 2023 00:10:11 GMT-0400 (Eastern Daylight Time)","1247726","Trustworthy,Untrustworthy","html-keyboard-response","144","642409","0.0-19.0-1.2","","6078","","<div class='trialDiv'><img src='trustrating_stim/white_mw048.bmp'><br><font class='baseline'><strong>James</strong><p>Choose number of points to send.</font><div class='respPicDiv'><img src='img/responseButtonOffersNo0L.png' class='respPic'></div></div>","5","","1","James","9","Kept","0.2,0.65","8","0.2","trustrating_stim/white_mw048.bmp","8","25","3"
"","","","decisionFB","6404fb7b9a7b3cfb4179d185","bdp_trlrn","Tue Mar 14 2023 00:10:11 GMT-0400 (Eastern Daylight Time)","1247726","Trustworthy,Untrustworthy","html-keyboard-response","145","642664","0.0-19.0-2.2","","null","","<div class='trialDiv'><img src='trustrating_stim/white_mw048.bmp'><br><font class='baseline'><strong>James</strong><p>Choose number of points to send.</font><div class='respPicDiv'><img src='img/responseButtonOffersNo0L5.png' class='respPic'></div></div>","null","","1","James","9","Kept","0.2,0.65","8","0.2","trustrating_stim/white_mw048.bmp","8","20","3"
"","","","feedback","6404fb7b9a7b3cfb4179d185","bdp_trlrn","Tue Mar 14 2023 00:10:11 GMT-0400 (Eastern Daylight Time)","1247726","Trustworthy,Untrustworthy","html-keyboard-response","146","643667","0.0-19.0-3.2","","null","","<div class='trialDiv'><img src='trustrating_stim/white_mw048.bmp'><br><font class='baseline'><strong>James</strong><p>Received: <strong>20</strong></font> &nbsp; &nbsp; &nbsp; &nbsp; &nbsp; &nbsp;<font class='negOutcome'>Shared back: <strong>0</strong></font></font><div class='respPicDiv'><img src='img/responseButtonOffersNo0_wht.png' class='respPic'></div></div>","null","","1","James","9","Kept","0.2,0.65","8","0.2","trustrating_stim/white_mw048.bmp","8","20","3"
"","","","decision","6404fb7b9a7b3cfb4179d185","bdp_trlrn","Tue Mar 14 2023 00:10:11 GMT-0400 (Eastern Daylight Time)","1247726","Trustworthy,Untrustworthy","html-keyboard-response","147","655688","0.0-19.0-1.3","","12021","","<div class='trialDiv'><img src='trustrating_stim/white_00785_941205_fb_edt.bmp'><br><font class='baseline'><strong>Chris</strong><p>Choose number of points to send.</font><div class='respPicDiv'><img src='img/responseButtonOffersNo0L.png' class='respPic'></div></div>","5","","2","Chris","4","Shared","0.8,0.35","13","0.8","trustrating_stim/white_00785_941205_fb_edt.bmp","5","25","4"
"","","","decisionFB","6404fb7b9a7b3cfb4179d185","bdp_trlrn","Tue Mar 14 2023 00:10:11 GMT-0400 (Eastern Daylight Time)","1247726","Trustworthy,Untrustworthy","html-keyboard-response","148","655942","0.0-19.0-2.3","","null","","<div class='trialDiv'><img src='trustrating_stim/white_00785_941205_fb_edt.bmp'><br><font class='baseline'><strong>Chris</strong><p>Choose number of points to send.</font><div class='respPicDiv'><img src='img/responseButtonOffersNo0L5.png' class='respPic'></div></div>","null","","2","Chris","4","Shared","0.8,0.35","13","0.8","trustrating_stim/white_00785_941205_fb_edt.bmp","5","20","4"
"","","","feedback","6404fb7b9a7b3cfb4179d185","bdp_trlrn","Tue Mar 14 2023 00:10:11 GMT-0400 (Eastern Daylight Time)","1247726","Trustworthy,Untrustworthy","html-keyboard-response","149","656944","0.0-19.0-3.3","","null","","<div class='trialDiv'><img src='trustrating_stim/white_00785_941205_fb_edt.bmp'><br><font class='baseline'><strong>Chris</strong><p>Received: <strong>20</strong></font> &nbsp; &nbsp; &nbsp; &nbsp; &nbsp; &nbsp;<font class='posOutcome'>Shared back: <strong>10</strong></font></font><div class='respPicDiv'><img src='img/responseButtonOffersNo0_wht.png' class='respPic'></div></div>","null","","2","Chris","4","Shared","0.8,0.35","13","0.8","trustrating_stim/white_00785_941205_fb_edt.bmp","5","30","4"
"","","","decision","6404fb7b9a7b3cfb4179d185","bdp_trlrn","Tue Mar 14 2023 00:10:11 GMT-0400 (Eastern Daylight Time)","1247726","Trustworthy,Untrustworthy","html-keyboard-response","150","700748","0.0-19.0-1.4","","43803","","<div class='trialDiv'><img src='trustrating_stim/white_mw048.bmp'><br><font class='baseline'><strong>James</strong><p>Choose number of points to send.</font><div class='respPicDiv'><img src='img/responseButtonOffersNo0L.png' class='respPic'></div></div>","5","","2","James","9","Kept","0.2,0.65","8","0.2","trustrating_stim/white_mw048.bmp","8","35","5"
"","","","decisionFB","6404fb7b9a7b3cfb4179d185","bdp_trlrn","Tue Mar 14 2023 00:10:11 GMT-0400 (Eastern Daylight Time)","1247726","Trustworthy,Untrustworthy","html-keyboard-response","151","701003","0.0-19.0-2.4","","null","","<div class='trialDiv'><img src='trustrating_stim/white_mw048.bmp'><br><font class='baseline'><strong>James</strong><p>Choose number of points to send.</font><div class='respPicDiv'><img src='img/responseButtonOffersNo0L5.png' class='respPic'></div></div>","null","","2","James","9","Kept","0.2,0.65","8","0.2","trustrating_stim/white_mw048.bmp","8","30","5"
"","","","feedback","6404fb7b9a7b3cfb4179d185","bdp_trlrn","Tue Mar 14 2023 00:10:11 GMT-0400 (Eastern Daylight Time)","1247726","Trustworthy,Untrustworthy","html-keyboard-response","152","702005","0.0-19.0-3.4","","null","","<div class='trialDiv'><img src='trustrating_stim/white_mw048.bmp'><br><font class='baseline'><strong>James</strong><p>Received: <strong>20</strong></font> &nbsp; &nbsp; &nbsp; &nbsp; &nbsp; &nbsp;<font class='negOutcome'>Shared back: <strong>0</strong></font></font><div class='respPicDiv'><img src='img/responseButtonOffersNo0_wht.png' class='respPic'></div></div>","null","","2","James","9","Kept","0.2,0.65","8","0.2","trustrating_stim/white_mw048.bmp","8","30","5"
"","","","decision","6404fb7b9a7b3cfb4179d185","bdp_trlrn","Tue Mar 14 2023 00:10:11 GMT-0400 (Eastern Daylight Time)","1247726","Trustworthy,Untrustworthy","html-keyboard-response","153","711265","0.0-19.0-1.5","","9258","","<div class='trialDiv'><img src='trustrating_stim/white_mw049.bmp'><br><font class='baseline'><strong>Marcus</strong><p>Choose number of points to send.</font><div class='respPicDiv'><img src='img/responseButtonOffersNo0L.png' class='respPic'></div></div>","5","","2","Marcus","0","Shared","0.65,0.35","11","0.65","trustrating_stim/white_mw049.bmp","3.5","35","6"
"","","","decisionFB","6404fb7b9a7b3cfb4179d185","bdp_trlrn","Tue Mar 14 2023 00:10:11 GMT-0400 (Eastern Daylight Time)","1247726","Trustworthy,Untrustworthy","html-keyboard-response","154","711522","0.0-19.0-2.5","","null","","<div class='trialDiv'><img src='trustrating_stim/white_mw049.bmp'><br><font class='baseline'><strong>Marcus</strong><p>Choose number of points to send.</font><div class='respPicDiv'><img src='img/responseButtonOffersNo0L5.png' class='respPic'></div></div>","null","","2","Marcus","0","Shared","0.65,0.35","11","0.65","trustrating_stim/white_mw049.bmp","3.5","30","6"
"","","","feedback","6404fb7b9a7b3cfb4179d185","bdp_trlrn","Tue Mar 14 2023 00:10:11 GMT-0400 (Eastern Daylight Time)","1247726","Trustworthy,Untrustworthy","html-keyboard-response","155","712525","0.0-19.0-3.5","","null","","<div class='trialDiv'><img src='trustrating_stim/white_mw049.bmp'><br><font class='baseline'><strong>Marcus</strong><p>Received: <strong>20</strong></font> &nbsp; &nbsp; &nbsp; &nbsp; &nbsp; &nbsp;<font class='posOutcome'>Shared back: <strong>10</strong></font></font><div class='respPicDiv'><img src='img/responseButtonOffersNo0_wht.png' class='respPic'></div></div>","null","","2","Marcus","0","Shared","0.65,0.35","11","0.65","trustrating_stim/white_mw049.bmp","3.5","40","6"
"","","","decision","6404fb7b9a7b3cfb4179d185","bdp_trlrn","Tue Mar 14 2023 00:10:11 GMT-0400 (Eastern Daylight Time)","1247726","Trustworthy,Untrustworthy","html-keyboard-response","156","725929","0.0-19.0-1.6","","13404","","<div class='trialDiv'><img src='trustrating_stim/white_00785_941205_fb_edt.bmp'><br><font class='baseline'><strong>Chris</strong><p>Choose number of points to send.</font><div class='respPicDiv'><img src='img/responseButtonOffersNo0L.png' class='respPic'></div></div>","5","","3","Chris","4","Kept","0.8,0.35","13","0.8","trustrating_stim/white_00785_941205_fb_edt.bmp","5","45","7"
"","","","decisionFB","6404fb7b9a7b3cfb4179d185","bdp_trlrn","Tue Mar 14 2023 00:10:11 GMT-0400 (Eastern Daylight Time)","1247726","Trustworthy,Untrustworthy","html-keyboard-response","157","726183","0.0-19.0-2.6","","null","","<div class='trialDiv'><img src='trustrating_stim/white_00785_941205_fb_edt.bmp'><br><font class='baseline'><strong>Chris</strong><p>Choose number of points to send.</font><div class='respPicDiv'><img src='img/responseButtonOffersNo0L5.png' class='respPic'></div></div>","null","","3","Chris","4","Kept","0.8,0.35","13","0.8","trustrating_stim/white_00785_941205_fb_edt.bmp","5","40","7"
"","","","feedback","6404fb7b9a7b3cfb4179d185","bdp_trlrn","Tue Mar 14 2023 00:10:11 GMT-0400 (Eastern Daylight Time)","1247726","Trustworthy,Untrustworthy","html-keyboard-response","158","727186","0.0-19.0-3.6","","null","","<div class='trialDiv'><img src='trustrating_stim/white_00785_941205_fb_edt.bmp'><br><font class='baseline'><strong>Chris</strong><p>Received: <strong>20</strong></font> &nbsp; &nbsp; &nbsp; &nbsp; &nbsp; &nbsp;<font class='negOutcome'>Shared back: <strong>0</strong></font></font><div class='respPicDiv'><img src='img/responseButtonOffersNo0_wht.png' class='respPic'></div></div>","null","","3","Chris","4","Kept","0.8,0.35","13","0.8","trustrating_stim/white_00785_941205_fb_edt.bmp","5","40","7"
"","","","decision","6404fb7b9a7b3cfb4179d185","bdp_trlrn","Tue Mar 14 2023 00:10:11 GMT-0400 (Eastern Daylight Time)","1247726","Trustworthy,Untrustworthy","html-keyboard-response","159","737427","0.0-19.0-1.7","","10240","","<div class='trialDiv'><img src='trustrating_stim/white_mw049.bmp'><br><font class='baseline'><strong>Marcus</strong><p>Choose number of points to send.</font><div class='respPicDiv'><img src='img/responseButtonOffersNo0L.png' class='respPic'></div></div>","5","","3","Marcus","0","Kept","0.65,0.35","11","0.65","trustrating_stim/white_mw049.bmp","3.5","45","8"
"","","","decisionFB","6404fb7b9a7b3cfb4179d185","bdp_trlrn","Tue Mar 14 2023 00:10:11 GMT-0400 (Eastern Daylight Time)","1247726","Trustworthy,Untrustworthy","html-keyboard-response","160","737690","0.0-19.0-2.7","","null","","<div class='trialDiv'><img src='trustrating_stim/white_mw049.bmp'><br><font class='baseline'><strong>Marcus</strong><p>Choose number of points to send.</font><div class='respPicDiv'><img src='img/responseButtonOffersNo0L5.png' class='respPic'></div></div>","null","","3","Marcus","0","Kept","0.65,0.35","11","0.65","trustrating_stim/white_mw049.bmp","3.5","40","8"
"","","","feedback","6404fb7b9a7b3cfb4179d185","bdp_trlrn","Tue Mar 14 2023 00:10:11 GMT-0400 (Eastern Daylight Time)","1247726","Trustworthy,Untrustworthy","html-keyboard-response","161","738707","0.0-19.0-3.7","","null","","<div class='trialDiv'><img src='trustrating_stim/white_mw049.bmp'><br><font class='baseline'><strong>Marcus</strong><p>Received: <strong>20</strong></font> &nbsp; &nbsp; &nbsp; &nbsp; &nbsp; &nbsp;<font class='negOutcome'>Shared back: <strong>0</strong></font></font><div class='respPicDiv'><img src='img/responseButtonOffersNo0_wht.png' class='respPic'></div></div>","null","","3","Marcus","0","Kept","0.65,0.35","11","0.65","trustrating_stim/white_mw049.bmp","3.5","40","8"
"","","","decision","6404fb7b9a7b3cfb4179d185","bdp_trlrn","Tue Mar 14 2023 00:10:11 GMT-0400 (Eastern Daylight Time)","1247726","Trustworthy,Untrustworthy","html-keyboard-response","162","743204","0.0-19.0-1.8","","4497","","<div class='trialDiv'><img src='trustrating_stim/white_mw048.bmp'><br><font class='baseline'><strong>James</strong><p>Choose number of points to send.</font><div class='respPicDiv'><img src='img/responseButtonOffersNo0L.png' class='respPic'></div></div>","5","","3","James","9","Kept","0.2,0.65","8","0.2","trustrating_stim/white_mw048.bmp","8","45","9"
"","","","decisionFB","6404fb7b9a7b3cfb4179d185","bdp_trlrn","Tue Mar 14 2023 00:10:11 GMT-0400 (Eastern Daylight Time)","1247726","Trustworthy,Untrustworthy","html-keyboard-response","163","743458","0.0-19.0-2.8","","null","","<div class='trialDiv'><img src='trustrating_stim/white_mw048.bmp'><br><font class='baseline'><strong>James</strong><p>Choose number of points to send.</font><div class='respPicDiv'><img src='img/responseButtonOffersNo0L5.png' class='respPic'></div></div>","null","","3","James","9","Kept","0.2,0.65","8","0.2","trustrating_stim/white_mw048.bmp","8","40","9"
"","","","feedback","6404fb7b9a7b3cfb4179d185","bdp_trlrn","Tue Mar 14 2023 00:10:11 GMT-0400 (Eastern Daylight Time)","1247726","Trustworthy,Untrustworthy","html-keyboard-response","164","744462","0.0-19.0-3.8","","null","","<div class='trialDiv'><img src='trustrating_stim/white_mw048.bmp'><br><font class='baseline'><strong>James</strong><p>Received: <strong>20</strong></font> &nbsp; &nbsp; &nbsp; &nbsp; &nbsp; &nbsp;<font class='negOutcome'>Shared back: <strong>0</strong></font></font><div class='respPicDiv'><img src='img/responseButtonOffersNo0_wht.png' class='respPic'></div></div>","null","","3","James","9","Kept","0.2,0.65","8","0.2","trustrating_stim/white_mw048.bmp","8","40","9"
"","","","decision","6404fb7b9a7b3cfb4179d185","bdp_trlrn","Tue Mar 14 2023 00:10:11 GMT-0400 (Eastern Daylight Time)","1247726","Trustworthy,Untrustworthy","html-keyboard-response","165","749639","0.0-19.0-1.9","","5177","","<div class='trialDiv'><img src='trustrating_stim/white_00785_941205_fb_edt.bmp'><br><font class='baseline'><strong>Chris</strong><p>Choose number of points to send.</font><div class='respPicDiv'><img src='img/responseButtonOffersNo0L.png' class='respPic'></div></div>","4","","4","Chris","4","Kept","0.8,0.35","13","0.8","trustrating_stim/white_00785_941205_fb_edt.bmp","5","45","10"
"","","","decisionFB","6404fb7b9a7b3cfb4179d185","bdp_trlrn","Tue Mar 14 2023 00:10:11 GMT-0400 (Eastern Daylight Time)","1247726","Trustworthy,Untrustworthy","html-keyboard-response","166","749902","0.0-19.0-2.9","","null","","<div class='trialDiv'><img src='trustrating_stim/white_00785_941205_fb_edt.bmp'><br><font class='baseline'><strong>Chris</strong><p>Choose number of points to send.</font><div class='respPicDiv'><img src='img/responseButtonOffersNo0L4.png' class='respPic'></div></div>","null","","4","Chris","4","Kept","0.8,0.35","13","0.8","trustrating_stim/white_00785_941205_fb_edt.bmp","5","41","10"
"","","","feedback","6404fb7b9a7b3cfb4179d185","bdp_trlrn","Tue Mar 14 2023 00:10:11 GMT-0400 (Eastern Daylight Time)","1247726","Trustworthy,Untrustworthy","html-keyboard-response","167","750908","0.0-19.0-3.9","","null","","<div class='trialDiv'><img src='trustrating_stim/white_00785_941205_fb_edt.bmp'><br><font class='baseline'><strong>Chris</strong><p>Received: <strong>16</strong></font> &nbsp; &nbsp; &nbsp; &nbsp; &nbsp; &nbsp;<font class='negOutcome'>Shared back: <strong>0</strong></font></font><div class='respPicDiv'><img src='img/responseButtonOffersNo0_wht.png' class='respPic'></div></div>","null","","4","Chris","4","Kept","0.8,0.35","13","0.8","trustrating_stim/white_00785_941205_fb_edt.bmp","5","41","10"
"","","","decision","6404fb7b9a7b3cfb4179d185","bdp_trlrn","Tue Mar 14 2023 00:10:11 GMT-0400 (Eastern Daylight Time)","1247726","Trustworthy,Untrustworthy","html-keyboard-response","168","752468","0.0-19.0-1.10","","1559","","<div class='trialDiv'><img src='trustrating_stim/white_mw048.bmp'><br><font class='baseline'><strong>James</strong><p>Choose number of points to send.</font><div class='respPicDiv'><img src='img/responseButtonOffersNo0L.png' class='respPic'></div></div>","4","","4","James","9","Kept","0.2,0.65","8","0.2","trustrating_stim/white_mw048.bmp","8","46","11"
"","","","decisionFB","6404fb7b9a7b3cfb4179d185","bdp_trlrn","Tue Mar 14 2023 00:10:11 GMT-0400 (Eastern Daylight Time)","1247726","Trustworthy,Untrustworthy","html-keyboard-response","169","752719","0.0-19.0-2.10","","null","","<div class='trialDiv'><img src='trustrating_stim/white_mw048.bmp'><br><font class='baseline'><strong>James</strong><p>Choose number of points to send.</font><div class='respPicDiv'><img src='img/responseButtonOffersNo0L4.png' class='respPic'></div></div>","null","","4","James","9","Kept","0.2,0.65","8","0.2","trustrating_stim/white_mw048.bmp","8","42","11"
"","","","feedback","6404fb7b9a7b3cfb4179d185","bdp_trlrn","Tue Mar 14 2023 00:10:11 GMT-0400 (Eastern Daylight Time)","1247726","Trustworthy,Untrustworthy","html-keyboard-response","170","753728","0.0-19.0-3.10","","null","","<div class='trialDiv'><img src='trustrating_stim/white_mw048.bmp'><br><font class='baseline'><strong>James</strong><p>Received: <strong>16</strong></font> &nbsp; &nbsp; &nbsp; &nbsp; &nbsp; &nbsp;<font class='negOutcome'>Shared back: <strong>0</strong></font></font><div class='respPicDiv'><img src='img/responseButtonOffersNo0_wht.png' class='respPic'></div></div>","null","","4","James","9","Kept","0.2,0.65","8","0.2","trustrating_stim/white_mw048.bmp","8","42","11"
"","","","decision","6404fb7b9a7b3cfb4179d185","bdp_trlrn","Tue Mar 14 2023 00:10:11 GMT-0400 (Eastern Daylight Time)","1247726","Trustworthy,Untrustworthy","html-keyboard-response","171","754738","0.0-19.0-1.11","","1010","","<div class='trialDiv'><img src='trustrating_stim/white_mw049.bmp'><br><font class='baseline'><strong>Marcus</strong><p>Choose number of points to send.</font><div class='respPicDiv'><img src='img/responseButtonOffersNo0L.png' class='respPic'></div></div>","4","","4","Marcus","0","Shared","0.65,0.35","11","0.65","trustrating_stim/white_mw049.bmp","3.5","47","12"
"","","","decisionFB","6404fb7b9a7b3cfb4179d185","bdp_trlrn","Tue Mar 14 2023 00:10:11 GMT-0400 (Eastern Daylight Time)","1247726","Trustworthy,Untrustworthy","html-keyboard-response","172","755000","0.0-19.0-2.11","","null","","<div class='trialDiv'><img src='trustrating_stim/white_mw049.bmp'><br><font class='baseline'><strong>Marcus</strong><p>Choose number of points to send.</font><div class='respPicDiv'><img src='img/responseButtonOffersNo0L4.png' class='respPic'></div></div>","null","","4","Marcus","0","Shared","0.65,0.35","11","0.65","trustrating_stim/white_mw049.bmp","3.5","43","12"
"","","","feedback","6404fb7b9a7b3cfb4179d185","bdp_trlrn","Tue Mar 14 2023 00:10:11 GMT-0400 (Eastern Daylight Time)","1247726","Trustworthy,Untrustworthy","html-keyboard-response","173","756014","0.0-19.0-3.11","","null","","<div class='trialDiv'><img src='trustrating_stim/white_mw049.bmp'><br><font class='baseline'><strong>Marcus</strong><p>Received: <strong>16</strong></font> &nbsp; &nbsp; &nbsp; &nbsp; &nbsp; &nbsp;<font class='posOutcome'>Shared back: <strong>8</strong></font></font><div class='respPicDiv'><img src='img/responseButtonOffersNo0_wht.png' class='respPic'></div></div>","null","","4","Marcus","0","Shared","0.65,0.35","11","0.65","trustrating_stim/white_mw049.bmp","3.5","51","12"
"","","","decision","6404fb7b9a7b3cfb4179d185","bdp_trlrn","Tue Mar 14 2023 00:10:11 GMT-0400 (Eastern Daylight Time)","1247726","Trustworthy,Untrustworthy","html-keyboard-response","174","759490","0.0-19.0-1.12","","3475","","<div class='trialDiv'><img src='trustrating_stim/white_00785_941205_fb_edt.bmp'><br><font class='baseline'><strong>Chris</strong><p>Choose number of points to send.</font><div class='respPicDiv'><img src='img/responseButtonOffersNo0L.png' class='respPic'></div></div>","1","","5","Chris","4","Shared","0.8,0.35","13","0.8","trustrating_stim/white_00785_941205_fb_edt.bmp","5","56","13"
"","","","decisionFB","6404fb7b9a7b3cfb4179d185","bdp_trlrn","Tue Mar 14 2023 00:10:11 GMT-0400 (Eastern Daylight Time)","1247726","Trustworthy,Untrustworthy","html-keyboard-response","175","759745","0.0-19.0-2.12","","null","","<div class='trialDiv'><img src='trustrating_stim/white_00785_941205_fb_edt.bmp'><br><font class='baseline'><strong>Chris</strong><p>Choose number of points to send.</font><div class='respPicDiv'><img src='img/responseButtonOffersNo0L1.png' class='respPic'></div></div>","null","","5","Chris","4","Shared","0.8,0.35","13","0.8","trustrating_stim/white_00785_941205_fb_edt.bmp","5","55","13"
"","","","feedback","6404fb7b9a7b3cfb4179d185","bdp_trlrn","Tue Mar 14 2023 00:10:11 GMT-0400 (Eastern Daylight Time)","1247726","Trustworthy,Untrustworthy","html-keyboard-response","176","760760","0.0-19.0-3.12","","null","","<div class='trialDiv'><img src='trustrating_stim/white_00785_941205_fb_edt.bmp'><br><font class='baseline'><strong>Chris</strong><p>Received: <strong>4</strong></font> &nbsp; &nbsp; &nbsp; &nbsp; &nbsp; &nbsp;<font class='posOutcome'>Shared back: <strong>2</strong></font></font><div class='respPicDiv'><img src='img/responseButtonOffersNo0_wht.png' class='respPic'></div></div>","null","","5","Chris","4","Shared","0.8,0.35","13","0.8","trustrating_stim/white_00785_941205_fb_edt.bmp","5","57","13"
"","","","decision","6404fb7b9a7b3cfb4179d185","bdp_trlrn","Tue Mar 14 2023 00:10:11 GMT-0400 (Eastern Daylight Time)","1247726","Trustworthy,Untrustworthy","html-keyboard-response","177","762364","0.0-19.0-1.13","","1603","","<div class='trialDiv'><img src='trustrating_stim/white_mw048.bmp'><br><font class='baseline'><strong>James</strong><p>Choose number of points to send.</font><div class='respPicDiv'><img src='img/responseButtonOffersNo0L.png' class='respPic'></div></div>","1","","5","James","9","Kept","0.2,0.65","8","0.2","trustrating_stim/white_mw048.bmp","8","62","14"
"","","","decisionFB","6404fb7b9a7b3cfb4179d185","bdp_trlrn","Tue Mar 14 2023 00:10:11 GMT-0400 (Eastern Daylight Time)","1247726","Trustworthy,Untrustworthy","html-keyboard-response","178","762621","0.0-19.0-2.13","","null","","<div class='trialDiv'><img src='trustrating_stim/white_mw048.bmp'><br><font class='baseline'><strong>James</strong><p>Choose number of points to send.</font><div class='respPicDiv'><img src='img/responseButtonOffersNo0L1.png' class='respPic'></div></div>","null","","5","James","9","Kept","0.2,0.65","8","0.2","trustrating_stim/white_mw048.bmp","8","61","14"
"","","","feedback","6404fb7b9a7b3cfb4179d185","bdp_trlrn","Tue Mar 14 2023 00:10:11 GMT-0400 (Eastern Daylight Time)","1247726","Trustworthy,Untrustworthy","html-keyboard-response","179","763626","0.0-19.0-3.13","","null","","<div class='trialDiv'><img src='trustrating_stim/white_mw048.bmp'><br><font class='baseline'><strong>James</strong><p>Received: <strong>4</strong></font> &nbsp; &nbsp; &nbsp; &nbsp; &nbsp; &nbsp;<font class='negOutcome'>Shared back: <strong>0</strong></font></font><div class='respPicDiv'><img src='img/responseButtonOffersNo0_wht.png' class='respPic'></div></div>","null","","5","James","9","Kept","0.2,0.65","8","0.2","trustrating_stim/white_mw048.bmp","8","61","14"
"","","","decision","6404fb7b9a7b3cfb4179d185","bdp_trlrn","Tue Mar 14 2023 00:10:11 GMT-0400 (Eastern Daylight Time)","1247726","Trustworthy,Untrustworthy","html-keyboard-response","180","767911","0.0-19.0-1.14","","4285","","<div class='trialDiv'><img src='trustrating_stim/white_mw049.bmp'><br><font class='baseline'><strong>Marcus</strong><p>Choose number of points to send.</font><div class='respPicDiv'><img src='img/responseButtonOffersNo0L.png' class='respPic'></div></div>","5","","5","Marcus","0","Kept","0.65,0.35","11","0.65","trustrating_stim/white_mw049.bmp","3.5","66","15"
"","","","decisionFB","6404fb7b9a7b3cfb4179d185","bdp_trlrn","Tue Mar 14 2023 00:10:11 GMT-0400 (Eastern Daylight Time)","1247726","Trustworthy,Untrustworthy","html-keyboard-response","181","768172","0.0-19.0-2.14","","null","","<div class='trialDiv'><img src='trustrating_stim/white_mw049.bmp'><br><font class='baseline'><strong>Marcus</strong><p>Choose number of points to send.</font><div class='respPicDiv'><img src='img/responseButtonOffersNo0L5.png' class='respPic'></div></div>","null","","5","Marcus","0","Kept","0.65,0.35","11","0.65","trustrating_stim/white_mw049.bmp","3.5","61","15"
"","","","feedback","6404fb7b9a7b3cfb4179d185","bdp_trlrn","Tue Mar 14 2023 00:10:11 GMT-0400 (Eastern Daylight Time)","1247726","Trustworthy,Untrustworthy","html-keyboard-response","182","769176","0.0-19.0-3.14","","null","","<div class='trialDiv'><img src='trustrating_stim/white_mw049.bmp'><br><font class='baseline'><strong>Marcus</strong><p>Received: <strong>20</strong></font> &nbsp; &nbsp; &nbsp; &nbsp; &nbsp; &nbsp;<font class='negOutcome'>Shared back: <strong>0</strong></font></font><div class='respPicDiv'><img src='img/responseButtonOffersNo0_wht.png' class='respPic'></div></div>","null","","5","Marcus","0","Kept","0.65,0.35","11","0.65","trustrating_stim/white_mw049.bmp","3.5","61","15"
"","","","decision","6404fb7b9a7b3cfb4179d185","bdp_trlrn","Tue Mar 14 2023 00:10:11 GMT-0400 (Eastern Daylight Time)","1247726","Trustworthy,Untrustworthy","html-keyboard-response","183","779666","0.0-19.0-1.15","","10489","","<div class='trialDiv'><img src='trustrating_stim/white_mw048.bmp'><br><font class='baseline'><strong>James</strong><p>Choose number of points to send.</font><div class='respPicDiv'><img src='img/responseButtonOffersNo0L.png' class='respPic'></div></div>","1","","6","James","9","Kept","0.2,0.65","8","0.2","trustrating_stim/white_mw048.bmp","8","66","16"
"","","","decisionFB","6404fb7b9a7b3cfb4179d185","bdp_trlrn","Tue Mar 14 2023 00:10:11 GMT-0400 (Eastern Daylight Time)","1247726","Trustworthy,Untrustworthy","html-keyboard-response","184","779928","0.0-19.0-2.15","","null","","<div class='trialDiv'><img src='trustrating_stim/white_mw048.bmp'><br><font class='baseline'><strong>James</strong><p>Choose number of points to send.</font><div class='respPicDiv'><img src='img/responseButtonOffersNo0L1.png' class='respPic'></div></div>","null","","6","James","9","Kept","0.2,0.65","8","0.2","trustrating_stim/white_mw048.bmp","8","65","16"
"","","","feedback","6404fb7b9a7b3cfb4179d185","bdp_trlrn","Tue Mar 14 2023 00:10:11 GMT-0400 (Eastern Daylight Time)","1247726","Trustworthy,Untrustworthy","html-keyboard-response","185","780934","0.0-19.0-3.15","","null","","<div class='trialDiv'><img src='trustrating_stim/white_mw048.bmp'><br><font class='baseline'><strong>James</strong><p>Received: <strong>4</strong></font> &nbsp; &nbsp; &nbsp; &nbsp; &nbsp; &nbsp;<font class='negOutcome'>Shared back: <strong>0</strong></font></font><div class='respPicDiv'><img src='img/responseButtonOffersNo0_wht.png' class='respPic'></div></div>","null","","6","James","9","Kept","0.2,0.65","8","0.2","trustrating_stim/white_mw048.bmp","8","65","16"
"","","","decision","6404fb7b9a7b3cfb4179d185","bdp_trlrn","Tue Mar 14 2023 00:10:11 GMT-0400 (Eastern Daylight Time)","1247726","Trustworthy,Untrustworthy","html-keyboard-response","186","783413","0.0-19.0-1.16","","2479","","<div class='trialDiv'><img src='trustrating_stim/white_mw049.bmp'><br><font class='baseline'><strong>Marcus</strong><p>Choose number of points to send.</font><div class='respPicDiv'><img src='img/responseButtonOffersNo0L.png' class='respPic'></div></div>","1","","6","Marcus","0","Kept","0.65,0.35","11","0.65","trustrating_stim/white_mw049.bmp","3.5","70","17"
"","","","decisionFB","6404fb7b9a7b3cfb4179d185","bdp_trlrn","Tue Mar 14 2023 00:10:11 GMT-0400 (Eastern Daylight Time)","1247726","Trustworthy,Untrustworthy","html-keyboard-response","187","783669","0.0-19.0-2.16","","null","","<div class='trialDiv'><img src='trustrating_stim/white_mw049.bmp'><br><font class='baseline'><strong>Marcus</strong><p>Choose number of points to send.</font><div class='respPicDiv'><img src='img/responseButtonOffersNo0L1.png' class='respPic'></div></div>","null","","6","Marcus","0","Kept","0.65,0.35","11","0.65","trustrating_stim/white_mw049.bmp","3.5","69","17"
"","","","feedback","6404fb7b9a7b3cfb4179d185","bdp_trlrn","Tue Mar 14 2023 00:10:11 GMT-0400 (Eastern Daylight Time)","1247726","Trustworthy,Untrustworthy","html-keyboard-response","188","784681","0.0-19.0-3.16","","null","","<div class='trialDiv'><img src='trustrating_stim/white_mw049.bmp'><br><font class='baseline'><strong>Marcus</strong><p>Received: <strong>4</strong></font> &nbsp; &nbsp; &nbsp; &nbsp; &nbsp; &nbsp;<font class='negOutcome'>Shared back: <strong>0</strong></font></font><div class='respPicDiv'><img src='img/responseButtonOffersNo0_wht.png' class='respPic'></div></div>","null","","6","Marcus","0","Kept","0.65,0.35","11","0.65","trustrating_stim/white_mw049.bmp","3.5","69","17"
"","","","decision","6404fb7b9a7b3cfb4179d185","bdp_trlrn","Tue Mar 14 2023 00:10:11 GMT-0400 (Eastern Daylight Time)","1247726","Trustworthy,Untrustworthy","html-keyboard-response","189","786530","0.0-19.0-1.17","","1848","","<div class='trialDiv'><img src='trustrating_stim/white_00785_941205_fb_edt.bmp'><br><font class='baseline'><strong>Chris</strong><p>Choose number of points to send.</font><div class='respPicDiv'><img src='img/responseButtonOffersNo0L.png' class='respPic'></div></div>","1","","6","Chris","4","Shared","0.8,0.35","13","0.8","trustrating_stim/white_00785_941205_fb_edt.bmp","5","74","18"
"","","","decisionFB","6404fb7b9a7b3cfb4179d185","bdp_trlrn","Tue Mar 14 2023 00:10:11 GMT-0400 (Eastern Daylight Time)","1247726","Trustworthy,Untrustworthy","html-keyboard-response","190","786780","0.0-19.0-2.17","","null","","<div class='trialDiv'><img src='trustrating_stim/white_00785_941205_fb_edt.bmp'><br><font class='baseline'><strong>Chris</strong><p>Choose number of points to send.</font><div class='respPicDiv'><img src='img/responseButtonOffersNo0L1.png' class='respPic'></div></div>","null","","6","Chris","4","Shared","0.8,0.35","13","0.8","trustrating_stim/white_00785_941205_fb_edt.bmp","5","73","18"
"","","","feedback","6404fb7b9a7b3cfb4179d185","bdp_trlrn","Tue Mar 14 2023 00:10:11 GMT-0400 (Eastern Daylight Time)","1247726","Trustworthy,Untrustworthy","html-keyboard-response","191","787782","0.0-19.0-3.17","","null","","<div class='trialDiv'><img src='trustrating_stim/white_00785_941205_fb_edt.bmp'><br><font class='baseline'><strong>Chris</strong><p>Received: <strong>4</strong></font> &nbsp; &nbsp; &nbsp; &nbsp; &nbsp; &nbsp;<font class='posOutcome'>Shared back: <strong>2</strong></font></font><div class='respPicDiv'><img src='img/responseButtonOffersNo0_wht.png' class='respPic'></div></div>","null","","6","Chris","4","Shared","0.8,0.35","13","0.8","trustrating_stim/white_00785_941205_fb_edt.bmp","5","75","18"
"","","","decision","6404fb7b9a7b3cfb4179d185","bdp_trlrn","Tue Mar 14 2023 00:10:11 GMT-0400 (Eastern Daylight Time)","1247726","Trustworthy,Untrustworthy","html-keyboard-response","192","789497","0.0-19.0-1.18","","1714","","<div class='trialDiv'><img src='trustrating_stim/white_mw049.bmp'><br><font class='baseline'><strong>Marcus</strong><p>Choose number of points to send.</font><div class='respPicDiv'><img src='img/responseButtonOffersNo0L.png' class='respPic'></div></div>","1","","7","Marcus","0","Shared","0.65,0.35","11","0.65","trustrating_stim/white_mw049.bmp","3.5","80","19"
"","","","decisionFB","6404fb7b9a7b3cfb4179d185","bdp_trlrn","Tue Mar 14 2023 00:10:11 GMT-0400 (Eastern Daylight Time)","1247726","Trustworthy,Untrustworthy","html-keyboard-response","193","789757","0.0-19.0-2.18","","null","","<div class='trialDiv'><img src='trustrating_stim/white_mw049.bmp'><br><font class='baseline'><strong>Marcus</strong><p>Choose number of points to send.</font><div class='respPicDiv'><img src='img/responseButtonOffersNo0L1.png' class='respPic'></div></div>","null","","7","Marcus","0","Shared","0.65,0.35","11","0.65","trustrating_stim/white_mw049.bmp","3.5","79","19"
"","","","feedback","6404fb7b9a7b3cfb4179d185","bdp_trlrn","Tue Mar 14 2023 00:10:11 GMT-0400 (Eastern Daylight Time)","1247726","Trustworthy,Untrustworthy","html-keyboard-response","194","790764","0.0-19.0-3.18","","null","","<div class='trialDiv'><img src='trustrating_stim/white_mw049.bmp'><br><font class='baseline'><strong>Marcus</strong><p>Received: <strong>4</strong></font> &nbsp; &nbsp; &nbsp; &nbsp; &nbsp; &nbsp;<font class='posOutcome'>Shared back: <strong>2</strong></font></font><div class='respPicDiv'><img src='img/responseButtonOffersNo0_wht.png' class='respPic'></div></div>","null","","7","Marcus","0","Shared","0.65,0.35","11","0.65","trustrating_stim/white_mw049.bmp","3.5","81","19"
"","","","decision","6404fb7b9a7b3cfb4179d185","bdp_trlrn","Tue Mar 14 2023 00:10:11 GMT-0400 (Eastern Daylight Time)","1247726","Trustworthy,Untrustworthy","html-keyboard-response","195","794997","0.0-19.0-1.19","","4232","","<div class='trialDiv'><img src='trustrating_stim/white_00785_941205_fb_edt.bmp'><br><font class='baseline'><strong>Chris</strong><p>Choose number of points to send.</font><div class='respPicDiv'><img src='img/responseButtonOffersNo0L.png' class='respPic'></div></div>","3","","7","Chris","4","Shared","0.8,0.35","13","0.8","trustrating_stim/white_00785_941205_fb_edt.bmp","5","86","20"
"","","","decisionFB","6404fb7b9a7b3cfb4179d185","bdp_trlrn","Tue Mar 14 2023 00:10:11 GMT-0400 (Eastern Daylight Time)","1247726","Trustworthy,Untrustworthy","html-keyboard-response","196","795263","0.0-19.0-2.19","","null","","<div class='trialDiv'><img src='trustrating_stim/white_00785_941205_fb_edt.bmp'><br><font class='baseline'><strong>Chris</strong><p>Choose number of points to send.</font><div class='respPicDiv'><img src='img/responseButtonOffersNo0L3.png' class='respPic'></div></div>","null","","7","Chris","4","Shared","0.8,0.35","13","0.8","trustrating_stim/white_00785_941205_fb_edt.bmp","5","83","20"
"","","","feedback","6404fb7b9a7b3cfb4179d185","bdp_trlrn","Tue Mar 14 2023 00:10:11 GMT-0400 (Eastern Daylight Time)","1247726","Trustworthy,Untrustworthy","html-keyboard-response","197","796263","0.0-19.0-3.19","","null","","<div class='trialDiv'><img src='trustrating_stim/white_00785_941205_fb_edt.bmp'><br><font class='baseline'><strong>Chris</strong><p>Received: <strong>12</strong></font> &nbsp; &nbsp; &nbsp; &nbsp; &nbsp; &nbsp;<font class='posOutcome'>Shared back: <strong>6</strong></font></font><div class='respPicDiv'><img src='img/responseButtonOffersNo0_wht.png' class='respPic'></div></div>","null","","7","Chris","4","Shared","0.8,0.35","13","0.8","trustrating_stim/white_00785_941205_fb_edt.bmp","5","89","20"
"","","","decision","6404fb7b9a7b3cfb4179d185","bdp_trlrn","Tue Mar 14 2023 00:10:11 GMT-0400 (Eastern Daylight Time)","1247726","Trustworthy,Untrustworthy","html-keyboard-response","198","799835","0.0-19.0-1.20","","3571","","<div class='trialDiv'><img src='trustrating_stim/white_mw048.bmp'><br><font class='baseline'><strong>James</strong><p>Choose number of points to send.</font><div class='respPicDiv'><img src='img/responseButtonOffersNo0L.png' class='respPic'></div></div>","2","","7","James","9","Kept","0.2,0.65","8","0.2","trustrating_stim/white_mw048.bmp","8","94","21"
"","","","decisionFB","6404fb7b9a7b3cfb4179d185","bdp_trlrn","Tue Mar 14 2023 00:10:11 GMT-0400 (Eastern Daylight Time)","1247726","Trustworthy,Untrustworthy","html-keyboard-response","199","800088","0.0-19.0-2.20","","null","","<div class='trialDiv'><img src='trustrating_stim/white_mw048.bmp'><br><font class='baseline'><strong>James</strong><p>Choose number of points to send.</font><div class='respPicDiv'><img src='img/responseButtonOffersNo0L2.png' class='respPic'></div></div>","null","","7","James","9","Kept","0.2,0.65","8","0.2","trustrating_stim/white_mw048.bmp","8","92","21"
"","","","feedback","6404fb7b9a7b3cfb4179d185","bdp_trlrn","Tue Mar 14 2023 00:10:11 GMT-0400 (Eastern Daylight Time)","1247726","Trustworthy,Untrustworthy","html-keyboard-response","200","801089","0.0-19.0-3.20","","null","","<div class='trialDiv'><img src='trustrating_stim/white_mw048.bmp'><br><font class='baseline'><strong>James</strong><p>Received: <strong>8</strong></font> &nbsp; &nbsp; &nbsp; &nbsp; &nbsp; &nbsp;<font class='negOutcome'>Shared back: <strong>0</strong></font></font><div class='respPicDiv'><img src='img/responseButtonOffersNo0_wht.png' class='respPic'></div></div>","null","","7","James","9","Kept","0.2,0.65","8","0.2","trustrating_stim/white_mw048.bmp","8","92","21"
"","","","decision","6404fb7b9a7b3cfb4179d185","bdp_trlrn","Tue Mar 14 2023 00:10:11 GMT-0400 (Eastern Daylight Time)","1247726","Trustworthy,Untrustworthy","html-keyboard-response","201","804680","0.0-19.0-1.21","","3590","","<div class='trialDiv'><img src='trustrating_stim/white_mw049.bmp'><br><font class='baseline'><strong>Marcus</strong><p>Choose number of points to send.</font><div class='respPicDiv'><img src='img/responseButtonOffersNo0L.png' class='respPic'></div></div>","1","","8","Marcus","0","Kept","0.65,0.35","11","0.65","trustrating_stim/white_mw049.bmp","3.5","97","22"
"","","","decisionFB","6404fb7b9a7b3cfb4179d185","bdp_trlrn","Tue Mar 14 2023 00:10:11 GMT-0400 (Eastern Daylight Time)","1247726","Trustworthy,Untrustworthy","html-keyboard-response","202","804943","0.0-19.0-2.21","","null","","<div class='trialDiv'><img src='trustrating_stim/white_mw049.bmp'><br><font class='baseline'><strong>Marcus</strong><p>Choose number of points to send.</font><div class='respPicDiv'><img src='img/responseButtonOffersNo0L1.png' class='respPic'></div></div>","null","","8","Marcus","0","Kept","0.65,0.35","11","0.65","trustrating_stim/white_mw049.bmp","3.5","96","22"
"","","","feedback","6404fb7b9a7b3cfb4179d185","bdp_trlrn","Tue Mar 14 2023 00:10:11 GMT-0400 (Eastern Daylight Time)","1247726","Trustworthy,Untrustworthy","html-keyboard-response","203","805956","0.0-19.0-3.21","","null","","<div class='trialDiv'><img src='trustrating_stim/white_mw049.bmp'><br><font class='baseline'><strong>Marcus</strong><p>Received: <strong>4</strong></font> &nbsp; &nbsp; &nbsp; &nbsp; &nbsp; &nbsp;<font class='negOutcome'>Shared back: <strong>0</strong></font></font><div class='respPicDiv'><img src='img/responseButtonOffersNo0_wht.png' class='respPic'></div></div>","null","","8","Marcus","0","Kept","0.65,0.35","11","0.65","trustrating_stim/white_mw049.bmp","3.5","96","22"
"","","","decision","6404fb7b9a7b3cfb4179d185","bdp_trlrn","Tue Mar 14 2023 00:10:11 GMT-0400 (Eastern Daylight Time)","1247726","Trustworthy,Untrustworthy","html-keyboard-response","204","812444","0.0-19.0-1.22","","6487","","<div class='trialDiv'><img src='trustrating_stim/white_00785_941205_fb_edt.bmp'><br><font class='baseline'><strong>Chris</strong><p>Choose number of points to send.</font><div class='respPicDiv'><img src='img/responseButtonOffersNo0L.png' class='respPic'></div></div>","5","","8","Chris","4","Kept","0.8,0.35","13","0.8","trustrating_stim/white_00785_941205_fb_edt.bmp","5","101","23"
"","","","decisionFB","6404fb7b9a7b3cfb4179d185","bdp_trlrn","Tue Mar 14 2023 00:10:11 GMT-0400 (Eastern Daylight Time)","1247726","Trustworthy,Untrustworthy","html-keyboard-response","205","812706","0.0-19.0-2.22","","null","","<div class='trialDiv'><img src='trustrating_stim/white_00785_941205_fb_edt.bmp'><br><font class='baseline'><strong>Chris</strong><p>Choose number of points to send.</font><div class='respPicDiv'><img src='img/responseButtonOffersNo0L5.png' class='respPic'></div></div>","null","","8","Chris","4","Kept","0.8,0.35","13","0.8","trustrating_stim/white_00785_941205_fb_edt.bmp","5","96","23"
"","","","feedback","6404fb7b9a7b3cfb4179d185","bdp_trlrn","Tue Mar 14 2023 00:10:11 GMT-0400 (Eastern Daylight Time)","1247726","Trustworthy,Untrustworthy","html-keyboard-response","206","813722","0.0-19.0-3.22","","null","","<div class='trialDiv'><img src='trustrating_stim/white_00785_941205_fb_edt.bmp'><br><font class='baseline'><strong>Chris</strong><p>Received: <strong>20</strong></font> &nbsp; &nbsp; &nbsp; &nbsp; &nbsp; &nbsp;<font class='negOutcome'>Shared back: <strong>0</strong></font></font><div class='respPicDiv'><img src='img/responseButtonOffersNo0_wht.png' class='respPic'></div></div>","null","","8","Chris","4","Kept","0.8,0.35","13","0.8","trustrating_stim/white_00785_941205_fb_edt.bmp","5","96","23"
"","","","decision","6404fb7b9a7b3cfb4179d185","bdp_trlrn","Tue Mar 14 2023 00:10:11 GMT-0400 (Eastern Daylight Time)","1247726","Trustworthy,Untrustworthy","html-keyboard-response","207","818941","0.0-19.0-1.23","","5218","","<div class='trialDiv'><img src='trustrating_stim/white_mw048.bmp'><br><font class='baseline'><strong>James</strong><p>Choose number of points to send.</font><div class='respPicDiv'><img src='img/responseButtonOffersNo0L.png' class='respPic'></div></div>","1","","8","James","9","Kept","0.2,0.65","8","0.2","trustrating_stim/white_mw048.bmp","8","101","24"
"","","","decisionFB","6404fb7b9a7b3cfb4179d185","bdp_trlrn","Tue Mar 14 2023 00:10:11 GMT-0400 (Eastern Daylight Time)","1247726","Trustworthy,Untrustworthy","html-keyboard-response","208","819198","0.0-19.0-2.23","","null","","<div class='trialDiv'><img src='trustrating_stim/white_mw048.bmp'><br><font class='baseline'><strong>James</strong><p>Choose number of points to send.</font><div class='respPicDiv'><img src='img/responseButtonOffersNo0L1.png' class='respPic'></div></div>","null","","8","James","9","Kept","0.2,0.65","8","0.2","trustrating_stim/white_mw048.bmp","8","100","24"
"","","","feedback","6404fb7b9a7b3cfb4179d185","bdp_trlrn","Tue Mar 14 2023 00:10:11 GMT-0400 (Eastern Daylight Time)","1247726","Trustworthy,Untrustworthy","html-keyboard-response","209","820204","0.0-19.0-3.23","","null","","<div class='trialDiv'><img src='trustrating_stim/white_mw048.bmp'><br><font class='baseline'><strong>James</strong><p>Received: <strong>4</strong></font> &nbsp; &nbsp; &nbsp; &nbsp; &nbsp; &nbsp;<font class='negOutcome'>Shared back: <strong>0</strong></font></font><div class='respPicDiv'><img src='img/responseButtonOffersNo0_wht.png' class='respPic'></div></div>","null","","8","James","9","Kept","0.2,0.65","8","0.2","trustrating_stim/white_mw048.bmp","8","100","24"
"","","","decision","6404fb7b9a7b3cfb4179d185","bdp_trlrn","Tue Mar 14 2023 00:10:11 GMT-0400 (Eastern Daylight Time)","1247726","Trustworthy,Untrustworthy","html-keyboard-response","210","825120","0.0-19.0-1.24","","4916","","<div class='trialDiv'><img src='trustrating_stim/white_00785_941205_fb_edt.bmp'><br><font class='baseline'><strong>Chris</strong><p>Choose number of points to send.</font><div class='respPicDiv'><img src='img/responseButtonOffersNo0L.png' class='respPic'></div></div>","1","","9","Chris","4","Shared","0.8,0.35","13","0.8","trustrating_stim/white_00785_941205_fb_edt.bmp","5","105","25"
"","","","decisionFB","6404fb7b9a7b3cfb4179d185","bdp_trlrn","Tue Mar 14 2023 00:10:11 GMT-0400 (Eastern Daylight Time)","1247726","Trustworthy,Untrustworthy","html-keyboard-response","211","825377","0.0-19.0-2.24","","null","","<div class='trialDiv'><img src='trustrating_stim/white_00785_941205_fb_edt.bmp'><br><font class='baseline'><strong>Chris</strong><p>Choose number of points to send.</font><div class='respPicDiv'><img src='img/responseButtonOffersNo0L1.png' class='respPic'></div></div>","null","","9","Chris","4","Shared","0.8,0.35","13","0.8","trustrating_stim/white_00785_941205_fb_edt.bmp","5","104","25"
"","","","feedback","6404fb7b9a7b3cfb4179d185","bdp_trlrn","Tue Mar 14 2023 00:10:11 GMT-0400 (Eastern Daylight Time)","1247726","Trustworthy,Untrustworthy","html-keyboard-response","212","826379","0.0-19.0-3.24","","null","","<div class='trialDiv'><img src='trustrating_stim/white_00785_941205_fb_edt.bmp'><br><font class='baseline'><strong>Chris</strong><p>Received: <strong>4</strong></font> &nbsp; &nbsp; &nbsp; &nbsp; &nbsp; &nbsp;<font class='posOutcome'>Shared back: <strong>2</strong></font></font><div class='respPicDiv'><img src='img/responseButtonOffersNo0_wht.png' class='respPic'></div></div>","null","","9","Chris","4","Shared","0.8,0.35","13","0.8","trustrating_stim/white_00785_941205_fb_edt.bmp","5","106","25"
"","","","decision","6404fb7b9a7b3cfb4179d185","bdp_trlrn","Tue Mar 14 2023 00:10:11 GMT-0400 (Eastern Daylight Time)","1247726","Trustworthy,Untrustworthy","html-keyboard-response","213","831719","0.0-19.0-1.25","","5339","","<div class='trialDiv'><img src='trustrating_stim/white_mw048.bmp'><br><font class='baseline'><strong>James</strong><p>Choose number of points to send.</font><div class='respPicDiv'><img src='img/responseButtonOffersNo0L.png' class='respPic'></div></div>","3","","9","James","9","Shared","0.2,0.65","8","0.2","trustrating_stim/white_mw048.bmp","8","111","26"
"","","","decisionFB","6404fb7b9a7b3cfb4179d185","bdp_trlrn","Tue Mar 14 2023 00:10:11 GMT-0400 (Eastern Daylight Time)","1247726","Trustworthy,Untrustworthy","html-keyboard-response","214","831981","0.0-19.0-2.25","","null","","<div class='trialDiv'><img src='trustrating_stim/white_mw048.bmp'><br><font class='baseline'><strong>James</strong><p>Choose number of points to send.</font><div class='respPicDiv'><img src='img/responseButtonOffersNo0L3.png' class='respPic'></div></div>","null","","9","James","9","Shared","0.2,0.65","8","0.2","trustrating_stim/white_mw048.bmp","8","108","26"
"","","","feedback","6404fb7b9a7b3cfb4179d185","bdp_trlrn","Tue Mar 14 2023 00:10:11 GMT-0400 (Eastern Daylight Time)","1247726","Trustworthy,Untrustworthy","html-keyboard-response","215","832994","0.0-19.0-3.25","","null","","<div class='trialDiv'><img src='trustrating_stim/white_mw048.bmp'><br><font class='baseline'><strong>James</strong><p>Received: <strong>12</strong></font> &nbsp; &nbsp; &nbsp; &nbsp; &nbsp; &nbsp;<font class='posOutcome'>Shared back: <strong>6</strong></font></font><div class='respPicDiv'><img src='img/responseButtonOffersNo0_wht.png' class='respPic'></div></div>","null","","9","James","9","Shared","0.2,0.65","8","0.2","trustrating_stim/white_mw048.bmp","8","114","26"
"","","","decision","6404fb7b9a7b3cfb4179d185","bdp_trlrn","Tue Mar 14 2023 00:10:11 GMT-0400 (Eastern Daylight Time)","1247726","Trustworthy,Untrustworthy","html-keyboard-response","216","834551","0.0-19.0-1.26","","1556","","<div class='trialDiv'><img src='trustrating_stim/white_mw049.bmp'><br><font class='baseline'><strong>Marcus</strong><p>Choose number of points to send.</font><div class='respPicDiv'><img src='img/responseButtonOffersNo0L.png' class='respPic'></div></div>","3","","9","Marcus","0","Shared","0.65,0.35","11","0.65","trustrating_stim/white_mw049.bmp","3.5","119","27"
